"acc","accuracy","average_response_time","avg_rt","background","block","canvas_backend","clock_backend","color_backend","compensation","coordinates","correct","correct_instruction1","correct_keyboard_response","correct_response","count_ISI","count_correctFeedback","count_expSequence","count_experiment","count_experimentLoop","count_fixation","count_incorrectFeedback","count_instruction1","count_instructions2","count_keyboard_response","count_logger","count_memorySet","count_practiceLoop","count_probe","count_thankYou","datetime","description","disable_garbage_collection","experiment_file","experiment_path","font_bold","font_family","font_italic","font_size","font_underline","foreground","form_clicks","fullscreen","height","keyboard_backend","live_row","live_row_practiceLoop","logfile","mouse_backend","numberSet","opensesame_codename","opensesame_version","posInSet","present","repeat_cycle","response","response_instruction1","response_instructions2","response_keyboard_response","response_thankYou","response_time","response_time_instruction1","response_time_instructions2","response_time_keyboard_response","response_time_thankYou","round_decimals","sampler_backend","setSize","sound_buf_size","sound_channels","sound_freq","sound_sample_size","start","subject_nr","subject_parity","target","time_ISI","time_correctFeedback","time_expSequence","time_experiment","time_experimentLoop","time_fixation","time_incorrectFeedback","time_instruction1","time_instructions2","time_keyboard_response","time_logger","time_memorySet","time_practiceLoop","time_probe","time_thankYou","title","total_correct","total_response_time","total_responses","uniform_coordinates","width"
"0","0","2000","2000","black","practice","legacy","legacy","legacy","0","uniform","0","undefined","0","right","0","0","0","0","0","0","0","0","0","0","0","0","0","0","0","Sun Oct 25 16:21:28 2020","The main experiment item","yes","Sternberg task-5.osexp","C:\Users\Elaine\AppData\Local\Temp","no","mono","no","18","no","white","no","yes","768","legacy","0","0","C:/Users/Elaine/Desktop/subject-4.csv","legacy","5","Lentiform Loewenfeld","3.3.3","0","n","0","None","right","NA","None","NA","2000","108409","NA","2000","NA","2","legacy","1","1024","2","48000","-16","experiment","4","even","3","116913","NA","114699","4774","NA","114701","NA","4785","NA","118920","120920","115708","113195","118919","NA","Sternberg task","0","2000","1","yes","1024"
"50","50","1574","1574","black","practice","legacy","legacy","legacy","0","uniform","1","undefined","1","left","1","1","1","0","0","1","1","0","0","1","1","1","0","1","0","Sun Oct 25 16:21:28 2020","The main experiment item","yes","Sternberg task-5.osexp","C:\Users\Elaine\AppData\Local\Temp","no","mono","no","18","no","white","no","yes","768","legacy","1","1","C:/Users/Elaine/Desktop/subject-4.csv","legacy","6","Lentiform Loewenfeld","3.3.3","1","y","0","left","right","NA","left","NA","1148","108409","NA","1148","NA","2","legacy","1","1024","2","48000","-16","experiment","4","even","6","124327","NA","122114","4774","NA","122116","120973","4785","NA","126335","127484","123121","113195","126334","NA","Sternberg task","1","3148","2","yes","1024"
"66.66666666666667","66.66666666666667","1439.3333333333333","1439.3333333333333","black","practice","legacy","legacy","legacy","0","uniform","1","undefined","1","right","2","2","2","0","0","2","2","0","0","2","2","2","0","2","0","Sun Oct 25 16:21:28 2020","The main experiment item","yes","Sternberg task-5.osexp","C:\Users\Elaine\AppData\Local\Temp","no","mono","no","18","no","white","no","yes","768","legacy","2","2","C:/Users/Elaine/Desktop/subject-4.csv","legacy","4 1 5","Lentiform Loewenfeld","3.3.3","0","n","0","right","right","NA","right","NA","1170","108409","NA","1170","NA","2","legacy","3","1024","2","48000","-16","experiment","4","even","2","130838","127490","128631","4774","NA","128633","120973","4785","NA","132843","134014","129635","113195","132843","NA","Sternberg task","2","4318","3","yes","1024"
"75","75","1353.5","1353.5","black","practice","legacy","legacy","legacy","0","uniform","1","undefined","1","left","3","3","3","0","0","3","3","0","0","3","3","3","0","3","0","Sun Oct 25 16:21:28 2020","The main experiment item","yes","Sternberg task-5.osexp","C:\Users\Elaine\AppData\Local\Temp","no","mono","no","18","no","white","no","yes","768","legacy","3","3","C:/Users/Elaine/Desktop/subject-4.csv","legacy","4 8","Lentiform Loewenfeld","3.3.3","1","y","0","left","right","NA","left","NA","1096","108409","NA","1096","NA","2","legacy","2","1024","2","48000","-16","experiment","4","even","4","137380","134033","135166","4774","NA","135169","120973","4785","NA","139387","140484","136175","113195","139387","NA","Sternberg task","3","5414","4","yes","1024"
"80","80","1312","1312","black","practice","legacy","legacy","legacy","0","uniform","1","undefined","1","left","4","4","4","0","0","4","4","0","0","4","4","4","0","4","0","Sun Oct 25 16:21:28 2020","The main experiment item","yes","Sternberg task-5.osexp","C:\Users\Elaine\AppData\Local\Temp","no","mono","no","18","no","white","no","yes","768","legacy","4","4","C:/Users/Elaine/Desktop/subject-4.csv","legacy","2 9 4","Lentiform Loewenfeld","3.3.3","3","y","0","left","right","NA","left","NA","1146","108409","NA","1146","NA","2","legacy","3","1024","2","48000","-16","experiment","4","even","4","143855","140492","141641","4774","NA","141643","120973","4785","NA","145862","147008","142649","113195","145860","NA","Sternberg task","4","6560","5","yes","1024"
"83.33333333333333","83.33333333333333","1201.6666666666667","1201.6666666666667","black","practice","legacy","legacy","legacy","0","uniform","1","undefined","1","right","5","5","5","0","0","5","5","0","0","5","5","5","0","5","0","Sun Oct 25 16:21:28 2020","The main experiment item","yes","Sternberg task-5.osexp","C:\Users\Elaine\AppData\Local\Temp","no","mono","no","18","no","white","no","yes","768","legacy","5","5","C:/Users/Elaine/Desktop/subject-4.csv","legacy","3 1 9 4","Lentiform Loewenfeld","3.3.3","0","n","0","right","right","NA","right","NA","650","108409","NA","650","NA","2","legacy","4","1024","2","48000","-16","experiment","4","even","6","150355","147016","148143","4774","NA","148145","120973","4785","NA","152363","153014","149150","113195","152362","NA","Sternberg task","5","7210","6","yes","1024"
"71.42857142857143","71.42857142857143","1237.2857142857142","1237.2857142857142","black","practice","legacy","legacy","legacy","0","uniform","0","undefined","0","right","6","6","6","0","0","6","6","0","0","6","6","6","0","6","0","Sun Oct 25 16:21:28 2020","The main experiment item","yes","Sternberg task-5.osexp","C:\Users\Elaine\AppData\Local\Temp","no","mono","no","18","no","white","no","yes","768","legacy","6","6","C:/Users/Elaine/Desktop/subject-4.csv","legacy","9 6 7 4 5","Lentiform Loewenfeld","3.3.3","0","n","0","left","right","NA","left","NA","1451","108409","NA","1451","NA","2","legacy","5","1024","2","48000","-16","experiment","4","even","3","156385","153028","154171","4774","NA","154173","120973","4785","NA","158391","159843","155180","113195","158390","NA","Sternberg task","5","8661","7","yes","1024"
"75","75","1251.25","1251.25","black","practice","legacy","legacy","legacy","0","uniform","1","undefined","1","right","7","7","7","0","0","7","7","0","0","7","7","7","0","7","0","Sun Oct 25 16:21:28 2020","The main experiment item","yes","Sternberg task-5.osexp","C:\Users\Elaine\AppData\Local\Temp","no","mono","no","18","no","white","no","yes","768","legacy","7","7","C:/Users/Elaine/Desktop/subject-4.csv","legacy","5 7 8 4 1 2","Lentiform Loewenfeld","3.3.3","0","n","0","right","right","NA","right","NA","1349","108409","NA","1349","NA","2","legacy","6","1024","2","48000","-16","experiment","4","even","6","163209","153028","160994","4774","NA","160997","159851","4785","NA","165217","166567","162002","113195","165215","NA","Sternberg task","6","10010","8","yes","1024"
"77.77777777777777","77.77777777777777","1186.4444444444443","1186.4444444444443","black","practice","legacy","legacy","legacy","0","uniform","1","undefined","1","left","8","8","8","0","0","8","8","0","0","8","8","8","0","8","0","Sun Oct 25 16:21:28 2020","The main experiment item","yes","Sternberg task-5.osexp","C:\Users\Elaine\AppData\Local\Temp","no","mono","no","18","no","white","no","yes","768","legacy","8","8","C:/Users/Elaine/Desktop/subject-4.csv","legacy","1 5 2 9","Lentiform Loewenfeld","3.3.3","2","y","0","left","right","NA","left","NA","668","108409","NA","668","NA","2","legacy","4","1024","2","48000","-16","experiment","4","even","5","169928","166576","167719","4774","NA","167721","159851","4785","NA","171933","172602","168723","113195","171933","NA","Sternberg task","7","10678","9","yes","1024"
"80","80","1214.9","1214.9","black","practice","legacy","legacy","legacy","0","uniform","1","undefined","1","right","9","9","9","0","0","9","9","0","0","9","9","9","0","9","0","Sun Oct 25 16:21:28 2020","The main experiment item","yes","Sternberg task-5.osexp","C:\Users\Elaine\AppData\Local\Temp","no","mono","no","18","no","white","no","yes","768","legacy","9","9","C:/Users/Elaine/Desktop/subject-4.csv","legacy","2 1","Lentiform Loewenfeld","3.3.3","0","n","0","right","right","NA","right","NA","1471","108409","NA","1471","NA","2","legacy","2","1024","2","48000","-16","experiment","4","even","5","175954","172611","173740","4774","NA","173742","159851","4785","NA","177960","179432","174748","113195","177960","NA","Sternberg task","8","12149","10","yes","1024"
"81.81818181818181","81.81818181818181","1260.6363636363637","1260.6363636363637","black","practice","legacy","legacy","legacy","0","uniform","1","undefined","1","left","10","10","10","0","0","10","10","0","0","10","10","10","0","10","0","Sun Oct 25 16:21:28 2020","The main experiment item","yes","Sternberg task-5.osexp","C:\Users\Elaine\AppData\Local\Temp","no","mono","no","18","no","white","no","yes","768","legacy","10","10","C:/Users/Elaine/Desktop/subject-4.csv","legacy","4 3 1 7 9 8","Lentiform Loewenfeld","3.3.3","1","y","0","left","right","NA","left","NA","1718","108409","NA","1718","NA","2","legacy","6","1024","2","48000","-16","experiment","4","even","4","182796","179441","180583","4774","NA","180585","159851","4785","NA","184803","186522","181591","113195","184803","NA","Sternberg task","9","13867","11","yes","1024"
"75","75","1251.9166666666667","1251.9166666666667","black","practice","legacy","legacy","legacy","0","uniform","0","undefined","0","left","11","11","11","0","0","11","11","0","0","11","11","11","0","11","0","Sun Oct 25 16:21:28 2020","The main experiment item","yes","Sternberg task-5.osexp","C:\Users\Elaine\AppData\Local\Temp","no","mono","no","18","no","white","no","yes","768","legacy","11","11","C:/Users/Elaine/Desktop/subject-4.csv","legacy","1 7 9 8 5","Lentiform Loewenfeld","3.3.3","4","y","0","right","right","NA","right","NA","1156","108409","NA","1156","NA","2","legacy","5","1024","2","48000","-16","experiment","4","even","8","189883","186537","187669","4774","NA","187671","159851","4785","NA","191885","193042","188677","113195","191884","NA","Sternberg task","9","15023","12","yes","1024"
"76.92307692307692","76.92307692307692","1211.923076923077","1211.923076923077","black","experiment","legacy","legacy","legacy","0","uniform","1","undefined","1","right","12","12","12","0","0","12","12","0","0","12","12","12","0","12","0","Sun Oct 25 16:21:28 2020","The main experiment item","yes","Sternberg task-5.osexp","C:\Users\Elaine\AppData\Local\Temp","no","mono","no","18","no","white","no","yes","768","legacy","0","11","C:/Users/Elaine/Desktop/subject-4.csv","legacy","1 5 3 2 8","Lentiform Loewenfeld","3.3.3","0","n","0","right","right","left","right","NA","732","108409","8358","732","NA","2","legacy","5","1024","2","48000","-16","experiment","4","even","4","204788","186537","202576","4774","202472","202578","193057","4785","194114","206794","207527","203583","113195","206793","NA","Sternberg task","10","15755","13","yes","1024"
"71.42857142857143","71.42857142857143","1193.857142857143","1193.857142857143","black","experiment","legacy","legacy","legacy","0","uniform","0","undefined","0","right","13","13","13","0","0","13","13","0","0","13","13","13","0","13","0","Sun Oct 25 16:21:28 2020","The main experiment item","yes","Sternberg task-5.osexp","C:\Users\Elaine\AppData\Local\Temp","no","mono","no","18","no","white","no","yes","768","legacy","1","11","C:/Users/Elaine/Desktop/subject-4.csv","legacy","8 6 3 4 7","Lentiform Loewenfeld","3.3.3","0","n","0","left","right","left","left","NA","959","108409","8358","959","NA","2","legacy","5","1024","2","48000","-16","experiment","4","even","1","210882","207535","208668","4774","202472","208670","193057","4785","194114","212887","213847","209675","113195","212887","NA","Sternberg task","10","16714","14","yes","1024"
"73.33333333333333","73.33333333333333","1159.5333333333333","1159.5333333333333","black","experiment","legacy","legacy","legacy","0","uniform","1","undefined","1","right","14","14","14","0","0","14","14","0","0","14","14","14","0","14","0","Sun Oct 25 16:21:28 2020","The main experiment item","yes","Sternberg task-5.osexp","C:\Users\Elaine\AppData\Local\Temp","no","mono","no","18","no","white","no","yes","768","legacy","2","11","C:/Users/Elaine/Desktop/subject-4.csv","legacy","6 9 4 5 2","Lentiform Loewenfeld","3.3.3","0","n","0","right","right","left","right","NA","679","108409","8358","679","NA","2","legacy","5","1024","2","48000","-16","experiment","4","even","1","217216","207535","215001","4774","202472","215003","213854","4785","194114","219221","219901","216009","113195","219221","NA","Sternberg task","11","17393","15","yes","1024"
"68.75","68.75","1118.25","1118.25","black","experiment","legacy","legacy","legacy","0","uniform","0","undefined","0","left","15","15","15","0","0","15","15","0","0","15","15","15","0","15","0","Sun Oct 25 16:21:28 2020","The main experiment item","yes","Sternberg task-5.osexp","C:\Users\Elaine\AppData\Local\Temp","no","mono","no","18","no","white","no","yes","768","legacy","3","11","C:/Users/Elaine/Desktop/subject-4.csv","legacy","4","Lentiform Loewenfeld","3.3.3","1","y","0","right","right","left","right","NA","499","108409","8358","499","NA","2","legacy","1","1024","2","48000","-16","experiment","4","even","4","223249","219921","221044","4774","202472","221046","213854","4785","194114","225256","225756","222048","113195","225256","NA","Sternberg task","11","17892","16","yes","1024"
"64.70588235294117","64.70588235294117","1151.0588235294117","1151.0588235294117","black","experiment","legacy","legacy","legacy","0","uniform","0","undefined","0","left","16","16","16","0","0","16","16","0","0","16","16","16","0","16","0","Sun Oct 25 16:21:28 2020","The main experiment item","yes","Sternberg task-5.osexp","C:\Users\Elaine\AppData\Local\Temp","no","mono","no","18","no","white","no","yes","768","legacy","4","11","C:/Users/Elaine/Desktop/subject-4.csv","legacy","4 9 7 8 5 3","Lentiform Loewenfeld","3.3.3","4","y","0","right","right","left","right","NA","1676","108409","8358","1676","NA","2","legacy","6","1024","2","48000","-16","experiment","4","even","8","229133","219921","226921","4774","202472","226923","225768","4785","194114","231139","232815","227927","113195","231138","NA","Sternberg task","11","19568","17","yes","1024"
"66.66666666666667","66.66666666666667","1138.7777777777778","1138.7777777777778","black","experiment","legacy","legacy","legacy","0","uniform","1","undefined","1","left","17","17","17","0","0","17","17","0","0","17","17","17","0","17","0","Sun Oct 25 16:21:28 2020","The main experiment item","yes","Sternberg task-5.osexp","C:\Users\Elaine\AppData\Local\Temp","no","mono","no","18","no","white","no","yes","768","legacy","5","11","C:/Users/Elaine/Desktop/subject-4.csv","legacy","9 4 2","Lentiform Loewenfeld","3.3.3","1","y","0","left","right","left","left","NA","930","108409","8358","930","NA","2","legacy","3","1024","2","48000","-16","experiment","4","even","9","236172","219921","233960","4774","202472","233962","232821","4785","194114","238179","239111","234968","113195","238178","NA","Sternberg task","12","20498","18","yes","1024"
"68.42105263157895","68.42105263157895","1141.578947368421","1141.578947368421","black","experiment","legacy","legacy","legacy","0","uniform","1","undefined","1","left","18","18","18","0","0","18","18","0","0","18","18","18","0","18","0","Sun Oct 25 16:21:28 2020","The main experiment item","yes","Sternberg task-5.osexp","C:\Users\Elaine\AppData\Local\Temp","no","mono","no","18","no","white","no","yes","768","legacy","6","11","C:/Users/Elaine/Desktop/subject-4.csv","legacy","8 5 4 7 3 1","Lentiform Loewenfeld","3.3.3","2","y","0","left","right","left","left","NA","1192","108409","8358","1192","NA","2","legacy","6","1024","2","48000","-16","experiment","4","even","5","242461","239119","240247","4774","202472","240250","232821","4785","194114","244467","245660","241255","113195","244467","NA","Sternberg task","13","21690","19","yes","1024"
"70","70","1128.8","1128.8","black","experiment","legacy","legacy","legacy","0","uniform","1","undefined","1","left","19","19","19","0","0","19","19","0","0","19","19","19","0","19","0","Sun Oct 25 16:21:28 2020","The main experiment item","yes","Sternberg task-5.osexp","C:\Users\Elaine\AppData\Local\Temp","no","mono","no","18","no","white","no","yes","768","legacy","7","11","C:/Users/Elaine/Desktop/subject-4.csv","legacy","9 1 7 2","Lentiform Loewenfeld","3.3.3","2","y","0","left","right","left","left","NA","886","108409","8358","886","NA","2","legacy","4","1024","2","48000","-16","experiment","4","even","1","249025","245669","246812","4774","202472","246815","232821","4785","194114","251029","251916","247820","113195","251029","NA","Sternberg task","14","22576","20","yes","1024"
"71.42857142857143","71.42857142857143","1146.047619047619","1146.047619047619","black","experiment","legacy","legacy","legacy","0","uniform","1","undefined","1","left","20","20","20","0","0","20","20","0","0","20","20","20","0","20","0","Sun Oct 25 16:21:28 2020","The main experiment item","yes","Sternberg task-5.osexp","C:\Users\Elaine\AppData\Local\Temp","no","mono","no","18","no","white","no","yes","768","legacy","8","11","C:/Users/Elaine/Desktop/subject-4.csv","legacy","1 4 9 3 2 5","Lentiform Loewenfeld","3.3.3","3","y","0","left","right","left","left","NA","1491","108409","8358","1491","NA","2","legacy","6","1024","2","48000","-16","experiment","4","even","9","255269","251922","253056","4774","202472","253058","232821","4785","194114","257278","258770","254063","113195","257274","NA","Sternberg task","15","24067","21","yes","1024"
"72.72727272727273","72.72727272727273","1134.4545454545455","1134.4545454545455","black","experiment","legacy","legacy","legacy","0","uniform","1","undefined","1","left","21","21","21","0","0","21","21","0","0","21","21","21","0","21","0","Sun Oct 25 16:21:28 2020","The main experiment item","yes","Sternberg task-5.osexp","C:\Users\Elaine\AppData\Local\Temp","no","mono","no","18","no","white","no","yes","768","legacy","9","11","C:/Users/Elaine/Desktop/subject-4.csv","legacy","7 6","Lentiform Loewenfeld","3.3.3","2","y","0","left","right","left","left","NA","891","108409","8358","891","NA","2","legacy","2","1024","2","48000","-16","experiment","4","even","6","262132","258777","259921","4774","202472","259924","232821","4785","194114","264138","265030","260930","113195","264137","NA","Sternberg task","16","24958","22","yes","1024"
"73.91304347826087","73.91304347826087","1132.695652173913","1132.695652173913","black","experiment","legacy","legacy","legacy","0","uniform","1","undefined","1","left","22","22","22","0","0","22","22","0","0","22","22","22","0","22","0","Sun Oct 25 16:21:28 2020","The main experiment item","yes","Sternberg task-5.osexp","C:\Users\Elaine\AppData\Local\Temp","no","mono","no","18","no","white","no","yes","768","legacy","10","11","C:/Users/Elaine/Desktop/subject-4.csv","legacy","9 6 2 4 1","Lentiform Loewenfeld","3.3.3","4","y","0","left","right","left","left","NA","1094","108409","8358","1094","NA","2","legacy","5","1024","2","48000","-16","experiment","4","even","4","268391","265037","266179","4774","202472","266181","232821","4785","194114","270396","271490","267186","113195","270396","NA","Sternberg task","17","26052","23","yes","1024"
"70.83333333333333","70.83333333333333","1107.625","1107.625","black","experiment","legacy","legacy","legacy","0","uniform","0","undefined","0","left","23","23","23","0","0","23","23","0","0","23","23","23","0","23","0","Sun Oct 25 16:21:28 2020","The main experiment item","yes","Sternberg task-5.osexp","C:\Users\Elaine\AppData\Local\Temp","no","mono","no","18","no","white","no","yes","768","legacy","11","11","C:/Users/Elaine/Desktop/subject-4.csv","legacy","5 2 9 6 1 7","Lentiform Loewenfeld","3.3.3","3","y","0","right","right","left","right","NA","531","108409","8358","531","NA","2","legacy","6","1024","2","48000","-16","experiment","4","even","9","274851","271498","272636","4774","202472","272639","232821","4785","194114","276878","277410","273644","113195","276856","NA","Sternberg task","17","26583","24","yes","1024"
"72","72","1088.08","1088.08","black","experiment","legacy","legacy","legacy","0","uniform","1","undefined","1","right","24","24","24","0","0","24","24","0","0","24","24","24","0","24","0","Sun Oct 25 16:21:28 2020","The main experiment item","yes","Sternberg task-5.osexp","C:\Users\Elaine\AppData\Local\Temp","no","mono","no","18","no","white","no","yes","768","legacy","12","11","C:/Users/Elaine/Desktop/subject-4.csv","legacy","3 9 1","Lentiform Loewenfeld","3.3.3","0","n","0","right","right","left","right","NA","619","108409","8358","619","NA","2","legacy","3","1024","2","48000","-16","experiment","4","even","7","280773","271498","278559","4774","202472","278563","277419","4785","194114","282780","283399","279568","113195","282779","NA","Sternberg task","18","27202","25","yes","1024"
"69.23076923076923","69.23076923076923","1072.4615384615386","1072.4615384615386","black","experiment","legacy","legacy","legacy","0","uniform","0","undefined","0","right","25","25","25","0","0","25","25","0","0","25","25","25","0","25","0","Sun Oct 25 16:21:28 2020","The main experiment item","yes","Sternberg task-5.osexp","C:\Users\Elaine\AppData\Local\Temp","no","mono","no","18","no","white","no","yes","768","legacy","13","11","C:/Users/Elaine/Desktop/subject-4.csv","legacy","1 4 9 2 5","Lentiform Loewenfeld","3.3.3","0","n","0","left","right","left","left","NA","682","108409","8358","682","NA","2","legacy","5","1024","2","48000","-16","experiment","4","even","7","286805","283478","284593","4774","202472","284595","277419","4785","194114","288811","289493","285600","113195","288810","NA","Sternberg task","18","27884","26","yes","1024"
"66.66666666666667","66.66666666666667","1068.111111111111","1068.111111111111","black","experiment","legacy","legacy","legacy","0","uniform","0","undefined","0","left","26","26","26","0","0","26","26","0","0","26","26","26","0","26","0","Sun Oct 25 16:21:28 2020","The main experiment item","yes","Sternberg task-5.osexp","C:\Users\Elaine\AppData\Local\Temp","no","mono","no","18","no","white","no","yes","768","legacy","14","11","C:/Users/Elaine/Desktop/subject-4.csv","legacy","2 3","Lentiform Loewenfeld","3.3.3","1","y","0","right","right","left","right","NA","955","108409","8358","955","NA","2","legacy","2","1024","2","48000","-16","experiment","4","even","2","292862","283478","290648","4774","202472","290650","289501","4785","194114","294868","295824","291655","113195","294867","NA","Sternberg task","18","28839","27","yes","1024"
"67.85714285714286","67.85714285714286","1056.5714285714287","1056.5714285714287","black","experiment","legacy","legacy","legacy","0","uniform","1","undefined","1","right","27","27","27","0","0","27","27","0","0","27","27","27","0","27","0","Sun Oct 25 16:21:28 2020","The main experiment item","yes","Sternberg task-5.osexp","C:\Users\Elaine\AppData\Local\Temp","no","mono","no","18","no","white","no","yes","768","legacy","15","11","C:/Users/Elaine/Desktop/subject-4.csv","legacy","4 8 1 2","Lentiform Loewenfeld","3.3.3","0","n","0","right","right","left","right","NA","745","108409","8358","745","NA","2","legacy","4","1024","2","48000","-16","experiment","4","even","7","299202","283478","296987","4774","202472","296990","295839","4785","194114","301208","301954","297995","113195","301207","NA","Sternberg task","19","29584","28","yes","1024"
"65.51724137931035","65.51724137931035","1060.2413793103449","1060.2413793103449","black","experiment","legacy","legacy","legacy","0","uniform","0","undefined","0","right","28","28","28","0","0","28","28","0","0","28","28","28","0","28","0","Sun Oct 25 16:21:28 2020","The main experiment item","yes","Sternberg task-5.osexp","C:\Users\Elaine\AppData\Local\Temp","no","mono","no","18","no","white","no","yes","768","legacy","16","11","C:/Users/Elaine/Desktop/subject-4.csv","legacy","1 6 4 3 9 7","Lentiform Loewenfeld","3.3.3","0","n","0","left","right","left","left","NA","1163","108409","8358","1163","NA","2","legacy","6","1024","2","48000","-16","experiment","4","even","8","305324","301981","303111","4774","202472","303113","295839","4785","194114","307330","308493","304119","113195","307329","NA","Sternberg task","19","30747","29","yes","1024"
"66.66666666666667","66.66666666666667","1058.7666666666667","1058.7666666666667","black","experiment","legacy","legacy","legacy","0","uniform","1","undefined","1","right","29","29","29","0","0","29","29","0","0","29","29","29","0","29","0","Sun Oct 25 16:21:28 2020","The main experiment item","yes","Sternberg task-5.osexp","C:\Users\Elaine\AppData\Local\Temp","no","mono","no","18","no","white","no","yes","768","legacy","17","11","C:/Users/Elaine/Desktop/subject-4.csv","legacy","2 3 8 5 6 7","Lentiform Loewenfeld","3.3.3","0","n","0","right","right","left","right","NA","1016","108409","8358","1016","NA","2","legacy","6","1024","2","48000","-16","experiment","4","even","1","311849","301981","309636","4774","202472","309638","308503","4785","194114","313856","314873","310643","113195","313854","NA","Sternberg task","20","31763","30","yes","1024"
"64.51612903225806","64.51612903225806","1046.4516129032259","1046.4516129032259","black","experiment","legacy","legacy","legacy","0","uniform","0","undefined","0","left","30","30","30","0","0","30","30","0","0","30","30","30","0","30","0","Sun Oct 25 16:21:28 2020","The main experiment item","yes","Sternberg task-5.osexp","C:\Users\Elaine\AppData\Local\Temp","no","mono","no","18","no","white","no","yes","768","legacy","18","11","C:/Users/Elaine/Desktop/subject-4.csv","legacy","9 8 4","Lentiform Loewenfeld","3.3.3","1","y","0","right","right","left","right","NA","677","108409","8358","677","NA","2","legacy","3","1024","2","48000","-16","experiment","4","even","9","318242","314894","316028","4774","202472","316031","308503","4785","194114","320250","320928","317036","113195","320249","NA","Sternberg task","20","32440","31","yes","1024"
"65.625","65.625","1035.75","1035.75","black","experiment","legacy","legacy","legacy","0","uniform","1","undefined","1","left","31","31","31","0","0","31","31","0","0","31","31","31","0","31","0","Sun Oct 25 16:21:28 2020","The main experiment item","yes","Sternberg task-5.osexp","C:\Users\Elaine\AppData\Local\Temp","no","mono","no","18","no","white","no","yes","768","legacy","19","11","C:/Users/Elaine/Desktop/subject-4.csv","legacy","7 1 3","Lentiform Loewenfeld","3.3.3","2","y","0","left","right","left","left","NA","704","108409","8358","704","NA","2","legacy","3","1024","2","48000","-16","experiment","4","even","1","324289","314894","322075","4774","202472","322077","320935","4785","194114","326299","327003","323083","113195","326294","NA","Sternberg task","21","33144","32","yes","1024"
"66.66666666666667","66.66666666666667","1029.7575757575758","1029.7575757575758","black","experiment","legacy","legacy","legacy","0","uniform","1","undefined","1","right","32","32","32","0","0","32","32","0","0","32","32","32","0","32","0","Sun Oct 25 16:21:28 2020","The main experiment item","yes","Sternberg task-5.osexp","C:\Users\Elaine\AppData\Local\Temp","no","mono","no","18","no","white","no","yes","768","legacy","20","11","C:/Users/Elaine/Desktop/subject-4.csv","legacy","3 9 8 1 6 4","Lentiform Loewenfeld","3.3.3","0","n","0","right","right","left","right","NA","838","108409","8358","838","NA","2","legacy","6","1024","2","48000","-16","experiment","4","even","7","330367","327012","328155","4774","202472","328157","320935","4785","194114","332375","333213","329162","113195","332373","NA","Sternberg task","22","33982","33","yes","1024"
"64.70588235294117","64.70588235294117","1025.4705882352941","1025.4705882352941","black","experiment","legacy","legacy","legacy","0","uniform","0","undefined","0","right","33","33","33","0","0","33","33","0","0","33","33","33","0","33","0","Sun Oct 25 16:21:28 2020","The main experiment item","yes","Sternberg task-5.osexp","C:\Users\Elaine\AppData\Local\Temp","no","mono","no","18","no","white","no","yes","768","legacy","21","11","C:/Users/Elaine/Desktop/subject-4.csv","legacy","6 9 5","Lentiform Loewenfeld","3.3.3","0","n","0","left","right","left","left","NA","884","108409","8358","884","NA","2","legacy","3","1024","2","48000","-16","experiment","4","even","8","336563","333223","334351","4774","202472","334353","320935","4785","194114","338569","339453","335358","113195","338568","NA","Sternberg task","22","34866","34","yes","1024"
"65.71428571428571","65.71428571428571","1028","1028","black","experiment","legacy","legacy","legacy","0","uniform","1","undefined","1","right","34","34","34","0","0","34","34","0","0","34","34","34","0","34","0","Sun Oct 25 16:21:28 2020","The main experiment item","yes","Sternberg task-5.osexp","C:\Users\Elaine\AppData\Local\Temp","no","mono","no","18","no","white","no","yes","768","legacy","22","11","C:/Users/Elaine/Desktop/subject-4.csv","legacy","7 4 2 8 1 9","Lentiform Loewenfeld","3.3.3","0","n","0","right","right","left","right","NA","1114","108409","8358","1114","NA","2","legacy","6","1024","2","48000","-16","experiment","4","even","5","342817","333223","340602","4774","202472","340605","339462","4785","194114","344823","345938","341612","113195","344822","NA","Sternberg task","23","35980","35","yes","1024"
"63.888888888888886","63.888888888888886","1019.0277777777778","1019.0277777777778","black","experiment","legacy","legacy","legacy","0","uniform","0","undefined","0","right","35","35","35","0","0","35","35","0","0","35","35","35","0","35","0","Sun Oct 25 16:21:28 2020","The main experiment item","yes","Sternberg task-5.osexp","C:\Users\Elaine\AppData\Local\Temp","no","mono","no","18","no","white","no","yes","768","legacy","23","11","C:/Users/Elaine/Desktop/subject-4.csv","legacy","2 6 4 3 9","Lentiform Loewenfeld","3.3.3","0","n","0","left","right","left","left","NA","705","108409","8358","705","NA","2","legacy","5","1024","2","48000","-16","experiment","4","even","1","349286","345945","347074","4774","202472","347076","339462","4785","194114","351292","351997","348081","113195","351291","NA","Sternberg task","23","36685","36","yes","1024"
"62.16216216216216","62.16216216216216","1027.081081081081","1027.081081081081","black","experiment","legacy","legacy","legacy","0","uniform","0","undefined","0","left","36","36","36","0","0","36","36","0","0","36","36","36","0","36","0","Sun Oct 25 16:21:28 2020","The main experiment item","yes","Sternberg task-5.osexp","C:\Users\Elaine\AppData\Local\Temp","no","mono","no","18","no","white","no","yes","768","legacy","24","11","C:/Users/Elaine/Desktop/subject-4.csv","legacy","8 3","Lentiform Loewenfeld","3.3.3","2","y","0","right","right","left","right","NA","1317","108409","8358","1317","NA","2","legacy","2","1024","2","48000","-16","experiment","4","even","3","355353","345945","353140","4774","202472","353142","352011","4785","194114","357359","358676","354147","113195","357359","NA","Sternberg task","23","38002","37","yes","1024"
"63.1578947368421","63.1578947368421","1036.6842105263158","1036.6842105263158","black","experiment","legacy","legacy","legacy","0","uniform","1","undefined","1","left","37","37","37","0","0","37","37","0","0","37","37","37","0","37","0","Sun Oct 25 16:21:28 2020","The main experiment item","yes","Sternberg task-5.osexp","C:\Users\Elaine\AppData\Local\Temp","no","mono","no","18","no","white","no","yes","768","legacy","25","11","C:/Users/Elaine/Desktop/subject-4.csv","legacy","6 8 9 3 4 9","Lentiform Loewenfeld","3.3.3","5","y","0","left","right","left","left","NA","1392","108409","8358","1392","NA","2","legacy","6","1024","2","48000","-16","experiment","4","even","4","362027","345945","359814","4774","202472","359816","358685","4785","194114","364034","365427","360822","113195","364034","NA","Sternberg task","24","39394","38","yes","1024"
"64.1025641025641","64.1025641025641","1041.2820512820513","1041.2820512820513","black","experiment","legacy","legacy","legacy","0","uniform","1","undefined","1","right","38","38","38","0","0","38","38","0","0","38","38","38","0","38","0","Sun Oct 25 16:21:28 2020","The main experiment item","yes","Sternberg task-5.osexp","C:\Users\Elaine\AppData\Local\Temp","no","mono","no","18","no","white","no","yes","768","legacy","26","11","C:/Users/Elaine/Desktop/subject-4.csv","legacy","4 2 6 9","Lentiform Loewenfeld","3.3.3","0","n","0","right","right","left","right","NA","1216","108409","8358","1216","NA","2","legacy","4","1024","2","48000","-16","experiment","4","even","7","368783","365441","366571","4774","202472","366573","358685","4785","194114","370790","372007","367578","113195","370789","NA","Sternberg task","25","40610","39","yes","1024"
"65","65","1046.35","1046.35","black","experiment","legacy","legacy","legacy","0","uniform","1","undefined","1","left","39","39","39","0","0","39","39","0","0","39","39","39","0","39","0","Sun Oct 25 16:21:28 2020","The main experiment item","yes","Sternberg task-5.osexp","C:\Users\Elaine\AppData\Local\Temp","no","mono","no","18","no","white","no","yes","768","legacy","27","11","C:/Users/Elaine/Desktop/subject-4.csv","legacy","2 4 6 9","Lentiform Loewenfeld","3.3.3","3","y","0","left","right","left","left","NA","1244","108409","8358","1244","NA","2","legacy","4","1024","2","48000","-16","experiment","4","even","6","375367","372016","373155","4774","202472","373157","358685","4785","194114","377372","378617","374162","113195","377372","NA","Sternberg task","26","41854","40","yes","1024"
"65.85365853658537","65.85365853658537","1036.780487804878","1036.780487804878","black","experiment","legacy","legacy","legacy","0","uniform","1","undefined","1","left","40","40","40","0","0","40","40","0","0","40","40","40","0","40","0","Sun Oct 25 16:21:28 2020","The main experiment item","yes","Sternberg task-5.osexp","C:\Users\Elaine\AppData\Local\Temp","no","mono","no","18","no","white","no","yes","768","legacy","28","11","C:/Users/Elaine/Desktop/subject-4.csv","legacy","6 2","Lentiform Loewenfeld","3.3.3","1","y","0","left","right","left","left","NA","654","108409","8358","654","NA","2","legacy","2","1024","2","48000","-16","experiment","4","even","6","381966","378626","379753","4774","202472","379755","358685","4785","194114","383972","384626","380761","113195","383972","NA","Sternberg task","27","42508","41","yes","1024"
"66.66666666666667","66.66666666666667","1029.9285714285713","1029.9285714285713","black","experiment","legacy","legacy","legacy","0","uniform","1","undefined","1","left","41","41","41","0","0","41","41","0","0","41","41","41","0","41","0","Sun Oct 25 16:21:28 2020","The main experiment item","yes","Sternberg task-5.osexp","C:\Users\Elaine\AppData\Local\Temp","no","mono","no","18","no","white","no","yes","768","legacy","29","11","C:/Users/Elaine/Desktop/subject-4.csv","legacy","6 5","Lentiform Loewenfeld","3.3.3","2","y","0","left","right","left","left","NA","749","108409","8358","749","NA","2","legacy","2","1024","2","48000","-16","experiment","4","even","5","387991","384642","385778","4774","202472","385780","358685","4785","194114","389997","390746","386785","113195","389997","NA","Sternberg task","28","43257","42","yes","1024"
"67.44186046511628","67.44186046511628","1024.953488372093","1024.953488372093","black","experiment","legacy","legacy","legacy","0","uniform","1","undefined","1","left","42","42","42","0","0","42","42","0","0","42","42","42","0","42","0","Sun Oct 25 16:21:28 2020","The main experiment item","yes","Sternberg task-5.osexp","C:\Users\Elaine\AppData\Local\Temp","no","mono","no","18","no","white","no","yes","768","legacy","30","11","C:/Users/Elaine/Desktop/subject-4.csv","legacy","8 9 5 6 7","Lentiform Loewenfeld","3.3.3","1","y","0","left","right","left","left","NA","816","108409","8358","816","NA","2","legacy","5","1024","2","48000","-16","experiment","4","even","8","394093","390755","391882","4774","202472","391884","358685","4785","194114","396099","396916","392889","113195","396099","NA","Sternberg task","29","44073","43","yes","1024"
"68.18181818181819","68.18181818181819","1016.9318181818181","1016.9318181818181","black","experiment","legacy","legacy","legacy","0","uniform","1","undefined","1","left","43","43","43","0","0","43","43","0","0","43","43","43","0","43","0","Sun Oct 25 16:21:28 2020","The main experiment item","yes","Sternberg task-5.osexp","C:\Users\Elaine\AppData\Local\Temp","no","mono","no","18","no","white","no","yes","768","legacy","31","11","C:/Users/Elaine/Desktop/subject-4.csv","legacy","8","Lentiform Loewenfeld","3.3.3","1","y","0","left","right","left","left","NA","672","108409","8358","672","NA","2","legacy","1","1024","2","48000","-16","experiment","4","even","8","400272","396929","398060","4774","202472","398062","358685","4785","194114","402273","402946","399067","113195","402273","NA","Sternberg task","30","44745","44","yes","1024"
"68.88888888888889","68.88888888888889","1030.4444444444443","1030.4444444444443","black","experiment","legacy","legacy","legacy","0","uniform","1","undefined","1","left","44","44","44","0","0","44","44","0","0","44","44","44","0","44","0","Sun Oct 25 16:21:28 2020","The main experiment item","yes","Sternberg task-5.osexp","C:\Users\Elaine\AppData\Local\Temp","no","mono","no","18","no","white","no","yes","768","legacy","32","11","C:/Users/Elaine/Desktop/subject-4.csv","legacy","3 4 9 6 2 9","Lentiform Loewenfeld","3.3.3","5","y","0","left","right","left","left","NA","1625","108409","8358","1625","NA","2","legacy","6","1024","2","48000","-16","experiment","4","even","2","406294","402953","404082","4774","202472","404084","358685","4785","194114","408301","409926","405089","113195","408300","NA","Sternberg task","31","46370","45","yes","1024"
"69.56521739130434","69.56521739130434","1023.4782608695652","1023.4782608695652","black","experiment","legacy","legacy","legacy","0","uniform","1","undefined","1","left","45","45","45","0","0","45","45","0","0","45","45","45","0","45","0","Sun Oct 25 16:21:28 2020","The main experiment item","yes","Sternberg task-5.osexp","C:\Users\Elaine\AppData\Local\Temp","no","mono","no","18","no","white","no","yes","768","legacy","33","11","C:/Users/Elaine/Desktop/subject-4.csv","legacy","6 9 3 1","Lentiform Loewenfeld","3.3.3","4","y","0","left","right","left","left","NA","710","108409","8358","710","NA","2","legacy","4","1024","2","48000","-16","experiment","4","even","1","413281","409936","411068","4774","202472","411070","358685","4785","194114","415286","415996","412076","113195","415286","NA","Sternberg task","32","47080","46","yes","1024"
"70.2127659574468","70.2127659574468","1016.3404255319149","1016.3404255319149","black","experiment","legacy","legacy","legacy","0","uniform","1","undefined","1","right","46","46","46","0","0","46","46","0","0","46","46","46","0","46","0","Sun Oct 25 16:21:28 2020","The main experiment item","yes","Sternberg task-5.osexp","C:\Users\Elaine\AppData\Local\Temp","no","mono","no","18","no","white","no","yes","768","legacy","34","11","C:/Users/Elaine/Desktop/subject-4.csv","legacy","8 5 7 3 6","Lentiform Loewenfeld","3.3.3","0","n","0","right","right","left","right","NA","688","108409","8358","688","NA","2","legacy","5","1024","2","48000","-16","experiment","4","even","9","419361","416006","417148","4774","202472","417150","358685","4785","194114","421367","422055","418155","113195","421367","NA","Sternberg task","33","47768","47","yes","1024"
"68.75","68.75","1012.6458333333334","1012.6458333333334","black","experiment","legacy","legacy","legacy","0","uniform","0","undefined","0","left","47","47","47","0","0","47","47","0","0","47","47","47","0","47","0","Sun Oct 25 16:21:28 2020","The main experiment item","yes","Sternberg task-5.osexp","C:\Users\Elaine\AppData\Local\Temp","no","mono","no","18","no","white","no","yes","768","legacy","35","11","C:/Users/Elaine/Desktop/subject-4.csv","legacy","6 7 9 3 1 2","Lentiform Loewenfeld","3.3.3","1","y","0","right","right","left","right","NA","839","108409","8358","839","NA","2","legacy","6","1024","2","48000","-16","experiment","4","even","6","425409","422070","423197","4774","202472","423199","358685","4785","194114","427415","428255","424204","113195","427414","NA","Sternberg task","33","48607","48","yes","1024"
"69.38775510204081","69.38775510204081","1012.795918367347","1012.795918367347","black","experiment","legacy","legacy","legacy","0","uniform","1","undefined","1","right","48","48","48","0","0","48","48","0","0","48","48","48","0","48","0","Sun Oct 25 16:21:28 2020","The main experiment item","yes","Sternberg task-5.osexp","C:\Users\Elaine\AppData\Local\Temp","no","mono","no","18","no","white","no","yes","768","legacy","36","11","C:/Users/Elaine/Desktop/subject-4.csv","legacy","8 4 3 5","Lentiform Loewenfeld","3.3.3","0","n","0","right","right","left","right","NA","1020","108409","8358","1020","NA","2","legacy","4","1024","2","48000","-16","experiment","4","even","6","431611","422070","429399","4774","202472","429401","428264","4785","194114","433614","434635","430406","113195","433614","NA","Sternberg task","34","49627","49","yes","1024"
"68","68","1014.2","1014.2","black","experiment","legacy","legacy","legacy","0","uniform","0","undefined","0","left","49","49","49","0","0","49","49","0","0","49","49","49","0","49","0","Sun Oct 25 16:21:28 2020","The main experiment item","yes","Sternberg task-5.osexp","C:\Users\Elaine\AppData\Local\Temp","no","mono","no","18","no","white","no","yes","768","legacy","37","11","C:/Users/Elaine/Desktop/subject-4.csv","legacy","3 9 7 6 4","Lentiform Loewenfeld","3.3.3","3","y","0","right","right","left","right","NA","1083","108409","8358","1083","NA","2","legacy","5","1024","2","48000","-16","experiment","4","even","7","437996","434651","435781","4774","202472","435782","428264","4785","194114","440001","441085","436788","113195","440001","NA","Sternberg task","34","50710","50","yes","1024"
"68.62745098039215","68.62745098039215","1015.1764705882352","1015.1764705882352","black","experiment","legacy","legacy","legacy","0","uniform","1","undefined","1","left","50","50","50","0","0","50","50","0","0","50","50","50","0","50","0","Sun Oct 25 16:21:28 2020","The main experiment item","yes","Sternberg task-5.osexp","C:\Users\Elaine\AppData\Local\Temp","no","mono","no","18","no","white","no","yes","768","legacy","38","11","C:/Users/Elaine/Desktop/subject-4.csv","legacy","3 5 4 7","Lentiform Loewenfeld","3.3.3","1","y","0","left","right","left","left","NA","1064","108409","8358","1064","NA","2","legacy","4","1024","2","48000","-16","experiment","4","even","3","444435","434651","442223","4774","202472","442225","441093","4785","194114","446440","447505","443230","113195","446440","NA","Sternberg task","35","51774","51","yes","1024"
"69.23076923076923","69.23076923076923","1010.0961538461538","1010.0961538461538","black","experiment","legacy","legacy","legacy","0","uniform","1","undefined","1","left","51","51","51","0","0","51","51","0","0","51","51","51","0","51","0","Sun Oct 25 16:21:28 2020","The main experiment item","yes","Sternberg task-5.osexp","C:\Users\Elaine\AppData\Local\Temp","no","mono","no","18","no","white","no","yes","768","legacy","39","11","C:/Users/Elaine/Desktop/subject-4.csv","legacy","3 9 6 2","Lentiform Loewenfeld","3.3.3","4","y","0","left","right","left","left","NA","751","108409","8358","751","NA","2","legacy","4","1024","2","48000","-16","experiment","4","even","2","450856","447514","448644","4774","202472","448646","441093","4785","194114","452862","453616","449651","113195","452861","NA","Sternberg task","36","52525","52","yes","1024"
"67.9245283018868","67.9245283018868","1004.811320754717","1004.811320754717","black","experiment","legacy","legacy","legacy","0","uniform","0","undefined","0","right","52","52","52","0","0","52","52","0","0","52","52","52","0","52","0","Sun Oct 25 16:21:28 2020","The main experiment item","yes","Sternberg task-5.osexp","C:\Users\Elaine\AppData\Local\Temp","no","mono","no","18","no","white","no","yes","768","legacy","40","11","C:/Users/Elaine/Desktop/subject-4.csv","legacy","3 4 9 6 7 8","Lentiform Loewenfeld","3.3.3","0","n","0","left","right","left","left","NA","730","108409","8358","730","NA","2","legacy","6","1024","2","48000","-16","experiment","4","even","2","456989","453628","454777","4774","202472","454779","441093","4785","194114","458994","459724","455784","113195","458994","NA","Sternberg task","36","53255","53","yes","1024"
"66.66666666666667","66.66666666666667","1002.5555555555555","1002.5555555555555","black","experiment","legacy","legacy","legacy","0","uniform","0","undefined","0","left","53","53","53","0","0","53","53","0","0","53","53","53","0","53","0","Sun Oct 25 16:21:28 2020","The main experiment item","yes","Sternberg task-5.osexp","C:\Users\Elaine\AppData\Local\Temp","no","mono","no","18","no","white","no","yes","768","legacy","41","11","C:/Users/Elaine/Desktop/subject-4.csv","legacy","4 3 2 5 8","Lentiform Loewenfeld","3.3.3","2","y","0","right","right","left","right","NA","883","108409","8358","883","NA","2","legacy","5","1024","2","48000","-16","experiment","4","even","3","463085","453628","460872","4774","202472","460874","459734","4785","194114","465090","465974","461879","113195","465090","NA","Sternberg task","36","54138","54","yes","1024"
"67.27272727272727","67.27272727272727","998.9090909090909","998.9090909090909","black","experiment","legacy","legacy","legacy","0","uniform","1","undefined","1","left","54","54","54","0","0","54","54","0","0","54","54","54","0","54","0","Sun Oct 25 16:21:28 2020","The main experiment item","yes","Sternberg task-5.osexp","C:\Users\Elaine\AppData\Local\Temp","no","mono","no","18","no","white","no","yes","768","legacy","42","11","C:/Users/Elaine/Desktop/subject-4.csv","legacy","8 9 6 1","Lentiform Loewenfeld","3.3.3","2","y","0","left","right","left","left","NA","802","108409","8358","802","NA","2","legacy","4","1024","2","48000","-16","experiment","4","even","9","469331","453628","467119","4774","202472","467121","465990","4785","194114","471332","472135","468126","113195","471332","NA","Sternberg task","37","54940","55","yes","1024"
"66.07142857142857","66.07142857142857","995.9821428571429","995.9821428571429","black","experiment","legacy","legacy","legacy","0","uniform","0","undefined","0","right","55","55","55","0","0","55","55","0","0","55","55","55","0","55","0","Sun Oct 25 16:21:28 2020","The main experiment item","yes","Sternberg task-5.osexp","C:\Users\Elaine\AppData\Local\Temp","no","mono","no","18","no","white","no","yes","768","legacy","43","11","C:/Users/Elaine/Desktop/subject-4.csv","legacy","6 9 4 5 3 2","Lentiform Loewenfeld","3.3.3","0","n","0","left","right","left","left","NA","835","108409","8358","835","NA","2","legacy","6","1024","2","48000","-16","experiment","4","even","8","475493","472142","473282","4774","202472","473285","465990","4785","194114","477498","478334","474291","113195","477498","NA","Sternberg task","37","55775","56","yes","1024"
"66.66666666666667","66.66666666666667","998.578947368421","998.578947368421","black","experiment","legacy","legacy","legacy","0","uniform","1","undefined","1","right","56","56","56","0","0","56","56","0","0","56","56","56","0","56","0","Sun Oct 25 16:21:28 2020","The main experiment item","yes","Sternberg task-5.osexp","C:\Users\Elaine\AppData\Local\Temp","no","mono","no","18","no","white","no","yes","768","legacy","44","11","C:/Users/Elaine/Desktop/subject-4.csv","legacy","1 3 2 6 9","Lentiform Loewenfeld","3.3.3","0","n","0","right","right","left","right","NA","1144","108409","8358","1144","NA","2","legacy","5","1024","2","48000","-16","experiment","4","even","5","481698","472142","479485","4774","202472","479487","478344","4785","194114","483699","484844","480492","113195","483699","NA","Sternberg task","38","56919","57","yes","1024"
"67.24137931034483","67.24137931034483","993.8448275862069","993.8448275862069","black","experiment","legacy","legacy","legacy","0","uniform","1","undefined","1","right","57","57","57","0","0","57","57","0","0","57","57","57","0","57","0","Sun Oct 25 16:21:28 2020","The main experiment item","yes","Sternberg task-5.osexp","C:\Users\Elaine\AppData\Local\Temp","no","mono","no","18","no","white","no","yes","768","legacy","45","11","C:/Users/Elaine/Desktop/subject-4.csv","legacy","4 1","Lentiform Loewenfeld","3.3.3","0","n","0","right","right","left","right","NA","724","108409","8358","724","NA","2","legacy","2","1024","2","48000","-16","experiment","4","even","6","488212","484859","486000","4774","202472","486002","478344","4785","194114","490218","490943","487007","113195","490218","NA","Sternberg task","39","57643","58","yes","1024"
"66.10169491525424","66.10169491525424","993.271186440678","993.271186440678","black","experiment","legacy","legacy","legacy","0","uniform","0","undefined","0","right","58","58","58","0","0","58","58","0","0","58","58","58","0","58","0","Sun Oct 25 16:21:28 2020","The main experiment item","yes","Sternberg task-5.osexp","C:\Users\Elaine\AppData\Local\Temp","no","mono","no","18","no","white","no","yes","768","legacy","46","11","C:/Users/Elaine/Desktop/subject-4.csv","legacy","8 5 4 2 9 6","Lentiform Loewenfeld","3.3.3","0","n","0","left","right","left","left","NA","960","108409","8358","960","NA","2","legacy","6","1024","2","48000","-16","experiment","4","even","3","494307","490953","492095","4774","202472","492097","478344","4785","194114","496313","497273","493102","113195","496313","NA","Sternberg task","39","58603","59","yes","1024"
"65","65","989.7666666666667","989.7666666666667","black","experiment","legacy","legacy","legacy","0","uniform","0","undefined","0","left","59","59","59","0","0","59","59","0","0","59","59","59","0","59","0","Sun Oct 25 16:21:28 2020","The main experiment item","yes","Sternberg task-5.osexp","C:\Users\Elaine\AppData\Local\Temp","no","mono","no","18","no","white","no","yes","768","legacy","47","11","C:/Users/Elaine/Desktop/subject-4.csv","legacy","4 7 6 8 2 3","Lentiform Loewenfeld","3.3.3","6","y","0","right","right","left","right","NA","783","108409","8358","783","NA","2","legacy","6","1024","2","48000","-16","experiment","4","even","3","500635","490953","498421","4774","202472","498423","497288","4785","194114","502639","503423","499429","113195","502638","NA","Sternberg task","39","59386","60","yes","1024"
"65.57377049180327","65.57377049180327","986.0983606557377","986.0983606557377","black","experiment","legacy","legacy","legacy","0","uniform","1","undefined","1","right","60","60","60","0","0","60","60","0","0","60","60","60","0","60","0","Sun Oct 25 16:21:28 2020","The main experiment item","yes","Sternberg task-5.osexp","C:\Users\Elaine\AppData\Local\Temp","no","mono","no","18","no","white","no","yes","768","legacy","48","11","C:/Users/Elaine/Desktop/subject-4.csv","legacy","1 7 8 3 9","Lentiform Loewenfeld","3.3.3","0","n","0","right","right","left","right","NA","766","108409","8358","766","NA","2","legacy","5","1024","2","48000","-16","experiment","4","even","2","506779","490953","504567","4774","202472","504569","503433","4785","194114","508786","509553","505574","113195","508785","NA","Sternberg task","40","60152","61","yes","1024"
"66.12903225806451","66.12903225806451","985.7903225806451","985.7903225806451","black","experiment","legacy","legacy","legacy","0","uniform","1","undefined","1","right","61","61","61","0","0","61","61","0","0","61","61","61","0","61","0","Sun Oct 25 16:21:28 2020","The main experiment item","yes","Sternberg task-5.osexp","C:\Users\Elaine\AppData\Local\Temp","no","mono","no","18","no","white","no","yes","768","legacy","49","11","C:/Users/Elaine/Desktop/subject-4.csv","legacy","6 7 5 9","Lentiform Loewenfeld","3.3.3","0","n","0","right","right","left","right","NA","967","108409","8358","967","NA","2","legacy","4","1024","2","48000","-16","experiment","4","even","2","512908","509562","510695","4774","202472","510697","503433","4785","194114","514915","515882","511702","113195","514914","NA","Sternberg task","41","61119","62","yes","1024"
"65.07936507936508","65.07936507936508","981.7619047619048","981.7619047619048","black","experiment","legacy","legacy","legacy","0","uniform","0","undefined","0","left","62","62","62","0","0","62","62","0","0","62","62","62","0","62","0","Sun Oct 25 16:21:28 2020","The main experiment item","yes","Sternberg task-5.osexp","C:\Users\Elaine\AppData\Local\Temp","no","mono","no","18","no","white","no","yes","768","legacy","50","11","C:/Users/Elaine/Desktop/subject-4.csv","legacy","4 6 5 8","Lentiform Loewenfeld","3.3.3","1","y","0","right","right","left","right","NA","732","108409","8358","732","NA","2","legacy","4","1024","2","48000","-16","experiment","4","even","4","519244","515896","517031","4774","202472","517033","503433","4785","194114","521250","521983","518038","113195","521249","NA","Sternberg task","41","61851","63","yes","1024"
"64.0625","64.0625","983.46875","983.46875","black","experiment","legacy","legacy","legacy","0","uniform","0","undefined","0","right","63","63","63","0","0","63","63","0","0","63","63","63","0","63","0","Sun Oct 25 16:21:28 2020","The main experiment item","yes","Sternberg task-5.osexp","C:\Users\Elaine\AppData\Local\Temp","no","mono","no","18","no","white","no","yes","768","legacy","51","11","C:/Users/Elaine/Desktop/subject-4.csv","legacy","7 1 8 4 9 3","Lentiform Loewenfeld","3.3.3","0","n","0","left","right","left","left","NA","1091","108409","8358","1091","NA","2","legacy","6","1024","2","48000","-16","experiment","4","even","6","525346","515896","523133","4774","202472","523136","521992","4785","194114","527351","528443","524141","113195","527351","NA","Sternberg task","41","62942","64","yes","1024"
"63.07692307692308","63.07692307692308","984.9076923076923","984.9076923076923","black","experiment","legacy","legacy","legacy","0","uniform","0","undefined","0","left","64","64","64","0","0","64","64","0","0","64","64","64","0","64","0","Sun Oct 25 16:21:28 2020","The main experiment item","yes","Sternberg task-5.osexp","C:\Users\Elaine\AppData\Local\Temp","no","mono","no","18","no","white","no","yes","768","legacy","52","11","C:/Users/Elaine/Desktop/subject-4.csv","legacy","9 1 6 7 8","Lentiform Loewenfeld","3.3.3","1","y","0","right","right","left","right","NA","1077","108409","8358","1077","NA","2","legacy","5","1024","2","48000","-16","experiment","4","even","9","531813","515896","529599","4774","202472","529601","528459","4785","194114","533814","534892","530606","113195","533814","NA","Sternberg task","41","64019","65","yes","1024"
"63.63636363636363","63.63636363636363","979.8333333333334","979.8333333333334","black","experiment","legacy","legacy","legacy","0","uniform","1","undefined","1","right","65","65","65","0","0","65","65","0","0","65","65","65","0","65","0","Sun Oct 25 16:21:28 2020","The main experiment item","yes","Sternberg task-5.osexp","C:\Users\Elaine\AppData\Local\Temp","no","mono","no","18","no","white","no","yes","768","legacy","53","11","C:/Users/Elaine/Desktop/subject-4.csv","legacy","1 4 3 6 5","Lentiform Loewenfeld","3.3.3","0","n","0","right","right","left","right","NA","650","108409","8358","650","NA","2","legacy","5","1024","2","48000","-16","experiment","4","even","8","538255","515896","536043","4774","202472","536045","534900","4785","194114","540261","540913","537050","113195","540261","NA","Sternberg task","42","64669","66","yes","1024"
"62.6865671641791","62.6865671641791","981.2686567164179","981.2686567164179","black","experiment","legacy","legacy","legacy","0","uniform","0","undefined","0","right","66","66","66","0","0","66","66","0","0","66","66","66","0","66","0","Sun Oct 25 16:21:28 2020","The main experiment item","yes","Sternberg task-5.osexp","C:\Users\Elaine\AppData\Local\Temp","no","mono","no","18","no","white","no","yes","768","legacy","54","11","C:/Users/Elaine/Desktop/subject-4.csv","legacy","1 8 7","Lentiform Loewenfeld","3.3.3","0","n","0","left","right","left","left","NA","1076","108409","8358","1076","NA","2","legacy","3","1024","2","48000","-16","experiment","4","even","4","544263","540923","542048","4774","202472","542050","534900","4785","194114","546265","547343","543057","113195","546265","NA","Sternberg task","42","65745","67","yes","1024"
"61.76470588235294","61.76470588235294","996.25","996.25","black","experiment","legacy","legacy","legacy","0","uniform","0","undefined","0","left","67","67","67","0","0","67","67","0","0","67","67","67","0","67","0","Sun Oct 25 16:21:28 2020","The main experiment item","yes","Sternberg task-5.osexp","C:\Users\Elaine\AppData\Local\Temp","no","mono","no","18","no","white","no","yes","768","legacy","55","11","C:/Users/Elaine/Desktop/subject-4.csv","legacy","7 8 6 3 1","Lentiform Loewenfeld","3.3.3","5","y","0","None","right","left","None","NA","2000","108409","8358","2000","NA","2","legacy","5","1024","2","48000","-16","experiment","4","even","1","550680","540923","548467","4774","202472","548469","547351","4785","194114","552686","554686","549475","113195","552685","NA","Sternberg task","42","67745","68","yes","1024"
"60.869565217391305","60.869565217391305","1001.4782608695652","1001.4782608695652","black","experiment","legacy","legacy","legacy","0","uniform","0","undefined","0","left","68","68","68","0","0","68","68","0","0","68","68","68","0","68","0","Sun Oct 25 16:21:28 2020","The main experiment item","yes","Sternberg task-5.osexp","C:\Users\Elaine\AppData\Local\Temp","no","mono","no","18","no","white","no","yes","768","legacy","56","11","C:/Users/Elaine/Desktop/subject-4.csv","legacy","3 4","Lentiform Loewenfeld","3.3.3","1","y","0","right","right","left","right","NA","1357","108409","8358","1357","NA","2","legacy","2","1024","2","48000","-16","experiment","4","even","3","558052","540923","555837","4774","202472","555839","554694","4785","194114","560058","561416","556846","113195","560057","NA","Sternberg task","42","69102","69","yes","1024"
"61.42857142857143","61.42857142857143","1000.3285714285714","1000.3285714285714","black","experiment","legacy","legacy","legacy","0","uniform","1","undefined","1","right","69","69","69","0","0","69","69","0","0","69","69","69","0","69","0","Sun Oct 25 16:21:28 2020","The main experiment item","yes","Sternberg task-5.osexp","C:\Users\Elaine\AppData\Local\Temp","no","mono","no","18","no","white","no","yes","768","legacy","57","11","C:/Users/Elaine/Desktop/subject-4.csv","legacy","6 2 9 3 8 4","Lentiform Loewenfeld","3.3.3","0","n","0","right","right","left","right","NA","921","108409","8358","921","NA","2","legacy","6","1024","2","48000","-16","experiment","4","even","1","564763","540923","562550","4774","202472","562553","561426","4785","194114","566769","567691","563558","113195","566768","NA","Sternberg task","43","70023","70","yes","1024"
"60.563380281690144","60.563380281690144","995.9577464788732","995.9577464788732","black","experiment","legacy","legacy","legacy","0","uniform","0","undefined","0","left","70","70","70","0","0","70","70","0","0","70","70","70","0","70","0","Sun Oct 25 16:21:28 2020","The main experiment item","yes","Sternberg task-5.osexp","C:\Users\Elaine\AppData\Local\Temp","no","mono","no","18","no","white","no","yes","768","legacy","58","11","C:/Users/Elaine/Desktop/subject-4.csv","legacy","2 8 5 1","Lentiform Loewenfeld","3.3.3","4","y","0","right","right","left","right","NA","690","108409","8358","690","NA","2","legacy","4","1024","2","48000","-16","experiment","4","even","1","571053","567706","568841","4774","202472","568843","561426","4785","194114","573060","573751","569848","113195","573060","NA","Sternberg task","43","70713","71","yes","1024"
"61.111111111111114","61.111111111111114","994.375","994.375","black","experiment","legacy","legacy","legacy","0","uniform","1","undefined","1","left","71","71","71","0","0","71","71","0","0","71","71","71","0","71","0","Sun Oct 25 16:21:28 2020","The main experiment item","yes","Sternberg task-5.osexp","C:\Users\Elaine\AppData\Local\Temp","no","mono","no","18","no","white","no","yes","768","legacy","59","11","C:/Users/Elaine/Desktop/subject-4.csv","legacy","7 2 3","Lentiform Loewenfeld","3.3.3","3","y","0","left","right","left","left","NA","882","108409","8358","882","NA","2","legacy","3","1024","2","48000","-16","experiment","4","even","3","577102","567706","574889","4774","202472","574892","573761","4785","194114","579108","579991","575898","113195","579107","NA","Sternberg task","44","71595","72","yes","1024"
"61.64383561643836","61.64383561643836","992.6986301369863","992.6986301369863","black","experiment","legacy","legacy","legacy","0","uniform","1","undefined","1","right","72","72","72","0","0","72","72","0","0","72","72","72","0","72","0","Sun Oct 25 16:21:28 2020","The main experiment item","yes","Sternberg task-5.osexp","C:\Users\Elaine\AppData\Local\Temp","no","mono","no","18","no","white","no","yes","768","legacy","60","11","C:/Users/Elaine/Desktop/subject-4.csv","legacy","2 8 9 4 1","Lentiform Loewenfeld","3.3.3","0","n","0","right","right","left","right","NA","872","108409","8358","872","NA","2","legacy","5","1024","2","48000","-16","experiment","4","even","5","583337","580001","581128","4774","202472","581130","573761","4785","194114","585348","586221","582132","113195","585347","NA","Sternberg task","45","72467","73","yes","1024"
"62.16216216216216","62.16216216216216","989.0405405405405","989.0405405405405","black","experiment","legacy","legacy","legacy","0","uniform","1","undefined","1","left","73","73","73","0","0","73","73","0","0","73","73","73","0","73","0","Sun Oct 25 16:21:28 2020","The main experiment item","yes","Sternberg task-5.osexp","C:\Users\Elaine\AppData\Local\Temp","no","mono","no","18","no","white","no","yes","768","legacy","61","11","C:/Users/Elaine/Desktop/subject-4.csv","legacy","9 5 8 1","Lentiform Loewenfeld","3.3.3","2","y","0","left","right","left","left","NA","722","108409","8358","722","NA","2","legacy","4","1024","2","48000","-16","experiment","4","even","5","589582","586230","587369","4774","202472","587371","573761","4785","194114","591587","592310","588377","113195","591587","NA","Sternberg task","46","73189","74","yes","1024"
"61.333333333333336","61.333333333333336","988.84","988.84","black","experiment","legacy","legacy","legacy","0","uniform","0","undefined","0","right","74","74","74","0","0","74","74","0","0","74","74","74","0","74","0","Sun Oct 25 16:21:28 2020","The main experiment item","yes","Sternberg task-5.osexp","C:\Users\Elaine\AppData\Local\Temp","no","mono","no","18","no","white","no","yes","768","legacy","62","11","C:/Users/Elaine/Desktop/subject-4.csv","legacy","5 3 2 6 9 8","Lentiform Loewenfeld","3.3.3","0","n","0","left","right","left","left","NA","974","108409","8358","974","NA","2","legacy","6","1024","2","48000","-16","experiment","4","even","4","595679","592320","593464","4774","202472","593468","573761","4785","194114","597685","598660","594473","113195","597684","NA","Sternberg task","46","74163","75","yes","1024"
"61.8421052631579","61.8421052631579","983.2105263157895","983.2105263157895","black","experiment","legacy","legacy","legacy","0","uniform","1","undefined","1","right","75","75","75","0","0","75","75","0","0","75","75","75","0","75","0","Sun Oct 25 16:21:28 2020","The main experiment item","yes","Sternberg task-5.osexp","C:\Users\Elaine\AppData\Local\Temp","no","mono","no","18","no","white","no","yes","768","legacy","63","11","C:/Users/Elaine/Desktop/subject-4.csv","legacy","6 8","Lentiform Loewenfeld","3.3.3","0","n","0","right","right","left","right","NA","561","108409","8358","561","NA","2","legacy","2","1024","2","48000","-16","experiment","4","even","9","602013","592320","599801","4774","202472","599803","598670","4785","194114","604018","604580","600808","113195","604018","NA","Sternberg task","47","74724","76","yes","1024"
"62.33766233766234","62.33766233766234","978.3636363636364","978.3636363636364","black","experiment","legacy","legacy","legacy","0","uniform","1","undefined","1","left","76","76","76","0","0","76","76","0","0","76","76","76","0","76","0","Sun Oct 25 16:21:28 2020","The main experiment item","yes","Sternberg task-5.osexp","C:\Users\Elaine\AppData\Local\Temp","no","mono","no","18","no","white","no","yes","768","legacy","64","11","C:/Users/Elaine/Desktop/subject-4.csv","legacy","5 7 8 2 3 8","Lentiform Loewenfeld","3.3.3","5","y","0","left","right","left","left","NA","610","108409","8358","610","NA","2","legacy","6","1024","2","48000","-16","experiment","4","even","3","607954","604590","605742","4774","202472","605744","598670","4785","194114","609959","610570","606749","113195","609959","NA","Sternberg task","48","75334","77","yes","1024"
"62.82051282051282","62.82051282051282","975.1666666666666","975.1666666666666","black","experiment","legacy","legacy","legacy","0","uniform","1","undefined","1","right","77","77","77","0","0","77","77","0","0","77","77","77","0","77","0","Sun Oct 25 16:21:28 2020","The main experiment item","yes","Sternberg task-5.osexp","C:\Users\Elaine\AppData\Local\Temp","no","mono","no","18","no","white","no","yes","768","legacy","65","11","C:/Users/Elaine/Desktop/subject-4.csv","legacy","6 3 1 7 9 8","Lentiform Loewenfeld","3.3.3","0","n","0","right","right","left","right","NA","729","108409","8358","729","NA","2","legacy","6","1024","2","48000","-16","experiment","4","even","4","613945","610581","611739","4774","202472","611742","598670","4785","194114","615951","616681","612743","113195","615950","NA","Sternberg task","49","76063","78","yes","1024"
"63.29113924050633","63.29113924050633","978.0253164556962","978.0253164556962","black","experiment","legacy","legacy","legacy","0","uniform","1","undefined","1","left","78","78","78","0","0","78","78","0","0","78","78","78","0","78","0","Sun Oct 25 16:21:28 2020","The main experiment item","yes","Sternberg task-5.osexp","C:\Users\Elaine\AppData\Local\Temp","no","mono","no","18","no","white","no","yes","768","legacy","66","11","C:/Users/Elaine/Desktop/subject-4.csv","legacy","3 5 7 1","Lentiform Loewenfeld","3.3.3","3","y","0","left","right","left","left","NA","1201","108409","8358","1201","NA","2","legacy","4","1024","2","48000","-16","experiment","4","even","7","620031","616689","617816","4774","202472","617818","598670","4785","194114","622037","623239","618823","113195","622037","NA","Sternberg task","50","77264","79","yes","1024"
"62.5","62.5","974.4125","974.4125","black","experiment","legacy","legacy","legacy","0","uniform","0","undefined","0","left","79","79","79","0","0","79","79","0","0","79","79","79","0","79","0","Sun Oct 25 16:21:28 2020","The main experiment item","yes","Sternberg task-5.osexp","C:\Users\Elaine\AppData\Local\Temp","no","mono","no","18","no","white","no","yes","768","legacy","67","11","C:/Users/Elaine/Desktop/subject-4.csv","legacy","8 5 3 7 4 6","Lentiform Loewenfeld","3.3.3","6","y","0","right","right","left","right","NA","689","108409","8358","689","NA","2","legacy","6","1024","2","48000","-16","experiment","4","even","6","626604","623246","624391","4774","202472","624394","598670","4785","194114","628609","629299","625399","113195","628609","NA","Sternberg task","50","77953","80","yes","1024"
"62.96296296296296","62.96296296296296","976.925925925926","976.925925925926","black","experiment","legacy","legacy","legacy","0","uniform","1","undefined","1","left","80","80","80","0","0","80","80","0","0","80","80","80","0","80","0","Sun Oct 25 16:21:28 2020","The main experiment item","yes","Sternberg task-5.osexp","C:\Users\Elaine\AppData\Local\Temp","no","mono","no","18","no","white","no","yes","768","legacy","68","11","C:/Users/Elaine/Desktop/subject-4.csv","legacy","6 7 8 5","Lentiform Loewenfeld","3.3.3","3","y","0","left","right","left","left","NA","1178","108409","8358","1178","NA","2","legacy","4","1024","2","48000","-16","experiment","4","even","8","632663","623246","630451","4774","202472","630453","629314","4785","194114","634670","635849","631458","113195","634669","NA","Sternberg task","51","79131","81","yes","1024"
"63.41463414634146","63.41463414634146","972.4634146341464","972.4634146341464","black","experiment","legacy","legacy","legacy","0","uniform","1","undefined","1","right","81","81","81","0","0","81","81","0","0","81","81","81","0","81","0","Sun Oct 25 16:21:28 2020","The main experiment item","yes","Sternberg task-5.osexp","C:\Users\Elaine\AppData\Local\Temp","no","mono","no","18","no","white","no","yes","768","legacy","69","11","C:/Users/Elaine/Desktop/subject-4.csv","legacy","1 6 4","Lentiform Loewenfeld","3.3.3","0","n","0","right","right","left","right","NA","611","108409","8358","611","NA","2","legacy","3","1024","2","48000","-16","experiment","4","even","7","639201","635861","636989","4774","202472","636991","629314","4785","194114","641207","641819","637996","113195","641207","NA","Sternberg task","52","79742","82","yes","1024"
"63.855421686746986","63.855421686746986","969.1686746987951","969.1686746987951","black","experiment","legacy","legacy","legacy","0","uniform","1","undefined","1","right","82","82","82","0","0","82","82","0","0","82","82","82","0","82","0","Sun Oct 25 16:21:28 2020","The main experiment item","yes","Sternberg task-5.osexp","C:\Users\Elaine\AppData\Local\Temp","no","mono","no","18","no","white","no","yes","768","legacy","70","11","C:/Users/Elaine/Desktop/subject-4.csv","legacy","5 9 2 3","Lentiform Loewenfeld","3.3.3","0","n","0","right","right","left","right","NA","699","108409","8358","699","NA","2","legacy","4","1024","2","48000","-16","experiment","4","even","8","645173","641828","642968","4774","202472","642970","629314","4785","194114","647179","647879","643971","113195","647179","NA","Sternberg task","53","80441","83","yes","1024"
"64.28571428571429","64.28571428571429","970.9642857142857","970.9642857142857","black","experiment","legacy","legacy","legacy","0","uniform","1","undefined","1","left","83","83","83","0","0","83","83","0","0","83","83","83","0","83","0","Sun Oct 25 16:21:28 2020","The main experiment item","yes","Sternberg task-5.osexp","C:\Users\Elaine\AppData\Local\Temp","no","mono","no","18","no","white","no","yes","768","legacy","71","11","C:/Users/Elaine/Desktop/subject-4.csv","legacy","4 1 5","Lentiform Loewenfeld","3.3.3","2","y","0","left","right","left","left","NA","1120","108409","8358","1120","NA","2","legacy","3","1024","2","48000","-16","experiment","4","even","1","651222","647885","649010","4774","202472","649012","629314","4785","194114","653228","654349","650017","113195","653228","NA","Sternberg task","54","81561","84","yes","1024"
"64.70588235294117","64.70588235294117","970.035294117647","970.035294117647","black","experiment","legacy","legacy","legacy","0","uniform","1","undefined","1","right","84","84","84","0","0","84","84","0","0","84","84","84","0","84","0","Sun Oct 25 16:21:28 2020","The main experiment item","yes","Sternberg task-5.osexp","C:\Users\Elaine\AppData\Local\Temp","no","mono","no","18","no","white","no","yes","768","legacy","72","11","C:/Users/Elaine/Desktop/subject-4.csv","legacy","2 5 1 4","Lentiform Loewenfeld","3.3.3","0","n","0","right","right","left","right","NA","892","108409","8358","892","NA","2","legacy","4","1024","2","48000","-16","experiment","4","even","6","657699","654358","655491","4774","202472","655493","629314","4785","194114","659706","660599","656494","113195","659706","NA","Sternberg task","55","82453","85","yes","1024"
"63.95348837209303","63.95348837209303","968.3255813953489","968.3255813953489","black","experiment","legacy","legacy","legacy","0","uniform","0","undefined","0","right","85","85","85","0","0","85","85","0","0","85","85","85","0","85","0","Sun Oct 25 16:21:28 2020","The main experiment item","yes","Sternberg task-5.osexp","C:\Users\Elaine\AppData\Local\Temp","no","mono","no","18","no","white","no","yes","768","legacy","73","11","C:/Users/Elaine/Desktop/subject-4.csv","legacy","8 9","Lentiform Loewenfeld","3.3.3","0","n","0","left","right","left","left","NA","823","108409","8358","823","NA","2","legacy","2","1024","2","48000","-16","experiment","4","even","5","663959","660607","661746","4774","202472","661748","629314","4785","194114","665964","666788","662753","113195","665964","NA","Sternberg task","55","83276","86","yes","1024"
"64.36781609195403","64.36781609195403","967.3103448275862","967.3103448275862","black","experiment","legacy","legacy","legacy","0","uniform","1","undefined","1","left","86","86","86","0","0","86","86","0","0","86","86","86","0","86","0","Sun Oct 25 16:21:28 2020","The main experiment item","yes","Sternberg task-5.osexp","C:\Users\Elaine\AppData\Local\Temp","no","mono","no","18","no","white","no","yes","768","legacy","74","11","C:/Users/Elaine/Desktop/subject-4.csv","legacy","6 9 7 4 5 1","Lentiform Loewenfeld","3.3.3","2","y","0","left","right","left","left","NA","880","108409","8358","880","NA","2","legacy","6","1024","2","48000","-16","experiment","4","even","9","670142","660607","667929","4774","202472","667932","666797","4785","194114","672148","673029","668937","113195","672148","NA","Sternberg task","56","84156","87","yes","1024"
"64.77272727272727","64.77272727272727","962.2272727272727","962.2272727272727","black","experiment","legacy","legacy","legacy","0","uniform","1","undefined","1","right","87","87","87","0","0","87","87","0","0","87","87","87","0","87","0","Sun Oct 25 16:21:28 2020","The main experiment item","yes","Sternberg task-5.osexp","C:\Users\Elaine\AppData\Local\Temp","no","mono","no","18","no","white","no","yes","768","legacy","75","11","C:/Users/Elaine/Desktop/subject-4.csv","legacy","1","Lentiform Loewenfeld","3.3.3","0","n","0","right","right","left","right","NA","520","108409","8358","520","NA","2","legacy","1","1024","2","48000","-16","experiment","4","even","7","676373","673042","674161","4774","202472","674163","666797","4785","194114","678378","678899","675168","113195","678378","NA","Sternberg task","57","84676","88","yes","1024"
"64.04494382022472","64.04494382022472","956.561797752809","956.561797752809","black","experiment","legacy","legacy","legacy","0","uniform","0","undefined","0","right","88","88","88","0","0","88","88","0","0","88","88","88","0","88","0","Sun Oct 25 16:21:28 2020","The main experiment item","yes","Sternberg task-5.osexp","C:\Users\Elaine\AppData\Local\Temp","no","mono","no","18","no","white","no","yes","768","legacy","76","11","C:/Users/Elaine/Desktop/subject-4.csv","legacy","5","Lentiform Loewenfeld","3.3.3","0","n","0","left","right","left","left","NA","458","108409","8358","458","NA","2","legacy","1","1024","2","48000","-16","experiment","4","even","8","682267","678908","680058","4774","202472","680061","666797","4785","194114","684269","684729","681066","113195","684268","NA","Sternberg task","57","85134","89","yes","1024"
"64.44444444444444","64.44444444444444","965.2444444444444","965.2444444444444","black","experiment","legacy","legacy","legacy","0","uniform","1","undefined","1","right","89","89","89","0","0","89","89","0","0","89","89","89","0","89","0","Sun Oct 25 16:21:28 2020","The main experiment item","yes","Sternberg task-5.osexp","C:\Users\Elaine\AppData\Local\Temp","no","mono","no","18","no","white","no","yes","768","legacy","77","11","C:/Users/Elaine/Desktop/subject-4.csv","legacy","2 8 7 9 5 3","Lentiform Loewenfeld","3.3.3","0","n","0","right","right","left","right","NA","1738","108409","8358","1738","NA","2","legacy","6","1024","2","48000","-16","experiment","4","even","6","688081","678908","685869","4774","202472","685873","684735","4785","194114","690089","691828","686876","113195","690088","NA","Sternberg task","58","86872","90","yes","1024"
"64.83516483516483","64.83516483516483","971.3846153846154","971.3846153846154","black","experiment","legacy","legacy","legacy","0","uniform","1","undefined","1","left","90","90","90","0","0","90","90","0","0","90","90","90","0","90","0","Sun Oct 25 16:21:28 2020","The main experiment item","yes","Sternberg task-5.osexp","C:\Users\Elaine\AppData\Local\Temp","no","mono","no","18","no","white","no","yes","768","legacy","78","11","C:/Users/Elaine/Desktop/subject-4.csv","legacy","8 7 3","Lentiform Loewenfeld","3.3.3","1","y","0","left","right","left","left","NA","1524","108409","8358","1524","NA","2","legacy","3","1024","2","48000","-16","experiment","4","even","8","695206","691837","692989","4774","202472","692991","684735","4785","194114","697212","698737","694000","113195","697211","NA","Sternberg task","59","88396","91","yes","1024"
"65.21739130434783","65.21739130434783","970.6086956521739","970.6086956521739","black","experiment","legacy","legacy","legacy","0","uniform","1","undefined","1","right","91","91","91","0","0","91","91","0","0","91","91","91","0","91","0","Sun Oct 25 16:21:28 2020","The main experiment item","yes","Sternberg task-5.osexp","C:\Users\Elaine\AppData\Local\Temp","no","mono","no","18","no","white","no","yes","768","legacy","79","11","C:/Users/Elaine/Desktop/subject-4.csv","legacy","7 9","Lentiform Loewenfeld","3.3.3","0","n","0","right","right","left","right","NA","900","108409","8358","900","NA","2","legacy","2","1024","2","48000","-16","experiment","4","even","1","702098","698744","699885","4774","202472","699888","684735","4785","194114","704101","705002","700893","113195","704100","NA","Sternberg task","60","89296","92","yes","1024"
"64.51612903225806","64.51612903225806","969.6559139784946","969.6559139784946","black","experiment","legacy","legacy","legacy","0","uniform","0","undefined","0","right","92","92","92","0","0","92","92","0","0","92","92","92","0","92","0","Sun Oct 25 16:21:28 2020","The main experiment item","yes","Sternberg task-5.osexp","C:\Users\Elaine\AppData\Local\Temp","no","mono","no","18","no","white","no","yes","768","legacy","80","11","C:/Users/Elaine/Desktop/subject-4.csv","legacy","8 2 1 4 5 9","Lentiform Loewenfeld","3.3.3","0","n","0","left","right","left","left","NA","882","108409","8358","882","NA","2","legacy","6","1024","2","48000","-16","experiment","4","even","7","708367","705011","706154","4774","202472","706157","684735","4785","194114","710374","711257","707162","113195","710373","NA","Sternberg task","60","90178","93","yes","1024"
"63.829787234042556","63.829787234042556","971.2446808510638","971.2446808510638","black","experiment","legacy","legacy","legacy","0","uniform","0","undefined","0","left","93","93","93","0","0","93","93","0","0","93","93","93","0","93","0","Sun Oct 25 16:21:28 2020","The main experiment item","yes","Sternberg task-5.osexp","C:\Users\Elaine\AppData\Local\Temp","no","mono","no","18","no","white","no","yes","768","legacy","81","11","C:/Users/Elaine/Desktop/subject-4.csv","legacy","4 1 8 7 5","Lentiform Loewenfeld","3.3.3","3","y","0","right","right","left","right","NA","1119","108409","8358","1119","NA","2","legacy","5","1024","2","48000","-16","experiment","4","even","8","714610","705011","712396","4774","202472","712398","711272","4785","194114","716617","717737","713404","113195","716616","NA","Sternberg task","60","91297","94","yes","1024"
"64.21052631578948","64.21052631578948","971.4526315789474","971.4526315789474","black","experiment","legacy","legacy","legacy","0","uniform","1","undefined","1","left","94","94","94","0","0","94","94","0","0","94","94","94","0","94","0","Sun Oct 25 16:21:28 2020","The main experiment item","yes","Sternberg task-5.osexp","C:\Users\Elaine\AppData\Local\Temp","no","mono","no","18","no","white","no","yes","768","legacy","82","11","C:/Users/Elaine/Desktop/subject-4.csv","legacy","8 1 6","Lentiform Loewenfeld","3.3.3","3","y","0","left","right","left","left","NA","991","108409","8358","991","NA","2","legacy","3","1024","2","48000","-16","experiment","4","even","6","721099","705011","718885","4774","202472","718887","717752","4785","194114","723105","724097","719894","113195","723104","NA","Sternberg task","61","92288","95","yes","1024"
"64.58333333333333","64.58333333333333","969.0729166666666","969.0729166666666","black","experiment","legacy","legacy","legacy","0","uniform","1","undefined","1","right","95","95","95","0","0","95","95","0","0","95","95","95","0","95","0","Sun Oct 25 16:21:28 2020","The main experiment item","yes","Sternberg task-5.osexp","C:\Users\Elaine\AppData\Local\Temp","no","mono","no","18","no","white","no","yes","768","legacy","83","11","C:/Users/Elaine/Desktop/subject-4.csv","legacy","2 8 6 3 1","Lentiform Loewenfeld","3.3.3","0","n","0","right","right","left","right","NA","743","108409","8358","743","NA","2","legacy","5","1024","2","48000","-16","experiment","4","even","7","727461","724106","725248","4774","202472","725250","717752","4785","194114","729467","730211","726255","113195","729466","NA","Sternberg task","62","93031","96","yes","1024"
"63.91752577319588","63.91752577319588","967.3711340206186","967.3711340206186","black","experiment","legacy","legacy","legacy","0","uniform","0","undefined","0","right","96","96","96","0","0","96","96","0","0","96","96","96","0","96","0","Sun Oct 25 16:21:28 2020","The main experiment item","yes","Sternberg task-5.osexp","C:\Users\Elaine\AppData\Local\Temp","no","mono","no","18","no","white","no","yes","768","legacy","84","11","C:/Users/Elaine/Desktop/subject-4.csv","legacy","1 4 9 3","Lentiform Loewenfeld","3.3.3","0","n","0","left","right","left","left","NA","804","108409","8358","804","NA","2","legacy","4","1024","2","48000","-16","experiment","4","even","5","733576","730220","731363","4774","202472","731364","717752","4785","194114","735582","736387","732371","113195","735581","NA","Sternberg task","62","93835","97","yes","1024"
"64.28571428571429","64.28571428571429","964.530612244898","964.530612244898","black","experiment","legacy","legacy","legacy","0","uniform","1","undefined","1","right","97","97","97","0","0","97","97","0","0","97","97","97","0","97","0","Sun Oct 25 16:21:28 2020","The main experiment item","yes","Sternberg task-5.osexp","C:\Users\Elaine\AppData\Local\Temp","no","mono","no","18","no","white","no","yes","768","legacy","85","11","C:/Users/Elaine/Desktop/subject-4.csv","legacy","7 3 2 8","Lentiform Loewenfeld","3.3.3","0","n","0","right","right","left","right","NA","689","108409","8358","689","NA","2","legacy","4","1024","2","48000","-16","experiment","4","even","4","739758","730220","737545","4774","202472","737547","736402","4785","194114","741767","742457","738553","113195","741764","NA","Sternberg task","63","94524","98","yes","1024"
"64.64646464646465","64.64646464646465","964.2525252525253","964.2525252525253","black","experiment","legacy","legacy","legacy","0","uniform","1","undefined","1","right","98","98","98","0","0","98","98","0","0","98","98","98","0","98","0","Sun Oct 25 16:21:28 2020","The main experiment item","yes","Sternberg task-5.osexp","C:\Users\Elaine\AppData\Local\Temp","no","mono","no","18","no","white","no","yes","768","legacy","86","11","C:/Users/Elaine/Desktop/subject-4.csv","legacy","9 8 2 7 4","Lentiform Loewenfeld","3.3.3","0","n","0","right","right","left","right","NA","937","108409","8358","937","NA","2","legacy","5","1024","2","48000","-16","experiment","4","even","5","745810","742465","743596","4774","202472","743600","736402","4785","194114","747839","748777","744605","113195","747815","NA","Sternberg task","64","95461","99","yes","1024"
"64","64","960.1","960.1","black","experiment","legacy","legacy","legacy","0","uniform","0","undefined","0","right","99","99","99","0","0","99","99","0","0","99","99","99","0","99","0","Sun Oct 25 16:21:28 2020","The main experiment item","yes","Sternberg task-5.osexp","C:\Users\Elaine\AppData\Local\Temp","no","mono","no","18","no","white","no","yes","768","legacy","87","11","C:/Users/Elaine/Desktop/subject-4.csv","legacy","7 1","Lentiform Loewenfeld","3.3.3","0","n","0","left","right","left","left","NA","549","108409","8358","549","NA","2","legacy","2","1024","2","48000","-16","experiment","4","even","8","752137","748784","749919","4774","202472","749926","736402","4785","194114","754157","754707","750931","113195","754148","NA","Sternberg task","64","96010","100","yes","1024"
"64.35643564356435","64.35643564356435","961.7623762376238","961.7623762376238","black","experiment","legacy","legacy","legacy","0","uniform","1","undefined","1","right","100","100","100","0","0","100","100","0","0","100","100","100","0","100","0","Sun Oct 25 16:21:28 2020","The main experiment item","yes","Sternberg task-5.osexp","C:\Users\Elaine\AppData\Local\Temp","no","mono","no","18","no","white","no","yes","768","legacy","88","11","C:/Users/Elaine/Desktop/subject-4.csv","legacy","3 4 2","Lentiform Loewenfeld","3.3.3","0","n","0","right","right","left","right","NA","1128","108409","8358","1128","NA","2","legacy","3","1024","2","48000","-16","experiment","4","even","5","758065","748784","755854","4774","202472","755857","754716","4785","194114","760071","761201","756863","113195","760070","NA","Sternberg task","65","97138","101","yes","1024"
"64.70588235294117","64.70588235294117","962.5098039215686","962.5098039215686","black","experiment","legacy","legacy","legacy","0","uniform","1","undefined","1","left","101","101","101","0","0","101","101","0","0","101","101","101","0","101","0","Sun Oct 25 16:21:28 2020","The main experiment item","yes","Sternberg task-5.osexp","C:\Users\Elaine\AppData\Local\Temp","no","mono","no","18","no","white","no","yes","768","legacy","89","11","C:/Users/Elaine/Desktop/subject-4.csv","legacy","2 6 1 7 4","Lentiform Loewenfeld","3.3.3","2","y","0","left","right","left","left","NA","1038","108409","8358","1038","NA","2","legacy","5","1024","2","48000","-16","experiment","4","even","6","764556","761208","762343","4774","202472","762345","754716","4785","194114","766561","767601","763350","113195","766561","NA","Sternberg task","66","98176","102","yes","1024"
"65.04854368932038","65.04854368932038","960.504854368932","960.504854368932","black","experiment","legacy","legacy","legacy","0","uniform","1","undefined","1","right","102","102","102","0","0","102","102","0","0","102","102","102","0","102","0","Sun Oct 25 16:21:28 2020","The main experiment item","yes","Sternberg task-5.osexp","C:\Users\Elaine\AppData\Local\Temp","no","mono","no","18","no","white","no","yes","768","legacy","90","11","C:/Users/Elaine/Desktop/subject-4.csv","legacy","2 7 5","Lentiform Loewenfeld","3.3.3","0","n","0","right","right","left","right","NA","756","108409","8358","756","NA","2","legacy","3","1024","2","48000","-16","experiment","4","even","8","770958","767615","768744","4774","202472","768746","754716","4785","194114","772963","773721","769753","113195","772963","NA","Sternberg task","67","98932","103","yes","1024"
"65.38461538461539","65.38461538461539","961.875","961.875","black","experiment","legacy","legacy","legacy","0","uniform","1","undefined","1","left","103","103","103","0","0","103","103","0","0","103","103","103","0","103","0","Sun Oct 25 16:21:28 2020","The main experiment item","yes","Sternberg task-5.osexp","C:\Users\Elaine\AppData\Local\Temp","no","mono","no","18","no","white","no","yes","768","legacy","91","11","C:/Users/Elaine/Desktop/subject-4.csv","legacy","2 5 4 8 7","Lentiform Loewenfeld","3.3.3","3","y","0","left","right","left","left","NA","1103","108409","8358","1103","NA","2","legacy","5","1024","2","48000","-16","experiment","4","even","4","777075","773729","774862","4774","202472","774865","754716","4785","194114","779081","780185","775870","113195","779080","NA","Sternberg task","68","100035","104","yes","1024"
"65.71428571428571","65.71428571428571","958.6857142857143","958.6857142857143","black","experiment","legacy","legacy","legacy","0","uniform","1","undefined","1","right","104","104","104","0","0","104","104","0","0","104","104","104","0","104","0","Sun Oct 25 16:21:28 2020","The main experiment item","yes","Sternberg task-5.osexp","C:\Users\Elaine\AppData\Local\Temp","no","mono","no","18","no","white","no","yes","768","legacy","92","11","C:/Users/Elaine/Desktop/subject-4.csv","legacy","9","Lentiform Loewenfeld","3.3.3","0","n","0","right","right","left","right","NA","627","108409","8358","627","NA","2","legacy","1","1024","2","48000","-16","experiment","4","even","6","783536","780194","781324","4774","202472","781326","754716","4785","194114","785542","786171","782331","113195","785542","NA","Sternberg task","69","100662","105","yes","1024"
"65.09433962264151","65.09433962264151","962.0566037735849","962.0566037735849","black","experiment","legacy","legacy","legacy","0","uniform","0","undefined","0","left","105","105","105","0","0","105","105","0","0","105","105","105","0","105","0","Sun Oct 25 16:21:28 2020","The main experiment item","yes","Sternberg task-5.osexp","C:\Users\Elaine\AppData\Local\Temp","no","mono","no","18","no","white","no","yes","768","legacy","93","11","C:/Users/Elaine/Desktop/subject-4.csv","legacy","8 9 5 7 1 6","Lentiform Loewenfeld","3.3.3","4","y","0","right","right","left","right","NA","1316","108409","8358","1316","NA","2","legacy","6","1024","2","48000","-16","experiment","4","even","7","789532","786180","787319","4774","202472","787321","754716","4785","194114","791538","792856","788327","113195","791538","NA","Sternberg task","69","101978","106","yes","1024"
"64.48598130841121","64.48598130841121","960.6915887850467","960.6915887850467","black","experiment","legacy","legacy","legacy","0","uniform","0","undefined","0","right","106","106","106","0","0","106","106","0","0","106","106","106","0","106","0","Sun Oct 25 16:21:28 2020","The main experiment item","yes","Sternberg task-5.osexp","C:\Users\Elaine\AppData\Local\Temp","no","mono","no","18","no","white","no","yes","768","legacy","94","11","C:/Users/Elaine/Desktop/subject-4.csv","legacy","5 7 3","Lentiform Loewenfeld","3.3.3","0","n","0","left","right","left","left","NA","816","108409","8358","816","NA","2","legacy","3","1024","2","48000","-16","experiment","4","even","9","796221","786180","794009","4774","202472","794011","792865","4785","194114","798228","799045","795016","113195","798227","NA","Sternberg task","69","102794","107","yes","1024"
"64.81481481481481","64.81481481481481","959.3611111111111","959.3611111111111","black","experiment","legacy","legacy","legacy","0","uniform","1","undefined","1","right","107","107","107","0","0","107","107","0","0","107","107","107","0","107","0","Sun Oct 25 16:21:28 2020","The main experiment item","yes","Sternberg task-5.osexp","C:\Users\Elaine\AppData\Local\Temp","no","mono","no","18","no","white","no","yes","768","legacy","95","11","C:/Users/Elaine/Desktop/subject-4.csv","legacy","6 9 7 3 8 2","Lentiform Loewenfeld","3.3.3","0","n","0","right","right","left","right","NA","817","108409","8358","817","NA","2","legacy","6","1024","2","48000","-16","experiment","4","even","5","802411","786180","800197","4774","202472","800199","799054","4785","194114","804416","805235","801205","113195","804416","NA","Sternberg task","70","103611","108","yes","1024"
"64.22018348623853","64.22018348623853","958.7614678899082","958.7614678899082","black","experiment","legacy","legacy","legacy","0","uniform","0","undefined","0","left","108","108","108","0","0","108","108","0","0","108","108","108","0","108","0","Sun Oct 25 16:21:28 2020","The main experiment item","yes","Sternberg task-5.osexp","C:\Users\Elaine\AppData\Local\Temp","no","mono","no","18","no","white","no","yes","768","legacy","96","11","C:/Users/Elaine/Desktop/subject-4.csv","legacy","9 5 3 8 4","Lentiform Loewenfeld","3.3.3","1","y","0","right","right","left","right","NA","894","108409","8358","894","NA","2","legacy","5","1024","2","48000","-16","experiment","4","even","9","808594","805250","806381","4774","202472","806383","799054","4785","194114","810600","811495","807389","113195","810600","NA","Sternberg task","70","104505","109","yes","1024"
"64.54545454545455","64.54545454545455","958.6454545454545","958.6454545454545","black","experiment","legacy","legacy","legacy","0","uniform","1","undefined","1","left","109","109","109","0","0","109","109","0","0","109","109","109","0","109","0","Sun Oct 25 16:21:28 2020","The main experiment item","yes","Sternberg task-5.osexp","C:\Users\Elaine\AppData\Local\Temp","no","mono","no","18","no","white","no","yes","768","legacy","97","11","C:/Users/Elaine/Desktop/subject-4.csv","legacy","9 3 1 2 5","Lentiform Loewenfeld","3.3.3","4","y","0","left","right","left","left","NA","946","108409","8358","946","NA","2","legacy","5","1024","2","48000","-16","experiment","4","even","2","814840","805250","812627","4774","202472","812629","811504","4785","194114","816847","817795","813634","113195","816846","NA","Sternberg task","71","105451","110","yes","1024"
"64.86486486486487","64.86486486486487","955.7747747747748","955.7747747747748","black","experiment","legacy","legacy","legacy","0","uniform","1","undefined","1","right","110","110","110","0","0","110","110","0","0","110","110","110","0","110","0","Sun Oct 25 16:21:28 2020","The main experiment item","yes","Sternberg task-5.osexp","C:\Users\Elaine\AppData\Local\Temp","no","mono","no","18","no","white","no","yes","768","legacy","98","11","C:/Users/Elaine/Desktop/subject-4.csv","legacy","7 9 1 6","Lentiform Loewenfeld","3.3.3","0","n","0","right","right","left","right","NA","640","108409","8358","640","NA","2","legacy","4","1024","2","48000","-16","experiment","4","even","4","821162","817810","818949","4774","202472","818952","811504","4785","194114","823168","823809","819957","113195","823167","NA","Sternberg task","72","106091","111","yes","1024"
"64.28571428571429","64.28571428571429","953.5","953.5","black","experiment","legacy","legacy","legacy","0","uniform","0","undefined","0","left","111","111","111","0","0","111","111","0","0","111","111","111","0","111","0","Sun Oct 25 16:21:28 2020","The main experiment item","yes","Sternberg task-5.osexp","C:\Users\Elaine\AppData\Local\Temp","no","mono","no","18","no","white","no","yes","768","legacy","99","11","C:/Users/Elaine/Desktop/subject-4.csv","legacy","3 5 9 6 2 4","Lentiform Loewenfeld","3.3.3","1","y","0","right","right","left","right","NA","701","108409","8358","701","NA","2","legacy","6","1024","2","48000","-16","experiment","4","even","3","827158","823819","824946","4774","202472","824948","811504","4785","194114","829163","829866","825953","113195","829163","NA","Sternberg task","72","106792","112","yes","1024"
"63.716814159292035","63.716814159292035","951.4513274336283","951.4513274336283","black","experiment","legacy","legacy","legacy","0","uniform","0","undefined","0","right","112","112","112","0","0","112","112","0","0","112","112","112","0","112","0","Sun Oct 25 16:21:28 2020","The main experiment item","yes","Sternberg task-5.osexp","C:\Users\Elaine\AppData\Local\Temp","no","mono","no","18","no","white","no","yes","768","legacy","100","11","C:/Users/Elaine/Desktop/subject-4.csv","legacy","6 8 4","Lentiform Loewenfeld","3.3.3","0","n","0","left","right","left","left","NA","722","108409","8358","722","NA","2","legacy","3","1024","2","48000","-16","experiment","4","even","1","833219","823819","831008","4774","202472","831010","829882","4785","194114","835222","835945","832015","113195","835222","NA","Sternberg task","72","107514","113","yes","1024"
"64.03508771929825","64.03508771929825","950.4649122807018","950.4649122807018","black","experiment","legacy","legacy","legacy","0","uniform","1","undefined","1","right","113","113","113","0","0","113","113","0","0","113","113","113","0","113","0","Sun Oct 25 16:21:28 2020","The main experiment item","yes","Sternberg task-5.osexp","C:\Users\Elaine\AppData\Local\Temp","no","mono","no","18","no","white","no","yes","768","legacy","101","11","C:/Users/Elaine/Desktop/subject-4.csv","legacy","9 7 4 5 8","Lentiform Loewenfeld","3.3.3","0","n","0","right","right","left","right","NA","839","108409","8358","839","NA","2","legacy","5","1024","2","48000","-16","experiment","4","even","6","839308","823819","837094","4774","202472","837096","835952","4785","194114","841314","842154","838100","113195","841313","NA","Sternberg task","73","108353","114","yes","1024"
"63.47826086956522","63.47826086956522","948.9826086956522","948.9826086956522","black","experiment","legacy","legacy","legacy","0","uniform","0","undefined","0","right","114","114","114","0","0","114","114","0","0","114","114","114","0","114","0","Sun Oct 25 16:21:28 2020","The main experiment item","yes","Sternberg task-5.osexp","C:\Users\Elaine\AppData\Local\Temp","no","mono","no","18","no","white","no","yes","768","legacy","102","11","C:/Users/Elaine/Desktop/subject-4.csv","legacy","7 6 4 8 1 2","Lentiform Loewenfeld","3.3.3","0","n","0","left","right","left","left","NA","780","108409","8358","780","NA","2","legacy","6","1024","2","48000","-16","experiment","4","even","9","845516","842168","843303","4774","202472","843305","835952","4785","194114","847522","848304","844311","113195","847521","NA","Sternberg task","73","109133","115","yes","1024"
"62.93103448275862","62.93103448275862","949.801724137931","949.801724137931","black","experiment","legacy","legacy","legacy","0","uniform","0","undefined","0","left","115","115","115","0","0","115","115","0","0","115","115","115","0","115","0","Sun Oct 25 16:21:28 2020","The main experiment item","yes","Sternberg task-5.osexp","C:\Users\Elaine\AppData\Local\Temp","no","mono","no","18","no","white","no","yes","768","legacy","103","11","C:/Users/Elaine/Desktop/subject-4.csv","legacy","6 1 2","Lentiform Loewenfeld","3.3.3","3","y","0","right","right","left","right","NA","1044","108409","8358","1044","NA","2","legacy","3","1024","2","48000","-16","experiment","4","even","2","851662","842168","849448","4774","202472","849450","848313","4785","194114","853668","854713","850455","113195","853667","NA","Sternberg task","73","110177","116","yes","1024"
"62.39316239316239","62.39316239316239","947.4700854700855","947.4700854700855","black","experiment","legacy","legacy","legacy","0","uniform","0","undefined","0","left","116","116","116","0","0","116","116","0","0","116","116","116","0","116","0","Sun Oct 25 16:21:28 2020","The main experiment item","yes","Sternberg task-5.osexp","C:\Users\Elaine\AppData\Local\Temp","no","mono","no","18","no","white","no","yes","768","legacy","104","11","C:/Users/Elaine/Desktop/subject-4.csv","legacy","5 7 3 6 2","Lentiform Loewenfeld","3.3.3","5","y","0","right","right","left","right","NA","677","108409","8358","677","NA","2","legacy","5","1024","2","48000","-16","experiment","4","even","2","858068","842168","855855","4774","202472","855858","854722","4785","194114","860075","860753","856863","113195","860074","NA","Sternberg task","73","110854","117","yes","1024"
