"acc","accuracy","average_response_time","avg_rt","background","block","canvas_backend","clock_backend","color_backend","compensation","coordinates","correct","correct_instructions1","correct_new_keyboard_response","correct_response","count_ISI","count_MemorySet","count_PracticeLoop","count_correctFeedback","count_expSequence","count_experiment","count_experimentLoop","count_fixation","count_incorrectFeedback","count_instructions1","count_instructions2","count_logger","count_new_keyboard_response","count_probe","count_thankYou","datetime","description","disable_garbage_collection","experiment_file","experiment_path","font_bold","font_family","font_italic","font_size","font_underline","foreground","form_clicks","fullscreen","height","keyboard_backend","live_row","live_row_PracticeLoop","logfile","mouse_backend","numberSet","opensesame_codename","opensesame_version","posInSet","present","repeat_cycle","response","response_instructions1","response_instructions2","response_new_keyboard_response","response_thankYou","response_time","response_time_instructions1","response_time_instructions2","response_time_new_keyboard_response","response_time_thankYou","round_decimals","sampler_backend","setSize","sound_buf_size","sound_channels","sound_freq","sound_sample_size","start","subject_nr","subject_parity","target","time_ISI","time_MemorySet","time_PracticeLoop","time_correctFeedback","time_expSequence","time_experiment","time_experimentLoop","time_fixation","time_incorrectFeedback","time_instructions1","time_instructions2","time_logger","time_new_keyboard_response","time_probe","time_thankYou","title","total_correct","total_response_time","total_responses","uniform_coordinates","width"
"100","100","1151","1151","black","practice","legacy","legacy","legacy","0","uniform","1","undefined","1","right","0","0","0","0","0","0","0","0","0","0","0","0","0","0","0","Sun Oct 25 18:56:25 2020","The main experiment item","yes","HoughSternbergTask.osexp","/Users/tionnahough/Desktop/Fall 2020","no","mono","no","18","no","white","no","yes","768","legacy","0","0","/Users/tionnahough/Desktop/th-subject-3.csv","legacy","2 1","Lentiform Loewenfeld","3.3.3","0","n","0","right","left","NA","right","NA","1151","85423","NA","1151","NA","2","legacy","2","1024","2","48000","-16","experiment","3","odd","5","90803","89589","88205","NA","88559","2728","NA","88575","NA","2757","NA","93966","92814","92814","NA","Sternberg Task","1","1151","1","yes","1024"
"50","50","1432.5","1432.5","black","practice","legacy","legacy","legacy","0","uniform","0","undefined","0","left","1","1","0","1","1","0","0","1","1","0","0","1","1","1","0","Sun Oct 25 18:56:25 2020","The main experiment item","yes","HoughSternbergTask.osexp","/Users/tionnahough/Desktop/Fall 2020","no","mono","no","18","no","white","no","yes","768","legacy","1","1","/Users/tionnahough/Desktop/th-subject-3.csv","legacy","4 3 1 7 9 8","Lentiform Loewenfeld","3.3.3","1","y","0","right","left","NA","right","NA","1714","85423","NA","1714","NA","2","legacy","6","1024","2","48000","-16","experiment","3","odd","4","97437","96224","88205","94022","95200","2728","NA","95212","NA","2757","NA","101165","99450","99449","NA","Sternberg Task","1","2865","2","yes","1024"
"66.66666666666667","66.66666666666667","1482","1482","black","practice","legacy","legacy","legacy","0","uniform","1","undefined","1","left","2","2","0","2","2","0","0","2","2","0","0","2","2","2","0","Sun Oct 25 18:56:25 2020","The main experiment item","yes","HoughSternbergTask.osexp","/Users/tionnahough/Desktop/Fall 2020","no","mono","no","18","no","white","no","yes","768","legacy","2","2","/Users/tionnahough/Desktop/th-subject-3.csv","legacy","1 7 9 8 5","Lentiform Loewenfeld","3.3.3","4","y","0","left","left","NA","left","NA","1581","85423","NA","1581","NA","2","legacy","5","1024","2","48000","-16","experiment","3","odd","8","104504","103289","88205","94022","102264","2728","NA","102275","101186","2757","NA","108100","106518","106518","NA","Sternberg Task","2","4446","3","yes","1024"
"75","75","1400","1400","black","practice","legacy","legacy","legacy","0","uniform","1","undefined","1","left","3","3","0","3","3","0","0","3","3","0","0","3","3","3","0","Sun Oct 25 18:56:25 2020","The main experiment item","yes","HoughSternbergTask.osexp","/Users/tionnahough/Desktop/Fall 2020","no","mono","no","18","no","white","no","yes","768","legacy","3","3","/Users/tionnahough/Desktop/th-subject-3.csv","legacy","2 9 4","Lentiform Loewenfeld","3.3.3","3","y","0","left","left","NA","left","NA","1154","85423","NA","1154","NA","2","legacy","3","1024","2","48000","-16","experiment","3","odd","4","111438","110224","88205","108121","109197","2728","NA","109212","101186","2757","NA","114605","113450","113450","NA","Sternberg Task","3","5600","4","yes","1024"
"80","80","1269.6","1269.6","black","practice","legacy","legacy","legacy","0","uniform","1","undefined","1","right","4","4","0","4","4","0","0","4","4","0","0","4","4","4","0","Sun Oct 25 18:56:25 2020","The main experiment item","yes","HoughSternbergTask.osexp","/Users/tionnahough/Desktop/Fall 2020","no","mono","no","18","no","white","no","yes","768","legacy","4","4","/Users/tionnahough/Desktop/th-subject-3.csv","legacy","9 6 7 4 5","Lentiform Loewenfeld","3.3.3","0","n","0","right","left","NA","right","NA","748","85423","NA","748","NA","2","legacy","5","1024","2","48000","-16","experiment","3","odd","3","117960","116748","88205","114635","115715","2728","NA","115731","101186","2757","NA","120725","119975","119975","NA","Sternberg Task","4","6348","5","yes","1024"
"83.33333333333333","83.33333333333333","1232.1666666666667","1232.1666666666667","black","practice","legacy","legacy","legacy","0","uniform","1","undefined","1","right","5","5","0","5","5","0","0","5","5","0","0","5","5","5","0","Sun Oct 25 18:56:25 2020","The main experiment item","yes","HoughSternbergTask.osexp","/Users/tionnahough/Desktop/Fall 2020","no","mono","no","18","no","white","no","yes","768","legacy","5","5","/Users/tionnahough/Desktop/th-subject-3.csv","legacy","3 1 9 4","Lentiform Loewenfeld","3.3.3","0","n","0","right","left","NA","right","NA","1045","85423","NA","1045","NA","2","legacy","4","1024","2","48000","-16","experiment","3","odd","6","124058","122844","88205","120746","121821","2728","NA","121833","101186","2757","NA","127115","126069","126069","NA","Sternberg Task","5","7393","6","yes","1024"
"85.71428571428571","85.71428571428571","1195.142857142857","1195.142857142857","black","practice","legacy","legacy","legacy","0","uniform","1","undefined","1","right","6","6","0","6","6","0","0","6","6","0","0","6","6","6","0","Sun Oct 25 18:56:25 2020","The main experiment item","yes","HoughSternbergTask.osexp","/Users/tionnahough/Desktop/Fall 2020","no","mono","no","18","no","white","no","yes","768","legacy","6","6","/Users/tionnahough/Desktop/th-subject-3.csv","legacy","4 1 5","Lentiform Loewenfeld","3.3.3","0","n","0","right","left","NA","right","NA","973","85423","NA","973","NA","2","legacy","3","1024","2","48000","-16","experiment","3","odd","2","130450","129237","88205","127137","128213","2728","NA","128225","101186","2757","NA","133436","132462","132462","NA","Sternberg Task","6","8366","7","yes","1024"
"75","75","1295.75","1295.75","black","practice","legacy","legacy","legacy","0","uniform","0","undefined","0","right","7","7","0","7","7","0","0","7","7","0","0","7","7","7","0","Sun Oct 25 18:56:25 2020","The main experiment item","yes","HoughSternbergTask.osexp","/Users/tionnahough/Desktop/Fall 2020","no","mono","no","18","no","white","no","yes","768","legacy","7","7","/Users/tionnahough/Desktop/th-subject-3.csv","legacy","5","Lentiform Loewenfeld","3.3.3","0","n","0","None","left","NA","None","NA","2000","85423","NA","2000","NA","2","legacy","1","1024","2","48000","-16","experiment","3","odd","3","136770","135556","88205","133457","134532","2728","NA","134544","101186","2757","NA","140784","138784","138784","NA","Sternberg Task","6","10366","8","yes","1024"
"77.77777777777777","77.77777777777777","1293.111111111111","1293.111111111111","black","practice","legacy","legacy","legacy","0","uniform","1","undefined","1","right","8","8","0","8","8","0","0","8","8","0","0","8","8","8","0","Sun Oct 25 18:56:25 2020","The main experiment item","yes","HoughSternbergTask.osexp","/Users/tionnahough/Desktop/Fall 2020","no","mono","no","18","no","white","no","yes","768","legacy","8","8","/Users/tionnahough/Desktop/th-subject-3.csv","legacy","5 7 8 4 1 2","Lentiform Loewenfeld","3.3.3","0","n","0","right","left","NA","right","NA","1272","85423","NA","1272","NA","2","legacy","6","1024","2","48000","-16","experiment","3","odd","6","144119","142905","88205","133457","141882","2728","NA","141894","140806","2757","NA","147403","146130","146130","NA","Sternberg Task","7","11638","9","yes","1024"
"80","80","1265","1265","black","practice","legacy","legacy","legacy","0","uniform","1","undefined","1","left","9","9","0","9","9","0","0","9","9","0","0","9","9","9","0","Sun Oct 25 18:56:25 2020","The main experiment item","yes","HoughSternbergTask.osexp","/Users/tionnahough/Desktop/Fall 2020","no","mono","no","18","no","white","no","yes","768","legacy","9","9","/Users/tionnahough/Desktop/th-subject-3.csv","legacy","1 5 2 9","Lentiform Loewenfeld","3.3.3","2","y","0","left","left","NA","left","NA","1012","85423","NA","1012","NA","2","legacy","4","1024","2","48000","-16","experiment","3","odd","5","150737","149524","88205","147425","148500","2728","NA","148512","140806","2757","NA","153763","152749","152749","NA","Sternberg Task","8","12650","10","yes","1024"
"72.72727272727273","72.72727272727273","1287","1287","black","practice","legacy","legacy","legacy","0","uniform","0","undefined","0","left","10","10","0","10","10","0","0","10","10","0","0","10","10","10","0","Sun Oct 25 18:56:25 2020","The main experiment item","yes","HoughSternbergTask.osexp","/Users/tionnahough/Desktop/Fall 2020","no","mono","no","18","no","white","no","yes","768","legacy","10","10","/Users/tionnahough/Desktop/th-subject-3.csv","legacy","6","Lentiform Loewenfeld","3.3.3","1","y","0","right","left","NA","right","NA","1507","85423","NA","1507","NA","2","legacy","1","1024","2","48000","-16","experiment","3","odd","6","157098","155885","88205","153784","154860","2728","NA","154872","140806","2757","NA","160618","159110","159110","NA","Sternberg Task","8","14157","11","yes","1024"
"75","75","1278.8333333333333","1278.8333333333333","black","practice","legacy","legacy","legacy","0","uniform","1","undefined","1","left","11","11","0","11","11","0","0","11","11","0","0","11","11","11","0","Sun Oct 25 18:56:25 2020","The main experiment item","yes","HoughSternbergTask.osexp","/Users/tionnahough/Desktop/Fall 2020","no","mono","no","18","no","white","no","yes","768","legacy","11","11","/Users/tionnahough/Desktop/th-subject-3.csv","legacy","4 8","Lentiform Loewenfeld","3.3.3","1","y","0","left","left","NA","left","NA","1189","85423","NA","1189","NA","2","legacy","2","1024","2","48000","-16","experiment","3","odd","4","163951","162737","88205","153784","161713","2728","NA","161725","160639","2757","NA","167153","165963","165963","NA","Sternberg Task","9","15346","12","yes","1024"
"69.23076923076923","69.23076923076923","1247.3076923076924","1247.3076923076924","black","experiment","legacy","legacy","legacy","0","uniform","0","undefined","0","right","12","12","0","12","12","0","0","12","12","0","0","12","12","12","0","Sun Oct 25 18:56:25 2020","The main experiment item","yes","HoughSternbergTask.osexp","/Users/tionnahough/Desktop/Fall 2020","no","mono","no","18","no","white","no","yes","768","legacy","0","11","/Users/tionnahough/Desktop/th-subject-3.csv","legacy","7 6 4 8 1 2","Lentiform Loewenfeld","3.3.3","0","n","0","left","left","left","left","NA","869","85423","14415","869","NA","2","legacy","6","1024","2","48000","-16","experiment","3","odd","9","184958","183745","88205","167175","182720","2728","182641","182732","160639","2757","168225","187841","186971","186970","NA","Sternberg Task","9","16215","13","yes","1024"
"71.42857142857143","71.42857142857143","1250.857142857143","1250.857142857143","black","experiment","legacy","legacy","legacy","0","uniform","1","undefined","1","left","13","13","0","13","13","0","0","13","13","0","0","13","13","13","0","Sun Oct 25 18:56:25 2020","The main experiment item","yes","HoughSternbergTask.osexp","/Users/tionnahough/Desktop/Fall 2020","no","mono","no","18","no","white","no","yes","768","legacy","1","11","/Users/tionnahough/Desktop/th-subject-3.csv","legacy","2 5 4 8 7","Lentiform Loewenfeld","3.3.3","3","y","0","left","left","left","left","NA","1297","85423","14415","1297","NA","2","legacy","5","1024","2","48000","-16","experiment","3","odd","4","191178","189964","88205","167175","188940","2728","182641","188952","187863","2757","168225","194488","193190","193190","NA","Sternberg Task","10","17512","14","yes","1024"
"73.33333333333333","73.33333333333333","1231.0666666666666","1231.0666666666666","black","experiment","legacy","legacy","legacy","0","uniform","1","undefined","1","left","14","14","0","14","14","0","0","14","14","0","0","14","14","14","0","Sun Oct 25 18:56:25 2020","The main experiment item","yes","HoughSternbergTask.osexp","/Users/tionnahough/Desktop/Fall 2020","no","mono","no","18","no","white","no","yes","768","legacy","2","11","/Users/tionnahough/Desktop/th-subject-3.csv","legacy","2 3","Lentiform Loewenfeld","3.3.3","1","y","0","left","left","left","left","NA","954","85423","14415","954","NA","2","legacy","2","1024","2","48000","-16","experiment","3","odd","2","197824","196611","88205","194510","195585","2728","182641","195598","187863","2757","168225","200792","199837","199837","NA","Sternberg Task","11","18466","15","yes","1024"
"75","75","1204.25","1204.25","black","experiment","legacy","legacy","legacy","0","uniform","1","undefined","1","right","15","15","0","15","15","0","0","15","15","0","0","15","15","15","0","Sun Oct 25 18:56:25 2020","The main experiment item","yes","HoughSternbergTask.osexp","/Users/tionnahough/Desktop/Fall 2020","no","mono","no","18","no","white","no","yes","768","legacy","3","11","/Users/tionnahough/Desktop/th-subject-3.csv","legacy","8 4 3 9","Lentiform Loewenfeld","3.3.3","0","n","0","right","left","left","right","NA","802","85423","14415","802","NA","2","legacy","4","1024","2","48000","-16","experiment","3","odd","5","204128","202915","88205","200814","201890","2728","182641","201902","187863","2757","168225","206944","206140","206140","NA","Sternberg Task","12","19268","16","yes","1024"
"76.47058823529412","76.47058823529412","1204.1176470588234","1204.1176470588234","black","experiment","legacy","legacy","legacy","0","uniform","1","undefined","1","left","16","16","0","16","16","0","0","16","16","0","0","16","16","16","0","Sun Oct 25 18:56:25 2020","The main experiment item","yes","HoughSternbergTask.osexp","/Users/tionnahough/Desktop/Fall 2020","no","mono","no","18","no","white","no","yes","768","legacy","4","11","/Users/tionnahough/Desktop/th-subject-3.csv","legacy","2 4 8 5 1 3","Lentiform Loewenfeld","3.3.3","1","y","0","left","left","left","left","NA","1202","85423","14415","1202","NA","2","legacy","6","1024","2","48000","-16","experiment","3","odd","2","210280","209066","88205","206965","208042","2728","182641","208054","187863","2757","168225","213495","212292","212292","NA","Sternberg Task","13","20470","17","yes","1024"
"77.77777777777777","77.77777777777777","1196.111111111111","1196.111111111111","black","experiment","legacy","legacy","legacy","0","uniform","1","undefined","1","left","17","17","0","17","17","0","0","17","17","0","0","17","17","17","0","Sun Oct 25 18:56:25 2020","The main experiment item","yes","HoughSternbergTask.osexp","/Users/tionnahough/Desktop/Fall 2020","no","mono","no","18","no","white","no","yes","768","legacy","5","11","/Users/tionnahough/Desktop/th-subject-3.csv","legacy","7","Lentiform Loewenfeld","3.3.3","1","y","0","left","left","left","left","NA","1060","85423","14415","1060","NA","2","legacy","1","1024","2","48000","-16","experiment","3","odd","7","216822","215608","88205","213508","214583","2728","182641","214595","187863","2757","168225","219895","218834","218834","NA","Sternberg Task","14","21530","18","yes","1024"
"78.94736842105263","78.94736842105263","1196.8947368421052","1196.8947368421052","black","experiment","legacy","legacy","legacy","0","uniform","1","undefined","1","left","18","18","0","18","18","0","0","18","18","0","0","18","18","18","0","Sun Oct 25 18:56:25 2020","The main experiment item","yes","HoughSternbergTask.osexp","/Users/tionnahough/Desktop/Fall 2020","no","mono","no","18","no","white","no","yes","768","legacy","6","11","/Users/tionnahough/Desktop/th-subject-3.csv","legacy","9 6 2 4 1","Lentiform Loewenfeld","3.3.3","4","y","0","left","left","left","left","NA","1211","85423","14415","1211","NA","2","legacy","5","1024","2","48000","-16","experiment","3","odd","4","223228","222016","88205","219916","220992","2728","182641","221003","187863","2757","168225","226454","225242","225242","NA","Sternberg Task","15","22741","19","yes","1024"
"80","80","1183.15","1183.15","black","experiment","legacy","legacy","legacy","0","uniform","1","undefined","1","right","19","19","0","19","19","0","0","19","19","0","0","19","19","19","0","Sun Oct 25 18:56:25 2020","The main experiment item","yes","HoughSternbergTask.osexp","/Users/tionnahough/Desktop/Fall 2020","no","mono","no","18","no","white","no","yes","768","legacy","7","11","/Users/tionnahough/Desktop/th-subject-3.csv","legacy","6 7 5 9","Lentiform Loewenfeld","3.3.3","0","n","0","right","left","left","right","NA","922","85423","14415","922","NA","2","legacy","4","1024","2","48000","-16","experiment","3","odd","2","229791","228577","88205","226477","227554","2728","182641","227565","187863","2757","168225","232726","231803","231802","NA","Sternberg Task","16","23663","20","yes","1024"
"80.95238095238095","80.95238095238095","1174.8095238095239","1174.8095238095239","black","experiment","legacy","legacy","legacy","0","uniform","1","undefined","1","left","20","20","0","20","20","0","0","20","20","0","0","20","20","20","0","Sun Oct 25 18:56:25 2020","The main experiment item","yes","HoughSternbergTask.osexp","/Users/tionnahough/Desktop/Fall 2020","no","mono","no","18","no","white","no","yes","768","legacy","8","11","/Users/tionnahough/Desktop/th-subject-3.csv","legacy","6 1 2","Lentiform Loewenfeld","3.3.3","3","y","0","left","left","left","left","NA","1008","85423","14415","1008","NA","2","legacy","3","1024","2","48000","-16","experiment","3","odd","2","236071","234858","88205","232747","233823","2728","182641","233836","187863","2757","168225","239093","238083","238083","NA","Sternberg Task","17","24671","21","yes","1024"
"81.81818181818181","81.81818181818181","1171.8181818181818","1171.8181818181818","black","experiment","legacy","legacy","legacy","0","uniform","1","undefined","1","right","21","21","0","21","21","0","0","21","21","0","0","21","21","21","0","Sun Oct 25 18:56:25 2020","The main experiment item","yes","HoughSternbergTask.osexp","/Users/tionnahough/Desktop/Fall 2020","no","mono","no","18","no","white","no","yes","768","legacy","9","11","/Users/tionnahough/Desktop/th-subject-3.csv","legacy","6 2 9 3 8 4","Lentiform Loewenfeld","3.3.3","0","n","0","right","left","left","right","NA","1109","85423","14415","1109","NA","2","legacy","6","1024","2","48000","-16","experiment","3","odd","1","242427","241213","88205","239114","240189","2728","182641","240201","187863","2757","168225","245549","244439","244439","NA","Sternberg Task","18","25780","22","yes","1024"
"78.26086956521739","78.26086956521739","1177.0869565217392","1177.0869565217392","black","experiment","legacy","legacy","legacy","0","uniform","0","undefined","0","left","22","22","0","22","22","0","0","22","22","0","0","22","22","22","0","Sun Oct 25 18:56:25 2020","The main experiment item","yes","HoughSternbergTask.osexp","/Users/tionnahough/Desktop/Fall 2020","no","mono","no","18","no","white","no","yes","768","legacy","10","11","/Users/tionnahough/Desktop/th-subject-3.csv","legacy","8 9 5 7 1 6","Lentiform Loewenfeld","3.3.3","4","y","0","right","left","left","right","NA","1293","85423","14415","1293","NA","2","legacy","6","1024","2","48000","-16","experiment","3","odd","7","248889","247674","88205","245572","246649","2728","182641","246661","187863","2757","168225","252196","250902","250902","NA","Sternberg Task","18","27073","23","yes","1024"
"79.16666666666667","79.16666666666667","1177.375","1177.375","black","experiment","legacy","legacy","legacy","0","uniform","1","undefined","1","left","23","23","0","23","23","0","0","23","23","0","0","23","23","23","0","Sun Oct 25 18:56:25 2020","The main experiment item","yes","HoughSternbergTask.osexp","/Users/tionnahough/Desktop/Fall 2020","no","mono","no","18","no","white","no","yes","768","legacy","11","11","/Users/tionnahough/Desktop/th-subject-3.csv","legacy","9 1 6 7 8","Lentiform Loewenfeld","3.3.3","1","y","0","left","left","left","left","NA","1184","85423","14415","1184","NA","2","legacy","5","1024","2","48000","-16","experiment","3","odd","9","255535","254321","88205","245572","253294","2728","182641","253307","252219","2757","168225","258733","257547","257547","NA","Sternberg Task","19","28257","24","yes","1024"
"80","80","1164.56","1164.56","black","experiment","legacy","legacy","legacy","0","uniform","1","undefined","1","right","24","24","0","24","24","0","0","24","24","0","0","24","24","24","0","Sun Oct 25 18:56:25 2020","The main experiment item","yes","HoughSternbergTask.osexp","/Users/tionnahough/Desktop/Fall 2020","no","mono","no","18","no","white","no","yes","768","legacy","12","11","/Users/tionnahough/Desktop/th-subject-3.csv","legacy","9 7 4 5 8","Lentiform Loewenfeld","3.3.3","0","n","0","right","left","left","right","NA","857","85423","14415","857","NA","2","legacy","5","1024","2","48000","-16","experiment","3","odd","6","262070","260857","88205","258754","259831","2728","182641","259844","252219","2757","168225","264940","264082","264082","NA","Sternberg Task","20","29114","25","yes","1024"
"76.92307692307692","76.92307692307692","1150","1150","black","experiment","legacy","legacy","legacy","0","uniform","0","undefined","0","left","25","25","0","25","25","0","0","25","25","0","0","25","25","25","0","Sun Oct 25 18:56:25 2020","The main experiment item","yes","HoughSternbergTask.osexp","/Users/tionnahough/Desktop/Fall 2020","no","mono","no","18","no","white","no","yes","768","legacy","13","11","/Users/tionnahough/Desktop/th-subject-3.csv","legacy","8 5 3 7 4 6","Lentiform Loewenfeld","3.3.3","6","y","0","right","left","left","right","NA","786","85423","14415","786","NA","2","legacy","6","1024","2","48000","-16","experiment","3","odd","6","268276","267063","88205","264962","266039","2728","182641","266051","252219","2757","168225","271075","270288","270288","NA","Sternberg Task","20","29900","26","yes","1024"
"77.77777777777777","77.77777777777777","1148.8148148148148","1148.8148148148148","black","experiment","legacy","legacy","legacy","0","uniform","1","undefined","1","right","26","26","0","26","26","0","0","26","26","0","0","26","26","26","0","Sun Oct 25 18:56:25 2020","The main experiment item","yes","HoughSternbergTask.osexp","/Users/tionnahough/Desktop/Fall 2020","no","mono","no","18","no","white","no","yes","768","legacy","14","11","/Users/tionnahough/Desktop/th-subject-3.csv","legacy","9","Lentiform Loewenfeld","3.3.3","0","n","0","right","left","left","right","NA","1118","85423","14415","1118","NA","2","legacy","1","1024","2","48000","-16","experiment","3","odd","6","274407","273194","88205","264962","272170","2728","182641","272182","271096","2757","168225","277540","276420","276420","NA","Sternberg Task","21","31018","27","yes","1024"
"78.57142857142857","78.57142857142857","1140.1785714285713","1140.1785714285713","black","experiment","legacy","legacy","legacy","0","uniform","1","undefined","1","left","27","27","0","27","27","0","0","27","27","0","0","27","27","27","0","Sun Oct 25 18:56:25 2020","The main experiment item","yes","HoughSternbergTask.osexp","/Users/tionnahough/Desktop/Fall 2020","no","mono","no","18","no","white","no","yes","768","legacy","15","11","/Users/tionnahough/Desktop/th-subject-3.csv","legacy","6 7 9 3 1 2","Lentiform Loewenfeld","3.3.3","1","y","0","left","left","left","left","NA","907","85423","14415","907","NA","2","legacy","6","1024","2","48000","-16","experiment","3","odd","6","280875","279662","88205","277561","278637","2728","182641","278649","271096","2757","168225","283795","282887","282887","NA","Sternberg Task","22","31925","28","yes","1024"
"79.3103448275862","79.3103448275862","1138.7241379310344","1138.7241379310344","black","experiment","legacy","legacy","legacy","0","uniform","1","undefined","1","left","28","28","0","28","28","0","0","28","28","0","0","28","28","28","0","Sun Oct 25 18:56:25 2020","The main experiment item","yes","HoughSternbergTask.osexp","/Users/tionnahough/Desktop/Fall 2020","no","mono","no","18","no","white","no","yes","768","legacy","16","11","/Users/tionnahough/Desktop/th-subject-3.csv","legacy","7 2 3","Lentiform Loewenfeld","3.3.3","3","y","0","left","left","left","left","NA","1098","85423","14415","1098","NA","2","legacy","3","1024","2","48000","-16","experiment","3","odd","3","287131","285918","88205","283817","284892","2728","182641","284904","271096","2757","168225","290242","289143","289143","NA","Sternberg Task","23","33023","29","yes","1024"
"76.66666666666667","76.66666666666667","1137.6666666666667","1137.6666666666667","black","experiment","legacy","legacy","legacy","0","uniform","0","undefined","0","right","29","29","0","29","29","0","0","29","29","0","0","29","29","29","0","Sun Oct 25 18:56:25 2020","The main experiment item","yes","HoughSternbergTask.osexp","/Users/tionnahough/Desktop/Fall 2020","no","mono","no","18","no","white","no","yes","768","legacy","17","11","/Users/tionnahough/Desktop/th-subject-3.csv","legacy","1 4 3 6 5","Lentiform Loewenfeld","3.3.3","0","n","0","left","left","left","left","NA","1107","85423","14415","1107","NA","2","legacy","5","1024","2","48000","-16","experiment","3","odd","8","293578","292364","88205","290262","291339","2728","182641","291351","271096","2757","168225","296698","295590","295590","NA","Sternberg Task","23","34130","30","yes","1024"
"77.41935483870968","77.41935483870968","1124.3225806451612","1124.3225806451612","black","experiment","legacy","legacy","legacy","0","uniform","1","undefined","1","right","30","30","0","30","30","0","0","30","30","0","0","30","30","30","0","Sun Oct 25 18:56:25 2020","The main experiment item","yes","HoughSternbergTask.osexp","/Users/tionnahough/Desktop/Fall 2020","no","mono","no","18","no","white","no","yes","768","legacy","18","11","/Users/tionnahough/Desktop/th-subject-3.csv","legacy","7 9","Lentiform Loewenfeld","3.3.3","0","n","0","right","left","left","right","NA","724","85423","14415","724","NA","2","legacy","2","1024","2","48000","-16","experiment","3","odd","1","300032","298820","88205","290262","297795","2728","182641","297807","296720","2757","168225","302770","302045","302044","NA","Sternberg Task","24","34854","31","yes","1024"
"78.125","78.125","1118.90625","1118.90625","black","experiment","legacy","legacy","legacy","0","uniform","1","undefined","1","right","31","31","0","31","31","0","0","31","31","0","0","31","31","31","0","Sun Oct 25 18:56:25 2020","The main experiment item","yes","HoughSternbergTask.osexp","/Users/tionnahough/Desktop/Fall 2020","no","mono","no","18","no","white","no","yes","768","legacy","19","11","/Users/tionnahough/Desktop/th-subject-3.csv","legacy","8 2 1 4 5 9","Lentiform Loewenfeld","3.3.3","0","n","0","right","left","left","right","NA","951","85423","14415","951","NA","2","legacy","6","1024","2","48000","-16","experiment","3","odd","7","306107","304893","88205","302792","303868","2728","182641","303880","296720","2757","168225","309073","308120","308120","NA","Sternberg Task","25","35805","32","yes","1024"
"78.78787878787878","78.78787878787878","1108.3030303030303","1108.3030303030303","black","experiment","legacy","legacy","legacy","0","uniform","1","undefined","1","right","32","32","0","32","32","0","0","32","32","0","0","32","32","32","0","Sun Oct 25 18:56:25 2020","The main experiment item","yes","HoughSternbergTask.osexp","/Users/tionnahough/Desktop/Fall 2020","no","mono","no","18","no","white","no","yes","768","legacy","20","11","/Users/tionnahough/Desktop/th-subject-3.csv","legacy","1 7 8 3 9","Lentiform Loewenfeld","3.3.3","0","n","0","right","left","left","right","NA","769","85423","14415","769","NA","2","legacy","5","1024","2","48000","-16","experiment","3","odd","2","312410","311195","88205","309095","310170","2728","182641","310182","296720","2757","168225","315192","314422","314422","NA","Sternberg Task","26","36574","33","yes","1024"
"79.41176470588235","79.41176470588235","1107","1107","black","experiment","legacy","legacy","legacy","0","uniform","1","undefined","1","right","33","33","0","33","33","0","0","33","33","0","0","33","33","33","0","Sun Oct 25 18:56:25 2020","The main experiment item","yes","HoughSternbergTask.osexp","/Users/tionnahough/Desktop/Fall 2020","no","mono","no","18","no","white","no","yes","768","legacy","21","11","/Users/tionnahough/Desktop/th-subject-3.csv","legacy","8 4 3 5","Lentiform Loewenfeld","3.3.3","0","n","0","right","left","left","right","NA","1064","85423","14415","1064","NA","2","legacy","4","1024","2","48000","-16","experiment","3","odd","6","318532","317318","88205","315215","316291","2728","182641","316303","296720","2757","168225","321609","320544","320544","NA","Sternberg Task","27","37638","34","yes","1024"
"77.14285714285714","77.14285714285714","1100.3142857142857","1100.3142857142857","black","experiment","legacy","legacy","legacy","0","uniform","0","undefined","0","right","34","34","0","34","34","0","0","34","34","0","0","34","34","34","0","Sun Oct 25 18:56:25 2020","The main experiment item","yes","HoughSternbergTask.osexp","/Users/tionnahough/Desktop/Fall 2020","no","mono","no","18","no","white","no","yes","768","legacy","22","11","/Users/tionnahough/Desktop/th-subject-3.csv","legacy","9 8 2 7 4","Lentiform Loewenfeld","3.3.3","0","n","0","left","left","left","left","NA","873","85423","14415","873","NA","2","legacy","5","1024","2","48000","-16","experiment","3","odd","5","324945","323731","88205","321630","322706","2728","182641","322718","296720","2757","168225","327833","326958","326958","NA","Sternberg Task","27","38511","35","yes","1024"
"77.77777777777777","77.77777777777777","1099.4166666666667","1099.4166666666667","black","experiment","legacy","legacy","legacy","0","uniform","1","undefined","1","right","35","35","0","35","35","0","0","35","35","0","0","35","35","35","0","Sun Oct 25 18:56:25 2020","The main experiment item","yes","HoughSternbergTask.osexp","/Users/tionnahough/Desktop/Fall 2020","no","mono","no","18","no","white","no","yes","768","legacy","23","11","/Users/tionnahough/Desktop/th-subject-3.csv","legacy","2 5 1 4","Lentiform Loewenfeld","3.3.3","0","n","0","right","left","left","right","NA","1068","85423","14415","1068","NA","2","legacy","4","1024","2","48000","-16","experiment","3","odd","6","331159","329945","88205","321630","328920","2728","182641","328932","327845","2757","168225","334240","333171","333171","NA","Sternberg Task","28","39579","36","yes","1024"
"78.37837837837837","78.37837837837837","1101.837837837838","1101.837837837838","black","experiment","legacy","legacy","legacy","0","uniform","1","undefined","1","left","36","36","0","36","36","0","0","36","36","0","0","36","36","36","0","Sun Oct 25 18:56:25 2020","The main experiment item","yes","HoughSternbergTask.osexp","/Users/tionnahough/Desktop/Fall 2020","no","mono","no","18","no","white","no","yes","768","legacy","24","11","/Users/tionnahough/Desktop/th-subject-3.csv","legacy","4 1 8 7 5","Lentiform Loewenfeld","3.3.3","3","y","0","left","left","left","left","NA","1189","85423","14415","1189","NA","2","legacy","5","1024","2","48000","-16","experiment","3","odd","8","337573","336360","88205","334253","335336","2728","182641","335348","327845","2757","168225","340776","339585","339585","NA","Sternberg Task","29","40768","37","yes","1024"
"78.94736842105263","78.94736842105263","1094","1094","black","experiment","legacy","legacy","legacy","0","uniform","1","undefined","1","right","37","37","0","37","37","0","0","37","37","0","0","37","37","37","0","Sun Oct 25 18:56:25 2020","The main experiment item","yes","HoughSternbergTask.osexp","/Users/tionnahough/Desktop/Fall 2020","no","mono","no","18","no","white","no","yes","768","legacy","25","11","/Users/tionnahough/Desktop/th-subject-3.csv","legacy","6 3 1 7 9 8","Lentiform Loewenfeld","3.3.3","0","n","0","right","left","left","right","NA","804","85423","14415","804","NA","2","legacy","6","1024","2","48000","-16","experiment","3","odd","4","344111","342898","88205","340798","341874","2728","182641","341885","327845","2757","168225","346928","346123","346123","NA","Sternberg Task","30","41572","38","yes","1024"
"79.48717948717949","79.48717948717949","1088.1538461538462","1088.1538461538462","black","experiment","legacy","legacy","legacy","0","uniform","1","undefined","1","right","38","38","0","38","38","0","0","38","38","0","0","38","38","38","0","Sun Oct 25 18:56:25 2020","The main experiment item","yes","HoughSternbergTask.osexp","/Users/tionnahough/Desktop/Fall 2020","no","mono","no","18","no","white","no","yes","768","legacy","26","11","/Users/tionnahough/Desktop/th-subject-3.csv","legacy","2 3 8 5 6 7","Lentiform Loewenfeld","3.3.3","0","n","0","right","left","left","right","NA","866","85423","14415","866","NA","2","legacy","6","1024","2","48000","-16","experiment","3","odd","1","350264","349050","88205","346951","348026","2728","182641","348038","327845","2757","168225","353143","352276","352276","NA","Sternberg Task","31","42438","39","yes","1024"
"80","80","1083.675","1083.675","black","experiment","legacy","legacy","legacy","0","uniform","1","undefined","1","right","39","39","0","39","39","0","0","39","39","0","0","39","39","39","0","Sun Oct 25 18:56:25 2020","The main experiment item","yes","HoughSternbergTask.osexp","/Users/tionnahough/Desktop/Fall 2020","no","mono","no","18","no","white","no","yes","768","legacy","27","11","/Users/tionnahough/Desktop/th-subject-3.csv","legacy","1 4 9 3","Lentiform Loewenfeld","3.3.3","0","n","0","right","left","left","right","NA","909","85423","14415","909","NA","2","legacy","4","1024","2","48000","-16","experiment","3","odd","5","356477","355264","88205","353165","354240","2728","182641","354251","327845","2757","168225","359400","358489","358489","NA","Sternberg Task","32","43347","40","yes","1024"
"80.48780487804878","80.48780487804878","1082.9268292682927","1082.9268292682927","black","experiment","legacy","legacy","legacy","0","uniform","1","undefined","1","left","40","40","0","40","40","0","0","40","40","0","0","40","40","40","0","Sun Oct 25 18:56:25 2020","The main experiment item","yes","HoughSternbergTask.osexp","/Users/tionnahough/Desktop/Fall 2020","no","mono","no","18","no","white","no","yes","768","legacy","28","11","/Users/tionnahough/Desktop/th-subject-3.csv","legacy","2 6 1 7 4","Lentiform Loewenfeld","3.3.3","2","y","0","left","left","left","left","NA","1053","85423","14415","1053","NA","2","legacy","5","1024","2","48000","-16","experiment","3","odd","6","362733","361519","88205","359421","360495","2728","182641","360506","327845","2757","168225","365799","364745","364745","NA","Sternberg Task","33","44400","41","yes","1024"
"80.95238095238095","80.95238095238095","1082.1190476190477","1082.1190476190477","black","experiment","legacy","legacy","legacy","0","uniform","1","undefined","1","right","41","41","0","41","41","0","0","41","41","0","0","41","41","41","0","Sun Oct 25 18:56:25 2020","The main experiment item","yes","HoughSternbergTask.osexp","/Users/tionnahough/Desktop/Fall 2020","no","mono","no","18","no","white","no","yes","768","legacy","29","11","/Users/tionnahough/Desktop/th-subject-3.csv","legacy","2 8 9","Lentiform Loewenfeld","3.3.3","0","n","0","right","left","left","right","NA","1049","85423","14415","1049","NA","2","legacy","3","1024","2","48000","-16","experiment","3","odd","6","369136","367923","88205","365822","366898","2728","182641","366910","327845","2757","168225","372198","371148","371148","NA","Sternberg Task","34","45449","42","yes","1024"
"81.3953488372093","81.3953488372093","1075.046511627907","1075.046511627907","black","experiment","legacy","legacy","legacy","0","uniform","1","undefined","1","right","42","42","0","42","42","0","0","42","42","0","0","42","42","42","0","Sun Oct 25 18:56:25 2020","The main experiment item","yes","HoughSternbergTask.osexp","/Users/tionnahough/Desktop/Fall 2020","no","mono","no","18","no","white","no","yes","768","legacy","30","11","/Users/tionnahough/Desktop/th-subject-3.csv","legacy","8 9","Lentiform Loewenfeld","3.3.3","0","n","0","right","left","left","right","NA","778","85423","14415","778","NA","2","legacy","2","1024","2","48000","-16","experiment","3","odd","5","375527","374313","88205","372212","373288","2728","182641","373300","327845","2757","168225","378319","377539","377539","NA","Sternberg Task","35","46227","43","yes","1024"
"81.81818181818181","81.81818181818181","1073.2045454545455","1073.2045454545455","black","experiment","legacy","legacy","legacy","0","uniform","1","undefined","1","right","43","43","0","43","43","0","0","43","43","0","0","43","43","43","0","Sun Oct 25 18:56:25 2020","The main experiment item","yes","HoughSternbergTask.osexp","/Users/tionnahough/Desktop/Fall 2020","no","mono","no","18","no","white","no","yes","768","legacy","31","11","/Users/tionnahough/Desktop/th-subject-3.csv","legacy","5 9 2 3","Lentiform Loewenfeld","3.3.3","0","n","0","right","left","left","right","NA","994","85423","14415","994","NA","2","legacy","4","1024","2","48000","-16","experiment","3","odd","8","381655","380441","88205","378341","379416","2728","182641","379428","327845","2757","168225","384662","383667","383667","NA","Sternberg Task","36","47221","44","yes","1024"
"82.22222222222223","82.22222222222223","1067.888888888889","1067.888888888889","black","experiment","legacy","legacy","legacy","0","uniform","1","undefined","1","right","44","44","0","44","44","0","0","44","44","0","0","44","44","44","0","Sun Oct 25 18:56:25 2020","The main experiment item","yes","HoughSternbergTask.osexp","/Users/tionnahough/Desktop/Fall 2020","no","mono","no","18","no","white","no","yes","768","legacy","32","11","/Users/tionnahough/Desktop/th-subject-3.csv","legacy","5 3 8 7 2 4","Lentiform Loewenfeld","3.3.3","0","n","0","right","left","left","right","NA","834","85423","14415","834","NA","2","legacy","6","1024","2","48000","-16","experiment","3","odd","9","387998","386784","88205","384684","385759","2728","182641","385771","327845","2757","168225","390846","390010","390010","NA","Sternberg Task","37","48055","45","yes","1024"
"82.6086956521739","82.6086956521739","1066.4782608695652","1066.4782608695652","black","experiment","legacy","legacy","legacy","0","uniform","1","undefined","1","left","45","45","0","45","45","0","0","45","45","0","0","45","45","45","0","Sun Oct 25 18:56:25 2020","The main experiment item","yes","HoughSternbergTask.osexp","/Users/tionnahough/Desktop/Fall 2020","no","mono","no","18","no","white","no","yes","768","legacy","33","11","/Users/tionnahough/Desktop/th-subject-3.csv","legacy","5 2 6","Lentiform Loewenfeld","3.3.3","2","y","0","left","left","left","left","NA","1003","85423","14415","1003","NA","2","legacy","3","1024","2","48000","-16","experiment","3","odd","2","394179","392966","88205","390868","391942","2728","182641","391954","327845","2757","168225","397196","396192","396192","NA","Sternberg Task","38","49058","46","yes","1024"
"82.97872340425532","82.97872340425532","1059.3191489361702","1059.3191489361702","black","experiment","legacy","legacy","legacy","0","uniform","1","undefined","1","right","46","46","0","46","46","0","0","46","46","0","0","46","46","46","0","Sun Oct 25 18:56:25 2020","The main experiment item","yes","HoughSternbergTask.osexp","/Users/tionnahough/Desktop/Fall 2020","no","mono","no","18","no","white","no","yes","768","legacy","34","11","/Users/tionnahough/Desktop/th-subject-3.csv","legacy","4 2 6 9","Lentiform Loewenfeld","3.3.3","0","n","0","right","left","left","right","NA","730","85423","14415","730","NA","2","legacy","4","1024","2","48000","-16","experiment","3","odd","7","400533","399319","88205","397218","398294","2728","182641","398306","327845","2757","168225","403276","402545","402545","NA","Sternberg Task","39","49788","47","yes","1024"
"83.33333333333333","83.33333333333333","1059.3125","1059.3125","black","experiment","legacy","legacy","legacy","0","uniform","1","undefined","1","left","47","47","0","47","47","0","0","47","47","0","0","47","47","47","0","Sun Oct 25 18:56:25 2020","The main experiment item","yes","HoughSternbergTask.osexp","/Users/tionnahough/Desktop/Fall 2020","no","mono","no","18","no","white","no","yes","768","legacy","35","11","/Users/tionnahough/Desktop/th-subject-3.csv","legacy","3 5 7 1","Lentiform Loewenfeld","3.3.3","3","y","0","left","left","left","left","NA","1059","85423","14415","1059","NA","2","legacy","4","1024","2","48000","-16","experiment","3","odd","7","406612","405398","88205","403298","404374","2728","182641","404386","327845","2757","168225","409685","408624","408624","NA","Sternberg Task","40","50847","48","yes","1024"
"83.6734693877551","83.6734693877551","1052.2244897959183","1052.2244897959183","black","experiment","legacy","legacy","legacy","0","uniform","1","undefined","1","right","48","48","0","48","48","0","0","48","48","0","0","48","48","48","0","Sun Oct 25 18:56:25 2020","The main experiment item","yes","HoughSternbergTask.osexp","/Users/tionnahough/Desktop/Fall 2020","no","mono","no","18","no","white","no","yes","768","legacy","36","11","/Users/tionnahough/Desktop/th-subject-3.csv","legacy","4 8 1 2","Lentiform Loewenfeld","3.3.3","0","n","0","right","left","left","right","NA","712","85423","14415","712","NA","2","legacy","4","1024","2","48000","-16","experiment","3","odd","7","413022","411809","88205","409707","410783","2728","182641","410795","327845","2757","168225","415748","415035","415035","NA","Sternberg Task","41","51559","49","yes","1024"
"84","84","1045.9","1045.9","black","experiment","legacy","legacy","legacy","0","uniform","1","undefined","1","right","49","49","0","49","49","0","0","49","49","0","0","49","49","49","0","Sun Oct 25 18:56:25 2020","The main experiment item","yes","HoughSternbergTask.osexp","/Users/tionnahough/Desktop/Fall 2020","no","mono","no","18","no","white","no","yes","768","legacy","37","11","/Users/tionnahough/Desktop/th-subject-3.csv","legacy","5 3 2 6 9 8","Lentiform Loewenfeld","3.3.3","0","n","0","right","left","left","right","NA","736","85423","14415","736","NA","2","legacy","6","1024","2","48000","-16","experiment","3","odd","4","419085","417872","88205","415770","416847","2728","182641","416858","327845","2757","168225","421836","421099","421099","NA","Sternberg Task","42","52295","50","yes","1024"
"84.31372549019608","84.31372549019608","1038.8235294117646","1038.8235294117646","black","experiment","legacy","legacy","legacy","0","uniform","1","undefined","1","right","50","50","0","50","50","0","0","50","50","0","0","50","50","50","0","Sun Oct 25 18:56:25 2020","The main experiment item","yes","HoughSternbergTask.osexp","/Users/tionnahough/Desktop/Fall 2020","no","mono","no","18","no","white","no","yes","768","legacy","38","11","/Users/tionnahough/Desktop/th-subject-3.csv","legacy","1 6 4 3 9 7","Lentiform Loewenfeld","3.3.3","0","n","0","right","left","left","right","NA","685","85423","14415","685","NA","2","legacy","6","1024","2","48000","-16","experiment","3","odd","8","425169","423957","88205","421858","422933","2728","182641","422945","327845","2757","168225","427868","427181","427181","NA","Sternberg Task","43","52980","51","yes","1024"
"84.61538461538461","84.61538461538461","1034.4615384615386","1034.4615384615386","black","experiment","legacy","legacy","legacy","0","uniform","1","undefined","1","left","51","51","0","51","51","0","0","51","51","0","0","51","51","51","0","Sun Oct 25 18:56:25 2020","The main experiment item","yes","HoughSternbergTask.osexp","/Users/tionnahough/Desktop/Fall 2020","no","mono","no","18","no","white","no","yes","768","legacy","39","11","/Users/tionnahough/Desktop/th-subject-3.csv","legacy","4 6 5 8","Lentiform Loewenfeld","3.3.3","1","y","0","left","left","left","left","NA","812","85423","14415","812","NA","2","legacy","4","1024","2","48000","-16","experiment","3","odd","4","431204","429991","88205","427889","428966","2728","182641","428978","327845","2757","168225","434029","433215","433215","NA","Sternberg Task","44","53792","52","yes","1024"
"84.90566037735849","84.90566037735849","1030.7169811320755","1030.7169811320755","black","experiment","legacy","legacy","legacy","0","uniform","1","undefined","1","right","52","52","0","52","52","0","0","52","52","0","0","52","52","52","0","Sun Oct 25 18:56:25 2020","The main experiment item","yes","HoughSternbergTask.osexp","/Users/tionnahough/Desktop/Fall 2020","no","mono","no","18","no","white","no","yes","768","legacy","40","11","/Users/tionnahough/Desktop/th-subject-3.csv","legacy","3 9 1","Lentiform Loewenfeld","3.3.3","0","n","0","right","left","left","right","NA","836","85423","14415","836","NA","2","legacy","3","1024","2","48000","-16","experiment","3","odd","7","437364","436150","88205","434051","435126","2728","182641","435137","327845","2757","168225","440214","439376","439376","NA","Sternberg Task","45","54628","53","yes","1024"
"85.18518518518519","85.18518518518519","1026.148148148148","1026.148148148148","black","experiment","legacy","legacy","legacy","0","uniform","1","undefined","1","right","53","53","0","53","53","0","0","53","53","0","0","53","53","53","0","Sun Oct 25 18:56:25 2020","The main experiment item","yes","HoughSternbergTask.osexp","/Users/tionnahough/Desktop/Fall 2020","no","mono","no","18","no","white","no","yes","768","legacy","41","11","/Users/tionnahough/Desktop/th-subject-3.csv","legacy","1 5 3 2 8","Lentiform Loewenfeld","3.3.3","0","n","0","right","left","left","right","NA","784","85423","14415","784","NA","2","legacy","5","1024","2","48000","-16","experiment","3","odd","4","443552","442338","88205","440235","441313","2728","182641","441326","327845","2757","168225","446351","445565","445565","NA","Sternberg Task","46","55412","54","yes","1024"
"85.45454545454545","85.45454545454545","1023.4","1023.4","black","experiment","legacy","legacy","legacy","0","uniform","1","undefined","1","left","54","54","0","54","54","0","0","54","54","0","0","54","54","54","0","Sun Oct 25 18:56:25 2020","The main experiment item","yes","HoughSternbergTask.osexp","/Users/tionnahough/Desktop/Fall 2020","no","mono","no","18","no","white","no","yes","768","legacy","42","11","/Users/tionnahough/Desktop/th-subject-3.csv","legacy","3 2 1 4 7","Lentiform Loewenfeld","3.3.3","2","y","0","left","left","left","left","NA","875","85423","14415","875","NA","2","legacy","5","1024","2","48000","-16","experiment","3","odd","2","449686","448472","88205","446372","447447","2728","182641","447459","327845","2757","168225","452574","451698","451698","NA","Sternberg Task","47","56287","55","yes","1024"
"85.71428571428571","85.71428571428571","1027.6785714285713","1027.6785714285713","black","experiment","legacy","legacy","legacy","0","uniform","1","undefined","1","left","55","55","0","55","55","0","0","55","55","0","0","55","55","55","0","Sun Oct 25 18:56:25 2020","The main experiment item","yes","HoughSternbergTask.osexp","/Users/tionnahough/Desktop/Fall 2020","no","mono","no","18","no","white","no","yes","768","legacy","43","11","/Users/tionnahough/Desktop/th-subject-3.csv","legacy","4 7 6 8 2 3","Lentiform Loewenfeld","3.3.3","6","y","0","left","left","left","left","NA","1263","85423","14415","1263","NA","2","legacy","6","1024","2","48000","-16","experiment","3","odd","3","455909","454695","88205","452595","453672","2728","182641","453683","327845","2757","168225","459186","457921","457921","NA","Sternberg Task","48","57550","56","yes","1024"
"85.96491228070175","85.96491228070175","1026.1052631578948","1026.1052631578948","black","experiment","legacy","legacy","legacy","0","uniform","1","undefined","1","left","56","56","0","56","56","0","0","56","56","0","0","56","56","56","0","Sun Oct 25 18:56:25 2020","The main experiment item","yes","HoughSternbergTask.osexp","/Users/tionnahough/Desktop/Fall 2020","no","mono","no","18","no","white","no","yes","768","legacy","44","11","/Users/tionnahough/Desktop/th-subject-3.csv","legacy","9 3 1 2 5","Lentiform Loewenfeld","3.3.3","4","y","0","left","left","left","left","NA","938","85423","14415","938","NA","2","legacy","5","1024","2","48000","-16","experiment","3","odd","2","462523","461308","88205","459207","460283","2728","182641","460295","327845","2757","168225","465475","464535","464535","NA","Sternberg Task","49","58488","57","yes","1024"
"86.20689655172414","86.20689655172414","1022.6896551724138","1022.6896551724138","black","experiment","legacy","legacy","legacy","0","uniform","1","undefined","1","right","57","57","0","57","57","0","0","57","57","0","0","57","57","57","0","Sun Oct 25 18:56:25 2020","The main experiment item","yes","HoughSternbergTask.osexp","/Users/tionnahough/Desktop/Fall 2020","no","mono","no","18","no","white","no","yes","768","legacy","45","11","/Users/tionnahough/Desktop/th-subject-3.csv","legacy","5 7 3","Lentiform Loewenfeld","3.3.3","0","n","0","right","left","left","right","NA","828","85423","14415","828","NA","2","legacy","3","1024","2","48000","-16","experiment","3","odd","9","468809","467595","88205","465496","466571","2728","182641","466583","327845","2757","168225","471650","470821","470821","NA","Sternberg Task","50","59316","58","yes","1024"
"86.44067796610169","86.44067796610169","1025.2033898305085","1025.2033898305085","black","experiment","legacy","legacy","legacy","0","uniform","1","undefined","1","right","58","58","0","58","58","0","0","58","58","0","0","58","58","58","0","Sun Oct 25 18:56:25 2020","The main experiment item","yes","HoughSternbergTask.osexp","/Users/tionnahough/Desktop/Fall 2020","no","mono","no","18","no","white","no","yes","768","legacy","46","11","/Users/tionnahough/Desktop/th-subject-3.csv","legacy","3 9 8 1 6 4","Lentiform Loewenfeld","3.3.3","0","n","0","right","left","left","right","NA","1171","85423","14415","1171","NA","2","legacy","6","1024","2","48000","-16","experiment","3","odd","7","474984","473770","88205","471671","472746","2728","182641","472758","327845","2757","168225","478169","476996","476996","NA","Sternberg Task","51","60487","59","yes","1024"
"86.66666666666667","86.66666666666667","1023.9","1023.9","black","experiment","legacy","legacy","legacy","0","uniform","1","undefined","1","right","59","59","0","59","59","0","0","59","59","0","0","59","59","59","0","Sun Oct 25 18:56:25 2020","The main experiment item","yes","HoughSternbergTask.osexp","/Users/tionnahough/Desktop/Fall 2020","no","mono","no","18","no","white","no","yes","768","legacy","47","11","/Users/tionnahough/Desktop/th-subject-3.csv","legacy","1 8 7","Lentiform Loewenfeld","3.3.3","0","n","0","right","left","left","right","NA","947","85423","14415","947","NA","2","legacy","3","1024","2","48000","-16","experiment","3","odd","4","481505","480291","88205","478191","479267","2728","182641","479279","327845","2757","168225","484465","483517","483517","NA","Sternberg Task","52","61434","60","yes","1024"
"86.88524590163935","86.88524590163935","1025.8032786885246","1025.8032786885246","black","experiment","legacy","legacy","legacy","0","uniform","1","undefined","1","right","60","60","0","60","60","0","0","60","60","0","0","60","60","60","0","Sun Oct 25 18:56:25 2020","The main experiment item","yes","HoughSternbergTask.osexp","/Users/tionnahough/Desktop/Fall 2020","no","mono","no","18","no","white","no","yes","768","legacy","48","11","/Users/tionnahough/Desktop/th-subject-3.csv","legacy","1 4 9 2 5","Lentiform Loewenfeld","3.3.3","0","n","0","right","left","left","right","NA","1140","85423","14415","1140","NA","2","legacy","5","1024","2","48000","-16","experiment","3","odd","7","487799","486587","88205","484487","485562","2728","182641","485574","327845","2757","168225","490953","489812","489812","NA","Sternberg Task","53","62574","61","yes","1024"
"85.48387096774194","85.48387096774194","1026.2903225806451","1026.2903225806451","black","experiment","legacy","legacy","legacy","0","uniform","0","undefined","0","left","61","61","0","61","61","0","0","61","61","0","0","61","61","61","0","Sun Oct 25 18:56:25 2020","The main experiment item","yes","HoughSternbergTask.osexp","/Users/tionnahough/Desktop/Fall 2020","no","mono","no","18","no","white","no","yes","768","legacy","49","11","/Users/tionnahough/Desktop/th-subject-3.csv","legacy","2 8 5 1","Lentiform Loewenfeld","3.3.3","4","y","0","right","left","left","right","NA","1056","85423","14415","1056","NA","2","legacy","4","1024","2","48000","-16","experiment","3","odd","1","494290","493076","88205","490976","492052","2728","182641","492064","327845","2757","168225","497361","496303","496303","NA","Sternberg Task","53","63630","62","yes","1024"
"85.71428571428571","85.71428571428571","1026.873015873016","1026.873015873016","black","experiment","legacy","legacy","legacy","0","uniform","1","undefined","1","right","62","62","0","62","62","0","0","62","62","0","0","62","62","62","0","Sun Oct 25 18:56:25 2020","The main experiment item","yes","HoughSternbergTask.osexp","/Users/tionnahough/Desktop/Fall 2020","no","mono","no","18","no","white","no","yes","768","legacy","50","11","/Users/tionnahough/Desktop/th-subject-3.csv","legacy","9 5 3 2 8 6","Lentiform Loewenfeld","3.3.3","0","n","0","right","left","left","right","NA","1063","85423","14415","1063","NA","2","legacy","6","1024","2","48000","-16","experiment","3","odd","7","500697","499483","88205","490976","498459","2728","182641","498471","497383","2757","168225","503774","502710","502709","NA","Sternberg Task","54","64693","63","yes","1024"
"85.9375","85.9375","1025.640625","1025.640625","black","experiment","legacy","legacy","legacy","0","uniform","1","undefined","1","left","63","63","0","63","63","0","0","63","63","0","0","63","63","63","0","Sun Oct 25 18:56:25 2020","The main experiment item","yes","HoughSternbergTask.osexp","/Users/tionnahough/Desktop/Fall 2020","no","mono","no","18","no","white","no","yes","768","legacy","51","11","/Users/tionnahough/Desktop/th-subject-3.csv","legacy","4 6 2 5 1","Lentiform Loewenfeld","3.3.3","5","y","0","left","left","left","left","NA","948","85423","14415","948","NA","2","legacy","5","1024","2","48000","-16","experiment","3","odd","1","507100","505887","88205","503787","504863","2728","182641","504875","497383","2757","168225","510062","509112","509111","NA","Sternberg Task","55","65641","64","yes","1024"
"86.15384615384616","86.15384615384616","1029.9846153846154","1029.9846153846154","black","experiment","legacy","legacy","legacy","0","uniform","1","undefined","1","left","64","64","0","64","64","0","0","64","64","0","0","64","64","64","0","Sun Oct 25 18:56:25 2020","The main experiment item","yes","HoughSternbergTask.osexp","/Users/tionnahough/Desktop/Fall 2020","no","mono","no","18","no","white","no","yes","768","legacy","52","11","/Users/tionnahough/Desktop/th-subject-3.csv","legacy","5 7 8 2 3 8","Lentiform Loewenfeld","3.3.3","5","y","0","left","left","left","left","NA","1308","85423","14415","1308","NA","2","legacy","6","1024","2","48000","-16","experiment","3","odd","3","513395","512180","88205","510083","511156","2728","182641","511168","497383","2757","168225","516717","515408","515408","NA","Sternberg Task","56","66949","65","yes","1024"
"86.36363636363636","86.36363636363636","1032.090909090909","1032.090909090909","black","experiment","legacy","legacy","legacy","0","uniform","1","undefined","1","left","65","65","0","65","65","0","0","65","65","0","0","65","65","65","0","Sun Oct 25 18:56:25 2020","The main experiment item","yes","HoughSternbergTask.osexp","/Users/tionnahough/Desktop/Fall 2020","no","mono","no","18","no","white","no","yes","768","legacy","53","11","/Users/tionnahough/Desktop/th-subject-3.csv","legacy","1 4 9 3 2 5","Lentiform Loewenfeld","3.3.3","3","y","0","left","left","left","left","NA","1169","85423","14415","1169","NA","2","legacy","6","1024","2","48000","-16","experiment","3","odd","9","520052","518839","88205","516739","517815","2728","182641","517827","497383","2757","168225","523234","522064","522064","NA","Sternberg Task","57","68118","66","yes","1024"
"86.56716417910448","86.56716417910448","1027.0149253731342","1027.0149253731342","black","experiment","legacy","legacy","legacy","0","uniform","1","undefined","1","right","66","66","0","66","66","0","0","66","66","0","0","66","66","66","0","Sun Oct 25 18:56:25 2020","The main experiment item","yes","HoughSternbergTask.osexp","/Users/tionnahough/Desktop/Fall 2020","no","mono","no","18","no","white","no","yes","768","legacy","54","11","/Users/tionnahough/Desktop/th-subject-3.csv","legacy","2 8 9 4 1","Lentiform Loewenfeld","3.3.3","0","n","0","right","left","left","right","NA","692","85423","14415","692","NA","2","legacy","5","1024","2","48000","-16","experiment","3","odd","5","526573","525360","88205","523256","524335","2728","182641","524347","497383","2757","168225","529278","528585","528585","NA","Sternberg Task","58","68810","67","yes","1024"
"86.76470588235294","86.76470588235294","1027.8970588235295","1027.8970588235295","black","experiment","legacy","legacy","legacy","0","uniform","1","undefined","1","left","67","67","0","67","67","0","0","67","67","0","0","67","67","67","0","Sun Oct 25 18:56:25 2020","The main experiment item","yes","HoughSternbergTask.osexp","/Users/tionnahough/Desktop/Fall 2020","no","mono","no","18","no","white","no","yes","768","legacy","55","11","/Users/tionnahough/Desktop/th-subject-3.csv","legacy","7 1 8 5 6 2","Lentiform Loewenfeld","3.3.3","2","y","0","left","left","left","left","NA","1087","85423","14415","1087","NA","2","legacy","6","1024","2","48000","-16","experiment","3","odd","1","532614","531400","88205","529300","530375","2728","182641","530387","497383","2757","168225","535714","534626","534626","NA","Sternberg Task","59","69897","68","yes","1024"
"86.95652173913044","86.95652173913044","1026.9130434782608","1026.9130434782608","black","experiment","legacy","legacy","legacy","0","uniform","1","undefined","1","left","68","68","0","68","68","0","0","68","68","0","0","68","68","68","0","Sun Oct 25 18:56:25 2020","The main experiment item","yes","HoughSternbergTask.osexp","/Users/tionnahough/Desktop/Fall 2020","no","mono","no","18","no","white","no","yes","768","legacy","56","11","/Users/tionnahough/Desktop/th-subject-3.csv","legacy","7 1 3","Lentiform Loewenfeld","3.3.3","2","y","0","left","left","left","left","NA","960","85423","14415","960","NA","2","legacy","3","1024","2","48000","-16","experiment","3","odd","1","539050","537837","88205","535737","536812","2728","182641","536824","497383","2757","168225","542025","541063","541063","NA","Sternberg Task","60","70857","69","yes","1024"
"87.14285714285714","87.14285714285714","1025.2857142857142","1025.2857142857142","black","experiment","legacy","legacy","legacy","0","uniform","1","undefined","1","right","69","69","0","69","69","0","0","69","69","0","0","69","69","69","0","Sun Oct 25 18:56:25 2020","The main experiment item","yes","HoughSternbergTask.osexp","/Users/tionnahough/Desktop/Fall 2020","no","mono","no","18","no","white","no","yes","768","legacy","57","11","/Users/tionnahough/Desktop/th-subject-3.csv","legacy","8 6 3 4 7","Lentiform Loewenfeld","3.3.3","0","n","0","right","left","left","right","NA","913","85423","14415","913","NA","2","legacy","5","1024","2","48000","-16","experiment","3","odd","1","545356","544143","88205","542046","543119","2728","182641","543131","497383","2757","168225","548283","547368","547368","NA","Sternberg Task","61","71770","70","yes","1024"
"87.32394366197182","87.32394366197182","1021.3380281690141","1021.3380281690141","black","experiment","legacy","legacy","legacy","0","uniform","1","undefined","1","left","70","70","0","70","70","0","0","70","70","0","0","70","70","70","0","Sun Oct 25 18:56:25 2020","The main experiment item","yes","HoughSternbergTask.osexp","/Users/tionnahough/Desktop/Fall 2020","no","mono","no","18","no","white","no","yes","768","legacy","58","11","/Users/tionnahough/Desktop/th-subject-3.csv","legacy","9 1 7 2","Lentiform Loewenfeld","3.3.3","2","y","0","left","left","left","left","NA","745","85423","14415","745","NA","2","legacy","4","1024","2","48000","-16","experiment","3","odd","1","551620","550406","88205","548306","549381","2728","182641","549394","497383","2757","168225","554379","553632","553632","NA","Sternberg Task","62","72515","71","yes","1024"
"87.5","87.5","1017.1666666666666","1017.1666666666666","black","experiment","legacy","legacy","legacy","0","uniform","1","undefined","1","right","71","71","0","71","71","0","0","71","71","0","0","71","71","71","0","Sun Oct 25 18:56:25 2020","The main experiment item","yes","HoughSternbergTask.osexp","/Users/tionnahough/Desktop/Fall 2020","no","mono","no","18","no","white","no","yes","768","legacy","59","11","/Users/tionnahough/Desktop/th-subject-3.csv","legacy","6 9 5","Lentiform Loewenfeld","3.3.3","0","n","0","right","left","left","right","NA","721","85423","14415","721","NA","2","legacy","3","1024","2","48000","-16","experiment","3","odd","8","557713","556499","88205","554401","555475","2728","182641","555487","497383","2757","168225","560448","559725","559724","NA","Sternberg Task","63","73236","72","yes","1024"
"87.67123287671232","87.67123287671232","1012.8767123287671","1012.8767123287671","black","experiment","legacy","legacy","legacy","0","uniform","1","undefined","1","right","72","72","0","72","72","0","0","72","72","0","0","72","72","72","0","Sun Oct 25 18:56:25 2020","The main experiment item","yes","HoughSternbergTask.osexp","/Users/tionnahough/Desktop/Fall 2020","no","mono","no","18","no","white","no","yes","768","legacy","60","11","/Users/tionnahough/Desktop/th-subject-3.csv","legacy","2 7 5","Lentiform Loewenfeld","3.3.3","0","n","0","right","left","left","right","NA","704","85423","14415","704","NA","2","legacy","3","1024","2","48000","-16","experiment","3","odd","8","563779","562566","88205","560469","561542","2728","182641","561554","497383","2757","168225","566497","565792","565792","NA","Sternberg Task","64","73940","73","yes","1024"
"87.83783783783784","87.83783783783784","1008.6351351351351","1008.6351351351351","black","experiment","legacy","legacy","legacy","0","uniform","1","undefined","1","left","73","73","0","73","73","0","0","73","73","0","0","73","73","73","0","Sun Oct 25 18:56:25 2020","The main experiment item","yes","HoughSternbergTask.osexp","/Users/tionnahough/Desktop/Fall 2020","no","mono","no","18","no","white","no","yes","768","legacy","61","11","/Users/tionnahough/Desktop/th-subject-3.csv","legacy","6 8 9 3 4 9","Lentiform Loewenfeld","3.3.3","5","y","0","left","left","left","left","NA","699","85423","14415","699","NA","2","legacy","6","1024","2","48000","-16","experiment","3","odd","4","569830","568617","88205","566519","567594","2728","182641","567605","497383","2757","168225","572542","571842","571842","NA","Sternberg Task","65","74639","74","yes","1024"
"88","88","1005.4533333333334","1005.4533333333334","black","experiment","legacy","legacy","legacy","0","uniform","1","undefined","1","left","74","74","0","74","74","0","0","74","74","0","0","74","74","74","0","Sun Oct 25 18:56:25 2020","The main experiment item","yes","HoughSternbergTask.osexp","/Users/tionnahough/Desktop/Fall 2020","no","mono","no","18","no","white","no","yes","768","legacy","62","11","/Users/tionnahough/Desktop/th-subject-3.csv","legacy","3 4 9 6 2 9","Lentiform Loewenfeld","3.3.3","5","y","0","left","left","left","left","NA","770","85423","14415","770","NA","2","legacy","6","1024","2","48000","-16","experiment","3","odd","2","575877","574663","88205","572566","573639","2728","182641","573651","497383","2757","168225","578661","577889","577889","NA","Sternberg Task","66","75409","75","yes","1024"
"88.15789473684211","88.15789473684211","1004.6052631578947","1004.6052631578947","black","experiment","legacy","legacy","legacy","0","uniform","1","undefined","1","left","75","75","0","75","75","0","0","75","75","0","0","75","75","75","0","Sun Oct 25 18:56:25 2020","The main experiment item","yes","HoughSternbergTask.osexp","/Users/tionnahough/Desktop/Fall 2020","no","mono","no","18","no","white","no","yes","768","legacy","63","11","/Users/tionnahough/Desktop/th-subject-3.csv","legacy","6 9 3 1","Lentiform Loewenfeld","3.3.3","4","y","0","left","left","left","left","NA","941","85423","14415","941","NA","2","legacy","4","1024","2","48000","-16","experiment","3","odd","1","581997","580783","88205","578683","579759","2728","182641","579770","497383","2757","168225","584953","584010","584009","NA","Sternberg Task","67","76350","76","yes","1024"
"88.31168831168831","88.31168831168831","1008.0519480519481","1008.0519480519481","black","experiment","legacy","legacy","legacy","0","uniform","1","undefined","1","left","76","76","0","76","76","0","0","76","76","0","0","76","76","76","0","Sun Oct 25 18:56:25 2020","The main experiment item","yes","HoughSternbergTask.osexp","/Users/tionnahough/Desktop/Fall 2020","no","mono","no","18","no","white","no","yes","768","legacy","64","11","/Users/tionnahough/Desktop/th-subject-3.csv","legacy","4 3 2 5 8","Lentiform Loewenfeld","3.3.3","2","y","0","left","left","left","left","NA","1270","85423","14415","1270","NA","2","legacy","5","1024","2","48000","-16","experiment","3","odd","3","588288","587074","88205","584975","586050","2728","182641","586062","497383","2757","168225","591572","590301","590301","NA","Sternberg Task","68","77620","77","yes","1024"
"88.46153846153847","88.46153846153847","1008.5","1008.5","black","experiment","legacy","legacy","legacy","0","uniform","1","undefined","1","right","77","77","0","77","77","0","0","77","77","0","0","77","77","77","0","Sun Oct 25 18:56:25 2020","The main experiment item","yes","HoughSternbergTask.osexp","/Users/tionnahough/Desktop/Fall 2020","no","mono","no","18","no","white","no","yes","768","legacy","65","11","/Users/tionnahough/Desktop/th-subject-3.csv","legacy","7 8 6 1","Lentiform Loewenfeld","3.3.3","0","n","0","right","left","left","right","NA","1043","85423","14415","1043","NA","2","legacy","4","1024","2","48000","-16","experiment","3","odd","3","594910","593696","88205","591595","592672","2728","182641","592684","497383","2757","168225","597967","596922","596922","NA","Sternberg Task","69","78663","78","yes","1024"
"88.60759493670886","88.60759493670886","1008.4050632911392","1008.4050632911392","black","experiment","legacy","legacy","legacy","0","uniform","1","undefined","1","left","78","78","0","78","78","0","0","78","78","0","0","78","78","78","0","Sun Oct 25 18:56:25 2020","The main experiment item","yes","HoughSternbergTask.osexp","/Users/tionnahough/Desktop/Fall 2020","no","mono","no","18","no","white","no","yes","768","legacy","66","11","/Users/tionnahough/Desktop/th-subject-3.csv","legacy","6 9 7 4 5 1","Lentiform Loewenfeld","3.3.3","2","y","0","left","left","left","left","NA","1001","85423","14415","1001","NA","2","legacy","6","1024","2","48000","-16","experiment","3","odd","9","601293","600079","88205","597980","599055","2728","182641","599066","497383","2757","168225","604308","603305","603305","NA","Sternberg Task","70","79664","79","yes","1024"
"88.75","88.75","1003.6625","1003.6625","black","experiment","legacy","legacy","legacy","0","uniform","1","undefined","1","right","79","79","0","79","79","0","0","79","79","0","0","79","79","79","0","Sun Oct 25 18:56:25 2020","The main experiment item","yes","HoughSternbergTask.osexp","/Users/tionnahough/Desktop/Fall 2020","no","mono","no","18","no","white","no","yes","768","legacy","67","11","/Users/tionnahough/Desktop/th-subject-3.csv","legacy","7 1","Lentiform Loewenfeld","3.3.3","0","n","0","right","left","left","right","NA","629","85423","14415","629","NA","2","legacy","2","1024","2","48000","-16","experiment","3","odd","8","607643","606429","88205","604333","605405","2728","182641","605417","497383","2757","168225","610284","609654","609654","NA","Sternberg Task","71","80293","80","yes","1024"
"87.65432098765432","87.65432098765432","999.0617283950618","999.0617283950618","black","experiment","legacy","legacy","legacy","0","uniform","0","undefined","0","left","80","80","0","80","80","0","0","80","80","0","0","80","80","80","0","Sun Oct 25 18:56:25 2020","The main experiment item","yes","HoughSternbergTask.osexp","/Users/tionnahough/Desktop/Fall 2020","no","mono","no","18","no","white","no","yes","768","legacy","68","11","/Users/tionnahough/Desktop/th-subject-3.csv","legacy","3 9 6 2","Lentiform Loewenfeld","3.3.3","4","y","0","right","left","left","right","NA","631","85423","14415","631","NA","2","legacy","4","1024","2","48000","-16","experiment","3","odd","2","613619","612406","88205","610306","611383","2728","182641","611394","497383","2757","168225","616264","615631","615631","NA","Sternberg Task","71","80924","81","yes","1024"
"87.8048780487805","87.8048780487805","995.9268292682926","995.9268292682926","black","experiment","legacy","legacy","legacy","0","uniform","1","undefined","1","right","81","81","0","81","81","0","0","81","81","0","0","81","81","81","0","Sun Oct 25 18:56:25 2020","The main experiment item","yes","HoughSternbergTask.osexp","/Users/tionnahough/Desktop/Fall 2020","no","mono","no","18","no","white","no","yes","768","legacy","69","11","/Users/tionnahough/Desktop/th-subject-3.csv","legacy","3 4 2","Lentiform Loewenfeld","3.3.3","0","n","0","right","left","left","right","NA","742","85423","14415","742","NA","2","legacy","3","1024","2","48000","-16","experiment","3","odd","5","619599","618385","88205","610306","617362","2728","182641","617373","616285","2757","168225","622354","621611","621611","NA","Sternberg Task","72","81666","82","yes","1024"
"87.95180722891567","87.95180722891567","991.6144578313254","991.6144578313254","black","experiment","legacy","legacy","legacy","0","uniform","1","undefined","1","left","82","82","0","82","82","0","0","82","82","0","0","82","82","82","0","Sun Oct 25 18:56:25 2020","The main experiment item","yes","HoughSternbergTask.osexp","/Users/tionnahough/Desktop/Fall 2020","no","mono","no","18","no","white","no","yes","768","legacy","70","11","/Users/tionnahough/Desktop/th-subject-3.csv","legacy","9 4 2","Lentiform Loewenfeld","3.3.3","1","y","0","left","left","left","left","NA","638","85423","14415","638","NA","2","legacy","3","1024","2","48000","-16","experiment","3","odd","9","625690","624476","88205","622376","623452","2728","182641","623463","616285","2757","168225","628343","627703","627702","NA","Sternberg Task","73","82304","83","yes","1024"
"88.0952380952381","88.0952380952381","987.297619047619","987.297619047619","black","experiment","legacy","legacy","legacy","0","uniform","1","undefined","1","right","83","83","0","83","83","0","0","83","83","0","0","83","83","83","0","Sun Oct 25 18:56:25 2020","The main experiment item","yes","HoughSternbergTask.osexp","/Users/tionnahough/Desktop/Fall 2020","no","mono","no","18","no","white","no","yes","768","legacy","71","11","/Users/tionnahough/Desktop/th-subject-3.csv","legacy","2 6 4 3 9","Lentiform Loewenfeld","3.3.3","0","n","0","right","left","left","right","NA","629","85423","14415","629","NA","2","legacy","5","1024","2","48000","-16","experiment","3","odd","1","631678","630465","88205","628366","629441","2728","182641","629452","616285","2757","168225","634321","633690","633690","NA","Sternberg Task","74","82933","84","yes","1024"
"87.05882352941177","87.05882352941177","986.8705882352941","986.8705882352941","black","experiment","legacy","legacy","legacy","0","uniform","0","undefined","0","left","84","84","0","84","84","0","0","84","84","0","0","84","84","84","0","Sun Oct 25 18:56:25 2020","The main experiment item","yes","HoughSternbergTask.osexp","/Users/tionnahough/Desktop/Fall 2020","no","mono","no","18","no","white","no","yes","768","legacy","72","11","/Users/tionnahough/Desktop/th-subject-3.csv","legacy","8 5 1 3 9","Lentiform Loewenfeld","3.3.3","4","y","0","right","left","left","right","NA","951","85423","14415","951","NA","2","legacy","5","1024","2","48000","-16","experiment","3","odd","3","637653","636440","88205","634342","635416","2728","182641","635428","616285","2757","168225","640626","639674","639674","NA","Sternberg Task","74","83884","85","yes","1024"
"87.20930232558139","87.20930232558139","983.7093023255813","983.7093023255813","black","experiment","legacy","legacy","legacy","0","uniform","1","undefined","1","right","85","85","0","85","85","0","0","85","85","0","0","85","85","85","0","Sun Oct 25 18:56:25 2020","The main experiment item","yes","HoughSternbergTask.osexp","/Users/tionnahough/Desktop/Fall 2020","no","mono","no","18","no","white","no","yes","768","legacy","73","11","/Users/tionnahough/Desktop/th-subject-3.csv","legacy","6 8 4","Lentiform Loewenfeld","3.3.3","0","n","0","right","left","left","right","NA","715","85423","14415","715","NA","2","legacy","3","1024","2","48000","-16","experiment","3","odd","1","643960","642745","88205","634342","641722","2728","182641","641733","640648","2757","168225","646689","645972","645972","NA","Sternberg Task","75","84599","86","yes","1024"
"87.35632183908046","87.35632183908046","978.8965517241379","978.8965517241379","black","experiment","legacy","legacy","legacy","0","uniform","1","undefined","1","left","86","86","0","86","86","0","0","86","86","0","0","86","86","86","0","Sun Oct 25 18:56:25 2020","The main experiment item","yes","HoughSternbergTask.osexp","/Users/tionnahough/Desktop/Fall 2020","no","mono","no","18","no","white","no","yes","768","legacy","74","11","/Users/tionnahough/Desktop/th-subject-3.csv","legacy","3 5 9 6 2 4","Lentiform Loewenfeld","3.3.3","1","y","0","left","left","left","left","NA","565","85423","14415","565","NA","2","legacy","6","1024","2","48000","-16","experiment","3","odd","3","650025","648812","88205","646710","647788","2728","182641","647800","640648","2757","168225","652604","652037","652037","NA","Sternberg Task","76","85164","87","yes","1024"
"87.5","87.5","975.8181818181819","975.8181818181819","black","experiment","legacy","legacy","legacy","0","uniform","1","undefined","1","left","87","87","0","87","87","0","0","87","87","0","0","87","87","87","0","Sun Oct 25 18:56:25 2020","The main experiment item","yes","HoughSternbergTask.osexp","/Users/tionnahough/Desktop/Fall 2020","no","mono","no","18","no","white","no","yes","768","legacy","75","11","/Users/tionnahough/Desktop/th-subject-3.csv","legacy","2 3 7 4","Lentiform Loewenfeld","3.3.3","1","y","0","left","left","left","left","NA","708","85423","14415","708","NA","2","legacy","4","1024","2","48000","-16","experiment","3","odd","2","655937","654723","88205","652626","653700","2728","182641","653711","640648","2757","168225","658658","657949","657949","NA","Sternberg Task","77","85872","88","yes","1024"
"87.64044943820225","87.64044943820225","973.8089887640449","973.8089887640449","black","experiment","legacy","legacy","legacy","0","uniform","1","undefined","1","left","88","88","0","88","88","0","0","88","88","0","0","88","88","88","0","Sun Oct 25 18:56:25 2020","The main experiment item","yes","HoughSternbergTask.osexp","/Users/tionnahough/Desktop/Fall 2020","no","mono","no","18","no","white","no","yes","768","legacy","76","11","/Users/tionnahough/Desktop/th-subject-3.csv","legacy","8","Lentiform Loewenfeld","3.3.3","1","y","0","left","left","left","left","NA","797","85423","14415","797","NA","2","legacy","1","1024","2","48000","-16","experiment","3","odd","8","661992","660778","88205","658680","659754","2728","182641","659766","640648","2757","168225","664802","664004","664004","NA","Sternberg Task","78","86669","89","yes","1024"
"87.77777777777777","87.77777777777777","970.2888888888889","970.2888888888889","black","experiment","legacy","legacy","legacy","0","uniform","1","undefined","1","left","89","89","0","89","89","0","0","89","89","0","0","89","89","89","0","Sun Oct 25 18:56:25 2020","The main experiment item","yes","HoughSternbergTask.osexp","/Users/tionnahough/Desktop/Fall 2020","no","mono","no","18","no","white","no","yes","768","legacy","77","11","/Users/tionnahough/Desktop/th-subject-3.csv","legacy","4 9 7 8 5 3","Lentiform Loewenfeld","3.3.3","4","y","0","left","left","left","left","NA","657","85423","14415","657","NA","2","legacy","6","1024","2","48000","-16","experiment","3","odd","8","668222","667008","88205","664824","665901","2728","182641","665913","640648","2757","168225","670893","670234","670234","NA","Sternberg Task","79","87326","90","yes","1024"
"87.91208791208791","87.91208791208791","966.934065934066","966.934065934066","black","experiment","legacy","legacy","legacy","0","uniform","1","undefined","1","right","90","90","0","90","90","0","0","90","90","0","0","90","90","90","0","Sun Oct 25 18:56:25 2020","The main experiment item","yes","HoughSternbergTask.osexp","/Users/tionnahough/Desktop/Fall 2020","no","mono","no","18","no","white","no","yes","768","legacy","78","11","/Users/tionnahough/Desktop/th-subject-3.csv","legacy","4 1","Lentiform Loewenfeld","3.3.3","0","n","0","right","left","left","right","NA","665","85423","14415","665","NA","2","legacy","2","1024","2","48000","-16","experiment","3","odd","6","674232","673019","88205","670916","671996","2728","182641","672006","640648","2757","168225","676912","676245","676244","NA","Sternberg Task","80","87991","91","yes","1024"
"88.04347826086956","88.04347826086956","966.3913043478261","966.3913043478261","black","experiment","legacy","legacy","legacy","0","uniform","1","undefined","1","left","91","91","0","91","91","0","0","91","91","0","0","91","91","91","0","Sun Oct 25 18:56:25 2020","The main experiment item","yes","HoughSternbergTask.osexp","/Users/tionnahough/Desktop/Fall 2020","no","mono","no","18","no","white","no","yes","768","legacy","79","11","/Users/tionnahough/Desktop/th-subject-3.csv","legacy","3 9 7 6 4","Lentiform Loewenfeld","3.3.3","3","y","0","left","left","left","left","NA","917","85423","14415","917","NA","2","legacy","5","1024","2","48000","-16","experiment","3","odd","7","680243","679029","88205","676933","678006","2728","182641","678017","640648","2757","168225","683174","682255","682255","NA","Sternberg Task","81","88908","92","yes","1024"
"88.17204301075269","88.17204301075269","965.4516129032259","965.4516129032259","black","experiment","legacy","legacy","legacy","0","uniform","1","undefined","1","left","92","92","0","92","92","0","0","92","92","0","0","92","92","92","0","Sun Oct 25 18:56:25 2020","The main experiment item","yes","HoughSternbergTask.osexp","/Users/tionnahough/Desktop/Fall 2020","no","mono","no","18","no","white","no","yes","768","legacy","80","11","/Users/tionnahough/Desktop/th-subject-3.csv","legacy","7 8 6 3 1","Lentiform Loewenfeld","3.3.3","5","y","0","left","left","left","left","NA","879","85423","14415","879","NA","2","legacy","5","1024","2","48000","-16","experiment","3","odd","1","686507","685293","88205","683195","684269","2728","182641","684280","640648","2757","168225","689399","688519","688519","NA","Sternberg Task","82","89787","93","yes","1024"
"88.29787234042553","88.29787234042553","962.1170212765958","962.1170212765958","black","experiment","legacy","legacy","legacy","0","uniform","1","undefined","1","left","93","93","0","93","93","0","0","93","93","0","0","93","93","93","0","Sun Oct 25 18:56:25 2020","The main experiment item","yes","HoughSternbergTask.osexp","/Users/tionnahough/Desktop/Fall 2020","no","mono","no","18","no","white","no","yes","768","legacy","81","11","/Users/tionnahough/Desktop/th-subject-3.csv","legacy","7 8 4 6 9 5","Lentiform Loewenfeld","3.3.3","4","y","0","left","left","left","left","NA","652","85423","14415","652","NA","2","legacy","6","1024","2","48000","-16","experiment","3","odd","6","692734","691520","88205","689420","690495","2728","182641","690507","640648","2757","168225","695402","694748","694748","NA","Sternberg Task","83","90439","94","yes","1024"
"88.42105263157895","88.42105263157895","959.6315789473684","959.6315789473684","black","experiment","legacy","legacy","legacy","0","uniform","1","undefined","1","right","94","94","0","94","94","0","0","94","94","0","0","94","94","94","0","Sun Oct 25 18:56:25 2020","The main experiment item","yes","HoughSternbergTask.osexp","/Users/tionnahough/Desktop/Fall 2020","no","mono","no","18","no","white","no","yes","768","legacy","82","11","/Users/tionnahough/Desktop/th-subject-3.csv","legacy","8 5 7 3 6","Lentiform Loewenfeld","3.3.3","0","n","0","right","left","left","right","NA","726","85423","14415","726","NA","2","legacy","5","1024","2","48000","-16","experiment","3","odd","9","698734","697520","88205","695421","696496","2728","182641","696508","640648","2757","168225","701473","700746","700746","NA","Sternberg Task","84","91165","95","yes","1024"
"88.54166666666667","88.54166666666667","956.7604166666666","956.7604166666666","black","experiment","legacy","legacy","legacy","0","uniform","1","undefined","1","left","95","95","0","95","95","0","0","95","95","0","0","95","95","95","0","Sun Oct 25 18:56:25 2020","The main experiment item","yes","HoughSternbergTask.osexp","/Users/tionnahough/Desktop/Fall 2020","no","mono","no","18","no","white","no","yes","768","legacy","83","11","/Users/tionnahough/Desktop/th-subject-3.csv","legacy","9 8 4","Lentiform Loewenfeld","3.3.3","1","y","0","left","left","left","left","NA","684","85423","14415","684","NA","2","legacy","3","1024","2","48000","-16","experiment","3","odd","9","704808","703595","88205","701494","702571","2728","182641","702583","640648","2757","168225","707506","706820","706820","NA","Sternberg Task","85","91849","96","yes","1024"
"88.65979381443299","88.65979381443299","955.2989690721649","955.2989690721649","black","experiment","legacy","legacy","legacy","0","uniform","1","undefined","1","left","96","96","0","96","96","0","0","96","96","0","0","96","96","96","0","Sun Oct 25 18:56:25 2020","The main experiment item","yes","HoughSternbergTask.osexp","/Users/tionnahough/Desktop/Fall 2020","no","mono","no","18","no","white","no","yes","768","legacy","84","11","/Users/tionnahough/Desktop/th-subject-3.csv","legacy","4 1 5","Lentiform Loewenfeld","3.3.3","2","y","0","left","left","left","left","NA","815","85423","14415","815","NA","2","legacy","3","1024","2","48000","-16","experiment","3","odd","1","710842","709629","88205","707527","708604","2728","182641","708616","640648","2757","168225","713672","712855","712854","NA","Sternberg Task","86","92664","97","yes","1024"
"88.77551020408163","88.77551020408163","953.0918367346939","953.0918367346939","black","experiment","legacy","legacy","legacy","0","uniform","1","undefined","1","right","97","97","0","97","97","0","0","97","97","0","0","97","97","97","0","Sun Oct 25 18:56:25 2020","The main experiment item","yes","HoughSternbergTask.osexp","/Users/tionnahough/Desktop/Fall 2020","no","mono","no","18","no","white","no","yes","768","legacy","85","11","/Users/tionnahough/Desktop/th-subject-3.csv","legacy","7 4 2 8 1 9","Lentiform Loewenfeld","3.3.3","0","n","0","right","left","left","right","NA","739","85423","14415","739","NA","2","legacy","6","1024","2","48000","-16","experiment","3","odd","5","717006","715793","88205","713684","714768","2728","182641","714780","640648","2757","168225","719759","719019","719018","NA","Sternberg Task","87","93403","98","yes","1024"
"88.88888888888889","88.88888888888889","953.1111111111111","953.1111111111111","black","experiment","legacy","legacy","legacy","0","uniform","1","undefined","1","right","98","98","0","98","98","0","0","98","98","0","0","98","98","98","0","Sun Oct 25 18:56:25 2020","The main experiment item","yes","HoughSternbergTask.osexp","/Users/tionnahough/Desktop/Fall 2020","no","mono","no","18","no","white","no","yes","768","legacy","86","11","/Users/tionnahough/Desktop/th-subject-3.csv","legacy","5","Lentiform Loewenfeld","3.3.3","0","n","0","right","left","left","right","NA","955","85423","14415","955","NA","2","legacy","1","1024","2","48000","-16","experiment","3","odd","8","723091","721878","88205","719781","720854","2728","182641","720866","640648","2757","168225","726060","725104","725104","NA","Sternberg Task","88","94358","99","yes","1024"
"89","89","951.37","951.37","black","experiment","legacy","legacy","legacy","0","uniform","1","undefined","1","right","99","99","0","99","99","0","0","99","99","0","0","99","99","99","0","Sun Oct 25 18:56:25 2020","The main experiment item","yes","HoughSternbergTask.osexp","/Users/tionnahough/Desktop/Fall 2020","no","mono","no","18","no","white","no","yes","768","legacy","87","11","/Users/tionnahough/Desktop/th-subject-3.csv","legacy","1 3 2 6 9","Lentiform Loewenfeld","3.3.3","0","n","0","right","left","left","right","NA","779","85423","14415","779","NA","2","legacy","5","1024","2","48000","-16","experiment","3","odd","5","729397","728183","88205","726085","727158","2728","182641","727170","640648","2757","168225","732190","731409","731409","NA","Sternberg Task","89","95137","100","yes","1024"
"88.11881188118812","88.11881188118812","949.8811881188119","949.8811881188119","black","experiment","legacy","legacy","legacy","0","uniform","0","undefined","0","left","100","100","0","100","100","0","0","100","100","0","0","100","100","100","0","Sun Oct 25 18:56:25 2020","The main experiment item","yes","HoughSternbergTask.osexp","/Users/tionnahough/Desktop/Fall 2020","no","mono","no","18","no","white","no","yes","768","legacy","88","11","/Users/tionnahough/Desktop/th-subject-3.csv","legacy","5 2 9 6 1 7","Lentiform Loewenfeld","3.3.3","3","y","0","right","left","left","right","NA","801","85423","14415","801","NA","2","legacy","6","1024","2","48000","-16","experiment","3","odd","9","735525","734310","88205","732212","733286","2728","182641","733298","640648","2757","168225","738341","737538","737537","NA","Sternberg Task","89","95938","101","yes","1024"
"88.23529411764706","88.23529411764706","948.8725490196078","948.8725490196078","black","experiment","legacy","legacy","legacy","0","uniform","1","undefined","1","right","101","101","0","101","101","0","0","101","101","0","0","101","101","101","0","Sun Oct 25 18:56:25 2020","The main experiment item","yes","HoughSternbergTask.osexp","/Users/tionnahough/Desktop/Fall 2020","no","mono","no","18","no","white","no","yes","768","legacy","89","11","/Users/tionnahough/Desktop/th-subject-3.csv","legacy","7 3 2 8","Lentiform Loewenfeld","3.3.3","0","n","0","right","left","left","right","NA","847","85423","14415","847","NA","2","legacy","4","1024","2","48000","-16","experiment","3","odd","4","741676","740462","88205","732212","739439","2728","182641","739450","738362","2757","168225","744536","743688","743688","NA","Sternberg Task","90","96785","102","yes","1024"
"88.3495145631068","88.3495145631068","948.0776699029126","948.0776699029126","black","experiment","legacy","legacy","legacy","0","uniform","1","undefined","1","left","102","102","0","102","102","0","0","102","102","0","0","102","102","102","0","Sun Oct 25 18:56:25 2020","The main experiment item","yes","HoughSternbergTask.osexp","/Users/tionnahough/Desktop/Fall 2020","no","mono","no","18","no","white","no","yes","768","legacy","90","11","/Users/tionnahough/Desktop/th-subject-3.csv","legacy","3 4","Lentiform Loewenfeld","3.3.3","1","y","0","left","left","left","left","NA","867","85423","14415","867","NA","2","legacy","2","1024","2","48000","-16","experiment","3","odd","3","747861","746648","88205","744549","745624","2728","182641","745635","738362","2757","168225","750743","749874","749874","NA","Sternberg Task","91","97652","103","yes","1024"
"88.46153846153847","88.46153846153847","946.2980769230769","946.2980769230769","black","experiment","legacy","legacy","legacy","0","uniform","1","undefined","1","left","103","103","0","103","103","0","0","103","103","0","0","103","103","103","0","Sun Oct 25 18:56:25 2020","The main experiment item","yes","HoughSternbergTask.osexp","/Users/tionnahough/Desktop/Fall 2020","no","mono","no","18","no","white","no","yes","768","legacy","91","11","/Users/tionnahough/Desktop/th-subject-3.csv","legacy","8 5 4 7 3 1","Lentiform Loewenfeld","3.3.3","2","y","0","left","left","left","left","NA","763","85423","14415","763","NA","2","legacy","6","1024","2","48000","-16","experiment","3","odd","5","754079","752865","88205","750764","751840","2728","182641","751852","738362","2757","168225","756855","756090","756090","NA","Sternberg Task","92","98415","104","yes","1024"
"88.57142857142857","88.57142857142857","944.4285714285714","944.4285714285714","black","experiment","legacy","legacy","legacy","0","uniform","1","undefined","1","right","104","104","0","104","104","0","0","104","104","0","0","104","104","104","0","Sun Oct 25 18:56:25 2020","The main experiment item","yes","HoughSternbergTask.osexp","/Users/tionnahough/Desktop/Fall 2020","no","mono","no","18","no","white","no","yes","768","legacy","92","11","/Users/tionnahough/Desktop/th-subject-3.csv","legacy","6 8","Lentiform Loewenfeld","3.3.3","0","n","0","right","left","left","right","NA","750","85423","14415","750","NA","2","legacy","2","1024","2","48000","-16","experiment","3","odd","9","760187","758974","88205","756876","757950","2728","182641","757962","738362","2757","168225","762951","762199","762199","NA","Sternberg Task","93","99165","105","yes","1024"
"88.67924528301887","88.67924528301887","942.1792452830189","942.1792452830189","black","experiment","legacy","legacy","legacy","0","uniform","1","undefined","1","right","105","105","0","105","105","0","0","105","105","0","0","105","105","105","0","Sun Oct 25 18:56:25 2020","The main experiment item","yes","HoughSternbergTask.osexp","/Users/tionnahough/Desktop/Fall 2020","no","mono","no","18","no","white","no","yes","768","legacy","93","11","/Users/tionnahough/Desktop/th-subject-3.csv","legacy","2 8 6 3 1","Lentiform Loewenfeld","3.3.3","0","n","0","right","left","left","right","NA","706","85423","14415","706","NA","2","legacy","5","1024","2","48000","-16","experiment","3","odd","7","766284","765071","88205","762973","764047","2728","182641","764058","738362","2757","168225","769005","768297","768297","NA","Sternberg Task","94","99871","106","yes","1024"
"88.78504672897196","88.78504672897196","942.626168224299","942.626168224299","black","experiment","legacy","legacy","legacy","0","uniform","1","undefined","1","left","106","106","0","106","106","0","0","106","106","0","0","106","106","106","0","Sun Oct 25 18:56:25 2020","The main experiment item","yes","HoughSternbergTask.osexp","/Users/tionnahough/Desktop/Fall 2020","no","mono","no","18","no","white","no","yes","768","legacy","94","11","/Users/tionnahough/Desktop/th-subject-3.csv","legacy","9 5 8 1","Lentiform Loewenfeld","3.3.3","2","y","0","left","left","left","left","NA","990","85423","14415","990","NA","2","legacy","4","1024","2","48000","-16","experiment","3","odd","5","772338","771125","88205","769026","770102","2728","182641","770113","738362","2757","168225","775341","774350","774350","NA","Sternberg Task","95","100861","107","yes","1024"
"88.88888888888889","88.88888888888889","940.6944444444445","940.6944444444445","black","experiment","legacy","legacy","legacy","0","uniform","1","undefined","1","right","107","107","0","107","107","0","0","107","107","0","0","107","107","107","0","Sun Oct 25 18:56:25 2020","The main experiment item","yes","HoughSternbergTask.osexp","/Users/tionnahough/Desktop/Fall 2020","no","mono","no","18","no","white","no","yes","768","legacy","95","11","/Users/tionnahough/Desktop/th-subject-3.csv","legacy","1","Lentiform Loewenfeld","3.3.3","0","n","0","right","left","left","right","NA","734","85423","14415","734","NA","2","legacy","1","1024","2","48000","-16","experiment","3","odd","7","778677","777463","88205","775363","776440","2728","182641","776451","738362","2757","168225","781425","780689","780689","NA","Sternberg Task","96","101595","108","yes","1024"
"88.07339449541284","88.07339449541284","940.4678899082569","940.4678899082569","black","experiment","legacy","legacy","legacy","0","uniform","0","undefined","0","left","108","108","0","108","108","0","0","108","108","0","0","108","108","108","0","Sun Oct 25 18:56:25 2020","The main experiment item","yes","HoughSternbergTask.osexp","/Users/tionnahough/Desktop/Fall 2020","no","mono","no","18","no","white","no","yes","768","legacy","96","11","/Users/tionnahough/Desktop/th-subject-3.csv","legacy","7 6","Lentiform Loewenfeld","3.3.3","2","y","0","right","left","left","right","NA","916","85423","14415","916","NA","2","legacy","2","1024","2","48000","-16","experiment","3","odd","6","784762","783548","88205","781446","782524","2728","182641","782536","738362","2757","168225","787691","786774","786774","NA","Sternberg Task","96","102511","109","yes","1024"
"88.18181818181819","88.18181818181819","942.0636363636364","942.0636363636364","black","experiment","legacy","legacy","legacy","0","uniform","1","undefined","1","left","109","109","0","109","109","0","0","109","109","0","0","109","109","109","0","Sun Oct 25 18:56:25 2020","The main experiment item","yes","HoughSternbergTask.osexp","/Users/tionnahough/Desktop/Fall 2020","no","mono","no","18","no","white","no","yes","768","legacy","97","11","/Users/tionnahough/Desktop/th-subject-3.csv","legacy","8 9 5 6 7","Lentiform Loewenfeld","3.3.3","1","y","0","left","left","left","left","NA","1116","85423","14415","1116","NA","2","legacy","5","1024","2","48000","-16","experiment","3","odd","8","791025","789811","88205","781446","788788","2728","182641","788799","787713","2757","168225","794155","793037","793037","NA","Sternberg Task","97","103627","110","yes","1024"
"88.28828828828829","88.28828828828829","938.7837837837837","938.7837837837837","black","experiment","legacy","legacy","legacy","0","uniform","1","undefined","1","right","110","110","0","110","110","0","0","110","110","0","0","110","110","110","0","Sun Oct 25 18:56:25 2020","The main experiment item","yes","HoughSternbergTask.osexp","/Users/tionnahough/Desktop/Fall 2020","no","mono","no","18","no","white","no","yes","768","legacy","98","11","/Users/tionnahough/Desktop/th-subject-3.csv","legacy","1 6 4","Lentiform Loewenfeld","3.3.3","0","n","0","right","left","left","right","NA","578","85423","14415","578","NA","2","legacy","3","1024","2","48000","-16","experiment","3","odd","7","797490","796275","88205","794177","795250","2728","182641","795262","787713","2757","168225","800082","799502","799502","NA","Sternberg Task","98","104205","111","yes","1024"
"88.39285714285714","88.39285714285714","937.2678571428571","937.2678571428571","black","experiment","legacy","legacy","legacy","0","uniform","1","undefined","1","left","111","111","0","111","111","0","0","111","111","0","0","111","111","111","0","Sun Oct 25 18:56:25 2020","The main experiment item","yes","HoughSternbergTask.osexp","/Users/tionnahough/Desktop/Fall 2020","no","mono","no","18","no","white","no","yes","768","legacy","99","11","/Users/tionnahough/Desktop/th-subject-3.csv","legacy","4","Lentiform Loewenfeld","3.3.3","1","y","0","left","left","left","left","NA","769","85423","14415","769","NA","2","legacy","1","1024","2","48000","-16","experiment","3","odd","4","803412","802197","88205","800099","801173","2728","182641","801184","787713","2757","168225","806196","805425","805424","NA","Sternberg Task","99","104974","112","yes","1024"
"88.49557522123894","88.49557522123894","935.787610619469","935.787610619469","black","experiment","legacy","legacy","legacy","0","uniform","1","undefined","1","right","112","112","0","112","112","0","0","112","112","0","0","112","112","112","0","Sun Oct 25 18:56:25 2020","The main experiment item","yes","HoughSternbergTask.osexp","/Users/tionnahough/Desktop/Fall 2020","no","mono","no","18","no","white","no","yes","768","legacy","100","11","/Users/tionnahough/Desktop/th-subject-3.csv","legacy","7 1 5 6 3","Lentiform Loewenfeld","3.3.3","0","n","0","right","left","left","right","NA","770","85423","14415","770","NA","2","legacy","5","1024","2","48000","-16","experiment","3","odd","8","809533","808319","88205","806217","807293","2728","182641","807305","787713","2757","168225","812317","811545","811545","NA","Sternberg Task","100","105744","113","yes","1024"
"88.59649122807018","88.59649122807018","934.0964912280701","934.0964912280701","black","experiment","legacy","legacy","legacy","0","uniform","1","undefined","1","right","113","113","0","113","113","0","0","113","113","0","0","113","113","113","0","Sun Oct 25 18:56:25 2020","The main experiment item","yes","HoughSternbergTask.osexp","/Users/tionnahough/Desktop/Fall 2020","no","mono","no","18","no","white","no","yes","768","legacy","101","11","/Users/tionnahough/Desktop/th-subject-3.csv","legacy","7 9 1 6","Lentiform Loewenfeld","3.3.3","0","n","0","right","left","left","right","NA","743","85423","14415","743","NA","2","legacy","4","1024","2","48000","-16","experiment","3","odd","4","815652","814438","88205","812338","813413","2728","182641","813426","787713","2757","168225","818408","817664","817663","NA","Sternberg Task","101","106487","114","yes","1024"
"88.69565217391305","88.69565217391305","931.9739130434782","931.9739130434782","black","experiment","legacy","legacy","legacy","0","uniform","1","undefined","1","right","114","114","0","114","114","0","0","114","114","0","0","114","114","114","0","Sun Oct 25 18:56:25 2020","The main experiment item","yes","HoughSternbergTask.osexp","/Users/tionnahough/Desktop/Fall 2020","no","mono","no","18","no","white","no","yes","768","legacy","102","11","/Users/tionnahough/Desktop/th-subject-3.csv","legacy","1 7 5 2 9","Lentiform Loewenfeld","3.3.3","0","n","0","right","left","left","right","NA","690","85423","14415","690","NA","2","legacy","5","1024","2","48000","-16","experiment","3","odd","3","821741","820528","88205","818430","819505","2728","182641","819516","787713","2757","168225","824445","823754","823753","NA","Sternberg Task","102","107177","115","yes","1024"
"88.79310344827586","88.79310344827586","930.1206896551724","930.1206896551724","black","experiment","legacy","legacy","legacy","0","uniform","1","undefined","1","right","115","115","0","115","115","0","0","115","115","0","0","115","115","115","0","Sun Oct 25 18:56:25 2020","The main experiment item","yes","HoughSternbergTask.osexp","/Users/tionnahough/Desktop/Fall 2020","no","mono","no","18","no","white","no","yes","768","legacy","103","11","/Users/tionnahough/Desktop/th-subject-3.csv","legacy","6 9 7 3 8 2","Lentiform Loewenfeld","3.3.3","0","n","0","right","left","left","right","NA","717","85423","14415","717","NA","2","legacy","6","1024","2","48000","-16","experiment","3","odd","5","827783","826569","88205","824468","825545","2728","182641","825557","787713","2757","168225","830513","829794","829794","NA","Sternberg Task","103","107894","116","yes","1024"
