"acc","accuracy","average_response_time","avg_rt","background","block","canvas_backend","clock_backend","color_backend","compensation","coordinates","correct","correct_instruction1","correct_keyboard_response","correct_response","count_ISI","count_correctFeedback","count_expSequence","count_experiment","count_experimentLoop","count_fixation","count_incorrectFeedback","count_instruction1","count_instructions2","count_keyboard_response","count_logger","count_memorySet","count_practiceLoop","count_probe","count_thankYou","datetime","description","disable_garbage_collection","experiment_file","experiment_path","font_bold","font_family","font_italic","font_size","font_underline","foreground","form_clicks","fullscreen","height","keyboard_backend","live_row","live_row_practiceLoop","logfile","mouse_backend","numberSet","opensesame_codename","opensesame_version","posInSet","present","repeat_cycle","response","response_instruction1","response_instructions2","response_keyboard_response","response_thankYou","response_time","response_time_instruction1","response_time_instructions2","response_time_keyboard_response","response_time_thankYou","round_decimals","sampler_backend","setSize","sound_buf_size","sound_channels","sound_freq","sound_sample_size","start","subject_nr","subject_parity","target","time_ISI","time_correctFeedback","time_expSequence","time_experiment","time_experimentLoop","time_fixation","time_incorrectFeedback","time_instruction1","time_instructions2","time_keyboard_response","time_logger","time_memorySet","time_practiceLoop","time_probe","time_thankYou","title","total_correct","total_response_time","total_responses","uniform_coordinates","width"
"0","0","2000","2000","black","practice","legacy","legacy","legacy","0","uniform","0","undefined","0","right","0","0","0","0","0","0","0","0","0","0","0","0","0","0","0","Sun Oct 25 16:03:21 2020","The main experiment item","yes","Sternberg task-5.osexp","C:\Users\Elaine\AppData\Local\Temp","no","mono","no","18","no","white","no","yes","768","legacy","0","0","C:/Users/Elaine/Desktop/subject-3.csv","legacy","5","Lentiform Loewenfeld","3.3.3","0","n","0","None","left","NA","None","NA","2000","72540","NA","2000","NA","2","legacy","1","1024","2","48000","-16","experiment","3","odd","3","83709","NA","81495","7514","NA","81499","NA","7523","NA","85731","87731","82504","80067","85715","NA","Sternberg task","0","2000","1","yes","1024"
"0","0","1695.5","1695.5","black","practice","legacy","legacy","legacy","0","uniform","0","undefined","0","left","1","1","1","0","0","1","1","0","0","1","1","1","0","1","0","Sun Oct 25 16:03:21 2020","The main experiment item","yes","Sternberg task-5.osexp","C:\Users\Elaine\AppData\Local\Temp","no","mono","no","18","no","white","no","yes","768","legacy","1","1","C:/Users/Elaine/Desktop/subject-3.csv","legacy","4 8","Lentiform Loewenfeld","3.3.3","1","y","0","right","left","NA","right","NA","1391","72540","NA","1391","NA","2","legacy","2","1024","2","48000","-16","experiment","3","odd","4","91146","NA","88933","7514","NA","88936","87784","7523","NA","93161","94553","89941","80067","93152","NA","Sternberg task","0","3391","2","yes","1024"
"0","0","1797","1797","black","practice","legacy","legacy","legacy","0","uniform","0","undefined","0","right","2","2","2","0","0","2","2","0","0","2","2","2","0","2","0","Sun Oct 25 16:03:21 2020","The main experiment item","yes","Sternberg task-5.osexp","C:\Users\Elaine\AppData\Local\Temp","no","mono","no","18","no","white","no","yes","768","legacy","2","2","C:/Users/Elaine/Desktop/subject-3.csv","legacy","5 7 8 4 1 2","Lentiform Loewenfeld","3.3.3","0","n","0","None","left","NA","None","NA","2000","72540","NA","2000","NA","2","legacy","6","1024","2","48000","-16","experiment","3","odd","6","97919","NA","95705","7514","NA","95709","94561","7523","NA","99935","101935","96714","80067","99925","NA","Sternberg task","0","5391","3","yes","1024"
"0","0","1848","1848","black","practice","legacy","legacy","legacy","0","uniform","0","undefined","0","left","3","3","3","0","0","3","3","0","0","3","3","3","0","3","0","Sun Oct 25 16:03:21 2020","The main experiment item","yes","Sternberg task-5.osexp","C:\Users\Elaine\AppData\Local\Temp","no","mono","no","18","no","white","no","yes","768","legacy","3","3","C:/Users/Elaine/Desktop/subject-3.csv","legacy","1 5 2 9","Lentiform Loewenfeld","3.3.3","2","y","0","None","left","NA","None","NA","2001","72540","NA","2001","NA","2","legacy","4","1024","2","48000","-16","experiment","3","odd","5","105311","NA","103096","7514","NA","103100","101943","7523","NA","107317","109318","104105","80067","107316","NA","Sternberg task","0","7392","4","yes","1024"
"0","0","1878.4","1878.4","black","practice","legacy","legacy","legacy","0","uniform","0","undefined","0","right","4","4","4","0","0","4","4","0","0","4","4","4","0","4","0","Sun Oct 25 16:03:21 2020","The main experiment item","yes","Sternberg task-5.osexp","C:\Users\Elaine\AppData\Local\Temp","no","mono","no","18","no","white","no","yes","768","legacy","4","4","C:/Users/Elaine/Desktop/subject-3.csv","legacy","2 1","Lentiform Loewenfeld","3.3.3","0","n","0","None","left","NA","None","NA","2000","72540","NA","2000","NA","2","legacy","2","1024","2","48000","-16","experiment","3","odd","5","112685","NA","110472","7514","NA","110474","109324","7523","NA","114692","116692","111480","80067","114691","NA","Sternberg task","0","9392","5","yes","1024"
"0","0","1898.6666666666667","1898.6666666666667","black","practice","legacy","legacy","legacy","0","uniform","0","undefined","0","left","5","5","5","0","0","5","5","0","0","5","5","5","0","5","0","Sun Oct 25 16:03:21 2020","The main experiment item","yes","Sternberg task-5.osexp","C:\Users\Elaine\AppData\Local\Temp","no","mono","no","18","no","white","no","yes","768","legacy","5","5","C:/Users/Elaine/Desktop/subject-3.csv","legacy","2 9 4","Lentiform Loewenfeld","3.3.3","3","y","0","None","left","NA","None","NA","2000","72540","NA","2000","NA","2","legacy","3","1024","2","48000","-16","experiment","3","odd","4","120052","NA","117839","7514","NA","117841","116698","7523","NA","122059","124059","118846","80067","122059","NA","Sternberg task","0","11392","6","yes","1024"
"0","0","1913.142857142857","1913.142857142857","black","practice","legacy","legacy","legacy","0","uniform","0","undefined","0","right","6","6","6","0","0","6","6","0","0","6","6","6","0","6","0","Sun Oct 25 16:03:21 2020","The main experiment item","yes","Sternberg task-5.osexp","C:\Users\Elaine\AppData\Local\Temp","no","mono","no","18","no","white","no","yes","768","legacy","6","6","C:/Users/Elaine/Desktop/subject-3.csv","legacy","9 6 7 4 5","Lentiform Loewenfeld","3.3.3","0","n","0","None","left","NA","None","NA","2000","72540","NA","2000","NA","2","legacy","5","1024","2","48000","-16","experiment","3","odd","3","127414","NA","125200","7514","NA","125202","124067","7523","NA","129420","131420","126208","80067","129420","NA","Sternberg task","0","13392","7","yes","1024"
"0","0","1924","1924","black","practice","legacy","legacy","legacy","0","uniform","0","undefined","0","left","7","7","7","0","0","7","7","0","0","7","7","7","0","7","0","Sun Oct 25 16:03:21 2020","The main experiment item","yes","Sternberg task-5.osexp","C:\Users\Elaine\AppData\Local\Temp","no","mono","no","18","no","white","no","yes","768","legacy","7","7","C:/Users/Elaine/Desktop/subject-3.csv","legacy","4 3 1 7 9 8","Lentiform Loewenfeld","3.3.3","1","y","0","None","left","NA","None","NA","2000","72540","NA","2000","NA","2","legacy","6","1024","2","48000","-16","experiment","3","odd","4","134782","NA","132571","7514","NA","132572","131428","7523","NA","136788","138788","133577","80067","136788","NA","Sternberg task","0","15392","8","yes","1024"
"0","0","1932.4444444444443","1932.4444444444443","black","practice","legacy","legacy","legacy","0","uniform","0","undefined","0","right","8","8","8","0","0","8","8","0","0","8","8","8","0","8","0","Sun Oct 25 16:03:21 2020","The main experiment item","yes","Sternberg task-5.osexp","C:\Users\Elaine\AppData\Local\Temp","no","mono","no","18","no","white","no","yes","768","legacy","8","8","C:/Users/Elaine/Desktop/subject-3.csv","legacy","4 1 5","Lentiform Loewenfeld","3.3.3","0","n","0","None","left","NA","None","NA","2000","72540","NA","2000","NA","2","legacy","3","1024","2","48000","-16","experiment","3","odd","2","142146","NA","139934","7514","NA","139936","138797","7523","NA","144151","146151","140941","80067","144151","NA","Sternberg task","0","17392","9","yes","1024"
"0","0","1939.2","1939.2","black","practice","legacy","legacy","legacy","0","uniform","0","undefined","0","left","9","9","9","0","0","9","9","0","0","9","9","9","0","9","0","Sun Oct 25 16:03:21 2020","The main experiment item","yes","Sternberg task-5.osexp","C:\Users\Elaine\AppData\Local\Temp","no","mono","no","18","no","white","no","yes","768","legacy","9","9","C:/Users/Elaine/Desktop/subject-3.csv","legacy","6","Lentiform Loewenfeld","3.3.3","1","y","0","None","left","NA","None","NA","2000","72540","NA","2000","NA","2","legacy","1","1024","2","48000","-16","experiment","3","odd","6","149522","NA","147309","7514","NA","147311","146159","7523","NA","151528","153528","148316","80067","151527","NA","Sternberg task","0","19392","10","yes","1024"
"0","0","1944.7272727272727","1944.7272727272727","black","practice","legacy","legacy","legacy","0","uniform","0","undefined","0","right","10","10","10","0","0","10","10","0","0","10","10","10","0","10","0","Sun Oct 25 16:03:21 2020","The main experiment item","yes","Sternberg task-5.osexp","C:\Users\Elaine\AppData\Local\Temp","no","mono","no","18","no","white","no","yes","768","legacy","10","10","C:/Users/Elaine/Desktop/subject-3.csv","legacy","3 1 9 4","Lentiform Loewenfeld","3.3.3","0","n","0","None","left","NA","None","NA","2000","72540","NA","2000","NA","2","legacy","4","1024","2","48000","-16","experiment","3","odd","6","156891","NA","154678","7514","NA","154680","153535","7523","NA","158897","160897","155686","80067","158897","NA","Sternberg task","0","21392","11","yes","1024"
"0","0","1949.3333333333333","1949.3333333333333","black","practice","legacy","legacy","legacy","0","uniform","0","undefined","0","left","11","11","11","0","0","11","11","0","0","11","11","11","0","11","0","Sun Oct 25 16:03:21 2020","The main experiment item","yes","Sternberg task-5.osexp","C:\Users\Elaine\AppData\Local\Temp","no","mono","no","18","no","white","no","yes","768","legacy","11","11","C:/Users/Elaine/Desktop/subject-3.csv","legacy","1 7 9 8 5","Lentiform Loewenfeld","3.3.3","4","y","0","None","left","NA","None","NA","2000","72540","NA","2000","NA","2","legacy","5","1024","2","48000","-16","experiment","3","odd","8","164261","NA","162047","7514","NA","162049","160905","7523","NA","166268","168268","163054","80067","166268","NA","Sternberg task","0","23392","12","yes","1024"
"0","0","1953.3076923076924","1953.3076923076924","black","experiment","legacy","legacy","legacy","0","uniform","0","undefined","0","right","12","12","12","0","0","12","12","0","0","12","12","12","0","12","0","Sun Oct 25 16:03:21 2020","The main experiment item","yes","Sternberg task-5.osexp","C:\Users\Elaine\AppData\Local\Temp","no","mono","no","18","no","white","no","yes","768","legacy","0","11","C:/Users/Elaine/Desktop/subject-3.csv","legacy","4 2 6 9","Lentiform Loewenfeld","3.3.3","0","n","0","None","left","left","None","NA","2001","72540","32798","2001","NA","2","legacy","4","1024","2","48000","-16","experiment","3","odd","7","204459","NA","202247","7514","202139","202249","168276","7523","169341","206466","208467","203254","80067","206465","NA","Sternberg task","0","25393","13","yes","1024"
"7.142857142857143","7.142857142857143","1944.857142857143","1944.857142857143","black","experiment","legacy","legacy","legacy","0","uniform","1","undefined","1","right","13","13","13","0","0","13","13","0","0","13","13","13","0","13","0","Sun Oct 25 16:03:21 2020","The main experiment item","yes","Sternberg task-5.osexp","C:\Users\Elaine\AppData\Local\Temp","no","mono","no","18","no","white","no","yes","768","legacy","1","11","C:/Users/Elaine/Desktop/subject-3.csv","legacy","6 9 7 3 8 2","Lentiform Loewenfeld","3.3.3","0","n","0","right","left","left","right","NA","1835","72540","32798","1835","NA","2","legacy","6","1024","2","48000","-16","experiment","3","odd","5","211827","NA","209613","7514","202139","209615","208475","7523","169341","213832","215668","210622","80067","213832","NA","Sternberg task","1","27228","14","yes","1024"
"13.333333333333334","13.333333333333334","1921.3333333333333","1921.3333333333333","black","experiment","legacy","legacy","legacy","0","uniform","1","undefined","1","left","14","14","14","0","0","14","14","0","0","14","14","14","0","14","0","Sun Oct 25 16:03:21 2020","The main experiment item","yes","Sternberg task-5.osexp","C:\Users\Elaine\AppData\Local\Temp","no","mono","no","18","no","white","no","yes","768","legacy","2","11","C:/Users/Elaine/Desktop/subject-3.csv","legacy","2 3","Lentiform Loewenfeld","3.3.3","1","y","0","left","left","left","left","NA","1592","72540","32798","1592","NA","2","legacy","2","1024","2","48000","-16","experiment","3","odd","2","219028","215682","216816","7514","202139","216818","208475","7523","169341","221035","222628","217823","80067","221035","NA","Sternberg task","2","28820","15","yes","1024"
"18.75","18.75","1916.6875","1916.6875","black","experiment","legacy","legacy","legacy","0","uniform","1","undefined","1","left","15","15","15","0","0","15","15","0","0","15","15","15","0","15","0","Sun Oct 25 16:03:21 2020","The main experiment item","yes","Sternberg task-5.osexp","C:\Users\Elaine\AppData\Local\Temp","no","mono","no","18","no","white","no","yes","768","legacy","3","11","C:/Users/Elaine/Desktop/subject-3.csv","legacy","7 4 2 6 3 5","Lentiform Loewenfeld","3.3.3","6","y","0","left","left","left","left","NA","1847","72540","32798","1847","NA","2","legacy","6","1024","2","48000","-16","experiment","3","odd","5","225993","222636","223781","7514","202139","223783","208475","7523","169341","227995","229843","224788","80067","227995","NA","Sternberg task","3","30667","16","yes","1024"
"17.647058823529413","17.647058823529413","1921.5882352941176","1921.5882352941176","black","experiment","legacy","legacy","legacy","0","uniform","0","undefined","0","right","16","16","16","0","0","16","16","0","0","16","16","16","0","16","0","Sun Oct 25 16:03:21 2020","The main experiment item","yes","Sternberg task-5.osexp","C:\Users\Elaine\AppData\Local\Temp","no","mono","no","18","no","white","no","yes","768","legacy","4","11","C:/Users/Elaine/Desktop/subject-3.csv","legacy","1 7 5 2","Lentiform Loewenfeld","3.3.3","0","n","0","None","left","left","None","NA","2000","72540","32798","2000","NA","2","legacy","4","1024","2","48000","-16","experiment","3","odd","3","233204","229855","230991","7514","202139","230993","208475","7523","169341","235210","237210","231998","80067","235210","NA","Sternberg task","3","32667","17","yes","1024"
"22.22222222222222","22.22222222222222","1906.3333333333333","1906.3333333333333","black","experiment","legacy","legacy","legacy","0","uniform","1","undefined","1","left","17","17","17","0","0","17","17","0","0","17","17","17","0","17","0","Sun Oct 25 16:03:21 2020","The main experiment item","yes","Sternberg task-5.osexp","C:\Users\Elaine\AppData\Local\Temp","no","mono","no","18","no","white","no","yes","768","legacy","5","11","C:/Users/Elaine/Desktop/subject-3.csv","legacy","9 5 8 1","Lentiform Loewenfeld","3.3.3","2","y","0","left","left","left","left","NA","1647","72540","32798","1647","NA","2","legacy","4","1024","2","48000","-16","experiment","3","odd","5","240583","229855","238370","7514","202139","238372","237225","7523","169341","242589","244237","239378","80067","242588","NA","Sternberg task","4","34314","18","yes","1024"
"26.31578947368421","26.31578947368421","1848.842105263158","1848.842105263158","black","experiment","legacy","legacy","legacy","0","uniform","1","undefined","1","right","18","18","18","0","0","18","18","0","0","18","18","18","0","18","0","Sun Oct 25 16:03:21 2020","The main experiment item","yes","Sternberg task-5.osexp","C:\Users\Elaine\AppData\Local\Temp","no","mono","no","18","no","white","no","yes","768","legacy","6","11","C:/Users/Elaine/Desktop/subject-3.csv","legacy","7 9 1 6","Lentiform Loewenfeld","3.3.3","0","n","0","right","left","left","right","NA","814","72540","32798","814","NA","2","legacy","4","1024","2","48000","-16","experiment","3","odd","4","247607","244251","245394","7514","202139","245397","237225","7523","169341","249613","250427","246402","80067","249613","NA","Sternberg task","5","35128","19","yes","1024"
"30","30","1832.15","1832.15","black","experiment","legacy","legacy","legacy","0","uniform","1","undefined","1","right","19","19","19","0","0","19","19","0","0","19","19","19","0","19","0","Sun Oct 25 16:03:21 2020","The main experiment item","yes","Sternberg task-5.osexp","C:\Users\Elaine\AppData\Local\Temp","no","mono","no","18","no","white","no","yes","768","legacy","7","11","C:/Users/Elaine/Desktop/subject-3.csv","legacy","1 3 2 6 9","Lentiform Loewenfeld","3.3.3","0","n","0","right","left","left","right","NA","1515","72540","32798","1515","NA","2","legacy","5","1024","2","48000","-16","experiment","3","odd","5","253791","250437","251578","7514","202139","251580","237225","7523","169341","255797","257312","252585","80067","255796","NA","Sternberg task","6","36643","20","yes","1024"
"33.333333333333336","33.333333333333336","1823.2380952380952","1823.2380952380952","black","experiment","legacy","legacy","legacy","0","uniform","1","undefined","1","left","20","20","20","0","0","20","20","0","0","20","20","20","0","20","0","Sun Oct 25 16:03:21 2020","The main experiment item","yes","Sternberg task-5.osexp","C:\Users\Elaine\AppData\Local\Temp","no","mono","no","18","no","white","no","yes","768","legacy","8","11","C:/Users/Elaine/Desktop/subject-3.csv","legacy","8 5 4 7 3 1","Lentiform Loewenfeld","3.3.3","2","y","0","left","left","left","left","NA","1645","72540","32798","1645","NA","2","legacy","6","1024","2","48000","-16","experiment","3","odd","5","260676","257326","258462","7514","202139","258465","237225","7523","169341","262682","264327","259470","80067","262681","NA","Sternberg task","7","38288","21","yes","1024"
"36.36363636363637","36.36363636363637","1802.9545454545455","1802.9545454545455","black","experiment","legacy","legacy","legacy","0","uniform","1","undefined","1","right","21","21","21","0","0","21","21","0","0","21","21","21","0","21","0","Sun Oct 25 16:03:21 2020","The main experiment item","yes","Sternberg task-5.osexp","C:\Users\Elaine\AppData\Local\Temp","no","mono","no","18","no","white","no","yes","768","legacy","9","11","C:/Users/Elaine/Desktop/subject-3.csv","legacy","1 7 8 3 9","Lentiform Loewenfeld","3.3.3","0","n","0","right","left","left","right","NA","1377","72540","32798","1377","NA","2","legacy","5","1024","2","48000","-16","experiment","3","odd","2","267683","264336","265469","7514","202139","265471","237225","7523","169341","269689","271067","266476","80067","269689","NA","Sternberg task","8","39665","22","yes","1024"
"34.78260869565217","34.78260869565217","1811.5217391304348","1811.5217391304348","black","experiment","legacy","legacy","legacy","0","uniform","0","undefined","0","left","22","22","22","0","0","22","22","0","0","22","22","22","0","22","0","Sun Oct 25 16:03:21 2020","The main experiment item","yes","Sternberg task-5.osexp","C:\Users\Elaine\AppData\Local\Temp","no","mono","no","18","no","white","no","yes","768","legacy","10","11","C:/Users/Elaine/Desktop/subject-3.csv","legacy","3 4 9 6 2 9","Lentiform Loewenfeld","3.3.3","5","y","0","None","left","left","None","NA","2000","72540","32798","2000","NA","2","legacy","6","1024","2","48000","-16","experiment","3","odd","2","274424","271075","272211","7514","202139","272213","237225","7523","169341","276429","278429","273218","80067","276429","NA","Sternberg task","8","41665","23","yes","1024"
"37.5","37.5","1774.6666666666667","1774.6666666666667","black","experiment","legacy","legacy","legacy","0","uniform","1","undefined","1","right","23","23","23","0","0","23","23","0","0","23","23","23","0","23","0","Sun Oct 25 16:03:21 2020","The main experiment item","yes","Sternberg task-5.osexp","C:\Users\Elaine\AppData\Local\Temp","no","mono","no","18","no","white","no","yes","768","legacy","11","11","C:/Users/Elaine/Desktop/subject-3.csv","legacy","8 9","Lentiform Loewenfeld","3.3.3","0","n","0","right","left","left","right","NA","927","72540","32798","927","NA","2","legacy","2","1024","2","48000","-16","experiment","3","odd","5","281785","271075","279575","7514","202139","279577","278438","7523","169341","283793","284721","280580","80067","283790","NA","Sternberg task","9","42592","24","yes","1024"
"40","40","1766.12","1766.12","black","experiment","legacy","legacy","legacy","0","uniform","1","undefined","1","left","24","24","24","0","0","24","24","0","0","24","24","24","0","24","0","Sun Oct 25 16:03:21 2020","The main experiment item","yes","Sternberg task-5.osexp","C:\Users\Elaine\AppData\Local\Temp","no","mono","no","18","no","white","no","yes","768","legacy","12","11","C:/Users/Elaine/Desktop/subject-3.csv","legacy","6 8 9 3 4 9","Lentiform Loewenfeld","3.3.3","5","y","0","left","left","left","left","NA","1561","72540","32798","1561","NA","2","legacy","6","1024","2","48000","-16","experiment","3","odd","4","288078","284730","285866","7514","202139","285868","278438","7523","169341","290084","291645","286873","80067","290083","NA","Sternberg task","10","44153","25","yes","1024"
"42.30769230769231","42.30769230769231","1737.076923076923","1737.076923076923","black","experiment","legacy","legacy","legacy","0","uniform","1","undefined","1","right","25","25","25","0","0","25","25","0","0","25","25","25","0","25","0","Sun Oct 25 16:03:21 2020","The main experiment item","yes","Sternberg task-5.osexp","C:\Users\Elaine\AppData\Local\Temp","no","mono","no","18","no","white","no","yes","768","legacy","13","11","C:/Users/Elaine/Desktop/subject-3.csv","legacy","6 8","Lentiform Loewenfeld","3.3.3","0","n","0","right","left","left","right","NA","1011","72540","32798","1011","NA","2","legacy","2","1024","2","48000","-16","experiment","3","odd","9","295009","291660","292796","7514","202139","292798","278438","7523","169341","297014","298025","293803","80067","297014","NA","Sternberg task","11","45164","26","yes","1024"
"44.44444444444444","44.44444444444444","1726.7407407407406","1726.7407407407406","black","experiment","legacy","legacy","legacy","0","uniform","1","undefined","1","left","26","26","26","0","0","26","26","0","0","26","26","26","0","26","0","Sun Oct 25 16:03:21 2020","The main experiment item","yes","Sternberg task-5.osexp","C:\Users\Elaine\AppData\Local\Temp","no","mono","no","18","no","white","no","yes","768","legacy","14","11","C:/Users/Elaine/Desktop/subject-3.csv","legacy","3 5 7 1","Lentiform Loewenfeld","3.3.3","3","y","0","left","left","left","left","NA","1458","72540","32798","1458","NA","2","legacy","4","1024","2","48000","-16","experiment","3","odd","7","301381","298040","299167","7514","202139","299169","278438","7523","169341","303387","304845","300175","80067","303386","NA","Sternberg task","12","46622","27","yes","1024"
"46.42857142857143","46.42857142857143","1712.392857142857","1712.392857142857","black","experiment","legacy","legacy","legacy","0","uniform","1","undefined","1","left","27","27","27","0","0","27","27","0","0","27","27","27","0","27","0","Sun Oct 25 16:03:21 2020","The main experiment item","yes","Sternberg task-5.osexp","C:\Users\Elaine\AppData\Local\Temp","no","mono","no","18","no","white","no","yes","768","legacy","15","11","C:/Users/Elaine/Desktop/subject-3.csv","legacy","7 1 3","Lentiform Loewenfeld","3.3.3","2","y","0","left","left","left","left","NA","1325","72540","32798","1325","NA","2","legacy","3","1024","2","48000","-16","experiment","3","odd","1","308214","304860","306000","7514","202139","306002","278438","7523","169341","310220","311546","307008","80067","310219","NA","Sternberg task","13","47947","28","yes","1024"
"44.827586206896555","44.827586206896555","1722.3103448275863","1722.3103448275863","black","experiment","legacy","legacy","legacy","0","uniform","0","undefined","0","left","28","28","28","0","0","28","28","0","0","28","28","28","0","28","0","Sun Oct 25 16:03:21 2020","The main experiment item","yes","Sternberg task-5.osexp","C:\Users\Elaine\AppData\Local\Temp","no","mono","no","18","no","white","no","yes","768","legacy","16","11","C:/Users/Elaine/Desktop/subject-3.csv","legacy","7 8 4 6 9 5","Lentiform Loewenfeld","3.3.3","4","y","0","None","left","left","None","NA","2000","72540","32798","2000","NA","2","legacy","6","1024","2","48000","-16","experiment","3","odd","6","314909","311555","312697","7514","202139","312699","278438","7523","169341","316913","318913","313704","80067","316912","NA","Sternberg task","13","49947","29","yes","1024"
"46.666666666666664","46.666666666666664","1702.0666666666666","1702.0666666666666","black","experiment","legacy","legacy","legacy","0","uniform","1","undefined","1","left","29","29","29","0","0","29","29","0","0","29","29","29","0","29","0","Sun Oct 25 16:03:21 2020","The main experiment item","yes","Sternberg task-5.osexp","C:\Users\Elaine\AppData\Local\Temp","no","mono","no","18","no","white","no","yes","768","legacy","17","11","C:/Users/Elaine/Desktop/subject-3.csv","legacy","3 4","Lentiform Loewenfeld","3.3.3","1","y","0","left","left","left","left","NA","1115","72540","32798","1115","NA","2","legacy","2","1024","2","48000","-16","experiment","3","odd","3","322275","311555","320062","7514","202139","320064","318920","7523","169341","324280","325395","321069","80067","324280","NA","Sternberg task","14","51062","30","yes","1024"
"45.16129032258065","45.16129032258065","1711.6774193548388","1711.6774193548388","black","experiment","legacy","legacy","legacy","0","uniform","0","undefined","0","right","30","30","30","0","0","30","30","0","0","30","30","30","0","30","0","Sun Oct 25 16:03:21 2020","The main experiment item","yes","Sternberg task-5.osexp","C:\Users\Elaine\AppData\Local\Temp","no","mono","no","18","no","white","no","yes","768","legacy","18","11","C:/Users/Elaine/Desktop/subject-3.csv","legacy","8 6 3 4 7","Lentiform Loewenfeld","3.3.3","0","n","0","None","left","left","None","NA","2000","72540","32798","2000","NA","2","legacy","5","1024","2","48000","-16","experiment","3","odd","1","328771","325409","326561","7514","202139","326563","318920","7523","169341","330776","332776","327566","80067","330776","NA","Sternberg task","14","53062","31","yes","1024"
"43.75","43.75","1720.6875","1720.6875","black","experiment","legacy","legacy","legacy","0","uniform","0","undefined","0","right","31","31","31","0","0","31","31","0","0","31","31","31","0","31","0","Sun Oct 25 16:03:21 2020","The main experiment item","yes","Sternberg task-5.osexp","C:\Users\Elaine\AppData\Local\Temp","no","mono","no","18","no","white","no","yes","768","legacy","19","11","C:/Users/Elaine/Desktop/subject-3.csv","legacy","2 6 4 3 9","Lentiform Loewenfeld","3.3.3","0","n","0","None","left","left","None","NA","2000","72540","32798","2000","NA","2","legacy","5","1024","2","48000","-16","experiment","3","odd","1","336144","325409","333930","7514","202139","333932","332785","7523","169341","338150","340150","334938","80067","338150","NA","Sternberg task","14","55062","32","yes","1024"
"45.45454545454545","45.45454545454545","1705.8484848484848","1705.8484848484848","black","experiment","legacy","legacy","legacy","0","uniform","1","undefined","1","left","32","32","32","0","0","32","32","0","0","32","32","32","0","32","0","Sun Oct 25 16:03:21 2020","The main experiment item","yes","Sternberg task-5.osexp","C:\Users\Elaine\AppData\Local\Temp","no","mono","no","18","no","white","no","yes","768","legacy","20","11","C:/Users/Elaine/Desktop/subject-3.csv","legacy","9 3 1 2 5","Lentiform Loewenfeld","3.3.3","4","y","0","left","left","left","left","NA","1231","72540","32798","1231","NA","2","legacy","5","1024","2","48000","-16","experiment","3","odd","2","343517","325409","341302","7514","202139","341304","340157","7523","169341","345522","346754","342309","80067","345522","NA","Sternberg task","15","56293","33","yes","1024"
"47.05882352941177","47.05882352941177","1686","1686","black","experiment","legacy","legacy","legacy","0","uniform","1","undefined","1","left","33","33","33","0","0","33","33","0","0","33","33","33","0","33","0","Sun Oct 25 16:03:21 2020","The main experiment item","yes","Sternberg task-5.osexp","C:\Users\Elaine\AppData\Local\Temp","no","mono","no","18","no","white","no","yes","768","legacy","21","11","C:/Users/Elaine/Desktop/subject-3.csv","legacy","8 9 6 1","Lentiform Loewenfeld","3.3.3","2","y","0","left","left","left","left","NA","1031","72540","32798","1031","NA","2","legacy","4","1024","2","48000","-16","experiment","3","odd","9","350121","346767","347908","7514","202139","347911","340157","7523","169341","352127","353158","348916","80067","352126","NA","Sternberg task","16","57324","34","yes","1024"
"48.57142857142857","48.57142857142857","1680.4857142857143","1680.4857142857143","black","experiment","legacy","legacy","legacy","0","uniform","1","undefined","1","left","34","34","34","0","0","34","34","0","0","34","34","34","0","34","0","Sun Oct 25 16:03:21 2020","The main experiment item","yes","Sternberg task-5.osexp","C:\Users\Elaine\AppData\Local\Temp","no","mono","no","18","no","white","no","yes","768","legacy","22","11","C:/Users/Elaine/Desktop/subject-3.csv","legacy","3 9 7 6 4","Lentiform Loewenfeld","3.3.3","3","y","0","left","left","left","left","NA","1493","72540","32798","1493","NA","2","legacy","5","1024","2","48000","-16","experiment","3","odd","7","356534","353174","354320","7514","202139","354322","340157","7523","169341","358540","360033","355329","80067","358539","NA","Sternberg task","17","58817","35","yes","1024"
"50","50","1661.9444444444443","1661.9444444444443","black","experiment","legacy","legacy","legacy","0","uniform","1","undefined","1","left","35","35","35","0","0","35","35","0","0","35","35","35","0","35","0","Sun Oct 25 16:03:21 2020","The main experiment item","yes","Sternberg task-5.osexp","C:\Users\Elaine\AppData\Local\Temp","no","mono","no","18","no","white","no","yes","768","legacy","23","11","C:/Users/Elaine/Desktop/subject-3.csv","legacy","4 1 8 7 5","Lentiform Loewenfeld","3.3.3","3","y","0","left","left","left","left","NA","1013","72540","32798","1013","NA","2","legacy","5","1024","2","48000","-16","experiment","3","odd","8","363413","360043","361201","7514","202139","361203","340157","7523","169341","365420","366433","362208","80067","365419","NA","Sternberg task","18","59830","36","yes","1024"
"48.648648648648646","48.648648648648646","1665.4054054054054","1665.4054054054054","black","experiment","legacy","legacy","legacy","0","uniform","0","undefined","0","right","36","36","36","0","0","36","36","0","0","36","36","36","0","36","0","Sun Oct 25 16:03:21 2020","The main experiment item","yes","Sternberg task-5.osexp","C:\Users\Elaine\AppData\Local\Temp","no","mono","no","18","no","white","no","yes","768","legacy","24","11","C:/Users/Elaine/Desktop/subject-3.csv","legacy","6 9 4 5 2","Lentiform Loewenfeld","3.3.3","0","n","0","left","left","left","left","NA","1790","72540","32798","1790","NA","2","legacy","5","1024","2","48000","-16","experiment","3","odd","1","369807","366448","367591","7514","202139","367594","340157","7523","169341","371813","373604","368600","80067","371812","NA","Sternberg task","18","61620","37","yes","1024"
"50","50","1661.2894736842106","1661.2894736842106","black","experiment","legacy","legacy","legacy","0","uniform","1","undefined","1","right","37","37","37","0","0","37","37","0","0","37","37","37","0","37","0","Sun Oct 25 16:03:21 2020","The main experiment item","yes","Sternberg task-5.osexp","C:\Users\Elaine\AppData\Local\Temp","no","mono","no","18","no","white","no","yes","768","legacy","25","11","C:/Users/Elaine/Desktop/subject-3.csv","legacy","7 1 5 6 3","Lentiform Loewenfeld","3.3.3","0","n","0","right","left","left","right","NA","1509","72540","32798","1509","NA","2","legacy","5","1024","2","48000","-16","experiment","3","odd","8","376972","366448","374758","7514","202139","374761","373619","7523","169341","378979","380489","375766","80067","378978","NA","Sternberg task","19","63129","38","yes","1024"
"51.282051282051285","51.282051282051285","1645.7692307692307","1645.7692307692307","black","experiment","legacy","legacy","legacy","0","uniform","1","undefined","1","left","38","38","38","0","0","38","38","0","0","38","38","38","0","38","0","Sun Oct 25 16:03:21 2020","The main experiment item","yes","Sternberg task-5.osexp","C:\Users\Elaine\AppData\Local\Temp","no","mono","no","18","no","white","no","yes","768","legacy","26","11","C:/Users/Elaine/Desktop/subject-3.csv","legacy","9 1 7 2","Lentiform Loewenfeld","3.3.3","2","y","0","left","left","left","left","NA","1056","72540","32798","1056","NA","2","legacy","4","1024","2","48000","-16","experiment","3","odd","1","383860","380498","381645","7514","202139","381647","373619","7523","169341","385867","386923","382655","80067","385866","NA","Sternberg task","20","64185","39","yes","1024"
"52.5","52.5","1633","1633","black","experiment","legacy","legacy","legacy","0","uniform","1","undefined","1","left","39","39","39","0","0","39","39","0","0","39","39","39","0","39","0","Sun Oct 25 16:03:21 2020","The main experiment item","yes","Sternberg task-5.osexp","C:\Users\Elaine\AppData\Local\Temp","no","mono","no","18","no","white","no","yes","768","legacy","27","11","C:/Users/Elaine/Desktop/subject-3.csv","legacy","9 3 8 2 1 4","Lentiform Loewenfeld","3.3.3","3","y","0","left","left","left","left","NA","1135","72540","32798","1135","NA","2","legacy","6","1024","2","48000","-16","experiment","3","odd","8","390272","386931","388060","7514","202139","388062","373619","7523","169341","392278","393413","389067","80067","392278","NA","Sternberg task","21","65320","40","yes","1024"
"53.65853658536585","53.65853658536585","1631.3902439024391","1631.3902439024391","black","experiment","legacy","legacy","legacy","0","uniform","1","undefined","1","right","40","40","40","0","0","40","40","0","0","40","40","40","0","40","0","Sun Oct 25 16:03:21 2020","The main experiment item","yes","Sternberg task-5.osexp","C:\Users\Elaine\AppData\Local\Temp","no","mono","no","18","no","white","no","yes","768","legacy","28","11","C:/Users/Elaine/Desktop/subject-3.csv","legacy","3 9 8 1 6 4","Lentiform Loewenfeld","3.3.3","0","n","0","right","left","left","right","NA","1567","72540","32798","1567","NA","2","legacy","6","1024","2","48000","-16","experiment","3","odd","7","396779","393423","394567","7514","202139","394569","373619","7523","169341","398781","400349","395574","80067","398781","NA","Sternberg task","22","66887","41","yes","1024"
"52.38095238095238","52.38095238095238","1640.1904761904761","1640.1904761904761","black","experiment","legacy","legacy","legacy","0","uniform","0","undefined","0","left","41","41","41","0","0","41","41","0","0","41","41","41","0","41","0","Sun Oct 25 16:03:21 2020","The main experiment item","yes","Sternberg task-5.osexp","C:\Users\Elaine\AppData\Local\Temp","no","mono","no","18","no","white","no","yes","768","legacy","29","11","C:/Users/Elaine/Desktop/subject-3.csv","legacy","7","Lentiform Loewenfeld","3.3.3","1","y","0","None","left","left","None","NA","2001","72540","32798","2001","NA","2","legacy","1","1024","2","48000","-16","experiment","3","odd","7","403726","400355","401514","7514","202139","401516","373619","7523","169341","405731","407732","402521","80067","405731","NA","Sternberg task","22","68888","42","yes","1024"
"53.48837209302326","53.48837209302326","1628.9767441860465","1628.9767441860465","black","experiment","legacy","legacy","legacy","0","uniform","1","undefined","1","left","42","42","42","0","0","42","42","0","0","42","42","42","0","42","0","Sun Oct 25 16:03:21 2020","The main experiment item","yes","Sternberg task-5.osexp","C:\Users\Elaine\AppData\Local\Temp","no","mono","no","18","no","white","no","yes","768","legacy","30","11","C:/Users/Elaine/Desktop/subject-3.csv","legacy","8 3","Lentiform Loewenfeld","3.3.3","2","y","0","left","left","left","left","NA","1158","72540","32798","1158","NA","2","legacy","2","1024","2","48000","-16","experiment","3","odd","3","411107","400355","408895","7514","202139","408896","407746","7523","169341","413113","414272","409902","80067","413112","NA","Sternberg task","23","70046","43","yes","1024"
"54.54545454545455","54.54545454545455","1623.409090909091","1623.409090909091","black","experiment","legacy","legacy","legacy","0","uniform","1","undefined","1","right","43","43","43","0","0","43","43","0","0","43","43","43","0","43","0","Sun Oct 25 16:03:21 2020","The main experiment item","yes","Sternberg task-5.osexp","C:\Users\Elaine\AppData\Local\Temp","no","mono","no","18","no","white","no","yes","768","legacy","31","11","C:/Users/Elaine/Desktop/subject-3.csv","legacy","4 8 1 2","Lentiform Loewenfeld","3.3.3","0","n","0","right","left","left","right","NA","1384","72540","32798","1384","NA","2","legacy","4","1024","2","48000","-16","experiment","3","odd","7","417642","414281","415429","7514","202139","415431","407746","7523","169341","419648","421032","416436","80067","419647","NA","Sternberg task","24","71430","44","yes","1024"
"55.55555555555556","55.55555555555556","1622.5777777777778","1622.5777777777778","black","experiment","legacy","legacy","legacy","0","uniform","1","undefined","1","left","44","44","44","0","0","44","44","0","0","44","44","44","0","44","0","Sun Oct 25 16:03:21 2020","The main experiment item","yes","Sternberg task-5.osexp","C:\Users\Elaine\AppData\Local\Temp","no","mono","no","18","no","white","no","yes","768","legacy","32","11","C:/Users/Elaine/Desktop/subject-3.csv","legacy","3 5 9 6 2 4","Lentiform Loewenfeld","3.3.3","1","y","0","left","left","left","left","NA","1586","72540","32798","1586","NA","2","legacy","6","1024","2","48000","-16","experiment","3","odd","3","424385","421047","422172","7514","202139","422174","407746","7523","169341","426390","427977","423179","80067","426390","NA","Sternberg task","25","73016","45","yes","1024"
"54.34782608695652","54.34782608695652","1604.2391304347825","1604.2391304347825","black","experiment","legacy","legacy","legacy","0","uniform","0","undefined","0","right","45","45","45","0","0","45","45","0","0","45","45","45","0","45","0","Sun Oct 25 16:03:21 2020","The main experiment item","yes","Sternberg task-5.osexp","C:\Users\Elaine\AppData\Local\Temp","no","mono","no","18","no","white","no","yes","768","legacy","33","11","C:/Users/Elaine/Desktop/subject-3.csv","legacy","1","Lentiform Loewenfeld","3.3.3","0","n","0","left","left","left","left","NA","779","72540","32798","779","NA","2","legacy","1","1024","2","48000","-16","experiment","3","odd","7","431339","427991","429129","7514","202139","429131","407746","7523","169341","433342","434123","430134","80067","433340","NA","Sternberg task","25","73795","46","yes","1024"
"55.319148936170215","55.319148936170215","1592.276595744681","1592.276595744681","black","experiment","legacy","legacy","legacy","0","uniform","1","undefined","1","left","46","46","46","0","0","46","46","0","0","46","46","46","0","46","0","Sun Oct 25 16:03:21 2020","The main experiment item","yes","Sternberg task-5.osexp","C:\Users\Elaine\AppData\Local\Temp","no","mono","no","18","no","white","no","yes","768","legacy","34","11","C:/Users/Elaine/Desktop/subject-3.csv","legacy","9 4 2","Lentiform Loewenfeld","3.3.3","1","y","0","left","left","left","left","NA","1042","72540","32798","1042","NA","2","legacy","3","1024","2","48000","-16","experiment","3","odd","9","437484","427991","435272","7514","202139","435274","434133","7523","169341","439489","440532","436279","80067","439489","NA","Sternberg task","26","74837","47","yes","1024"
"56.25","56.25","1584.3333333333333","1584.3333333333333","black","experiment","legacy","legacy","legacy","0","uniform","1","undefined","1","left","47","47","47","0","0","47","47","0","0","47","47","47","0","47","0","Sun Oct 25 16:03:21 2020","The main experiment item","yes","Sternberg task-5.osexp","C:\Users\Elaine\AppData\Local\Temp","no","mono","no","18","no","white","no","yes","768","legacy","35","11","C:/Users/Elaine/Desktop/subject-3.csv","legacy","4 3 2 5 8","Lentiform Loewenfeld","3.3.3","2","y","0","left","left","left","left","NA","1211","72540","32798","1211","NA","2","legacy","5","1024","2","48000","-16","experiment","3","odd","3","443893","440542","441681","7514","202139","441683","434133","7523","169341","445900","447112","442688","80067","445900","NA","Sternberg task","27","76048","48","yes","1024"
"57.142857142857146","57.142857142857146","1580.7551020408164","1580.7551020408164","black","experiment","legacy","legacy","legacy","0","uniform","1","undefined","1","right","48","48","48","0","0","48","48","0","0","48","48","48","0","48","0","Sun Oct 25 16:03:21 2020","The main experiment item","yes","Sternberg task-5.osexp","C:\Users\Elaine\AppData\Local\Temp","no","mono","no","18","no","white","no","yes","768","legacy","36","11","C:/Users/Elaine/Desktop/subject-3.csv","legacy","5 7 3","Lentiform Loewenfeld","3.3.3","0","n","0","right","left","left","right","NA","1409","72540","32798","1409","NA","2","legacy","3","1024","2","48000","-16","experiment","3","odd","9","450486","447127","448273","7514","202139","448275","434133","7523","169341","452491","453901","449280","80067","452491","NA","Sternberg task","28","77457","49","yes","1024"
"58","58","1570.76","1570.76","black","experiment","legacy","legacy","legacy","0","uniform","1","undefined","1","left","49","49","49","0","0","49","49","0","0","49","49","49","0","49","0","Sun Oct 25 16:03:21 2020","The main experiment item","yes","Sternberg task-5.osexp","C:\Users\Elaine\AppData\Local\Temp","no","mono","no","18","no","white","no","yes","768","legacy","37","11","C:/Users/Elaine/Desktop/subject-3.csv","legacy","3 2 1 4 7","Lentiform Loewenfeld","3.3.3","2","y","0","left","left","left","left","NA","1081","72540","32798","1081","NA","2","legacy","5","1024","2","48000","-16","experiment","3","odd","2","457265","453909","455052","7514","202139","455054","434133","7523","169341","459270","460352","456059","80067","459270","NA","Sternberg task","29","78538","50","yes","1024"
"56.86274509803921","56.86274509803921","1579.1764705882354","1579.1764705882354","black","experiment","legacy","legacy","legacy","0","uniform","0","undefined","0","left","50","50","50","0","0","50","50","0","0","50","50","50","0","50","0","Sun Oct 25 16:03:21 2020","The main experiment item","yes","Sternberg task-5.osexp","C:\Users\Elaine\AppData\Local\Temp","no","mono","no","18","no","white","no","yes","768","legacy","38","11","C:/Users/Elaine/Desktop/subject-3.csv","legacy","5 7 8 2 3 8","Lentiform Loewenfeld","3.3.3","5","y","0","None","left","left","None","NA","2000","72540","32798","2000","NA","2","legacy","6","1024","2","48000","-16","experiment","3","odd","3","463714","460361","461504","7514","202139","461506","434133","7523","169341","465716","467716","462511","80067","465716","NA","Sternberg task","29","80538","51","yes","1024"
"57.69230769230769","57.69230769230769","1583.2307692307693","1583.2307692307693","black","experiment","legacy","legacy","legacy","0","uniform","1","undefined","1","right","51","51","51","0","0","51","51","0","0","51","51","51","0","51","0","Sun Oct 25 16:03:21 2020","The main experiment item","yes","Sternberg task-5.osexp","C:\Users\Elaine\AppData\Local\Temp","no","mono","no","18","no","white","no","yes","768","legacy","39","11","C:/Users/Elaine/Desktop/subject-3.csv","legacy","7 6 4 8 1 2","Lentiform Loewenfeld","3.3.3","0","n","0","right","left","left","right","NA","1790","72540","32798","1790","NA","2","legacy","6","1024","2","48000","-16","experiment","3","odd","9","471081","460361","468869","7514","202139","468871","467726","7523","169341","473089","474880","469876","80067","473087","NA","Sternberg task","30","82328","52","yes","1024"
"58.490566037735846","58.490566037735846","1581.2641509433963","1581.2641509433963","black","experiment","legacy","legacy","legacy","0","uniform","1","undefined","1","right","52","52","52","0","0","52","52","0","0","52","52","52","0","52","0","Sun Oct 25 16:03:21 2020","The main experiment item","yes","Sternberg task-5.osexp","C:\Users\Elaine\AppData\Local\Temp","no","mono","no","18","no","white","no","yes","768","legacy","40","11","C:/Users/Elaine/Desktop/subject-3.csv","legacy","1 5 3 2 8","Lentiform Loewenfeld","3.3.3","0","n","0","right","left","left","right","NA","1479","72540","32798","1479","NA","2","legacy","5","1024","2","48000","-16","experiment","3","odd","4","478242","474891","476031","7514","202139","476034","467726","7523","169341","480265","481745","477036","80067","480249","NA","Sternberg task","31","83807","53","yes","1024"
"59.25925925925926","59.25925925925926","1575.2777777777778","1575.2777777777778","black","experiment","legacy","legacy","legacy","0","uniform","1","undefined","1","right","53","53","53","0","0","53","53","0","0","53","53","53","0","53","0","Sun Oct 25 16:03:21 2020","The main experiment item","yes","Sternberg task-5.osexp","C:\Users\Elaine\AppData\Local\Temp","no","mono","no","18","no","white","no","yes","768","legacy","41","11","C:/Users/Elaine/Desktop/subject-3.csv","legacy","6 8 4","Lentiform Loewenfeld","3.3.3","0","n","0","right","left","left","right","NA","1258","72540","32798","1258","NA","2","legacy","3","1024","2","48000","-16","experiment","3","odd","1","485111","481754","482895","7514","202139","482899","467726","7523","169341","487131","488390","483905","80067","487116","NA","Sternberg task","32","85065","54","yes","1024"
"58.18181818181818","58.18181818181818","1583.0181818181818","1583.0181818181818","black","experiment","legacy","legacy","legacy","0","uniform","0","undefined","0","left","54","54","54","0","0","54","54","0","0","54","54","54","0","54","0","Sun Oct 25 16:03:21 2020","The main experiment item","yes","Sternberg task-5.osexp","C:\Users\Elaine\AppData\Local\Temp","no","mono","no","18","no","white","no","yes","768","legacy","42","11","C:/Users/Elaine/Desktop/subject-3.csv","legacy","1 4 9 3 2 5","Lentiform Loewenfeld","3.3.3","3","y","0","None","left","left","None","NA","2001","72540","32798","2001","NA","2","legacy","6","1024","2","48000","-16","experiment","3","odd","9","491751","488401","489536","7514","202139","489540","467726","7523","169341","493769","495770","490546","80067","493756","NA","Sternberg task","32","87066","55","yes","1024"
"58.92857142857143","58.92857142857143","1581.4285714285713","1581.4285714285713","black","experiment","legacy","legacy","legacy","0","uniform","1","undefined","1","right","55","55","55","0","0","55","55","0","0","55","55","55","0","55","0","Sun Oct 25 16:03:21 2020","The main experiment item","yes","Sternberg task-5.osexp","C:\Users\Elaine\AppData\Local\Temp","no","mono","no","18","no","white","no","yes","768","legacy","43","11","C:/Users/Elaine/Desktop/subject-3.csv","legacy","3 4 2","Lentiform Loewenfeld","3.3.3","0","n","0","right","left","left","right","NA","1494","72540","32798","1494","NA","2","legacy","3","1024","2","48000","-16","experiment","3","odd","5","499133","488401","496922","7514","202139","496925","495798","7523","169341","501155","502650","497928","80067","501139","NA","Sternberg task","33","88560","56","yes","1024"
"59.64912280701754","59.64912280701754","1577.7543859649122","1577.7543859649122","black","experiment","legacy","legacy","legacy","0","uniform","1","undefined","1","right","56","56","56","0","0","56","56","0","0","56","56","56","0","56","0","Sun Oct 25 16:03:21 2020","The main experiment item","yes","Sternberg task-5.osexp","C:\Users\Elaine\AppData\Local\Temp","no","mono","no","18","no","white","no","yes","768","legacy","44","11","C:/Users/Elaine/Desktop/subject-3.csv","legacy","2 8 9 4 1","Lentiform Loewenfeld","3.3.3","0","n","0","right","left","left","right","NA","1372","72540","32798","1372","NA","2","legacy","5","1024","2","48000","-16","experiment","3","odd","5","506007","502666","503794","7514","202139","503797","495798","7523","169341","508028","509401","504802","80067","508013","NA","Sternberg task","34","89932","57","yes","1024"
"60.3448275862069","60.3448275862069","1571.5862068965516","1571.5862068965516","black","experiment","legacy","legacy","legacy","0","uniform","1","undefined","1","right","57","57","57","0","0","57","57","0","0","57","57","57","0","57","0","Sun Oct 25 16:03:21 2020","The main experiment item","yes","Sternberg task-5.osexp","C:\Users\Elaine\AppData\Local\Temp","no","mono","no","18","no","white","no","yes","768","legacy","45","11","C:/Users/Elaine/Desktop/subject-3.csv","legacy","8 4 3 5","Lentiform Loewenfeld","3.3.3","0","n","0","right","left","left","right","NA","1220","72540","32798","1220","NA","2","legacy","4","1024","2","48000","-16","experiment","3","odd","6","512764","509417","510551","7514","202139","510553","495798","7523","169341","514769","515990","511558","80067","514769","NA","Sternberg task","35","91152","58","yes","1024"
"61.016949152542374","61.016949152542374","1565.1864406779662","1565.1864406779662","black","experiment","legacy","legacy","legacy","0","uniform","1","undefined","1","right","58","58","58","0","0","58","58","0","0","58","58","58","0","58","0","Sun Oct 25 16:03:21 2020","The main experiment item","yes","Sternberg task-5.osexp","C:\Users\Elaine\AppData\Local\Temp","no","mono","no","18","no","white","no","yes","768","legacy","46","11","C:/Users/Elaine/Desktop/subject-3.csv","legacy","2 8 9","Lentiform Loewenfeld","3.3.3","0","n","0","right","left","left","right","NA","1194","72540","32798","1194","NA","2","legacy","3","1024","2","48000","-16","experiment","3","odd","6","519359","516000","517147","7514","202139","517149","495798","7523","169341","521365","522560","518154","80067","521364","NA","Sternberg task","36","92346","59","yes","1024"
"61.666666666666664","61.666666666666664","1557.5333333333333","1557.5333333333333","black","experiment","legacy","legacy","legacy","0","uniform","1","undefined","1","right","59","59","59","0","0","59","59","0","0","59","59","59","0","59","0","Sun Oct 25 16:03:21 2020","The main experiment item","yes","Sternberg task-5.osexp","C:\Users\Elaine\AppData\Local\Temp","no","mono","no","18","no","white","no","yes","768","legacy","47","11","C:/Users/Elaine/Desktop/subject-3.csv","legacy","8 5 4 2 9 6","Lentiform Loewenfeld","3.3.3","0","n","0","right","left","left","right","NA","1106","72540","32798","1106","NA","2","legacy","6","1024","2","48000","-16","experiment","3","odd","3","525917","522570","523705","7514","202139","523707","495798","7523","169341","527923","529029","524712","80067","527923","NA","Sternberg task","37","93452","60","yes","1024"
"62.295081967213115","62.295081967213115","1556.2131147540983","1556.2131147540983","black","experiment","legacy","legacy","legacy","0","uniform","1","undefined","1","right","60","60","60","0","0","60","60","0","0","60","60","60","0","60","0","Sun Oct 25 16:03:21 2020","The main experiment item","yes","Sternberg task-5.osexp","C:\Users\Elaine\AppData\Local\Temp","no","mono","no","18","no","white","no","yes","768","legacy","48","11","C:/Users/Elaine/Desktop/subject-3.csv","legacy","3 4 9 6 7 8","Lentiform Loewenfeld","3.3.3","0","n","0","right","left","left","right","NA","1477","72540","32798","1477","NA","2","legacy","6","1024","2","48000","-16","experiment","3","odd","2","532397","529039","530183","7514","202139","530185","495798","7523","169341","534402","535880","531191","80067","534402","NA","Sternberg task","38","94929","61","yes","1024"
"61.29032258064516","61.29032258064516","1563.3709677419354","1563.3709677419354","black","experiment","legacy","legacy","legacy","0","uniform","0","undefined","0","right","61","61","61","0","0","61","61","0","0","61","61","61","0","61","0","Sun Oct 25 16:03:21 2020","The main experiment item","yes","Sternberg task-5.osexp","C:\Users\Elaine\AppData\Local\Temp","no","mono","no","18","no","white","no","yes","768","legacy","49","11","C:/Users/Elaine/Desktop/subject-3.csv","legacy","1 6 4 3 9 7","Lentiform Loewenfeld","3.3.3","0","n","0","None","left","left","None","NA","2000","72540","32798","2000","NA","2","legacy","6","1024","2","48000","-16","experiment","3","odd","8","539248","535895","537035","7514","202139","537037","495798","7523","169341","541254","543254","538042","80067","541253","NA","Sternberg task","38","96929","62","yes","1024"
"60.317460317460316","60.317460317460316","1570.3015873015872","1570.3015873015872","black","experiment","legacy","legacy","legacy","0","uniform","0","undefined","0","left","62","62","62","0","0","62","62","0","0","62","62","62","0","62","0","Sun Oct 25 16:03:21 2020","The main experiment item","yes","Sternberg task-5.osexp","C:\Users\Elaine\AppData\Local\Temp","no","mono","no","18","no","white","no","yes","768","legacy","50","11","C:/Users/Elaine/Desktop/subject-3.csv","legacy","6 9 3 1","Lentiform Loewenfeld","3.3.3","4","y","0","None","left","left","None","NA","2000","72540","32798","2000","NA","2","legacy","4","1024","2","48000","-16","experiment","3","odd","1","546628","535895","544415","7514","202139","544417","543261","7523","169341","548634","550634","545423","80067","548633","NA","Sternberg task","38","98929","63","yes","1024"
"60.9375","60.9375","1565.546875","1565.546875","black","experiment","legacy","legacy","legacy","0","uniform","1","undefined","1","right","63","63","63","0","0","63","63","0","0","63","63","63","0","63","0","Sun Oct 25 16:03:21 2020","The main experiment item","yes","Sternberg task-5.osexp","C:\Users\Elaine\AppData\Local\Temp","no","mono","no","18","no","white","no","yes","768","legacy","51","11","C:/Users/Elaine/Desktop/subject-3.csv","legacy","1 7 5 2 9","Lentiform Loewenfeld","3.3.3","0","n","0","right","left","left","right","NA","1266","72540","32798","1266","NA","2","legacy","5","1024","2","48000","-16","experiment","3","odd","3","554001","535895","551787","7514","202139","551790","550644","7523","169341","556007","557273","552796","80067","556006","NA","Sternberg task","39","100195","64","yes","1024"
"61.53846153846154","61.53846153846154","1557.6615384615384","1557.6615384615384","black","experiment","legacy","legacy","legacy","0","uniform","1","undefined","1","right","64","64","64","0","0","64","64","0","0","64","64","64","0","64","0","Sun Oct 25 16:03:21 2020","The main experiment item","yes","Sternberg task-5.osexp","C:\Users\Elaine\AppData\Local\Temp","no","mono","no","18","no","white","no","yes","768","legacy","52","11","C:/Users/Elaine/Desktop/subject-3.csv","legacy","1 4 9 2 5","Lentiform Loewenfeld","3.3.3","0","n","0","right","left","left","right","NA","1053","72540","32798","1053","NA","2","legacy","5","1024","2","48000","-16","experiment","3","odd","7","560618","557289","558407","7514","202139","558409","550644","7523","169341","562625","563679","559413","80067","562624","NA","Sternberg task","40","101248","65","yes","1024"
"60.60606060606061","60.60606060606061","1552.0757575757575","1552.0757575757575","black","experiment","legacy","legacy","legacy","0","uniform","0","undefined","0","left","65","65","65","0","0","65","65","0","0","65","65","65","0","65","0","Sun Oct 25 16:03:21 2020","The main experiment item","yes","Sternberg task-5.osexp","C:\Users\Elaine\AppData\Local\Temp","no","mono","no","18","no","white","no","yes","768","legacy","53","11","C:/Users/Elaine/Desktop/subject-3.csv","legacy","8 5 3 7 4 6","Lentiform Loewenfeld","3.3.3","6","y","0","right","left","left","right","NA","1189","72540","32798","1189","NA","2","legacy","6","1024","2","48000","-16","experiment","3","odd","6","567033","563688","564821","7514","202139","564823","550644","7523","169341","569038","570228","565828","80067","569038","NA","Sternberg task","40","102437","66","yes","1024"
"59.701492537313435","59.701492537313435","1558.7611940298507","1558.7611940298507","black","experiment","legacy","legacy","legacy","0","uniform","0","undefined","0","left","66","66","66","0","0","66","66","0","0","66","66","66","0","66","0","Sun Oct 25 16:03:21 2020","The main experiment item","yes","Sternberg task-5.osexp","C:\Users\Elaine\AppData\Local\Temp","no","mono","no","18","no","white","no","yes","768","legacy","54","11","C:/Users/Elaine/Desktop/subject-3.csv","legacy","2 8 5 1","Lentiform Loewenfeld","3.3.3","4","y","0","None","left","left","None","NA","2000","72540","32798","2000","NA","2","legacy","4","1024","2","48000","-16","experiment","3","odd","1","573591","563688","571378","7514","202139","571380","570238","7523","169341","575597","577597","572385","80067","575596","NA","Sternberg task","40","104437","67","yes","1024"
"58.8235294117647","58.8235294117647","1565.25","1565.25","black","experiment","legacy","legacy","legacy","0","uniform","0","undefined","0","left","67","67","67","0","0","67","67","0","0","67","67","67","0","67","0","Sun Oct 25 16:03:21 2020","The main experiment item","yes","Sternberg task-5.osexp","C:\Users\Elaine\AppData\Local\Temp","no","mono","no","18","no","white","no","yes","768","legacy","55","11","C:/Users/Elaine/Desktop/subject-3.csv","legacy","6 7 9 3 1 2","Lentiform Loewenfeld","3.3.3","1","y","0","None","left","left","None","NA","2000","72540","32798","2000","NA","2","legacy","6","1024","2","48000","-16","experiment","3","odd","6","580966","563688","578753","7514","202139","578755","577613","7523","169341","582973","584973","579760","80067","582973","NA","Sternberg task","40","106437","68","yes","1024"
"59.42028985507246","59.42028985507246","1561.376811594203","1561.376811594203","black","experiment","legacy","legacy","legacy","0","uniform","1","undefined","1","right","68","68","68","0","0","68","68","0","0","68","68","68","0","68","0","Sun Oct 25 16:03:21 2020","The main experiment item","yes","Sternberg task-5.osexp","C:\Users\Elaine\AppData\Local\Temp","no","mono","no","18","no","white","no","yes","768","legacy","56","11","C:/Users/Elaine/Desktop/subject-3.csv","legacy","5 9 2 3","Lentiform Loewenfeld","3.3.3","0","n","0","right","left","left","right","NA","1298","72540","32798","1298","NA","2","legacy","4","1024","2","48000","-16","experiment","3","odd","8","588334","563688","586125","7514","202139","586127","584982","7523","169341","590339","591638","587132","80067","590339","NA","Sternberg task","41","107735","69","yes","1024"
"58.57142857142857","58.57142857142857","1567.642857142857","1567.642857142857","black","experiment","legacy","legacy","legacy","0","uniform","0","undefined","0","right","69","69","69","0","0","69","69","0","0","69","69","69","0","69","0","Sun Oct 25 16:03:21 2020","The main experiment item","yes","Sternberg task-5.osexp","C:\Users\Elaine\AppData\Local\Temp","no","mono","no","18","no","white","no","yes","768","legacy","57","11","C:/Users/Elaine/Desktop/subject-3.csv","legacy","5","Lentiform Loewenfeld","3.3.3","0","n","0","None","left","left","None","NA","2000","72540","32798","2000","NA","2","legacy","1","1024","2","48000","-16","experiment","3","odd","8","594991","591647","592778","7514","202139","592780","584982","7523","169341","596998","598998","593786","80067","596997","NA","Sternberg task","41","109735","70","yes","1024"
"59.15492957746479","59.15492957746479","1566.9718309859154","1566.9718309859154","black","experiment","legacy","legacy","legacy","0","uniform","1","undefined","1","right","70","70","70","0","0","70","70","0","0","70","70","70","0","70","0","Sun Oct 25 16:03:21 2020","The main experiment item","yes","Sternberg task-5.osexp","C:\Users\Elaine\AppData\Local\Temp","no","mono","no","18","no","white","no","yes","768","legacy","58","11","C:/Users/Elaine/Desktop/subject-3.csv","legacy","6 9 4 5 3 2","Lentiform Loewenfeld","3.3.3","0","n","0","right","left","left","right","NA","1520","72540","32798","1520","NA","2","legacy","6","1024","2","48000","-16","experiment","3","odd","8","602361","591647","600146","7514","202139","600148","599014","7523","169341","604367","605888","601154","80067","604366","NA","Sternberg task","42","111255","71","yes","1024"
"59.72222222222222","59.72222222222222","1560.1666666666667","1560.1666666666667","black","experiment","legacy","legacy","legacy","0","uniform","1","undefined","1","right","71","71","71","0","0","71","71","0","0","71","71","71","0","71","0","Sun Oct 25 16:03:21 2020","The main experiment item","yes","Sternberg task-5.osexp","C:\Users\Elaine\AppData\Local\Temp","no","mono","no","18","no","white","no","yes","768","legacy","59","11","C:/Users/Elaine/Desktop/subject-3.csv","legacy","1 4 9 3","Lentiform Loewenfeld","3.3.3","0","n","0","right","left","left","right","NA","1077","72540","32798","1077","NA","2","legacy","4","1024","2","48000","-16","experiment","3","odd","5","609252","605903","607039","7514","202139","607042","599014","7523","169341","611259","612337","608047","80067","611258","NA","Sternberg task","43","112332","72","yes","1024"
"58.9041095890411","58.9041095890411","1554.4794520547946","1554.4794520547946","black","experiment","legacy","legacy","legacy","0","uniform","0","undefined","0","left","72","72","72","0","0","72","72","0","0","72","72","72","0","72","0","Sun Oct 25 16:03:21 2020","The main experiment item","yes","Sternberg task-5.osexp","C:\Users\Elaine\AppData\Local\Temp","no","mono","no","18","no","white","no","yes","768","legacy","60","11","C:/Users/Elaine/Desktop/subject-3.csv","legacy","5 7 3 6 2","Lentiform Loewenfeld","3.3.3","5","y","0","right","left","left","right","NA","1145","72540","32798","1145","NA","2","legacy","5","1024","2","48000","-16","experiment","3","odd","2","615704","612346","613491","7514","202139","613493","599014","7523","169341","617710","618857","614498","80067","617709","NA","Sternberg task","43","113477","73","yes","1024"
"59.45945945945946","59.45945945945946","1554.3783783783783","1554.3783783783783","black","experiment","legacy","legacy","legacy","0","uniform","1","undefined","1","right","73","73","73","0","0","73","73","0","0","73","73","73","0","73","0","Sun Oct 25 16:03:21 2020","The main experiment item","yes","Sternberg task-5.osexp","C:\Users\Elaine\AppData\Local\Temp","no","mono","no","18","no","white","no","yes","768","legacy","61","11","C:/Users/Elaine/Desktop/subject-3.csv","legacy","6 3 1 7 9 8","Lentiform Loewenfeld","3.3.3","0","n","0","right","left","left","right","NA","1547","72540","32798","1547","NA","2","legacy","6","1024","2","48000","-16","experiment","3","odd","4","622213","612346","620001","7514","202139","620003","618866","7523","169341","624219","625767","621008","80067","624218","NA","Sternberg task","44","115024","74","yes","1024"
"60","60","1551.4","1551.4","black","experiment","legacy","legacy","legacy","0","uniform","1","undefined","1","right","74","74","74","0","0","74","74","0","0","74","74","74","0","74","0","Sun Oct 25 16:03:21 2020","The main experiment item","yes","Sternberg task-5.osexp","C:\Users\Elaine\AppData\Local\Temp","no","mono","no","18","no","white","no","yes","768","legacy","62","11","C:/Users/Elaine/Desktop/subject-3.csv","legacy","7 1 8 4 9 3","Lentiform Loewenfeld","3.3.3","0","n","0","right","left","left","right","NA","1331","72540","32798","1331","NA","2","legacy","6","1024","2","48000","-16","experiment","3","odd","6","629129","625777","626916","7514","202139","626918","618866","7523","169341","631135","632467","627923","80067","631135","NA","Sternberg task","45","116355","75","yes","1024"
"59.21052631578947","59.21052631578947","1547.6052631578948","1547.6052631578948","black","experiment","legacy","legacy","legacy","0","uniform","0","undefined","0","left","75","75","75","0","0","75","75","0","0","75","75","75","0","75","0","Sun Oct 25 16:03:21 2020","The main experiment item","yes","Sternberg task-5.osexp","C:\Users\Elaine\AppData\Local\Temp","no","mono","no","18","no","white","no","yes","768","legacy","63","11","C:/Users/Elaine/Desktop/subject-3.csv","legacy","8 9 5 6 7","Lentiform Loewenfeld","3.3.3","1","y","0","right","left","left","right","NA","1263","72540","32798","1263","NA","2","legacy","5","1024","2","48000","-16","experiment","3","odd","8","635815","632476","633603","7514","202139","633605","618866","7523","169341","637822","639086","634610","80067","637821","NA","Sternberg task","45","117618","76","yes","1024"
"59.74025974025974","59.74025974025974","1547.3506493506493","1547.3506493506493","black","experiment","legacy","legacy","legacy","0","uniform","1","undefined","1","right","76","76","76","0","0","76","76","0","0","76","76","76","0","76","0","Sun Oct 25 16:03:21 2020","The main experiment item","yes","Sternberg task-5.osexp","C:\Users\Elaine\AppData\Local\Temp","no","mono","no","18","no","white","no","yes","768","legacy","64","11","C:/Users/Elaine/Desktop/subject-3.csv","legacy","6 7 5 9","Lentiform Loewenfeld","3.3.3","0","n","0","right","left","left","right","NA","1528","72540","32798","1528","NA","2","legacy","4","1024","2","48000","-16","experiment","3","odd","2","642451","632476","640238","7514","202139","640240","639096","7523","169341","644457","645986","641245","80067","644456","NA","Sternberg task","46","119146","77","yes","1024"
"60.256410256410255","60.256410256410255","1544.5641025641025","1544.5641025641025","black","experiment","legacy","legacy","legacy","0","uniform","1","undefined","1","right","77","77","77","0","0","77","77","0","0","77","77","77","0","77","0","Sun Oct 25 16:03:21 2020","The main experiment item","yes","Sternberg task-5.osexp","C:\Users\Elaine\AppData\Local\Temp","no","mono","no","18","no","white","no","yes","768","legacy","65","11","C:/Users/Elaine/Desktop/subject-3.csv","legacy","8 4 3 9","Lentiform Loewenfeld","3.3.3","0","n","0","right","left","left","right","NA","1330","72540","32798","1330","NA","2","legacy","4","1024","2","48000","-16","experiment","3","odd","5","649339","646002","647129","7514","202139","647131","639096","7523","169341","651345","652676","648134","80067","651345","NA","Sternberg task","47","120476","78","yes","1024"
"59.49367088607595","59.49367088607595","1550.3291139240507","1550.3291139240507","black","experiment","legacy","legacy","legacy","0","uniform","0","undefined","0","left","78","78","78","0","0","78","78","0","0","78","78","78","0","78","0","Sun Oct 25 16:03:21 2020","The main experiment item","yes","Sternberg task-5.osexp","C:\Users\Elaine\AppData\Local\Temp","no","mono","no","18","no","white","no","yes","768","legacy","66","11","C:/Users/Elaine/Desktop/subject-3.csv","legacy","2 3 7 4","Lentiform Loewenfeld","3.3.3","1","y","0","None","left","left","None","NA","2000","72540","32798","2000","NA","2","legacy","4","1024","2","48000","-16","experiment","3","odd","2","656038","652686","653824","7514","202139","653826","639096","7523","169341","658043","660043","654832","80067","658043","NA","Sternberg task","47","122476","79","yes","1024"
"58.75","58.75","1555.95","1555.95","black","experiment","legacy","legacy","legacy","0","uniform","0","undefined","0","left","79","79","79","0","0","79","79","0","0","79","79","79","0","79","0","Sun Oct 25 16:03:21 2020","The main experiment item","yes","Sternberg task-5.osexp","C:\Users\Elaine\AppData\Local\Temp","no","mono","no","18","no","white","no","yes","768","legacy","67","11","C:/Users/Elaine/Desktop/subject-3.csv","legacy","7 6","Lentiform Loewenfeld","3.3.3","2","y","0","None","left","left","None","NA","2000","72540","32798","2000","NA","2","legacy","2","1024","2","48000","-16","experiment","3","odd","6","663412","652686","661198","7514","202139","661201","660052","7523","169341","665418","667419","662207","80067","665417","NA","Sternberg task","47","124476","80","yes","1024"
"59.25925925925926","59.25925925925926","1554.6543209876543","1554.6543209876543","black","experiment","legacy","legacy","legacy","0","uniform","1","undefined","1","right","80","80","80","0","0","80","80","0","0","80","80","80","0","80","0","Sun Oct 25 16:03:21 2020","The main experiment item","yes","Sternberg task-5.osexp","C:\Users\Elaine\AppData\Local\Temp","no","mono","no","18","no","white","no","yes","768","legacy","68","11","C:/Users/Elaine/Desktop/subject-3.csv","legacy","9 7 4 5 8","Lentiform Loewenfeld","3.3.3","0","n","0","right","left","left","right","NA","1451","72540","32798","1451","NA","2","legacy","5","1024","2","48000","-16","experiment","3","odd","6","670777","652686","668564","7514","202139","668566","667427","7523","169341","672783","674235","669572","80067","672782","NA","Sternberg task","48","125927","81","yes","1024"
"59.75609756097561","59.75609756097561","1554.4024390243903","1554.4024390243903","black","experiment","legacy","legacy","legacy","0","uniform","1","undefined","1","right","81","81","81","0","0","81","81","0","0","81","81","81","0","81","0","Sun Oct 25 16:03:21 2020","The main experiment item","yes","Sternberg task-5.osexp","C:\Users\Elaine\AppData\Local\Temp","no","mono","no","18","no","white","no","yes","768","legacy","69","11","C:/Users/Elaine/Desktop/subject-3.csv","legacy","2 5 1 4","Lentiform Loewenfeld","3.3.3","0","n","0","right","left","left","right","NA","1534","72540","32798","1534","NA","2","legacy","4","1024","2","48000","-16","experiment","3","odd","6","677606","674244","675393","7514","202139","675395","667427","7523","169341","679610","681145","676400","80067","679610","NA","Sternberg task","49","127461","82","yes","1024"
"60.24096385542169","60.24096385542169","1550.987951807229","1550.987951807229","black","experiment","legacy","legacy","legacy","0","uniform","1","undefined","1","left","82","82","82","0","0","82","82","0","0","82","82","82","0","82","0","Sun Oct 25 16:03:21 2020","The main experiment item","yes","Sternberg task-5.osexp","C:\Users\Elaine\AppData\Local\Temp","no","mono","no","18","no","white","no","yes","768","legacy","70","11","C:/Users/Elaine/Desktop/subject-3.csv","legacy","6 7 8 5","Lentiform Loewenfeld","3.3.3","3","y","0","left","left","left","left","NA","1271","72540","32798","1271","NA","2","legacy","4","1024","2","48000","-16","experiment","3","odd","8","684517","681160","682307","7514","202139","682309","667427","7523","169341","686523","687795","683310","80067","686522","NA","Sternberg task","50","128732","83","yes","1024"
"60.714285714285715","60.714285714285715","1546.1904761904761","1546.1904761904761","black","experiment","legacy","legacy","legacy","0","uniform","1","undefined","1","left","83","83","83","0","0","83","83","0","0","83","83","83","0","83","0","Sun Oct 25 16:03:21 2020","The main experiment item","yes","Sternberg task-5.osexp","C:\Users\Elaine\AppData\Local\Temp","no","mono","no","18","no","white","no","yes","768","legacy","71","11","C:/Users/Elaine/Desktop/subject-3.csv","legacy","4 9 7 8 5 3","Lentiform Loewenfeld","3.3.3","4","y","0","left","left","left","left","NA","1148","72540","32798","1148","NA","2","legacy","6","1024","2","48000","-16","experiment","3","odd","8","691150","687808","688942","7514","202139","688944","667427","7523","169341","693155","694304","689945","80067","693155","NA","Sternberg task","51","129880","84","yes","1024"
"61.1764705882353","61.1764705882353","1543.5647058823529","1543.5647058823529","black","experiment","legacy","legacy","legacy","0","uniform","1","undefined","1","left","84","84","84","0","0","84","84","0","0","84","84","84","0","84","0","Sun Oct 25 16:03:21 2020","The main experiment item","yes","Sternberg task-5.osexp","C:\Users\Elaine\AppData\Local\Temp","no","mono","no","18","no","white","no","yes","768","legacy","72","11","C:/Users/Elaine/Desktop/subject-3.csv","legacy","8 5 1 3 9","Lentiform Loewenfeld","3.3.3","4","y","0","left","left","left","left","NA","1323","72540","32798","1323","NA","2","legacy","5","1024","2","48000","-16","experiment","3","odd","3","697673","694314","695464","7514","202139","695466","667427","7523","169341","699680","701004","696471","80067","699679","NA","Sternberg task","52","131203","85","yes","1024"
"61.627906976744185","61.627906976744185","1536.0697674418604","1536.0697674418604","black","experiment","legacy","legacy","legacy","0","uniform","1","undefined","1","left","85","85","85","0","0","85","85","0","0","85","85","85","0","85","0","Sun Oct 25 16:03:21 2020","The main experiment item","yes","Sternberg task-5.osexp","C:\Users\Elaine\AppData\Local\Temp","no","mono","no","18","no","white","no","yes","768","legacy","73","11","C:/Users/Elaine/Desktop/subject-3.csv","legacy","9 5 3 8 4","Lentiform Loewenfeld","3.3.3","1","y","0","left","left","left","left","NA","899","72540","32798","899","NA","2","legacy","5","1024","2","48000","-16","experiment","3","odd","9","704377","701019","702164","7514","202139","702166","667427","7523","169341","706384","707284","703172","80067","706384","NA","Sternberg task","53","132102","86","yes","1024"
"62.06896551724138","62.06896551724138","1533.103448275862","1533.103448275862","black","experiment","legacy","legacy","legacy","0","uniform","1","undefined","1","left","86","86","86","0","0","86","86","0","0","86","86","86","0","86","0","Sun Oct 25 16:03:21 2020","The main experiment item","yes","Sternberg task-5.osexp","C:\Users\Elaine\AppData\Local\Temp","no","mono","no","18","no","white","no","yes","768","legacy","74","11","C:/Users/Elaine/Desktop/subject-3.csv","legacy","2 5 4 8 7","Lentiform Loewenfeld","3.3.3","3","y","0","left","left","left","left","NA","1278","72540","32798","1278","NA","2","legacy","5","1024","2","48000","-16","experiment","3","odd","4","710639","707298","708427","7514","202139","708429","667427","7523","169341","712645","713924","709434","80067","712645","NA","Sternberg task","54","133380","87","yes","1024"
"62.5","62.5","1536.965909090909","1536.965909090909","black","experiment","legacy","legacy","legacy","0","uniform","1","undefined","1","left","87","87","87","0","0","87","87","0","0","87","87","87","0","87","0","Sun Oct 25 16:03:21 2020","The main experiment item","yes","Sternberg task-5.osexp","C:\Users\Elaine\AppData\Local\Temp","no","mono","no","18","no","white","no","yes","768","legacy","75","11","C:/Users/Elaine/Desktop/subject-3.csv","legacy","4 6 2 5 1","Lentiform Loewenfeld","3.3.3","5","y","0","left","left","left","left","NA","1873","72540","32798","1873","NA","2","legacy","5","1024","2","48000","-16","experiment","3","odd","1","717285","713937","715072","7514","202139","715074","667427","7523","169341","719290","721165","716080","80067","719290","NA","Sternberg task","55","135253","88","yes","1024"
"61.79775280898876","61.79775280898876","1542.1685393258426","1542.1685393258426","black","experiment","legacy","legacy","legacy","0","uniform","0","undefined","0","left","88","88","88","0","0","88","88","0","0","88","88","88","0","88","0","Sun Oct 25 16:03:21 2020","The main experiment item","yes","Sternberg task-5.osexp","C:\Users\Elaine\AppData\Local\Temp","no","mono","no","18","no","white","no","yes","768","legacy","76","11","C:/Users/Elaine/Desktop/subject-3.csv","legacy","9 6 2 4 1","Lentiform Loewenfeld","3.3.3","4","y","0","None","left","left","None","NA","2000","72540","32798","2000","NA","2","legacy","5","1024","2","48000","-16","experiment","3","odd","4","724530","721177","722317","7514","202139","722319","667427","7523","169341","726537","728538","723325","80067","726536","NA","Sternberg task","55","137253","89","yes","1024"
"62.22222222222222","62.22222222222222","1542.7111111111112","1542.7111111111112","black","experiment","legacy","legacy","legacy","0","uniform","1","undefined","1","right","89","89","89","0","0","89","89","0","0","89","89","89","0","89","0","Sun Oct 25 16:03:21 2020","The main experiment item","yes","Sternberg task-5.osexp","C:\Users\Elaine\AppData\Local\Temp","no","mono","no","18","no","white","no","yes","768","legacy","77","11","C:/Users/Elaine/Desktop/subject-3.csv","legacy","4 2 7 6 1 3","Lentiform Loewenfeld","3.3.3","0","n","0","right","left","left","right","NA","1591","72540","32798","1591","NA","2","legacy","6","1024","2","48000","-16","experiment","3","odd","8","731896","721177","729681","7514","202139","729683","728546","7523","169341","733902","735494","730688","80067","733901","NA","Sternberg task","56","138844","90","yes","1024"
"62.637362637362635","62.637362637362635","1537.3846153846155","1537.3846153846155","black","experiment","legacy","legacy","legacy","0","uniform","1","undefined","1","left","90","90","90","0","0","90","90","0","0","90","90","90","0","90","0","Sun Oct 25 16:03:21 2020","The main experiment item","yes","Sternberg task-5.osexp","C:\Users\Elaine\AppData\Local\Temp","no","mono","no","18","no","white","no","yes","768","legacy","78","11","C:/Users/Elaine/Desktop/subject-3.csv","legacy","9 8 4","Lentiform Loewenfeld","3.3.3","1","y","0","left","left","left","left","NA","1058","72540","32798","1058","NA","2","legacy","3","1024","2","48000","-16","experiment","3","odd","9","738849","735503","736637","7514","202139","736639","728546","7523","169341","740855","741914","737644","80067","740855","NA","Sternberg task","57","139902","91","yes","1024"
"63.04347826086956","63.04347826086956","1535.0760869565217","1535.0760869565217","black","experiment","legacy","legacy","legacy","0","uniform","1","undefined","1","right","91","91","91","0","0","91","91","0","0","91","91","91","0","91","0","Sun Oct 25 16:03:21 2020","The main experiment item","yes","Sternberg task-5.osexp","C:\Users\Elaine\AppData\Local\Temp","no","mono","no","18","no","white","no","yes","768","legacy","79","11","C:/Users/Elaine/Desktop/subject-3.csv","legacy","1 8 7","Lentiform Loewenfeld","3.3.3","0","n","0","right","left","left","right","NA","1325","72540","32798","1325","NA","2","legacy","3","1024","2","48000","-16","experiment","3","odd","4","745282","741923","743070","7514","202139","743072","728546","7523","169341","747287","748614","744077","80067","747287","NA","Sternberg task","58","141227","92","yes","1024"
"62.365591397849464","62.365591397849464","1529.6021505376343","1529.6021505376343","black","experiment","legacy","legacy","legacy","0","uniform","0","undefined","0","right","92","92","92","0","0","92","92","0","0","92","92","92","0","92","0","Sun Oct 25 16:03:21 2020","The main experiment item","yes","Sternberg task-5.osexp","C:\Users\Elaine\AppData\Local\Temp","no","mono","no","18","no","white","no","yes","768","legacy","80","11","C:/Users/Elaine/Desktop/subject-3.csv","legacy","9","Lentiform Loewenfeld","3.3.3","0","n","0","left","left","left","left","NA","1026","72540","32798","1026","NA","2","legacy","1","1024","2","48000","-16","experiment","3","odd","6","751976","748623","749764","7514","202139","749766","728546","7523","169341","753980","755008","750771","80067","753980","NA","Sternberg task","58","142253","93","yes","1024"
"62.765957446808514","62.765957446808514","1525.1170212765958","1525.1170212765958","black","experiment","legacy","legacy","legacy","0","uniform","1","undefined","1","right","93","93","93","0","0","93","93","0","0","93","93","93","0","93","0","Sun Oct 25 16:03:21 2020","The main experiment item","yes","Sternberg task-5.osexp","C:\Users\Elaine\AppData\Local\Temp","no","mono","no","18","no","white","no","yes","768","legacy","81","11","C:/Users/Elaine/Desktop/subject-3.csv","legacy","2 7 5","Lentiform Loewenfeld","3.3.3","0","n","0","right","left","left","right","NA","1108","72540","32798","1108","NA","2","legacy","3","1024","2","48000","-16","experiment","3","odd","8","758362","748623","756153","7514","202139","756155","755022","7523","169341","760364","761473","757160","80067","760364","NA","Sternberg task","59","143361","94","yes","1024"
"63.1578947368421","63.1578947368421","1522.578947368421","1522.578947368421","black","experiment","legacy","legacy","legacy","0","uniform","1","undefined","1","right","94","94","94","0","0","94","94","0","0","94","94","94","0","94","0","Sun Oct 25 16:03:21 2020","The main experiment item","yes","Sternberg task-5.osexp","C:\Users\Elaine\AppData\Local\Temp","no","mono","no","18","no","white","no","yes","768","legacy","82","11","C:/Users/Elaine/Desktop/subject-3.csv","legacy","5 3 2 6 9 8","Lentiform Loewenfeld","3.3.3","0","n","0","right","left","left","right","NA","1284","72540","32798","1284","NA","2","legacy","6","1024","2","48000","-16","experiment","3","odd","4","765162","761792","762956","7514","202139","762959","755022","7523","169341","767168","768453","763961","80067","767168","NA","Sternberg task","60","144645","95","yes","1024"
"63.541666666666664","63.541666666666664","1517.625","1517.625","black","experiment","legacy","legacy","legacy","0","uniform","1","undefined","1","left","95","95","95","0","0","95","95","0","0","95","95","95","0","95","0","Sun Oct 25 16:03:21 2020","The main experiment item","yes","Sternberg task-5.osexp","C:\Users\Elaine\AppData\Local\Temp","no","mono","no","18","no","white","no","yes","768","legacy","83","11","C:/Users/Elaine/Desktop/subject-3.csv","legacy","6 1 2","Lentiform Loewenfeld","3.3.3","3","y","0","left","left","left","left","NA","1047","72540","32798","1047","NA","2","legacy","3","1024","2","48000","-16","experiment","3","odd","2","771957","768625","769744","7514","202139","769746","755022","7523","169341","773964","775013","770752","80067","773963","NA","Sternberg task","61","145692","96","yes","1024"
"63.91752577319588","63.91752577319588","1512.9484536082475","1512.9484536082475","black","experiment","legacy","legacy","legacy","0","uniform","1","undefined","1","right","96","96","96","0","0","96","96","0","0","96","96","96","0","96","0","Sun Oct 25 16:03:21 2020","The main experiment item","yes","Sternberg task-5.osexp","C:\Users\Elaine\AppData\Local\Temp","no","mono","no","18","no","white","no","yes","768","legacy","84","11","C:/Users/Elaine/Desktop/subject-3.csv","legacy","9 8 2 7 4","Lentiform Loewenfeld","3.3.3","0","n","0","right","left","left","right","NA","1064","72540","32798","1064","NA","2","legacy","5","1024","2","48000","-16","experiment","3","odd","5","778382","775020","776169","7514","202139","776171","755022","7523","169341","780388","781453","777176","80067","780388","NA","Sternberg task","62","146756","97","yes","1024"
"64.28571428571429","64.28571428571429","1510.2244897959183","1510.2244897959183","black","experiment","legacy","legacy","legacy","0","uniform","1","undefined","1","right","97","97","97","0","0","97","97","0","0","97","97","97","0","97","0","Sun Oct 25 16:03:21 2020","The main experiment item","yes","Sternberg task-5.osexp","C:\Users\Elaine\AppData\Local\Temp","no","mono","no","18","no","white","no","yes","768","legacy","85","11","C:/Users/Elaine/Desktop/subject-3.csv","legacy","7 4 2 8 1 9","Lentiform Loewenfeld","3.3.3","0","n","0","right","left","left","right","NA","1246","72540","32798","1246","NA","2","legacy","6","1024","2","48000","-16","experiment","3","odd","5","784808","781460","782596","7514","202139","782598","755022","7523","169341","786815","788062","783603","80067","786814","NA","Sternberg task","63","148002","98","yes","1024"
"64.64646464646465","64.64646464646465","1502.919191919192","1502.919191919192","black","experiment","legacy","legacy","legacy","0","uniform","1","undefined","1","left","98","98","98","0","0","98","98","0","0","98","98","98","0","98","0","Sun Oct 25 16:03:21 2020","The main experiment item","yes","Sternberg task-5.osexp","C:\Users\Elaine\AppData\Local\Temp","no","mono","no","18","no","white","no","yes","768","legacy","86","11","C:/Users/Elaine/Desktop/subject-3.csv","legacy","9 1 6 7 8","Lentiform Loewenfeld","3.3.3","1","y","0","left","left","left","left","NA","787","72540","32798","787","NA","2","legacy","5","1024","2","48000","-16","experiment","3","odd","9","791428","788072","789216","7514","202139","789218","755022","7523","169341","793435","794223","790223","80067","793434","NA","Sternberg task","64","148789","99","yes","1024"
"65","65","1498.4","1498.4","black","experiment","legacy","legacy","legacy","0","uniform","1","undefined","1","left","99","99","99","0","0","99","99","0","0","99","99","99","0","99","0","Sun Oct 25 16:03:21 2020","The main experiment item","yes","Sternberg task-5.osexp","C:\Users\Elaine\AppData\Local\Temp","no","mono","no","18","no","white","no","yes","768","legacy","87","11","C:/Users/Elaine/Desktop/subject-3.csv","legacy","6 5","Lentiform Loewenfeld","3.3.3","2","y","0","left","left","left","left","NA","1051","72540","32798","1051","NA","2","legacy","2","1024","2","48000","-16","experiment","3","odd","5","797584","794232","795375","7514","202139","795377","755022","7523","169341","799590","800642","796383","80067","799590","NA","Sternberg task","65","149840","100","yes","1024"
"65.34653465346534","65.34653465346534","1491","1491","black","experiment","legacy","legacy","legacy","0","uniform","1","undefined","1","left","100","100","100","0","0","100","100","0","0","100","100","100","0","100","0","Sun Oct 25 16:03:21 2020","The main experiment item","yes","Sternberg task-5.osexp","C:\Users\Elaine\AppData\Local\Temp","no","mono","no","18","no","white","no","yes","768","legacy","88","11","C:/Users/Elaine/Desktop/subject-3.csv","legacy","2 6 1 7 4","Lentiform Loewenfeld","3.3.3","2","y","0","left","left","left","left","NA","751","72540","32798","751","NA","2","legacy","5","1024","2","48000","-16","experiment","3","odd","6","804016","800657","801802","7514","202139","801804","755022","7523","169341","806021","806773","802811","80067","806021","NA","Sternberg task","66","150591","101","yes","1024"
"65.68627450980392","65.68627450980392","1485.7843137254902","1485.7843137254902","black","experiment","legacy","legacy","legacy","0","uniform","1","undefined","1","left","101","101","101","0","0","101","101","0","0","101","101","101","0","101","0","Sun Oct 25 16:03:21 2020","The main experiment item","yes","Sternberg task-5.osexp","C:\Users\Elaine\AppData\Local\Temp","no","mono","no","18","no","white","no","yes","768","legacy","89","11","C:/Users/Elaine/Desktop/subject-3.csv","legacy","7 8 6 3 1","Lentiform Loewenfeld","3.3.3","5","y","0","left","left","left","left","NA","959","72540","32798","959","NA","2","legacy","5","1024","2","48000","-16","experiment","3","odd","1","810137","806781","807924","7514","202139","807926","755022","7523","169341","812142","813103","808931","80067","812142","NA","Sternberg task","67","151550","102","yes","1024"
"66.01941747572816","66.01941747572816","1477.6601941747572","1477.6601941747572","black","experiment","legacy","legacy","legacy","0","uniform","1","undefined","1","left","102","102","102","0","0","102","102","0","0","102","102","102","0","102","0","Sun Oct 25 16:03:21 2020","The main experiment item","yes","Sternberg task-5.osexp","C:\Users\Elaine\AppData\Local\Temp","no","mono","no","18","no","white","no","yes","768","legacy","90","11","C:/Users/Elaine/Desktop/subject-3.csv","legacy","5 2 6","Lentiform Loewenfeld","3.3.3","2","y","0","left","left","left","left","NA","649","72540","32798","649","NA","2","legacy","3","1024","2","48000","-16","experiment","3","odd","2","816476","813111","814262","7514","202139","814264","755022","7523","169341","818481","819131","815271","80067","818481","NA","Sternberg task","68","152199","103","yes","1024"
"66.34615384615384","66.34615384615384","1474.1442307692307","1474.1442307692307","black","experiment","legacy","legacy","legacy","0","uniform","1","undefined","1","right","103","103","103","0","0","103","103","0","0","103","103","103","0","103","0","Sun Oct 25 16:03:21 2020","The main experiment item","yes","Sternberg task-5.osexp","C:\Users\Elaine\AppData\Local\Temp","no","mono","no","18","no","white","no","yes","768","legacy","91","11","C:/Users/Elaine/Desktop/subject-3.csv","legacy","7 8 6 1","Lentiform Loewenfeld","3.3.3","0","n","0","right","left","left","right","NA","1112","72540","32798","1112","NA","2","legacy","4","1024","2","48000","-16","experiment","3","odd","3","822492","819139","820277","7514","202139","820279","755022","7523","169341","824498","825611","821285","80067","824498","NA","Sternberg task","69","153311","104","yes","1024"
"66.66666666666667","66.66666666666667","1475.9809523809524","1475.9809523809524","black","experiment","legacy","legacy","legacy","0","uniform","1","undefined","1","right","104","104","104","0","0","104","104","0","0","104","104","104","0","104","0","Sun Oct 25 16:03:21 2020","The main experiment item","yes","Sternberg task-5.osexp","C:\Users\Elaine\AppData\Local\Temp","no","mono","no","18","no","white","no","yes","768","legacy","92","11","C:/Users/Elaine/Desktop/subject-3.csv","legacy","6 2 9 3 8 4","Lentiform Loewenfeld","3.3.3","0","n","0","right","left","left","right","NA","1667","72540","32798","1667","NA","2","legacy","6","1024","2","48000","-16","experiment","3","odd","1","828978","825620","826764","7514","202139","826766","755022","7523","169341","830983","832651","827772","80067","830983","NA","Sternberg task","70","154978","105","yes","1024"
"66.98113207547169","66.98113207547169","1479.6792452830189","1479.6792452830189","black","experiment","legacy","legacy","legacy","0","uniform","1","undefined","1","left","105","105","105","0","0","105","105","0","0","105","105","105","0","105","0","Sun Oct 25 16:03:21 2020","The main experiment item","yes","Sternberg task-5.osexp","C:\Users\Elaine\AppData\Local\Temp","no","mono","no","18","no","white","no","yes","768","legacy","93","11","C:/Users/Elaine/Desktop/subject-3.csv","legacy","4 1 5","Lentiform Loewenfeld","3.3.3","2","y","0","left","left","left","left","NA","1868","72540","32798","1868","NA","2","legacy","3","1024","2","48000","-16","experiment","3","odd","1","836016","832666","833804","7514","202139","833806","755022","7523","169341","838022","839892","834811","80067","838022","NA","Sternberg task","71","156846","106","yes","1024"
"67.28971962616822","67.28971962616822","1475.2897196261683","1475.2897196261683","black","experiment","legacy","legacy","legacy","0","uniform","1","undefined","1","left","106","106","106","0","0","106","106","0","0","106","106","106","0","106","0","Sun Oct 25 16:03:21 2020","The main experiment item","yes","Sternberg task-5.osexp","C:\Users\Elaine\AppData\Local\Temp","no","mono","no","18","no","white","no","yes","768","legacy","94","11","C:/Users/Elaine/Desktop/subject-3.csv","legacy","2 4 6 9","Lentiform Loewenfeld","3.3.3","3","y","0","left","left","left","left","NA","1010","72540","32798","1010","NA","2","legacy","4","1024","2","48000","-16","experiment","3","odd","6","843253","839905","841041","7514","202139","841043","755022","7523","169341","845259","846271","842048","80067","845258","NA","Sternberg task","72","157856","107","yes","1024"
"67.5925925925926","67.5925925925926","1469.5462962962963","1469.5462962962963","black","experiment","legacy","legacy","legacy","0","uniform","1","undefined","1","left","107","107","107","0","0","107","107","0","0","107","107","107","0","107","0","Sun Oct 25 16:03:21 2020","The main experiment item","yes","Sternberg task-5.osexp","C:\Users\Elaine\AppData\Local\Temp","no","mono","no","18","no","white","no","yes","768","legacy","95","11","C:/Users/Elaine/Desktop/subject-3.csv","legacy","7 1 8 5 6 2","Lentiform Loewenfeld","3.3.3","2","y","0","left","left","left","left","NA","855","72540","32798","855","NA","2","legacy","6","1024","2","48000","-16","experiment","3","odd","1","849649","846285","847435","7514","202139","847437","755022","7523","169341","851654","852511","848442","80067","851654","NA","Sternberg task","73","158711","108","yes","1024"
"67.88990825688073","67.88990825688073","1461.8990825688074","1461.8990825688074","black","experiment","legacy","legacy","legacy","0","uniform","1","undefined","1","right","108","108","108","0","0","108","108","0","0","108","108","108","0","108","0","Sun Oct 25 16:03:21 2020","The main experiment item","yes","Sternberg task-5.osexp","C:\Users\Elaine\AppData\Local\Temp","no","mono","no","18","no","white","no","yes","768","legacy","96","11","C:/Users/Elaine/Desktop/subject-3.csv","legacy","1 6 4","Lentiform Loewenfeld","3.3.3","0","n","0","right","left","left","right","NA","636","72540","32798","636","NA","2","legacy","3","1024","2","48000","-16","experiment","3","odd","7","855867","852520","853654","7514","202139","853656","755022","7523","169341","857873","858511","854661","80067","857872","NA","Sternberg task","74","159347","109","yes","1024"
"68.18181818181819","68.18181818181819","1457.7","1457.7","black","experiment","legacy","legacy","legacy","0","uniform","1","undefined","1","right","109","109","109","0","0","109","109","0","0","109","109","109","0","109","0","Sun Oct 25 16:03:21 2020","The main experiment item","yes","Sternberg task-5.osexp","C:\Users\Elaine\AppData\Local\Temp","no","mono","no","18","no","white","no","yes","768","legacy","97","11","C:/Users/Elaine/Desktop/subject-3.csv","legacy","4 1","Lentiform Loewenfeld","3.3.3","0","n","0","right","left","left","right","NA","1000","72540","32798","1000","NA","2","legacy","2","1024","2","48000","-16","experiment","3","odd","6","861883","858520","859670","7514","202139","859672","755022","7523","169341","863889","864891","860677","80067","863888","NA","Sternberg task","75","160347","110","yes","1024"
"68.46846846846847","68.46846846846847","1456.8108108108108","1456.8108108108108","black","experiment","legacy","legacy","legacy","0","uniform","1","undefined","1","left","110","110","110","0","0","110","110","0","0","110","110","110","0","110","0","Sun Oct 25 16:03:21 2020","The main experiment item","yes","Sternberg task-5.osexp","C:\Users\Elaine\AppData\Local\Temp","no","mono","no","18","no","white","no","yes","768","legacy","98","11","C:/Users/Elaine/Desktop/subject-3.csv","legacy","8 1 6","Lentiform Loewenfeld","3.3.3","3","y","0","left","left","left","left","NA","1359","72540","32798","1359","NA","2","legacy","3","1024","2","48000","-16","experiment","3","odd","6","868246","864898","866035","7514","202139","866037","755022","7523","169341","870251","871611","867042","80067","870251","NA","Sternberg task","76","161706","111","yes","1024"
"67.85714285714286","67.85714285714286","1444.5714285714287","1444.5714285714287","black","experiment","legacy","legacy","legacy","0","uniform","0","undefined","0","left","111","111","111","0","0","111","111","0","0","111","111","111","0","111","0","Sun Oct 25 16:03:21 2020","The main experiment item","yes","Sternberg task-5.osexp","C:\Users\Elaine\AppData\Local\Temp","no","mono","no","18","no","white","no","yes","768","legacy","99","11","C:/Users/Elaine/Desktop/subject-3.csv","legacy","4","Lentiform Loewenfeld","3.3.3","1","y","0","right","left","left","right","NA","86","72540","32798","86","NA","2","legacy","1","1024","2","48000","-16","experiment","3","odd","4","874975","871620","872763","7514","202139","872765","755022","7523","169341","876983","877071","873770","80067","876982","NA","Sternberg task","76","161792","112","yes","1024"
"67.2566371681416","67.2566371681416","1445.424778761062","1445.424778761062","black","experiment","legacy","legacy","legacy","0","uniform","0","undefined","0","left","112","112","112","0","0","112","112","0","0","112","112","112","0","112","0","Sun Oct 25 16:03:21 2020","The main experiment item","yes","Sternberg task-5.osexp","C:\Users\Elaine\AppData\Local\Temp","no","mono","no","18","no","white","no","yes","768","legacy","100","11","C:/Users/Elaine/Desktop/subject-3.csv","legacy","4 7 6 8 2 3","Lentiform Loewenfeld","3.3.3","6","y","0","right","left","left","right","NA","1541","72540","32798","1541","NA","2","legacy","6","1024","2","48000","-16","experiment","3","odd","3","880442","871620","878231","7514","202139","878233","877079","7523","169341","882448","883990","879238","80067","882448","NA","Sternberg task","76","163333","113","yes","1024"
"67.54385964912281","67.54385964912281","1442.3245614035088","1442.3245614035088","black","experiment","legacy","legacy","legacy","0","uniform","1","undefined","1","right","113","113","113","0","0","113","113","0","0","113","113","113","0","113","0","Sun Oct 25 16:03:21 2020","The main experiment item","yes","Sternberg task-5.osexp","C:\Users\Elaine\AppData\Local\Temp","no","mono","no","18","no","white","no","yes","768","legacy","101","11","C:/Users/Elaine/Desktop/subject-3.csv","legacy","6 9 5","Lentiform Loewenfeld","3.3.3","0","n","0","right","left","left","right","NA","1092","72540","32798","1092","NA","2","legacy","3","1024","2","48000","-16","experiment","3","odd","8","887351","871620","885140","7514","202139","885142","883999","7523","169341","889357","890450","886146","80067","889356","NA","Sternberg task","77","164425","114","yes","1024"
"66.95652173913044","66.95652173913044","1447.1739130434783","1447.1739130434783","black","experiment","legacy","legacy","legacy","0","uniform","0","undefined","0","left","114","114","114","0","0","114","114","0","0","114","114","114","0","114","0","Sun Oct 25 16:03:21 2020","The main experiment item","yes","Sternberg task-5.osexp","C:\Users\Elaine\AppData\Local\Temp","no","mono","no","18","no","white","no","yes","768","legacy","102","11","C:/Users/Elaine/Desktop/subject-3.csv","legacy","6 9 7 4 5 1","Lentiform Loewenfeld","3.3.3","2","y","0","None","left","left","None","NA","2000","72540","32798","2000","NA","2","legacy","6","1024","2","48000","-16","experiment","3","odd","9","893813","890459","891602","7514","202139","891604","883999","7523","169341","895816","897817","892609","80067","895816","NA","Sternberg task","77","166425","115","yes","1024"
"67.24137931034483","67.24137931034483","1443.7844827586207","1443.7844827586207","black","experiment","legacy","legacy","legacy","0","uniform","1","undefined","1","left","115","115","115","0","0","115","115","0","0","115","115","115","0","115","0","Sun Oct 25 16:03:21 2020","The main experiment item","yes","Sternberg task-5.osexp","C:\Users\Elaine\AppData\Local\Temp","no","mono","no","18","no","white","no","yes","768","legacy","103","11","C:/Users/Elaine/Desktop/subject-3.csv","legacy","5 2 9 6 1 7","Lentiform Loewenfeld","3.3.3","3","y","0","left","left","left","left","NA","1054","72540","32798","1054","NA","2","legacy","6","1024","2","48000","-16","experiment","3","odd","9","901186","890459","898972","7514","202139","898975","897826","7523","169341","903193","904248","899980","80067","903192","NA","Sternberg task","78","167479","116","yes","1024"
"66.66666666666667","66.66666666666667","1443.4017094017095","1443.4017094017095","black","experiment","legacy","legacy","legacy","0","uniform","0","undefined","0","right","116","116","116","0","0","116","116","0","0","116","116","116","0","116","0","Sun Oct 25 16:03:21 2020","The main experiment item","yes","Sternberg task-5.osexp","C:\Users\Elaine\AppData\Local\Temp","no","mono","no","18","no","white","no","yes","768","legacy","104","11","C:/Users/Elaine/Desktop/subject-3.csv","legacy","5 3 8 7 2 4","Lentiform Loewenfeld","3.3.3","0","n","0","left","left","left","left","NA","1399","72540","32798","1399","NA","2","legacy","6","1024","2","48000","-16","experiment","3","odd","9","907601","904257","905392","7514","202139","905394","897826","7523","169341","909608","911009","906396","80067","909607","NA","Sternberg task","78","168878","117","yes","1024"
