"acc","accuracy","average_response_time","avg_rt","background","block","canvas_backend","clock_backend","color_backend","compensation","coordinates","correct","correct_instruction1","correct_new_keyboard_response","correct_response","count_Fixation","count_ISI","count_correctFeedback","count_expSequence","count_experiment","count_experimentLoop","count_incorrectFeedback","count_instruction1","count_instructions2","count_memorySet","count_new_keyboard_response","count_new_logger","count_practiceLoop","count_probe","count_thankYou","datetime","description","disable_garbage_collection","experiment_file","experiment_path","font_bold","font_family","font_italic","font_size","font_underline","foreground","form_clicks","fullscreen","height","keyboard_backend","live_row","live_row_practiceLoop","logfile","mouse_backend","numberSet","opensesame_codename","opensesame_version","posInSet","present","repeat_cycle","response","response_instruction1","response_instructions2","response_new_keyboard_response","response_thankYou","response_time","response_time_instruction1","response_time_instructions2","response_time_new_keyboard_response","response_time_thankYou","round_decimals","sampler_backend","setSize","sound_buf_size","sound_channels","sound_freq","sound_sample_size","start","subject_nr","subject_parity","target","time_Fixation","time_ISI","time_correctFeedback","time_expSequence","time_experiment","time_experimentLoop","time_incorrectFeedback","time_instruction1","time_instructions2","time_memorySet","time_new_keyboard_response","time_new_logger","time_practiceLoop","time_probe","time_thankYou","title","total_correct","total_response_time","total_responses","uniform_coordinates","width"
"0","0","1185","1185","black","practice","legacy","legacy","legacy","0","uniform","0","undefined","0","right","0","0","0","0","0","0","0","0","0","0","0","0","0","0","0","Sun Oct 25 18:38:57 2020","The main experiment item","yes","SternbergTask.osexp","/Users/tforestmoore/Desktop/Tarleton/Fall 2020/Math/Lab3","no","mono","no","18","no","white","no","yes","768","legacy","0","0","/Users/tforestmoore/Desktop/Tarleton/Fall 2020/Math/Lab3/MM-subject-4.csv","legacy","9 6 7 4 5","Lentiform Loewenfeld","3.3.3","0","n","0","left","right","NA","left","NA","1185","28930","NA","1185","NA","2","legacy","5","1024","2","48000","-16","experiment","4","even","3","31889","34126","NA","31875","2607","NA","NA","2623","NA","32907","36143","37329","31563","36143","NA","Sternberg Task","0","1185","1","yes","1024"
"0","0","886.5","886.5","black","practice","legacy","legacy","legacy","0","uniform","0","undefined","0","right","1","1","1","1","0","0","1","0","0","1","1","1","0","1","0","Sun Oct 25 18:38:57 2020","The main experiment item","yes","SternbergTask.osexp","/Users/tforestmoore/Desktop/Tarleton/Fall 2020/Math/Lab3","no","mono","no","18","no","white","no","yes","768","legacy","1","1","/Users/tforestmoore/Desktop/Tarleton/Fall 2020/Math/Lab3/MM-subject-4.csv","legacy","2 1","Lentiform Loewenfeld","3.3.3","0","n","0","left","right","NA","left","NA","588","28930","NA","588","NA","2","legacy","2","1024","2","48000","-16","experiment","4","even","5","38467","40703","NA","38452","2607","NA","37371","2623","NA","39484","42721","43310","31563","42721","NA","Sternberg Task","0","1773","2","yes","1024"
"0","0","830.3333333333334","830.3333333333334","black","practice","legacy","legacy","legacy","0","uniform","0","undefined","0","left","2","2","2","2","0","0","2","0","0","2","2","2","0","2","0","Sun Oct 25 18:38:57 2020","The main experiment item","yes","SternbergTask.osexp","/Users/tforestmoore/Desktop/Tarleton/Fall 2020/Math/Lab3","no","mono","no","18","no","white","no","yes","768","legacy","2","2","/Users/tforestmoore/Desktop/Tarleton/Fall 2020/Math/Lab3/MM-subject-4.csv","legacy","1 5 2 9","Lentiform Loewenfeld","3.3.3","2","y","0","right","right","NA","right","NA","718","28930","NA","718","NA","2","legacy","4","1024","2","48000","-16","experiment","4","even","5","44414","46650","NA","44398","2607","NA","43328","2623","NA","45431","48667","49386","31563","48667","NA","Sternberg Task","0","2491","3","yes","1024"
"0","0","821.25","821.25","black","practice","legacy","legacy","legacy","0","uniform","0","undefined","0","right","3","3","3","3","0","0","3","0","0","3","3","3","0","3","0","Sun Oct 25 18:38:57 2020","The main experiment item","yes","SternbergTask.osexp","/Users/tforestmoore/Desktop/Tarleton/Fall 2020/Math/Lab3","no","mono","no","18","no","white","no","yes","768","legacy","3","3","/Users/tforestmoore/Desktop/Tarleton/Fall 2020/Math/Lab3/MM-subject-4.csv","legacy","5","Lentiform Loewenfeld","3.3.3","0","n","0","left","right","NA","left","NA","794","28930","NA","794","NA","2","legacy","1","1024","2","48000","-16","experiment","4","even","3","50487","52723","NA","50470","2607","NA","49402","2623","NA","51504","54741","55536","31563","54741","NA","Sternberg Task","0","3285","4","yes","1024"
"0","0","761","761","black","practice","legacy","legacy","legacy","0","uniform","0","undefined","0","left","4","4","4","4","0","0","4","0","0","4","4","4","0","4","0","Sun Oct 25 18:38:57 2020","The main experiment item","yes","SternbergTask.osexp","/Users/tforestmoore/Desktop/Tarleton/Fall 2020/Math/Lab3","no","mono","no","18","no","white","no","yes","768","legacy","4","4","/Users/tforestmoore/Desktop/Tarleton/Fall 2020/Math/Lab3/MM-subject-4.csv","legacy","1 7 9 8 5","Lentiform Loewenfeld","3.3.3","4","y","0","right","right","NA","right","NA","520","28930","NA","520","NA","2","legacy","5","1024","2","48000","-16","experiment","4","even","8","56637","58875","NA","56622","2607","NA","55552","2623","NA","57655","60892","61412","31563","60892","NA","Sternberg Task","0","3805","5","yes","1024"
"0","0","740.5","740.5","black","practice","legacy","legacy","legacy","0","uniform","0","undefined","0","right","5","5","5","5","0","0","5","0","0","5","5","5","0","5","0","Sun Oct 25 18:38:57 2020","The main experiment item","yes","SternbergTask.osexp","/Users/tforestmoore/Desktop/Tarleton/Fall 2020/Math/Lab3","no","mono","no","18","no","white","no","yes","768","legacy","5","5","/Users/tforestmoore/Desktop/Tarleton/Fall 2020/Math/Lab3/MM-subject-4.csv","legacy","3 1 9 4","Lentiform Loewenfeld","3.3.3","0","n","0","left","right","NA","left","NA","638","28930","NA","638","NA","2","legacy","4","1024","2","48000","-16","experiment","4","even","6","62515","64751","NA","62499","2607","NA","61429","2623","NA","63532","66768","67407","31563","66768","NA","Sternberg Task","0","4443","6","yes","1024"
"0","0","710.5714285714286","710.5714285714286","black","practice","legacy","legacy","legacy","0","uniform","0","undefined","0","left","6","6","6","6","0","0","6","0","0","6","6","6","0","6","0","Sun Oct 25 18:38:57 2020","The main experiment item","yes","SternbergTask.osexp","/Users/tforestmoore/Desktop/Tarleton/Fall 2020/Math/Lab3","no","mono","no","18","no","white","no","yes","768","legacy","6","6","/Users/tforestmoore/Desktop/Tarleton/Fall 2020/Math/Lab3/MM-subject-4.csv","legacy","2 9 4","Lentiform Loewenfeld","3.3.3","3","y","0","right","right","NA","right","NA","531","28930","NA","531","NA","2","legacy","3","1024","2","48000","-16","experiment","4","even","4","68507","70743","NA","68491","2607","NA","67423","2623","NA","69524","72761","73292","31563","72761","NA","Sternberg Task","0","4974","7","yes","1024"
"0","0","762.75","762.75","black","practice","legacy","legacy","legacy","0","uniform","0","undefined","0","left","7","7","7","7","0","0","7","0","0","7","7","7","0","7","0","Sun Oct 25 18:38:57 2020","The main experiment item","yes","SternbergTask.osexp","/Users/tforestmoore/Desktop/Tarleton/Fall 2020/Math/Lab3","no","mono","no","18","no","white","no","yes","768","legacy","7","7","/Users/tforestmoore/Desktop/Tarleton/Fall 2020/Math/Lab3/MM-subject-4.csv","legacy","6","Lentiform Loewenfeld","3.3.3","1","y","0","right","right","NA","right","NA","1128","28930","NA","1128","NA","2","legacy","1","1024","2","48000","-16","experiment","4","even","6","74394","76631","NA","74378","2607","NA","73309","2623","NA","75412","78649","79777","31563","78648","NA","Sternberg Task","0","6102","8","yes","1024"
"11.11111111111111","11.11111111111111","777.1111111111111","777.1111111111111","black","practice","legacy","legacy","legacy","0","uniform","1","undefined","1","right","8","8","8","8","0","0","8","0","0","8","8","8","0","8","0","Sun Oct 25 18:38:57 2020","The main experiment item","yes","SternbergTask.osexp","/Users/tforestmoore/Desktop/Tarleton/Fall 2020/Math/Lab3","no","mono","no","18","no","white","no","yes","768","legacy","8","8","/Users/tforestmoore/Desktop/Tarleton/Fall 2020/Math/Lab3/MM-subject-4.csv","legacy","4 1 5","Lentiform Loewenfeld","3.3.3","0","n","0","right","right","NA","right","NA","892","28930","NA","892","NA","2","legacy","3","1024","2","48000","-16","experiment","4","even","2","80882","83117","NA","80865","2607","NA","79793","2623","NA","81899","85134","86027","31563","85134","NA","Sternberg Task","1","6994","9","yes","1024"
"10","10","791.6","791.6","black","practice","legacy","legacy","legacy","0","uniform","0","undefined","0","right","9","9","9","9","0","0","9","0","0","9","9","9","0","9","0","Sun Oct 25 18:38:57 2020","The main experiment item","yes","SternbergTask.osexp","/Users/tforestmoore/Desktop/Tarleton/Fall 2020/Math/Lab3","no","mono","no","18","no","white","no","yes","768","legacy","9","9","/Users/tforestmoore/Desktop/Tarleton/Fall 2020/Math/Lab3/MM-subject-4.csv","legacy","5 7 8 4 1 2","Lentiform Loewenfeld","3.3.3","0","n","0","left","right","NA","left","NA","922","28930","NA","922","NA","2","legacy","6","1024","2","48000","-16","experiment","4","even","6","87128","89363","86043","87112","2607","NA","79793","2623","NA","88143","91380","92303","31563","91380","NA","Sternberg Task","1","7916","10","yes","1024"
"18.181818181818183","18.181818181818183","777.1818181818181","777.1818181818181","black","practice","legacy","legacy","legacy","0","uniform","1","undefined","1","left","10","10","10","10","0","0","10","0","0","10","10","10","0","10","0","Sun Oct 25 18:38:57 2020","The main experiment item","yes","SternbergTask.osexp","/Users/tforestmoore/Desktop/Tarleton/Fall 2020/Math/Lab3","no","mono","no","18","no","white","no","yes","768","legacy","10","10","/Users/tforestmoore/Desktop/Tarleton/Fall 2020/Math/Lab3/MM-subject-4.csv","legacy","4 3 1 7 9 8","Lentiform Loewenfeld","3.3.3","1","y","0","left","right","NA","left","NA","633","28930","NA","633","NA","2","legacy","6","1024","2","48000","-16","experiment","4","even","4","93405","95639","86043","93389","2607","NA","92319","2623","NA","94422","97657","98290","31563","97657","NA","Sternberg Task","2","8549","11","yes","1024"
"25","25","766.1666666666666","766.1666666666666","black","practice","legacy","legacy","legacy","0","uniform","1","undefined","1","left","11","11","11","11","0","0","11","0","0","11","11","11","0","11","0","Sun Oct 25 18:38:57 2020","The main experiment item","yes","SternbergTask.osexp","/Users/tforestmoore/Desktop/Tarleton/Fall 2020/Math/Lab3","no","mono","no","18","no","white","no","yes","768","legacy","11","11","/Users/tforestmoore/Desktop/Tarleton/Fall 2020/Math/Lab3/MM-subject-4.csv","legacy","4 8","Lentiform Loewenfeld","3.3.3","1","y","0","left","right","NA","left","NA","645","28930","NA","645","NA","2","legacy","2","1024","2","48000","-16","experiment","4","even","4","99391","101629","98307","99375","2607","NA","92319","2623","NA","100409","103646","104292","31563","103646","NA","Sternberg Task","3","9194","12","yes","1024"
"30.76923076923077","30.76923076923077","755.4615384615385","755.4615384615385","black","experiment","legacy","legacy","legacy","0","uniform","1","undefined","1","right","12","12","12","12","0","0","12","0","0","12","12","12","0","12","0","Sun Oct 25 18:38:57 2020","The main experiment item","yes","SternbergTask.osexp","/Users/tforestmoore/Desktop/Tarleton/Fall 2020/Math/Lab3","no","mono","no","18","no","white","no","yes","768","legacy","0","11","/Users/tforestmoore/Desktop/Tarleton/Fall 2020/Math/Lab3/MM-subject-4.csv","legacy","2 6 4 3 9","Lentiform Loewenfeld","3.3.3","0","n","0","right","right","return","right","NA","627","28930","8146","627","NA","2","legacy","5","1024","2","48000","-16","experiment","4","even","1","113575","115811","104309","113559","2607","113504","92319","2623","105357","114592","117828","118456","31563","117828","NA","Sternberg Task","4","9821","13","yes","1024"
"35.714285714285715","35.714285714285715","740.0714285714286","740.0714285714286","black","experiment","legacy","legacy","legacy","0","uniform","1","undefined","1","left","13","13","13","13","0","0","13","0","0","13","13","13","0","13","0","Sun Oct 25 18:38:57 2020","The main experiment item","yes","SternbergTask.osexp","/Users/tforestmoore/Desktop/Tarleton/Fall 2020/Math/Lab3","no","mono","no","18","no","white","no","yes","768","legacy","1","11","/Users/tforestmoore/Desktop/Tarleton/Fall 2020/Math/Lab3/MM-subject-4.csv","legacy","4 9 7 8 5 3","Lentiform Loewenfeld","3.3.3","4","y","0","left","right","return","left","NA","540","28930","8146","540","NA","2","legacy","6","1024","2","48000","-16","experiment","4","even","8","119558","121796","118473","119542","2607","113504","92319","2623","105357","120577","123813","124354","31563","123813","NA","Sternberg Task","5","10361","14","yes","1024"
"40","40","722.7333333333333","722.7333333333333","black","experiment","legacy","legacy","legacy","0","uniform","1","undefined","1","left","14","14","14","14","0","0","14","0","0","14","14","14","0","14","0","Sun Oct 25 18:38:57 2020","The main experiment item","yes","SternbergTask.osexp","/Users/tforestmoore/Desktop/Tarleton/Fall 2020/Math/Lab3","no","mono","no","18","no","white","no","yes","768","legacy","2","11","/Users/tforestmoore/Desktop/Tarleton/Fall 2020/Math/Lab3/MM-subject-4.csv","legacy","3 5 7 1","Lentiform Loewenfeld","3.3.3","3","y","0","left","right","return","left","NA","480","28930","8146","480","NA","2","legacy","4","1024","2","48000","-16","experiment","4","even","7","125455","127692","124370","125439","2607","113504","92319","2623","105357","126472","129709","130190","31563","129708","NA","Sternberg Task","6","10841","15","yes","1024"
"43.75","43.75","715.1875","715.1875","black","experiment","legacy","legacy","legacy","0","uniform","1","undefined","1","right","15","15","15","15","0","0","15","0","0","15","15","15","0","15","0","Sun Oct 25 18:38:57 2020","The main experiment item","yes","SternbergTask.osexp","/Users/tforestmoore/Desktop/Tarleton/Fall 2020/Math/Lab3","no","mono","no","18","no","white","no","yes","768","legacy","3","11","/Users/tforestmoore/Desktop/Tarleton/Fall 2020/Math/Lab3/MM-subject-4.csv","legacy","6 8 4","Lentiform Loewenfeld","3.3.3","0","n","0","right","right","return","right","NA","602","28930","8146","602","NA","2","legacy","3","1024","2","48000","-16","experiment","4","even","1","131292","133529","130207","131275","2607","113504","92319","2623","105357","132310","135546","136148","31563","135546","NA","Sternberg Task","7","11443","16","yes","1024"
"47.05882352941177","47.05882352941177","725.6470588235294","725.6470588235294","black","experiment","legacy","legacy","legacy","0","uniform","1","undefined","1","left","16","16","16","16","0","0","16","0","0","16","16","16","0","16","0","Sun Oct 25 18:38:57 2020","The main experiment item","yes","SternbergTask.osexp","/Users/tforestmoore/Desktop/Tarleton/Fall 2020/Math/Lab3","no","mono","no","18","no","white","no","yes","768","legacy","4","11","/Users/tforestmoore/Desktop/Tarleton/Fall 2020/Math/Lab3/MM-subject-4.csv","legacy","8 5 3 7 4 6","Lentiform Loewenfeld","3.3.3","6","y","0","left","right","return","left","NA","893","28930","8146","893","NA","2","legacy","6","1024","2","48000","-16","experiment","4","even","6","137250","139484","136165","137234","2607","113504","92319","2623","105357","138265","141501","142394","31563","141500","NA","Sternberg Task","8","12336","17","yes","1024"
"50","50","723.5","723.5","black","experiment","legacy","legacy","legacy","0","uniform","1","undefined","1","right","17","17","17","17","0","0","17","0","0","17","17","17","0","17","0","Sun Oct 25 18:38:57 2020","The main experiment item","yes","SternbergTask.osexp","/Users/tforestmoore/Desktop/Tarleton/Fall 2020/Math/Lab3","no","mono","no","18","no","white","no","yes","768","legacy","5","11","/Users/tforestmoore/Desktop/Tarleton/Fall 2020/Math/Lab3/MM-subject-4.csv","legacy","1 5 3 2 8","Lentiform Loewenfeld","3.3.3","0","n","0","right","right","return","right","NA","687","28930","8146","687","NA","2","legacy","5","1024","2","48000","-16","experiment","4","even","4","143498","145736","142411","143481","2607","113504","92319","2623","105357","144516","147753","148440","31563","147753","NA","Sternberg Task","9","13023","18","yes","1024"
"52.63157894736842","52.63157894736842","719.2631578947369","719.2631578947369","black","experiment","legacy","legacy","legacy","0","uniform","1","undefined","1","right","18","18","18","18","0","0","18","0","0","18","18","18","0","18","0","Sun Oct 25 18:38:57 2020","The main experiment item","yes","SternbergTask.osexp","/Users/tforestmoore/Desktop/Tarleton/Fall 2020/Math/Lab3","no","mono","no","18","no","white","no","yes","768","legacy","6","11","/Users/tforestmoore/Desktop/Tarleton/Fall 2020/Math/Lab3/MM-subject-4.csv","legacy","8 6 3 4 7","Lentiform Loewenfeld","3.3.3","0","n","0","right","right","return","right","NA","643","28930","8146","643","NA","2","legacy","5","1024","2","48000","-16","experiment","4","even","1","149542","151779","148457","149526","2607","113504","92319","2623","105357","150560","153796","154440","31563","153796","NA","Sternberg Task","10","13666","19","yes","1024"
"55","55","717.95","717.95","black","experiment","legacy","legacy","legacy","0","uniform","1","undefined","1","left","19","19","19","19","0","0","19","0","0","19","19","19","0","19","0","Sun Oct 25 18:38:57 2020","The main experiment item","yes","SternbergTask.osexp","/Users/tforestmoore/Desktop/Tarleton/Fall 2020/Math/Lab3","no","mono","no","18","no","white","no","yes","768","legacy","7","11","/Users/tforestmoore/Desktop/Tarleton/Fall 2020/Math/Lab3/MM-subject-4.csv","legacy","6 8 9 3 4 9","Lentiform Loewenfeld","3.3.3","5","y","0","left","right","return","left","NA","693","28930","8146","693","NA","2","legacy","6","1024","2","48000","-16","experiment","4","even","4","155540","157777","154455","155524","2607","113504","92319","2623","105357","156557","159794","160487","31563","159794","NA","Sternberg Task","11","14359","20","yes","1024"
"57.142857142857146","57.142857142857146","714.5714285714286","714.5714285714286","black","experiment","legacy","legacy","legacy","0","uniform","1","undefined","1","right","20","20","20","20","0","0","20","0","0","20","20","20","0","20","0","Sun Oct 25 18:38:57 2020","The main experiment item","yes","SternbergTask.osexp","/Users/tforestmoore/Desktop/Tarleton/Fall 2020/Math/Lab3","no","mono","no","18","no","white","no","yes","768","legacy","8","11","/Users/tforestmoore/Desktop/Tarleton/Fall 2020/Math/Lab3/MM-subject-4.csv","legacy","1 6 4","Lentiform Loewenfeld","3.3.3","0","n","0","right","right","return","right","NA","647","28930","8146","647","NA","2","legacy","3","1024","2","48000","-16","experiment","4","even","7","161588","163825","160504","161572","2607","113504","92319","2623","105357","162605","165842","166490","31563","165842","NA","Sternberg Task","12","15006","21","yes","1024"
"59.09090909090909","59.09090909090909","702.8181818181819","702.8181818181819","black","experiment","legacy","legacy","legacy","0","uniform","1","undefined","1","left","21","21","21","21","0","0","21","0","0","21","21","21","0","21","0","Sun Oct 25 18:38:57 2020","The main experiment item","yes","SternbergTask.osexp","/Users/tforestmoore/Desktop/Tarleton/Fall 2020/Math/Lab3","no","mono","no","18","no","white","no","yes","768","legacy","9","11","/Users/tforestmoore/Desktop/Tarleton/Fall 2020/Math/Lab3/MM-subject-4.csv","legacy","2 3","Lentiform Loewenfeld","3.3.3","1","y","0","left","right","return","left","NA","456","28930","8146","456","NA","2","legacy","2","1024","2","48000","-16","experiment","4","even","2","167593","169830","166506","167576","2607","113504","92319","2623","105357","168610","171847","172304","31563","171847","NA","Sternberg Task","13","15462","22","yes","1024"
"60.869565217391305","60.869565217391305","696.9565217391304","696.9565217391304","black","experiment","legacy","legacy","legacy","0","uniform","1","undefined","1","left","22","22","22","22","0","0","22","0","0","22","22","22","0","22","0","Sun Oct 25 18:38:57 2020","The main experiment item","yes","SternbergTask.osexp","/Users/tforestmoore/Desktop/Tarleton/Fall 2020/Math/Lab3","no","mono","no","18","no","white","no","yes","768","legacy","10","11","/Users/tforestmoore/Desktop/Tarleton/Fall 2020/Math/Lab3/MM-subject-4.csv","legacy","6 1 2","Lentiform Loewenfeld","3.3.3","3","y","0","left","right","return","left","NA","568","28930","8146","568","NA","2","legacy","3","1024","2","48000","-16","experiment","4","even","2","173404","175641","172321","173389","2607","113504","92319","2623","105357","174422","177658","178227","31563","177658","NA","Sternberg Task","14","16030","23","yes","1024"
"62.5","62.5","686.75","686.75","black","experiment","legacy","legacy","legacy","0","uniform","1","undefined","1","left","23","23","23","23","0","0","23","0","0","23","23","23","0","23","0","Sun Oct 25 18:38:57 2020","The main experiment item","yes","SternbergTask.osexp","/Users/tforestmoore/Desktop/Tarleton/Fall 2020/Math/Lab3","no","mono","no","18","no","white","no","yes","768","legacy","11","11","/Users/tforestmoore/Desktop/Tarleton/Fall 2020/Math/Lab3/MM-subject-4.csv","legacy","3 4","Lentiform Loewenfeld","3.3.3","1","y","0","left","right","return","left","NA","452","28930","8146","452","NA","2","legacy","2","1024","2","48000","-16","experiment","4","even","3","179329","181566","178244","179312","2607","113504","92319","2623","105357","180347","183583","184036","31563","183583","NA","Sternberg Task","15","16482","24","yes","1024"
"64","64","686.16","686.16","black","experiment","legacy","legacy","legacy","0","uniform","1","undefined","1","right","24","24","24","24","0","0","24","0","0","24","24","24","0","24","0","Sun Oct 25 18:38:57 2020","The main experiment item","yes","SternbergTask.osexp","/Users/tforestmoore/Desktop/Tarleton/Fall 2020/Math/Lab3","no","mono","no","18","no","white","no","yes","768","legacy","12","11","/Users/tforestmoore/Desktop/Tarleton/Fall 2020/Math/Lab3/MM-subject-4.csv","legacy","9 5 3 2 8 6","Lentiform Loewenfeld","3.3.3","0","n","0","right","right","return","right","NA","672","28930","8146","672","NA","2","legacy","6","1024","2","48000","-16","experiment","4","even","7","185137","187373","184053","185121","2607","113504","92319","2623","105357","186154","189390","190063","31563","189390","NA","Sternberg Task","16","17154","25","yes","1024"
"61.53846153846154","61.53846153846154","682.6153846153846","682.6153846153846","black","experiment","legacy","legacy","legacy","0","uniform","0","undefined","0","right","25","25","25","25","0","0","25","0","0","25","25","25","0","25","0","Sun Oct 25 18:38:57 2020","The main experiment item","yes","SternbergTask.osexp","/Users/tforestmoore/Desktop/Tarleton/Fall 2020/Math/Lab3","no","mono","no","18","no","white","no","yes","768","legacy","13","11","/Users/tforestmoore/Desktop/Tarleton/Fall 2020/Math/Lab3/MM-subject-4.csv","legacy","1 4 3 6 5","Lentiform Loewenfeld","3.3.3","0","n","0","left","right","return","left","NA","594","28930","8146","594","NA","2","legacy","5","1024","2","48000","-16","experiment","4","even","8","191164","193400","190079","191147","2607","113504","92319","2623","105357","192181","195417","196012","31563","195417","NA","Sternberg Task","16","17748","26","yes","1024"
"59.25925925925926","59.25925925925926","731.4074074074074","731.4074074074074","black","experiment","legacy","legacy","legacy","0","uniform","0","undefined","0","right","26","26","26","26","0","0","26","0","0","26","26","26","0","26","0","Sun Oct 25 18:38:57 2020","The main experiment item","yes","SternbergTask.osexp","/Users/tforestmoore/Desktop/Tarleton/Fall 2020/Math/Lab3","no","mono","no","18","no","white","no","yes","768","legacy","14","11","/Users/tforestmoore/Desktop/Tarleton/Fall 2020/Math/Lab3/MM-subject-4.csv","legacy","8 9","Lentiform Loewenfeld","3.3.3","0","n","0","None","right","return","None","NA","2000","28930","8146","2000","NA","2","legacy","2","1024","2","48000","-16","experiment","4","even","5","197112","199348","190079","197096","2607","113504","196028","2623","105357","198129","201365","203365","31563","201365","NA","Sternberg Task","16","19748","27","yes","1024"
"57.142857142857146","57.142857142857146","731.4642857142857","731.4642857142857","black","experiment","legacy","legacy","legacy","0","uniform","0","undefined","0","left","27","27","27","27","0","0","27","0","0","27","27","27","0","27","0","Sun Oct 25 18:38:57 2020","The main experiment item","yes","SternbergTask.osexp","/Users/tforestmoore/Desktop/Tarleton/Fall 2020/Math/Lab3","no","mono","no","18","no","white","no","yes","768","legacy","15","11","/Users/tforestmoore/Desktop/Tarleton/Fall 2020/Math/Lab3/MM-subject-4.csv","legacy","2 5 4 8 7","Lentiform Loewenfeld","3.3.3","3","y","0","right","right","return","right","NA","733","28930","8146","733","NA","2","legacy","5","1024","2","48000","-16","experiment","4","even","4","204466","206703","190079","204450","2607","113504","203382","2623","105357","205484","208721","209454","31563","208721","NA","Sternberg Task","16","20481","28","yes","1024"
"58.62068965517241","58.62068965517241","724.1379310344828","724.1379310344828","black","experiment","legacy","legacy","legacy","0","uniform","1","undefined","1","left","28","28","28","28","0","0","28","0","0","28","28","28","0","28","0","Sun Oct 25 18:38:57 2020","The main experiment item","yes","SternbergTask.osexp","/Users/tforestmoore/Desktop/Tarleton/Fall 2020/Math/Lab3","no","mono","no","18","no","white","no","yes","768","legacy","16","11","/Users/tforestmoore/Desktop/Tarleton/Fall 2020/Math/Lab3/MM-subject-4.csv","legacy","5 7 3 6 2","Lentiform Loewenfeld","3.3.3","5","y","0","left","right","return","left","NA","519","28930","8146","519","NA","2","legacy","5","1024","2","48000","-16","experiment","4","even","2","210555","212792","190079","210539","2607","113504","209471","2623","105357","211573","214809","215329","31563","214809","NA","Sternberg Task","17","21000","29","yes","1024"
"60","60","720.8","720.8","black","experiment","legacy","legacy","legacy","0","uniform","1","undefined","1","right","29","29","29","29","0","0","29","0","0","29","29","29","0","29","0","Sun Oct 25 18:38:57 2020","The main experiment item","yes","SternbergTask.osexp","/Users/tforestmoore/Desktop/Tarleton/Fall 2020/Math/Lab3","no","mono","no","18","no","white","no","yes","768","legacy","17","11","/Users/tforestmoore/Desktop/Tarleton/Fall 2020/Math/Lab3/MM-subject-4.csv","legacy","6 3 1 7 9 8","Lentiform Loewenfeld","3.3.3","0","n","0","right","right","return","right","NA","624","28930","8146","624","NA","2","legacy","6","1024","2","48000","-16","experiment","4","even","4","216432","218669","215346","216416","2607","113504","209471","2623","105357","217450","220686","221310","31563","220686","NA","Sternberg Task","18","21624","30","yes","1024"
"58.064516129032256","58.064516129032256","719.5483870967741","719.5483870967741","black","experiment","legacy","legacy","legacy","0","uniform","0","undefined","0","right","30","30","30","30","0","0","30","0","0","30","30","30","0","30","0","Sun Oct 25 18:38:57 2020","The main experiment item","yes","SternbergTask.osexp","/Users/tforestmoore/Desktop/Tarleton/Fall 2020/Math/Lab3","no","mono","no","18","no","white","no","yes","768","legacy","18","11","/Users/tforestmoore/Desktop/Tarleton/Fall 2020/Math/Lab3/MM-subject-4.csv","legacy","3 4 2","Lentiform Loewenfeld","3.3.3","0","n","0","left","right","return","left","NA","682","28930","8146","682","NA","2","legacy","3","1024","2","48000","-16","experiment","4","even","5","222411","224648","221327","222395","2607","113504","209471","2623","105357","223429","226665","227348","31563","226665","NA","Sternberg Task","18","22306","31","yes","1024"
"59.375","59.375","715","715","black","experiment","legacy","legacy","legacy","0","uniform","1","undefined","1","left","31","31","31","31","0","0","31","0","0","31","31","31","0","31","0","Sun Oct 25 18:38:57 2020","The main experiment item","yes","SternbergTask.osexp","/Users/tforestmoore/Desktop/Tarleton/Fall 2020/Math/Lab3","no","mono","no","18","no","white","no","yes","768","legacy","19","11","/Users/tforestmoore/Desktop/Tarleton/Fall 2020/Math/Lab3/MM-subject-4.csv","legacy","2 4 8 5 1 3","Lentiform Loewenfeld","3.3.3","1","y","0","left","right","return","left","NA","574","28930","8146","574","NA","2","legacy","6","1024","2","48000","-16","experiment","4","even","2","228444","230680","221327","228429","2607","113504","227364","2623","105357","229461","232697","233272","31563","232697","NA","Sternberg Task","19","22880","32","yes","1024"
"57.57575757575758","57.57575757575758","718.6666666666666","718.6666666666666","black","experiment","legacy","legacy","legacy","0","uniform","0","undefined","0","left","32","32","32","32","0","0","32","0","0","32","32","32","0","32","0","Sun Oct 25 18:38:57 2020","The main experiment item","yes","SternbergTask.osexp","/Users/tforestmoore/Desktop/Tarleton/Fall 2020/Math/Lab3","no","mono","no","18","no","white","no","yes","768","legacy","20","11","/Users/tforestmoore/Desktop/Tarleton/Fall 2020/Math/Lab3/MM-subject-4.csv","legacy","9 4 2","Lentiform Loewenfeld","3.3.3","1","y","0","right","right","return","right","NA","836","28930","8146","836","NA","2","legacy","3","1024","2","48000","-16","experiment","4","even","9","234374","236610","233289","234358","2607","113504","227364","2623","105357","235391","238628","239465","31563","238628","NA","Sternberg Task","19","23716","33","yes","1024"
"58.8235294117647","58.8235294117647","713.8235294117648","713.8235294117648","black","experiment","legacy","legacy","legacy","0","uniform","1","undefined","1","left","33","33","33","33","0","0","33","0","0","33","33","33","0","33","0","Sun Oct 25 18:38:57 2020","The main experiment item","yes","SternbergTask.osexp","/Users/tforestmoore/Desktop/Tarleton/Fall 2020/Math/Lab3","no","mono","no","18","no","white","no","yes","768","legacy","21","11","/Users/tforestmoore/Desktop/Tarleton/Fall 2020/Math/Lab3/MM-subject-4.csv","legacy","9 1 6 7 8","Lentiform Loewenfeld","3.3.3","1","y","0","left","right","return","left","NA","554","28930","8146","554","NA","2","legacy","5","1024","2","48000","-16","experiment","4","even","9","240566","242802","233289","240550","2607","113504","239481","2623","105357","241583","244819","245374","31563","244819","NA","Sternberg Task","20","24270","34","yes","1024"
"60","60","713.0571428571428","713.0571428571428","black","experiment","legacy","legacy","legacy","0","uniform","1","undefined","1","right","34","34","34","34","0","0","34","0","0","34","34","34","0","34","0","Sun Oct 25 18:38:57 2020","The main experiment item","yes","SternbergTask.osexp","/Users/tforestmoore/Desktop/Tarleton/Fall 2020/Math/Lab3","no","mono","no","18","no","white","no","yes","768","legacy","22","11","/Users/tforestmoore/Desktop/Tarleton/Fall 2020/Math/Lab3/MM-subject-4.csv","legacy","2 8 9","Lentiform Loewenfeld","3.3.3","0","n","0","right","right","return","right","NA","687","28930","8146","687","NA","2","legacy","3","1024","2","48000","-16","experiment","4","even","6","246478","248714","245391","246461","2607","113504","239481","2623","105357","247495","250732","251420","31563","250732","NA","Sternberg Task","21","24957","35","yes","1024"
"58.333333333333336","58.333333333333336","711.8888888888889","711.8888888888889","black","experiment","legacy","legacy","legacy","0","uniform","0","undefined","0","right","35","35","35","35","0","0","35","0","0","35","35","35","0","35","0","Sun Oct 25 18:38:57 2020","The main experiment item","yes","SternbergTask.osexp","/Users/tforestmoore/Desktop/Tarleton/Fall 2020/Math/Lab3","no","mono","no","18","no","white","no","yes","768","legacy","23","11","/Users/tforestmoore/Desktop/Tarleton/Fall 2020/Math/Lab3/MM-subject-4.csv","legacy","1 3 2 6 9","Lentiform Loewenfeld","3.3.3","0","n","0","left","right","return","left","NA","671","28930","8146","671","NA","2","legacy","5","1024","2","48000","-16","experiment","4","even","5","252522","254759","251436","252506","2607","113504","239481","2623","105357","253539","256776","257448","31563","256776","NA","Sternberg Task","21","25628","36","yes","1024"
"56.75675675675676","56.75675675675676","717","717","black","experiment","legacy","legacy","legacy","0","uniform","0","undefined","0","right","36","36","36","36","0","0","36","0","0","36","36","36","0","36","0","Sun Oct 25 18:38:57 2020","The main experiment item","yes","SternbergTask.osexp","/Users/tforestmoore/Desktop/Tarleton/Fall 2020/Math/Lab3","no","mono","no","18","no","white","no","yes","768","legacy","24","11","/Users/tforestmoore/Desktop/Tarleton/Fall 2020/Math/Lab3/MM-subject-4.csv","legacy","6 9 7 3 8 2","Lentiform Loewenfeld","3.3.3","0","n","0","left","right","return","left","NA","901","28930","8146","901","NA","2","legacy","6","1024","2","48000","-16","experiment","4","even","5","258542","260779","251436","258527","2607","113504","257464","2623","105357","259559","262796","263698","31563","262796","NA","Sternberg Task","21","26529","37","yes","1024"
"57.89473684210526","57.89473684210526","716.1315789473684","716.1315789473684","black","experiment","legacy","legacy","legacy","0","uniform","1","undefined","1","right","37","37","37","37","0","0","37","0","0","37","37","37","0","37","0","Sun Oct 25 18:38:57 2020","The main experiment item","yes","SternbergTask.osexp","/Users/tforestmoore/Desktop/Tarleton/Fall 2020/Math/Lab3","no","mono","no","18","no","white","no","yes","768","legacy","25","11","/Users/tforestmoore/Desktop/Tarleton/Fall 2020/Math/Lab3/MM-subject-4.csv","legacy","7 9 1 6","Lentiform Loewenfeld","3.3.3","0","n","0","right","right","return","right","NA","684","28930","8146","684","NA","2","legacy","4","1024","2","48000","-16","experiment","4","even","4","264799","267035","251436","264783","2607","113504","263715","2623","105357","265816","269053","269737","31563","269053","NA","Sternberg Task","22","27213","38","yes","1024"
"58.97435897435897","58.97435897435897","717.4102564102565","717.4102564102565","black","experiment","legacy","legacy","legacy","0","uniform","1","undefined","1","left","38","38","38","38","0","0","38","0","0","38","38","38","0","38","0","Sun Oct 25 18:38:57 2020","The main experiment item","yes","SternbergTask.osexp","/Users/tforestmoore/Desktop/Tarleton/Fall 2020/Math/Lab3","no","mono","no","18","no","white","no","yes","768","legacy","26","11","/Users/tforestmoore/Desktop/Tarleton/Fall 2020/Math/Lab3/MM-subject-4.csv","legacy","4 3 2 5 8","Lentiform Loewenfeld","3.3.3","2","y","0","left","right","return","left","NA","766","28930","8146","766","NA","2","legacy","5","1024","2","48000","-16","experiment","4","even","3","270838","273074","269754","270822","2607","113504","263715","2623","105357","271855","275092","275859","31563","275092","NA","Sternberg Task","23","27979","39","yes","1024"
"60","60","719.3","719.3","black","experiment","legacy","legacy","legacy","0","uniform","1","undefined","1","right","39","39","39","39","0","0","39","0","0","39","39","39","0","39","0","Sun Oct 25 18:38:57 2020","The main experiment item","yes","SternbergTask.osexp","/Users/tforestmoore/Desktop/Tarleton/Fall 2020/Math/Lab3","no","mono","no","18","no","white","no","yes","768","legacy","27","11","/Users/tforestmoore/Desktop/Tarleton/Fall 2020/Math/Lab3/MM-subject-4.csv","legacy","6 9 4 5 2","Lentiform Loewenfeld","3.3.3","0","n","0","right","right","return","right","NA","793","28930","8146","793","NA","2","legacy","5","1024","2","48000","-16","experiment","4","even","1","276964","279200","275877","276948","2607","113504","263715","2623","105357","277981","281217","282011","31563","281217","NA","Sternberg Task","24","28772","40","yes","1024"
"60.97560975609756","60.97560975609756","722.6829268292682","722.6829268292682","black","experiment","legacy","legacy","legacy","0","uniform","1","undefined","1","right","40","40","40","40","0","0","40","0","0","40","40","40","0","40","0","Sun Oct 25 18:38:57 2020","The main experiment item","yes","SternbergTask.osexp","/Users/tforestmoore/Desktop/Tarleton/Fall 2020/Math/Lab3","no","mono","no","18","no","white","no","yes","768","legacy","28","11","/Users/tforestmoore/Desktop/Tarleton/Fall 2020/Math/Lab3/MM-subject-4.csv","legacy","3 4 9 6 7 8","Lentiform Loewenfeld","3.3.3","0","n","0","right","right","return","right","NA","858","28930","8146","858","NA","2","legacy","6","1024","2","48000","-16","experiment","4","even","2","283111","285348","282028","283095","2607","113504","263715","2623","105357","284129","287365","288224","31563","287365","NA","Sternberg Task","25","29630","41","yes","1024"
"61.904761904761905","61.904761904761905","719.5238095238095","719.5238095238095","black","experiment","legacy","legacy","legacy","0","uniform","1","undefined","1","right","41","41","41","41","0","0","41","0","0","41","41","41","0","41","0","Sun Oct 25 18:38:57 2020","The main experiment item","yes","SternbergTask.osexp","/Users/tforestmoore/Desktop/Tarleton/Fall 2020/Math/Lab3","no","mono","no","18","no","white","no","yes","768","legacy","29","11","/Users/tforestmoore/Desktop/Tarleton/Fall 2020/Math/Lab3/MM-subject-4.csv","legacy","7 8 6 1","Lentiform Loewenfeld","3.3.3","0","n","0","right","right","return","right","NA","590","28930","8146","590","NA","2","legacy","4","1024","2","48000","-16","experiment","4","even","3","289325","291561","288241","289309","2607","113504","263715","2623","105357","290342","293578","294169","31563","293578","NA","Sternberg Task","26","30220","42","yes","1024"
"60.46511627906977","60.46511627906977","723.7674418604652","723.7674418604652","black","experiment","legacy","legacy","legacy","0","uniform","0","undefined","0","right","42","42","42","42","0","0","42","0","0","42","42","42","0","42","0","Sun Oct 25 18:38:57 2020","The main experiment item","yes","SternbergTask.osexp","/Users/tforestmoore/Desktop/Tarleton/Fall 2020/Math/Lab3","no","mono","no","18","no","white","no","yes","768","legacy","30","11","/Users/tforestmoore/Desktop/Tarleton/Fall 2020/Math/Lab3/MM-subject-4.csv","legacy","2 7 5","Lentiform Loewenfeld","3.3.3","0","n","0","left","right","return","left","NA","902","28930","8146","902","NA","2","legacy","3","1024","2","48000","-16","experiment","4","even","8","295271","297507","294186","295255","2607","113504","263715","2623","105357","296288","299524","300426","31563","299524","NA","Sternberg Task","26","31122","43","yes","1024"
"61.36363636363637","61.36363636363637","722.75","722.75","black","experiment","legacy","legacy","legacy","0","uniform","1","undefined","1","left","43","43","43","43","0","0","43","0","0","43","43","43","0","43","0","Sun Oct 25 18:38:57 2020","The main experiment item","yes","SternbergTask.osexp","/Users/tforestmoore/Desktop/Tarleton/Fall 2020/Math/Lab3","no","mono","no","18","no","white","no","yes","768","legacy","31","11","/Users/tforestmoore/Desktop/Tarleton/Fall 2020/Math/Lab3/MM-subject-4.csv","legacy","8 7 3","Lentiform Loewenfeld","3.3.3","1","y","0","left","right","return","left","NA","679","28930","8146","679","NA","2","legacy","3","1024","2","48000","-16","experiment","4","even","8","301527","303764","294186","301511","2607","113504","300443","2623","105357","302544","305781","306461","31563","305781","NA","Sternberg Task","27","31801","44","yes","1024"
"62.22222222222222","62.22222222222222","721.6222222222223","721.6222222222223","black","experiment","legacy","legacy","legacy","0","uniform","1","undefined","1","right","44","44","44","44","0","0","44","0","0","44","44","44","0","44","0","Sun Oct 25 18:38:57 2020","The main experiment item","yes","SternbergTask.osexp","/Users/tforestmoore/Desktop/Tarleton/Fall 2020/Math/Lab3","no","mono","no","18","no","white","no","yes","768","legacy","32","11","/Users/tforestmoore/Desktop/Tarleton/Fall 2020/Math/Lab3/MM-subject-4.csv","legacy","2 8 6 3 1","Lentiform Loewenfeld","3.3.3","0","n","0","right","right","return","right","NA","672","28930","8146","672","NA","2","legacy","5","1024","2","48000","-16","experiment","4","even","7","307561","309795","306478","307546","2607","113504","300443","2623","105357","308576","311812","312485","31563","311812","NA","Sternberg Task","28","32473","45","yes","1024"
"60.869565217391305","60.869565217391305","725.9782608695652","725.9782608695652","black","experiment","legacy","legacy","legacy","0","uniform","0","undefined","0","right","45","45","45","45","0","0","45","0","0","45","45","45","0","45","0","Sun Oct 25 18:38:57 2020","The main experiment item","yes","SternbergTask.osexp","/Users/tforestmoore/Desktop/Tarleton/Fall 2020/Math/Lab3","no","mono","no","18","no","white","no","yes","768","legacy","33","11","/Users/tforestmoore/Desktop/Tarleton/Fall 2020/Math/Lab3/MM-subject-4.csv","legacy","1 7 8 3 9","Lentiform Loewenfeld","3.3.3","0","n","0","left","right","return","left","NA","922","28930","8146","922","NA","2","legacy","5","1024","2","48000","-16","experiment","4","even","2","313588","315825","312502","313572","2607","113504","300443","2623","105357","314605","317842","318765","31563","317842","NA","Sternberg Task","28","33395","46","yes","1024"
"61.702127659574465","61.702127659574465","725","725","black","experiment","legacy","legacy","legacy","0","uniform","1","undefined","1","left","46","46","46","46","0","0","46","0","0","46","46","46","0","46","0","Sun Oct 25 18:38:57 2020","The main experiment item","yes","SternbergTask.osexp","/Users/tforestmoore/Desktop/Tarleton/Fall 2020/Math/Lab3","no","mono","no","18","no","white","no","yes","768","legacy","34","11","/Users/tforestmoore/Desktop/Tarleton/Fall 2020/Math/Lab3/MM-subject-4.csv","legacy","4 6 5 8","Lentiform Loewenfeld","3.3.3","1","y","0","left","right","return","left","NA","680","28930","8146","680","NA","2","legacy","4","1024","2","48000","-16","experiment","4","even","4","319867","322104","312502","319850","2607","113504","318782","2623","105357","320885","324121","324802","31563","324121","NA","Sternberg Task","29","34075","47","yes","1024"
"62.5","62.5","722.9791666666666","722.9791666666666","black","experiment","legacy","legacy","legacy","0","uniform","1","undefined","1","right","47","47","47","47","0","0","47","0","0","47","47","47","0","47","0","Sun Oct 25 18:38:57 2020","The main experiment item","yes","SternbergTask.osexp","/Users/tforestmoore/Desktop/Tarleton/Fall 2020/Math/Lab3","no","mono","no","18","no","white","no","yes","768","legacy","35","11","/Users/tforestmoore/Desktop/Tarleton/Fall 2020/Math/Lab3/MM-subject-4.csv","legacy","8 2 1 4 5 9","Lentiform Loewenfeld","3.3.3","0","n","0","right","right","return","right","NA","628","28930","8146","628","NA","2","legacy","6","1024","2","48000","-16","experiment","4","even","7","325904","328141","324819","325888","2607","113504","318782","2623","105357","326922","330158","330787","31563","330158","NA","Sternberg Task","30","34703","48","yes","1024"
"61.224489795918366","61.224489795918366","718.3877551020408","718.3877551020408","black","experiment","legacy","legacy","legacy","0","uniform","0","undefined","0","right","48","48","48","48","0","0","48","0","0","48","48","48","0","48","0","Sun Oct 25 18:38:57 2020","The main experiment item","yes","SternbergTask.osexp","/Users/tforestmoore/Desktop/Tarleton/Fall 2020/Math/Lab3","no","mono","no","18","no","white","no","yes","768","legacy","36","11","/Users/tforestmoore/Desktop/Tarleton/Fall 2020/Math/Lab3/MM-subject-4.csv","legacy","9 7 4 5 8","Lentiform Loewenfeld","3.3.3","0","n","0","left","right","return","left","NA","498","28930","8146","498","NA","2","legacy","5","1024","2","48000","-16","experiment","4","even","6","331891","334128","330804","331875","2607","113504","318782","2623","105357","332909","336145","336644","31563","336145","NA","Sternberg Task","30","35201","49","yes","1024"
"62","62","723","723","black","experiment","legacy","legacy","legacy","0","uniform","1","undefined","1","right","49","49","49","49","0","0","49","0","0","49","49","49","0","49","0","Sun Oct 25 18:38:57 2020","The main experiment item","yes","SternbergTask.osexp","/Users/tforestmoore/Desktop/Tarleton/Fall 2020/Math/Lab3","no","mono","no","18","no","white","no","yes","768","legacy","37","11","/Users/tforestmoore/Desktop/Tarleton/Fall 2020/Math/Lab3/MM-subject-4.csv","legacy","9 8 2 7 4","Lentiform Loewenfeld","3.3.3","0","n","0","right","right","return","right","NA","949","28930","8146","949","NA","2","legacy","5","1024","2","48000","-16","experiment","4","even","5","337743","339978","330804","337727","2607","113504","336661","2623","105357","338760","341995","342945","31563","341995","NA","Sternberg Task","31","36150","50","yes","1024"
"60.78431372549019","60.78431372549019","726.7843137254902","726.7843137254902","black","experiment","legacy","legacy","legacy","0","uniform","0","undefined","0","right","50","50","50","50","0","0","50","0","0","50","50","50","0","50","0","Sun Oct 25 18:38:57 2020","The main experiment item","yes","SternbergTask.osexp","/Users/tforestmoore/Desktop/Tarleton/Fall 2020/Math/Lab3","no","mono","no","18","no","white","no","yes","768","legacy","38","11","/Users/tforestmoore/Desktop/Tarleton/Fall 2020/Math/Lab3/MM-subject-4.csv","legacy","8 4 3 9","Lentiform Loewenfeld","3.3.3","0","n","0","left","right","return","left","NA","916","28930","8146","916","NA","2","legacy","4","1024","2","48000","-16","experiment","4","even","5","344045","346281","342962","344028","2607","113504","336661","2623","105357","345062","348299","349216","31563","348299","NA","Sternberg Task","31","37066","51","yes","1024"
"61.53846153846154","61.53846153846154","722.0769230769231","722.0769230769231","black","experiment","legacy","legacy","legacy","0","uniform","1","undefined","1","left","51","51","51","51","0","0","51","0","0","51","51","51","0","51","0","Sun Oct 25 18:38:57 2020","The main experiment item","yes","SternbergTask.osexp","/Users/tforestmoore/Desktop/Tarleton/Fall 2020/Math/Lab3","no","mono","no","18","no","white","no","yes","768","legacy","39","11","/Users/tforestmoore/Desktop/Tarleton/Fall 2020/Math/Lab3/MM-subject-4.csv","legacy","9 1 7 2","Lentiform Loewenfeld","3.3.3","2","y","0","left","right","return","left","NA","482","28930","8146","482","NA","2","legacy","4","1024","2","48000","-16","experiment","4","even","1","350318","352554","342962","350302","2607","113504","349233","2623","105357","351335","354571","355054","31563","354571","NA","Sternberg Task","32","37548","52","yes","1024"
"62.264150943396224","62.264150943396224","719.3584905660377","719.3584905660377","black","experiment","legacy","legacy","legacy","0","uniform","1","undefined","1","left","52","52","52","52","0","0","52","0","0","52","52","52","0","52","0","Sun Oct 25 18:38:57 2020","The main experiment item","yes","SternbergTask.osexp","/Users/tforestmoore/Desktop/Tarleton/Fall 2020/Math/Lab3","no","mono","no","18","no","white","no","yes","768","legacy","40","11","/Users/tforestmoore/Desktop/Tarleton/Fall 2020/Math/Lab3/MM-subject-4.csv","legacy","9 8 4","Lentiform Loewenfeld","3.3.3","1","y","0","left","right","return","left","NA","578","28930","8146","578","NA","2","legacy","3","1024","2","48000","-16","experiment","4","even","9","356154","358390","355070","356138","2607","113504","349233","2623","105357","357171","360407","360986","31563","360407","NA","Sternberg Task","33","38126","53","yes","1024"
"62.96296296296296","62.96296296296296","720.1851851851852","720.1851851851852","black","experiment","legacy","legacy","legacy","0","uniform","1","undefined","1","right","53","53","53","53","0","0","53","0","0","53","53","53","0","53","0","Sun Oct 25 18:38:57 2020","The main experiment item","yes","SternbergTask.osexp","/Users/tforestmoore/Desktop/Tarleton/Fall 2020/Math/Lab3","no","mono","no","18","no","white","no","yes","768","legacy","41","11","/Users/tforestmoore/Desktop/Tarleton/Fall 2020/Math/Lab3/MM-subject-4.csv","legacy","3 9 8 1 6 4","Lentiform Loewenfeld","3.3.3","0","n","0","right","right","return","right","NA","764","28930","8146","764","NA","2","legacy","6","1024","2","48000","-16","experiment","4","even","7","362087","364324","361001","362071","2607","113504","349233","2623","105357","363105","366342","367106","31563","366342","NA","Sternberg Task","34","38890","54","yes","1024"
"63.63636363636363","63.63636363636363","720.3636363636364","720.3636363636364","black","experiment","legacy","legacy","legacy","0","uniform","1","undefined","1","right","54","54","54","54","0","0","54","0","0","54","54","54","0","54","0","Sun Oct 25 18:38:57 2020","The main experiment item","yes","SternbergTask.osexp","/Users/tforestmoore/Desktop/Tarleton/Fall 2020/Math/Lab3","no","mono","no","18","no","white","no","yes","768","legacy","42","11","/Users/tforestmoore/Desktop/Tarleton/Fall 2020/Math/Lab3/MM-subject-4.csv","legacy","4 2 7 6 1 3","Lentiform Loewenfeld","3.3.3","0","n","0","right","right","return","right","NA","730","28930","8146","730","NA","2","legacy","6","1024","2","48000","-16","experiment","4","even","8","368208","370444","367123","368192","2607","113504","349233","2623","105357","369225","372462","373193","31563","372461","NA","Sternberg Task","35","39620","55","yes","1024"
"64.28571428571429","64.28571428571429","717.4107142857143","717.4107142857143","black","experiment","legacy","legacy","legacy","0","uniform","1","undefined","1","left","55","55","55","55","0","0","55","0","0","55","55","55","0","55","0","Sun Oct 25 18:38:57 2020","The main experiment item","yes","SternbergTask.osexp","/Users/tforestmoore/Desktop/Tarleton/Fall 2020/Math/Lab3","no","mono","no","18","no","white","no","yes","768","legacy","43","11","/Users/tforestmoore/Desktop/Tarleton/Fall 2020/Math/Lab3/MM-subject-4.csv","legacy","5 7 8 2 3 8","Lentiform Loewenfeld","3.3.3","5","y","0","left","right","return","left","NA","555","28930","8146","555","NA","2","legacy","6","1024","2","48000","-16","experiment","4","even","3","374294","376530","373209","374278","2607","113504","349233","2623","105357","375311","378547","379103","31563","378547","NA","Sternberg Task","36","40175","56","yes","1024"
"64.91228070175438","64.91228070175438","714.3157894736842","714.3157894736842","black","experiment","legacy","legacy","legacy","0","uniform","1","undefined","1","left","56","56","56","56","0","0","56","0","0","56","56","56","0","56","0","Sun Oct 25 18:38:57 2020","The main experiment item","yes","SternbergTask.osexp","/Users/tforestmoore/Desktop/Tarleton/Fall 2020/Math/Lab3","no","mono","no","18","no","white","no","yes","768","legacy","44","11","/Users/tforestmoore/Desktop/Tarleton/Fall 2020/Math/Lab3/MM-subject-4.csv","legacy","2 6 1 7 4","Lentiform Loewenfeld","3.3.3","2","y","0","left","right","return","left","NA","541","28930","8146","541","NA","2","legacy","5","1024","2","48000","-16","experiment","4","even","6","380204","382441","379120","380188","2607","113504","349233","2623","105357","381221","384458","384999","31563","384458","NA","Sternberg Task","37","40716","57","yes","1024"
"65.51724137931035","65.51724137931035","711.6551724137931","711.6551724137931","black","experiment","legacy","legacy","legacy","0","uniform","1","undefined","1","left","57","57","57","57","0","0","57","0","0","57","57","57","0","57","0","Sun Oct 25 18:38:57 2020","The main experiment item","yes","SternbergTask.osexp","/Users/tforestmoore/Desktop/Tarleton/Fall 2020/Math/Lab3","no","mono","no","18","no","white","no","yes","768","legacy","45","11","/Users/tforestmoore/Desktop/Tarleton/Fall 2020/Math/Lab3/MM-subject-4.csv","legacy","7 1 8 5 6 2","Lentiform Loewenfeld","3.3.3","2","y","0","left","right","return","left","NA","560","28930","8146","560","NA","2","legacy","6","1024","2","48000","-16","experiment","4","even","1","386099","388336","385015","386083","2607","113504","349233","2623","105357","387116","390353","390914","31563","390353","NA","Sternberg Task","38","41276","58","yes","1024"
"66.10169491525424","66.10169491525424","715.1016949152543","715.1016949152543","black","experiment","legacy","legacy","legacy","0","uniform","1","undefined","1","right","58","58","58","58","0","0","58","0","0","58","58","58","0","58","0","Sun Oct 25 18:38:57 2020","The main experiment item","yes","SternbergTask.osexp","/Users/tforestmoore/Desktop/Tarleton/Fall 2020/Math/Lab3","no","mono","no","18","no","white","no","yes","768","legacy","46","11","/Users/tforestmoore/Desktop/Tarleton/Fall 2020/Math/Lab3/MM-subject-4.csv","legacy","9","Lentiform Loewenfeld","3.3.3","0","n","0","right","right","return","right","NA","915","28930","8146","915","NA","2","legacy","1","1024","2","48000","-16","experiment","4","even","6","392014","394252","390931","391999","2607","113504","349233","2623","105357","393032","396269","397185","31563","396269","NA","Sternberg Task","39","42191","59","yes","1024"
"66.66666666666667","66.66666666666667","721.1166666666667","721.1166666666667","black","experiment","legacy","legacy","legacy","0","uniform","1","undefined","1","right","59","59","59","59","0","0","59","0","0","59","59","59","0","59","0","Sun Oct 25 18:38:57 2020","The main experiment item","yes","SternbergTask.osexp","/Users/tforestmoore/Desktop/Tarleton/Fall 2020/Math/Lab3","no","mono","no","18","no","white","no","yes","768","legacy","47","11","/Users/tforestmoore/Desktop/Tarleton/Fall 2020/Math/Lab3/MM-subject-4.csv","legacy","5 2","Lentiform Loewenfeld","3.3.3","0","n","0","right","right","return","right","NA","1076","28930","8146","1076","NA","2","legacy","2","1024","2","48000","-16","experiment","4","even","7","398289","400525","397203","398272","2607","113504","349233","2623","105357","399306","402542","403619","31563","402542","NA","Sternberg Task","40","43267","60","yes","1024"
"67.21311475409836","67.21311475409836","717.360655737705","717.360655737705","black","experiment","legacy","legacy","legacy","0","uniform","1","undefined","1","left","60","60","60","60","0","0","60","0","0","60","60","60","0","60","0","Sun Oct 25 18:38:57 2020","The main experiment item","yes","SternbergTask.osexp","/Users/tforestmoore/Desktop/Tarleton/Fall 2020/Math/Lab3","no","mono","no","18","no","white","no","yes","768","legacy","48","11","/Users/tforestmoore/Desktop/Tarleton/Fall 2020/Math/Lab3/MM-subject-4.csv","legacy","6 2","Lentiform Loewenfeld","3.3.3","1","y","0","left","right","return","left","NA","492","28930","8146","492","NA","2","legacy","2","1024","2","48000","-16","experiment","4","even","6","404721","406958","403636","404705","2607","113504","349233","2623","105357","405738","408976","409469","31563","408976","NA","Sternberg Task","41","43759","61","yes","1024"
"67.74193548387096","67.74193548387096","718.0645161290323","718.0645161290323","black","experiment","legacy","legacy","legacy","0","uniform","1","undefined","1","right","61","61","61","61","0","0","61","0","0","61","61","61","0","61","0","Sun Oct 25 18:38:57 2020","The main experiment item","yes","SternbergTask.osexp","/Users/tforestmoore/Desktop/Tarleton/Fall 2020/Math/Lab3","no","mono","no","18","no","white","no","yes","768","legacy","49","11","/Users/tforestmoore/Desktop/Tarleton/Fall 2020/Math/Lab3/MM-subject-4.csv","legacy","5 3 8 7 2 4","Lentiform Loewenfeld","3.3.3","0","n","0","right","right","return","right","NA","761","28930","8146","761","NA","2","legacy","6","1024","2","48000","-16","experiment","4","even","9","410570","412806","409486","410554","2607","113504","349233","2623","105357","411587","414823","415585","31563","414823","NA","Sternberg Task","42","44520","62","yes","1024"
"68.25396825396825","68.25396825396825","717.5873015873016","717.5873015873016","black","experiment","legacy","legacy","legacy","0","uniform","1","undefined","1","left","62","62","62","62","0","0","62","0","0","62","62","62","0","62","0","Sun Oct 25 18:38:57 2020","The main experiment item","yes","SternbergTask.osexp","/Users/tforestmoore/Desktop/Tarleton/Fall 2020/Math/Lab3","no","mono","no","18","no","white","no","yes","768","legacy","50","11","/Users/tforestmoore/Desktop/Tarleton/Fall 2020/Math/Lab3/MM-subject-4.csv","legacy","3 5 4 7","Lentiform Loewenfeld","3.3.3","1","y","0","left","right","return","left","NA","688","28930","8146","688","NA","2","legacy","4","1024","2","48000","-16","experiment","4","even","3","416686","418920","415602","416670","2607","113504","349233","2623","105357","417703","420937","421626","31563","420937","NA","Sternberg Task","43","45208","63","yes","1024"
"68.75","68.75","716.375","716.375","black","experiment","legacy","legacy","legacy","0","uniform","1","undefined","1","right","63","63","63","63","0","0","63","0","0","63","63","63","0","63","0","Sun Oct 25 18:38:57 2020","The main experiment item","yes","SternbergTask.osexp","/Users/tforestmoore/Desktop/Tarleton/Fall 2020/Math/Lab3","no","mono","no","18","no","white","no","yes","768","legacy","51","11","/Users/tforestmoore/Desktop/Tarleton/Fall 2020/Math/Lab3/MM-subject-4.csv","legacy","1 4 9 2 5","Lentiform Loewenfeld","3.3.3","0","n","0","right","right","return","right","NA","640","28930","8146","640","NA","2","legacy","5","1024","2","48000","-16","experiment","4","even","7","422727","424964","421643","422711","2607","113504","349233","2623","105357","423744","426981","427622","31563","426981","NA","Sternberg Task","44","45848","64","yes","1024"
"69.23076923076923","69.23076923076923","711.9538461538461","711.9538461538461","black","experiment","legacy","legacy","legacy","0","uniform","1","undefined","1","left","64","64","64","64","0","0","64","0","0","64","64","64","0","64","0","Sun Oct 25 18:38:57 2020","The main experiment item","yes","SternbergTask.osexp","/Users/tforestmoore/Desktop/Tarleton/Fall 2020/Math/Lab3","no","mono","no","18","no","white","no","yes","768","legacy","52","11","/Users/tforestmoore/Desktop/Tarleton/Fall 2020/Math/Lab3/MM-subject-4.csv","legacy","6 7 8 5","Lentiform Loewenfeld","3.3.3","3","y","0","left","right","return","left","NA","429","28930","8146","429","NA","2","legacy","4","1024","2","48000","-16","experiment","4","even","8","428725","430963","427640","428709","2607","113504","349233","2623","105357","429742","432980","433410","31563","432980","NA","Sternberg Task","45","46277","65","yes","1024"
"69.6969696969697","69.6969696969697","710.1212121212121","710.1212121212121","black","experiment","legacy","legacy","legacy","0","uniform","1","undefined","1","right","65","65","65","65","0","0","65","0","0","65","65","65","0","65","0","Sun Oct 25 18:38:57 2020","The main experiment item","yes","SternbergTask.osexp","/Users/tforestmoore/Desktop/Tarleton/Fall 2020/Math/Lab3","no","mono","no","18","no","white","no","yes","768","legacy","53","11","/Users/tforestmoore/Desktop/Tarleton/Fall 2020/Math/Lab3/MM-subject-4.csv","legacy","4 2 6 9","Lentiform Loewenfeld","3.3.3","0","n","0","right","right","return","right","NA","591","28930","8146","591","NA","2","legacy","4","1024","2","48000","-16","experiment","4","even","7","434512","436749","433427","434495","2607","113504","349233","2623","105357","435529","438766","439358","31563","438766","NA","Sternberg Task","46","46868","66","yes","1024"
"70.14925373134328","70.14925373134328","707.9850746268656","707.9850746268656","black","experiment","legacy","legacy","legacy","0","uniform","1","undefined","1","left","66","66","66","66","0","0","66","0","0","66","66","66","0","66","0","Sun Oct 25 18:38:57 2020","The main experiment item","yes","SternbergTask.osexp","/Users/tforestmoore/Desktop/Tarleton/Fall 2020/Math/Lab3","no","mono","no","18","no","white","no","yes","768","legacy","54","11","/Users/tforestmoore/Desktop/Tarleton/Fall 2020/Math/Lab3/MM-subject-4.csv","legacy","8 5 1 3 9","Lentiform Loewenfeld","3.3.3","4","y","0","left","right","return","left","NA","567","28930","8146","567","NA","2","legacy","5","1024","2","48000","-16","experiment","4","even","3","440458","442695","439374","440442","2607","113504","349233","2623","105357","441476","444712","445280","31563","444712","NA","Sternberg Task","47","47435","67","yes","1024"
"69.11764705882354","69.11764705882354","711.6029411764706","711.6029411764706","black","experiment","legacy","legacy","legacy","0","uniform","0","undefined","0","left","67","67","67","67","0","0","67","0","0","67","67","67","0","67","0","Sun Oct 25 18:38:57 2020","The main experiment item","yes","SternbergTask.osexp","/Users/tforestmoore/Desktop/Tarleton/Fall 2020/Math/Lab3","no","mono","no","18","no","white","no","yes","768","legacy","55","11","/Users/tforestmoore/Desktop/Tarleton/Fall 2020/Math/Lab3/MM-subject-4.csv","legacy","3 9 6 2","Lentiform Loewenfeld","3.3.3","4","y","0","right","right","return","right","NA","954","28930","8146","954","NA","2","legacy","4","1024","2","48000","-16","experiment","4","even","2","446383","448620","445296","446367","2607","113504","349233","2623","105357","447401","450637","451592","31563","450637","NA","Sternberg Task","47","48389","68","yes","1024"
"68.1159420289855","68.1159420289855","711.1449275362319","711.1449275362319","black","experiment","legacy","legacy","legacy","0","uniform","0","undefined","0","right","68","68","68","68","0","0","68","0","0","68","68","68","0","68","0","Sun Oct 25 18:38:57 2020","The main experiment item","yes","SternbergTask.osexp","/Users/tforestmoore/Desktop/Tarleton/Fall 2020/Math/Lab3","no","mono","no","18","no","white","no","yes","768","legacy","56","11","/Users/tforestmoore/Desktop/Tarleton/Fall 2020/Math/Lab3/MM-subject-4.csv","legacy","1 7 5 2 9","Lentiform Loewenfeld","3.3.3","0","n","0","left","right","return","left","NA","680","28930","8146","680","NA","2","legacy","5","1024","2","48000","-16","experiment","4","even","3","452691","454928","445296","452675","2607","113504","451608","2623","105357","453709","456946","457627","31563","456946","NA","Sternberg Task","47","49069","69","yes","1024"
"68.57142857142857","68.57142857142857","708.6","708.6","black","experiment","legacy","legacy","legacy","0","uniform","1","undefined","1","left","69","69","69","69","0","0","69","0","0","69","69","69","0","69","0","Sun Oct 25 18:38:57 2020","The main experiment item","yes","SternbergTask.osexp","/Users/tforestmoore/Desktop/Tarleton/Fall 2020/Math/Lab3","no","mono","no","18","no","white","no","yes","768","legacy","57","11","/Users/tforestmoore/Desktop/Tarleton/Fall 2020/Math/Lab3/MM-subject-4.csv","legacy","9 6 2 4 1","Lentiform Loewenfeld","3.3.3","4","y","0","left","right","return","left","NA","533","28930","8146","533","NA","2","legacy","5","1024","2","48000","-16","experiment","4","even","4","458731","460969","445296","458715","2607","113504","457645","2623","105357","459748","462983","463517","31563","462983","NA","Sternberg Task","48","49602","70","yes","1024"
"69.01408450704226","69.01408450704226","705.9577464788732","705.9577464788732","black","experiment","legacy","legacy","legacy","0","uniform","1","undefined","1","left","70","70","70","70","0","0","70","0","0","70","70","70","0","70","0","Sun Oct 25 18:38:57 2020","The main experiment item","yes","SternbergTask.osexp","/Users/tforestmoore/Desktop/Tarleton/Fall 2020/Math/Lab3","no","mono","no","18","no","white","no","yes","768","legacy","58","11","/Users/tforestmoore/Desktop/Tarleton/Fall 2020/Math/Lab3/MM-subject-4.csv","legacy","3 9 7 6 4","Lentiform Loewenfeld","3.3.3","3","y","0","left","right","return","left","NA","521","28930","8146","521","NA","2","legacy","5","1024","2","48000","-16","experiment","4","even","7","464617","466852","463534","464601","2607","113504","457645","2623","105357","465633","468870","469391","31563","468870","NA","Sternberg Task","49","50123","71","yes","1024"
"68.05555555555556","68.05555555555556","707.1805555555555","707.1805555555555","black","experiment","legacy","legacy","legacy","0","uniform","0","undefined","0","left","71","71","71","71","0","0","71","0","0","71","71","71","0","71","0","Sun Oct 25 18:38:57 2020","The main experiment item","yes","SternbergTask.osexp","/Users/tforestmoore/Desktop/Tarleton/Fall 2020/Math/Lab3","no","mono","no","18","no","white","no","yes","768","legacy","59","11","/Users/tforestmoore/Desktop/Tarleton/Fall 2020/Math/Lab3/MM-subject-4.csv","legacy","3 4 9 6 2 9","Lentiform Loewenfeld","3.3.3","5","y","0","right","right","return","right","NA","794","28930","8146","794","NA","2","legacy","6","1024","2","48000","-16","experiment","4","even","2","470494","472730","469408","470477","2607","113504","457645","2623","105357","471511","474747","475542","31563","474747","NA","Sternberg Task","49","50917","72","yes","1024"
"68.4931506849315","68.4931506849315","713.2876712328767","713.2876712328767","black","experiment","legacy","legacy","legacy","0","uniform","1","undefined","1","right","72","72","72","72","0","0","72","0","0","72","72","72","0","72","0","Sun Oct 25 18:38:57 2020","The main experiment item","yes","SternbergTask.osexp","/Users/tforestmoore/Desktop/Tarleton/Fall 2020/Math/Lab3","no","mono","no","18","no","white","no","yes","768","legacy","60","11","/Users/tforestmoore/Desktop/Tarleton/Fall 2020/Math/Lab3/MM-subject-4.csv","legacy","5","Lentiform Loewenfeld","3.3.3","0","n","0","right","right","return","right","NA","1153","28930","8146","1153","NA","2","legacy","1","1024","2","48000","-16","experiment","4","even","8","476640","478875","469408","476624","2607","113504","475558","2623","105357","477657","480892","482046","31563","480892","NA","Sternberg Task","50","52070","73","yes","1024"
"68.91891891891892","68.91891891891892","711.3243243243244","711.3243243243244","black","experiment","legacy","legacy","legacy","0","uniform","1","undefined","1","left","73","73","73","73","0","0","73","0","0","73","73","73","0","73","0","Sun Oct 25 18:38:57 2020","The main experiment item","yes","SternbergTask.osexp","/Users/tforestmoore/Desktop/Tarleton/Fall 2020/Math/Lab3","no","mono","no","18","no","white","no","yes","768","legacy","61","11","/Users/tforestmoore/Desktop/Tarleton/Fall 2020/Math/Lab3/MM-subject-4.csv","legacy","6 7 9 3 1 2","Lentiform Loewenfeld","3.3.3","1","y","0","left","right","return","left","NA","568","28930","8146","568","NA","2","legacy","6","1024","2","48000","-16","experiment","4","even","6","483148","485384","482063","483132","2607","113504","475558","2623","105357","484165","487401","487970","31563","487401","NA","Sternberg Task","51","52638","74","yes","1024"
"69.33333333333333","69.33333333333333","708.4266666666666","708.4266666666666","black","experiment","legacy","legacy","legacy","0","uniform","1","undefined","1","right","74","74","74","74","0","0","74","0","0","74","74","74","0","74","0","Sun Oct 25 18:38:57 2020","The main experiment item","yes","SternbergTask.osexp","/Users/tforestmoore/Desktop/Tarleton/Fall 2020/Math/Lab3","no","mono","no","18","no","white","no","yes","768","legacy","62","11","/Users/tforestmoore/Desktop/Tarleton/Fall 2020/Math/Lab3/MM-subject-4.csv","legacy","6 2 9 3 8 4","Lentiform Loewenfeld","3.3.3","0","n","0","right","right","return","right","NA","494","28930","8146","494","NA","2","legacy","6","1024","2","48000","-16","experiment","4","even","1","489065","491301","487987","489050","2607","113504","475558","2623","105357","490082","493318","493813","31563","493318","NA","Sternberg Task","52","53132","75","yes","1024"
"69.73684210526316","69.73684210526316","706.671052631579","706.671052631579","black","experiment","legacy","legacy","legacy","0","uniform","1","undefined","1","left","75","75","75","75","0","0","75","0","0","75","75","75","0","75","0","Sun Oct 25 18:38:57 2020","The main experiment item","yes","SternbergTask.osexp","/Users/tforestmoore/Desktop/Tarleton/Fall 2020/Math/Lab3","no","mono","no","18","no","white","no","yes","768","legacy","63","11","/Users/tforestmoore/Desktop/Tarleton/Fall 2020/Math/Lab3/MM-subject-4.csv","legacy","5 2 9 6 1 7","Lentiform Loewenfeld","3.3.3","3","y","0","left","right","return","left","NA","575","28930","8146","575","NA","2","legacy","6","1024","2","48000","-16","experiment","4","even","9","494916","497153","493830","494900","2607","113504","475558","2623","105357","495934","499170","499746","31563","499170","NA","Sternberg Task","53","53707","76","yes","1024"
"70.12987012987013","70.12987012987013","706.1168831168832","706.1168831168832","black","experiment","legacy","legacy","legacy","0","uniform","1","undefined","1","left","76","76","76","76","0","0","76","0","0","76","76","76","0","76","0","Sun Oct 25 18:38:57 2020","The main experiment item","yes","SternbergTask.osexp","/Users/tforestmoore/Desktop/Tarleton/Fall 2020/Math/Lab3","no","mono","no","18","no","white","no","yes","768","legacy","64","11","/Users/tforestmoore/Desktop/Tarleton/Fall 2020/Math/Lab3/MM-subject-4.csv","legacy","7 1 3","Lentiform Loewenfeld","3.3.3","2","y","0","left","right","return","left","NA","664","28930","8146","664","NA","2","legacy","3","1024","2","48000","-16","experiment","4","even","1","500847","503084","499763","500832","2607","113504","475558","2623","105357","501865","505101","505766","31563","505101","NA","Sternberg Task","54","54371","77","yes","1024"
"70.51282051282051","70.51282051282051","707.4487179487179","707.4487179487179","black","experiment","legacy","legacy","legacy","0","uniform","1","undefined","1","left","77","77","77","77","0","0","77","0","0","77","77","77","0","77","0","Sun Oct 25 18:38:57 2020","The main experiment item","yes","SternbergTask.osexp","/Users/tforestmoore/Desktop/Tarleton/Fall 2020/Math/Lab3","no","mono","no","18","no","white","no","yes","768","legacy","65","11","/Users/tforestmoore/Desktop/Tarleton/Fall 2020/Math/Lab3/MM-subject-4.csv","legacy","8 3","Lentiform Loewenfeld","3.3.3","2","y","0","left","right","return","left","NA","810","28930","8146","810","NA","2","legacy","2","1024","2","48000","-16","experiment","4","even","3","506868","509102","505783","506851","2607","113504","475558","2623","105357","507886","511119","511930","31563","511119","NA","Sternberg Task","55","55181","78","yes","1024"
"70.88607594936708","70.88607594936708","705.7594936708861","705.7594936708861","black","experiment","legacy","legacy","legacy","0","uniform","1","undefined","1","left","78","78","78","78","0","0","78","0","0","78","78","78","0","78","0","Sun Oct 25 18:38:57 2020","The main experiment item","yes","SternbergTask.osexp","/Users/tforestmoore/Desktop/Tarleton/Fall 2020/Math/Lab3","no","mono","no","18","no","white","no","yes","768","legacy","66","11","/Users/tforestmoore/Desktop/Tarleton/Fall 2020/Math/Lab3/MM-subject-4.csv","legacy","5 2 6","Lentiform Loewenfeld","3.3.3","2","y","0","left","right","return","left","NA","574","28930","8146","574","NA","2","legacy","3","1024","2","48000","-16","experiment","4","even","2","513029","515265","511946","513013","2607","113504","475558","2623","105357","514046","517282","517857","31563","517282","NA","Sternberg Task","56","55755","79","yes","1024"
"71.25","71.25","704.5625","704.5625","black","experiment","legacy","legacy","legacy","0","uniform","1","undefined","1","left","79","79","79","79","0","0","79","0","0","79","79","79","0","79","0","Sun Oct 25 18:38:57 2020","The main experiment item","yes","SternbergTask.osexp","/Users/tforestmoore/Desktop/Tarleton/Fall 2020/Math/Lab3","no","mono","no","18","no","white","no","yes","768","legacy","67","11","/Users/tforestmoore/Desktop/Tarleton/Fall 2020/Math/Lab3/MM-subject-4.csv","legacy","9 3 8 2 1 4","Lentiform Loewenfeld","3.3.3","3","y","0","left","right","return","left","NA","610","28930","8146","610","NA","2","legacy","6","1024","2","48000","-16","experiment","4","even","8","518964","521200","517875","518947","2607","113504","475558","2623","105357","519982","523217","523828","31563","523217","NA","Sternberg Task","57","56365","80","yes","1024"
"71.60493827160494","71.60493827160494","702.3827160493827","702.3827160493827","black","experiment","legacy","legacy","legacy","0","uniform","1","undefined","1","right","80","80","80","80","0","0","80","0","0","80","80","80","0","80","0","Sun Oct 25 18:38:57 2020","The main experiment item","yes","SternbergTask.osexp","/Users/tforestmoore/Desktop/Tarleton/Fall 2020/Math/Lab3","no","mono","no","18","no","white","no","yes","768","legacy","68","11","/Users/tforestmoore/Desktop/Tarleton/Fall 2020/Math/Lab3/MM-subject-4.csv","legacy","7 1","Lentiform Loewenfeld","3.3.3","0","n","0","right","right","return","right","NA","528","28930","8146","528","NA","2","legacy","2","1024","2","48000","-16","experiment","4","even","8","524930","527166","523844","524914","2607","113504","475558","2623","105357","525947","529183","529712","31563","529183","NA","Sternberg Task","58","56893","81","yes","1024"
"71.95121951219512","71.95121951219512","702.939024390244","702.939024390244","black","experiment","legacy","legacy","legacy","0","uniform","1","undefined","1","left","81","81","81","81","0","0","81","0","0","81","81","81","0","81","0","Sun Oct 25 18:38:57 2020","The main experiment item","yes","SternbergTask.osexp","/Users/tforestmoore/Desktop/Tarleton/Fall 2020/Math/Lab3","no","mono","no","18","no","white","no","yes","768","legacy","69","11","/Users/tforestmoore/Desktop/Tarleton/Fall 2020/Math/Lab3/MM-subject-4.csv","legacy","8 5 4 7 3 1","Lentiform Loewenfeld","3.3.3","2","y","0","left","right","return","left","NA","748","28930","8146","748","NA","2","legacy","6","1024","2","48000","-16","experiment","4","even","5","530815","533051","529730","530799","2607","113504","475558","2623","105357","531832","535068","535817","31563","535068","NA","Sternberg Task","59","57641","82","yes","1024"
"72.28915662650603","72.28915662650603","701.0481927710844","701.0481927710844","black","experiment","legacy","legacy","legacy","0","uniform","1","undefined","1","right","82","82","82","82","0","0","82","0","0","82","82","82","0","82","0","Sun Oct 25 18:38:57 2020","The main experiment item","yes","SternbergTask.osexp","/Users/tforestmoore/Desktop/Tarleton/Fall 2020/Math/Lab3","no","mono","no","18","no","white","no","yes","768","legacy","70","11","/Users/tforestmoore/Desktop/Tarleton/Fall 2020/Math/Lab3/MM-subject-4.csv","legacy","3 9 1","Lentiform Loewenfeld","3.3.3","0","n","0","right","right","return","right","NA","546","28930","8146","546","NA","2","legacy","3","1024","2","48000","-16","experiment","4","even","7","536921","539156","535833","536905","2607","113504","475558","2623","105357","537938","541173","541720","31563","541173","NA","Sternberg Task","60","58187","83","yes","1024"
"71.42857142857143","71.42857142857143","707.952380952381","707.952380952381","black","experiment","legacy","legacy","legacy","0","uniform","0","undefined","0","right","83","83","83","83","0","0","83","0","0","83","83","83","0","83","0","Sun Oct 25 18:38:57 2020","The main experiment item","yes","SternbergTask.osexp","/Users/tforestmoore/Desktop/Tarleton/Fall 2020/Math/Lab3","no","mono","no","18","no","white","no","yes","768","legacy","71","11","/Users/tforestmoore/Desktop/Tarleton/Fall 2020/Math/Lab3/MM-subject-4.csv","legacy","6 7 5 9","Lentiform Loewenfeld","3.3.3","0","n","0","left","right","return","left","NA","1281","28930","8146","1281","NA","2","legacy","4","1024","2","48000","-16","experiment","4","even","2","542824","545061","541737","542808","2607","113504","475558","2623","105357","543841","547078","548360","31563","547078","NA","Sternberg Task","60","59468","84","yes","1024"
"71.76470588235294","71.76470588235294","707.6823529411764","707.6823529411764","black","experiment","legacy","legacy","legacy","0","uniform","1","undefined","1","left","84","84","84","84","0","0","84","0","0","84","84","84","0","84","0","Sun Oct 25 18:38:57 2020","The main experiment item","yes","SternbergTask.osexp","/Users/tforestmoore/Desktop/Tarleton/Fall 2020/Math/Lab3","no","mono","no","18","no","white","no","yes","768","legacy","72","11","/Users/tforestmoore/Desktop/Tarleton/Fall 2020/Math/Lab3/MM-subject-4.csv","legacy","4 6 2 5 1","Lentiform Loewenfeld","3.3.3","5","y","0","left","right","return","left","NA","685","28930","8146","685","NA","2","legacy","5","1024","2","48000","-16","experiment","4","even","1","549463","551700","541737","549447","2607","113504","548377","2623","105357","550480","553718","554404","31563","553717","NA","Sternberg Task","61","60153","85","yes","1024"
"70.93023255813954","70.93023255813954","708.7906976744187","708.7906976744187","black","experiment","legacy","legacy","legacy","0","uniform","0","undefined","0","right","85","85","85","85","0","0","85","0","0","85","85","85","0","85","0","Sun Oct 25 18:38:57 2020","The main experiment item","yes","SternbergTask.osexp","/Users/tforestmoore/Desktop/Tarleton/Fall 2020/Math/Lab3","no","mono","no","18","no","white","no","yes","768","legacy","73","11","/Users/tforestmoore/Desktop/Tarleton/Fall 2020/Math/Lab3/MM-subject-4.csv","legacy","8 5 7 3 6","Lentiform Loewenfeld","3.3.3","0","n","0","left","right","return","left","NA","803","28930","8146","803","NA","2","legacy","5","1024","2","48000","-16","experiment","4","even","9","555507","557744","554421","555491","2607","113504","548377","2623","105357","556524","559761","560565","31563","559761","NA","Sternberg Task","61","60956","86","yes","1024"
"71.26436781609195","71.26436781609195","707.5172413793103","707.5172413793103","black","experiment","legacy","legacy","legacy","0","uniform","1","undefined","1","left","86","86","86","86","0","0","86","0","0","86","86","86","0","86","0","Sun Oct 25 18:38:57 2020","The main experiment item","yes","SternbergTask.osexp","/Users/tforestmoore/Desktop/Tarleton/Fall 2020/Math/Lab3","no","mono","no","18","no","white","no","yes","768","legacy","74","11","/Users/tforestmoore/Desktop/Tarleton/Fall 2020/Math/Lab3/MM-subject-4.csv","legacy","8 1 6","Lentiform Loewenfeld","3.3.3","3","y","0","left","right","return","left","NA","598","28930","8146","598","NA","2","legacy","3","1024","2","48000","-16","experiment","4","even","6","561667","563904","554421","561651","2607","113504","560582","2623","105357","562684","565921","566520","31563","565921","NA","Sternberg Task","62","61554","87","yes","1024"
"71.5909090909091","71.5909090909091","705.4090909090909","705.4090909090909","black","experiment","legacy","legacy","legacy","0","uniform","1","undefined","1","left","87","87","87","87","0","0","87","0","0","87","87","87","0","87","0","Sun Oct 25 18:38:57 2020","The main experiment item","yes","SternbergTask.osexp","/Users/tforestmoore/Desktop/Tarleton/Fall 2020/Math/Lab3","no","mono","no","18","no","white","no","yes","768","legacy","75","11","/Users/tforestmoore/Desktop/Tarleton/Fall 2020/Math/Lab3/MM-subject-4.csv","legacy","2 3 7 4","Lentiform Loewenfeld","3.3.3","1","y","0","left","right","return","left","NA","522","28930","8146","522","NA","2","legacy","4","1024","2","48000","-16","experiment","4","even","2","567622","569858","566536","567606","2607","113504","560582","2623","105357","568639","571876","572399","31563","571876","NA","Sternberg Task","63","62076","88","yes","1024"
"71.91011235955057","71.91011235955057","704.8314606741573","704.8314606741573","black","experiment","legacy","legacy","legacy","0","uniform","1","undefined","1","right","88","88","88","88","0","0","88","0","0","88","88","88","0","88","0","Sun Oct 25 18:38:57 2020","The main experiment item","yes","SternbergTask.osexp","/Users/tforestmoore/Desktop/Tarleton/Fall 2020/Math/Lab3","no","mono","no","18","no","white","no","yes","768","legacy","76","11","/Users/tforestmoore/Desktop/Tarleton/Fall 2020/Math/Lab3/MM-subject-4.csv","legacy","6 9 5","Lentiform Loewenfeld","3.3.3","0","n","0","right","right","return","right","NA","654","28930","8146","654","NA","2","legacy","3","1024","2","48000","-16","experiment","4","even","8","573501","575737","572416","573485","2607","113504","560582","2623","105357","574518","577754","578409","31563","577754","NA","Sternberg Task","64","62730","89","yes","1024"
"72.22222222222223","72.22222222222223","713.8","713.8","black","experiment","legacy","legacy","legacy","0","uniform","1","undefined","1","right","89","89","89","89","0","0","89","0","0","89","89","89","0","89","0","Sun Oct 25 18:38:57 2020","The main experiment item","yes","SternbergTask.osexp","/Users/tforestmoore/Desktop/Tarleton/Fall 2020/Math/Lab3","no","mono","no","18","no","white","no","yes","768","legacy","77","11","/Users/tforestmoore/Desktop/Tarleton/Fall 2020/Math/Lab3/MM-subject-4.csv","legacy","2 3 8 5 6 7","Lentiform Loewenfeld","3.3.3","0","n","0","right","right","return","right","NA","1512","28930","8146","1512","NA","2","legacy","6","1024","2","48000","-16","experiment","4","even","1","579511","581747","578425","579495","2607","113504","560582","2623","105357","580528","583764","585277","31563","583764","NA","Sternberg Task","65","64242","90","yes","1024"
"72.52747252747253","72.52747252747253","714.934065934066","714.934065934066","black","experiment","legacy","legacy","legacy","0","uniform","1","undefined","1","right","90","90","90","90","0","0","90","0","0","90","90","90","0","90","0","Sun Oct 25 18:38:57 2020","The main experiment item","yes","SternbergTask.osexp","/Users/tforestmoore/Desktop/Tarleton/Fall 2020/Math/Lab3","no","mono","no","18","no","white","no","yes","768","legacy","78","11","/Users/tforestmoore/Desktop/Tarleton/Fall 2020/Math/Lab3/MM-subject-4.csv","legacy","1 7 5 2","Lentiform Loewenfeld","3.3.3","0","n","0","right","right","return","right","NA","817","28930","8146","817","NA","2","legacy","4","1024","2","48000","-16","experiment","4","even","3","586377","588613","585293","586361","2607","113504","560582","2623","105357","587394","590630","591448","31563","590630","NA","Sternberg Task","66","65059","91","yes","1024"
"72.82608695652173","72.82608695652173","714.0217391304348","714.0217391304348","black","experiment","legacy","legacy","legacy","0","uniform","1","undefined","1","left","91","91","91","91","0","0","91","0","0","91","91","91","0","91","0","Sun Oct 25 18:38:57 2020","The main experiment item","yes","SternbergTask.osexp","/Users/tforestmoore/Desktop/Tarleton/Fall 2020/Math/Lab3","no","mono","no","18","no","white","no","yes","768","legacy","79","11","/Users/tforestmoore/Desktop/Tarleton/Fall 2020/Math/Lab3/MM-subject-4.csv","legacy","8 9 6 1","Lentiform Loewenfeld","3.3.3","2","y","0","left","right","return","left","NA","631","28930","8146","631","NA","2","legacy","4","1024","2","48000","-16","experiment","4","even","9","592552","594788","591465","592535","2607","113504","560582","2623","105357","593569","596806","597439","31563","596806","NA","Sternberg Task","67","65690","92","yes","1024"
"73.11827956989248","73.11827956989248","714.6236559139785","714.6236559139785","black","experiment","legacy","legacy","legacy","0","uniform","1","undefined","1","right","92","92","92","92","0","0","92","0","0","92","92","92","0","92","0","Sun Oct 25 18:38:57 2020","The main experiment item","yes","SternbergTask.osexp","/Users/tforestmoore/Desktop/Tarleton/Fall 2020/Math/Lab3","no","mono","no","18","no","white","no","yes","768","legacy","80","11","/Users/tforestmoore/Desktop/Tarleton/Fall 2020/Math/Lab3/MM-subject-4.csv","legacy","8 4 3 5","Lentiform Loewenfeld","3.3.3","0","n","0","right","right","return","right","NA","770","28930","8146","770","NA","2","legacy","4","1024","2","48000","-16","experiment","4","even","6","598540","600777","597455","598524","2607","113504","560582","2623","105357","599558","602794","603565","31563","602794","NA","Sternberg Task","68","66460","93","yes","1024"
"73.40425531914893","73.40425531914893","717.5425531914893","717.5425531914893","black","experiment","legacy","legacy","legacy","0","uniform","1","undefined","1","right","93","93","93","93","0","0","93","0","0","93","93","93","0","93","0","Sun Oct 25 18:38:57 2020","The main experiment item","yes","SternbergTask.osexp","/Users/tforestmoore/Desktop/Tarleton/Fall 2020/Math/Lab3","no","mono","no","18","no","white","no","yes","768","legacy","81","11","/Users/tforestmoore/Desktop/Tarleton/Fall 2020/Math/Lab3/MM-subject-4.csv","legacy","2 8 7 9 5 3","Lentiform Loewenfeld","3.3.3","0","n","0","right","right","return","right","NA","989","28930","8146","989","NA","2","legacy","6","1024","2","48000","-16","experiment","4","even","6","604669","606907","603583","604653","2607","113504","560582","2623","105357","605686","608924","609914","31563","608924","NA","Sternberg Task","69","67449","94","yes","1024"
"72.63157894736842","72.63157894736842","723.0526315789474","723.0526315789474","black","experiment","legacy","legacy","legacy","0","uniform","0","undefined","0","left","94","94","94","94","0","0","94","0","0","94","94","94","0","94","0","Sun Oct 25 18:38:57 2020","The main experiment item","yes","SternbergTask.osexp","/Users/tforestmoore/Desktop/Tarleton/Fall 2020/Math/Lab3","no","mono","no","18","no","white","no","yes","768","legacy","82","11","/Users/tforestmoore/Desktop/Tarleton/Fall 2020/Math/Lab3/MM-subject-4.csv","legacy","7 2 3","Lentiform Loewenfeld","3.3.3","3","y","0","right","right","return","right","NA","1241","28930","8146","1241","NA","2","legacy","3","1024","2","48000","-16","experiment","4","even","3","611013","613249","609931","610998","2607","113504","560582","2623","105357","612030","615266","616508","31563","615266","NA","Sternberg Task","69","68690","95","yes","1024"
"71.875","71.875","721.8020833333334","721.8020833333334","black","experiment","legacy","legacy","legacy","0","uniform","0","undefined","0","right","95","95","95","95","0","0","95","0","0","95","95","95","0","95","0","Sun Oct 25 18:38:57 2020","The main experiment item","yes","SternbergTask.osexp","/Users/tforestmoore/Desktop/Tarleton/Fall 2020/Math/Lab3","no","mono","no","18","no","white","no","yes","768","legacy","83","11","/Users/tforestmoore/Desktop/Tarleton/Fall 2020/Math/Lab3/MM-subject-4.csv","legacy","8 5 4 2 9 6","Lentiform Loewenfeld","3.3.3","0","n","0","left","right","return","left","NA","603","28930","8146","603","NA","2","legacy","6","1024","2","48000","-16","experiment","4","even","3","617609","619847","609931","617593","2607","113504","616525","2623","105357","618627","621865","622469","31563","621865","NA","Sternberg Task","69","69293","96","yes","1024"
"72.16494845360825","72.16494845360825","719.7422680412371","719.7422680412371","black","experiment","legacy","legacy","legacy","0","uniform","1","undefined","1","left","96","96","96","96","0","0","96","0","0","96","96","96","0","96","0","Sun Oct 25 18:38:57 2020","The main experiment item","yes","SternbergTask.osexp","/Users/tforestmoore/Desktop/Tarleton/Fall 2020/Math/Lab3","no","mono","no","18","no","white","no","yes","768","legacy","84","11","/Users/tforestmoore/Desktop/Tarleton/Fall 2020/Math/Lab3/MM-subject-4.csv","legacy","4 1 5","Lentiform Loewenfeld","3.3.3","2","y","0","left","right","return","left","NA","522","28930","8146","522","NA","2","legacy","3","1024","2","48000","-16","experiment","4","even","1","623571","625808","609931","623555","2607","113504","622485","2623","105357","624588","627825","628348","31563","627825","NA","Sternberg Task","70","69815","97","yes","1024"
"72.44897959183673","72.44897959183673","725.795918367347","725.795918367347","black","experiment","legacy","legacy","legacy","0","uniform","1","undefined","1","left","97","97","97","97","0","0","97","0","0","97","97","97","0","97","0","Sun Oct 25 18:38:57 2020","The main experiment item","yes","SternbergTask.osexp","/Users/tforestmoore/Desktop/Tarleton/Fall 2020/Math/Lab3","no","mono","no","18","no","white","no","yes","768","legacy","85","11","/Users/tforestmoore/Desktop/Tarleton/Fall 2020/Math/Lab3/MM-subject-4.csv","legacy","7 8 4 6 9 5","Lentiform Loewenfeld","3.3.3","4","y","0","left","right","return","left","NA","1313","28930","8146","1313","NA","2","legacy","6","1024","2","48000","-16","experiment","4","even","6","629449","631685","628365","629433","2607","113504","622485","2623","105357","630466","633702","635016","31563","633702","NA","Sternberg Task","71","71128","98","yes","1024"
"72.72727272727273","72.72727272727273","726.3737373737374","726.3737373737374","black","experiment","legacy","legacy","legacy","0","uniform","1","undefined","1","right","98","98","98","98","0","0","98","0","0","98","98","98","0","98","0","Sun Oct 25 18:38:57 2020","The main experiment item","yes","SternbergTask.osexp","/Users/tforestmoore/Desktop/Tarleton/Fall 2020/Math/Lab3","no","mono","no","18","no","white","no","yes","768","legacy","86","11","/Users/tforestmoore/Desktop/Tarleton/Fall 2020/Math/Lab3/MM-subject-4.csv","legacy","7 1 5 6 3","Lentiform Loewenfeld","3.3.3","0","n","0","right","right","return","right","NA","783","28930","8146","783","NA","2","legacy","5","1024","2","48000","-16","experiment","4","even","8","636116","638352","635033","636100","2607","113504","622485","2623","105357","637133","640369","641153","31563","640369","NA","Sternberg Task","72","71911","99","yes","1024"
"73","73","724.91","724.91","black","experiment","legacy","legacy","legacy","0","uniform","1","undefined","1","left","99","99","99","99","0","0","99","0","0","99","99","99","0","99","0","Sun Oct 25 18:38:57 2020","The main experiment item","yes","SternbergTask.osexp","/Users/tforestmoore/Desktop/Tarleton/Fall 2020/Math/Lab3","no","mono","no","18","no","white","no","yes","768","legacy","87","11","/Users/tforestmoore/Desktop/Tarleton/Fall 2020/Math/Lab3/MM-subject-4.csv","legacy","3 5 9 6 2 4","Lentiform Loewenfeld","3.3.3","1","y","0","left","right","return","left","NA","580","28930","8146","580","NA","2","legacy","6","1024","2","48000","-16","experiment","4","even","3","642256","644489","641169","642240","2607","113504","622485","2623","105357","643271","646506","647088","31563","646506","NA","Sternberg Task","73","72491","100","yes","1024"
"73.26732673267327","73.26732673267327","724.7821782178218","724.7821782178218","black","experiment","legacy","legacy","legacy","0","uniform","1","undefined","1","left","100","100","100","100","0","0","100","0","0","100","100","100","0","100","0","Sun Oct 25 18:38:57 2020","The main experiment item","yes","SternbergTask.osexp","/Users/tforestmoore/Desktop/Tarleton/Fall 2020/Math/Lab3","no","mono","no","18","no","white","no","yes","768","legacy","88","11","/Users/tforestmoore/Desktop/Tarleton/Fall 2020/Math/Lab3/MM-subject-4.csv","legacy","7","Lentiform Loewenfeld","3.3.3","1","y","0","left","right","return","left","NA","712","28930","8146","712","NA","2","legacy","1","1024","2","48000","-16","experiment","4","even","7","648188","650425","647104","648172","2607","113504","622485","2623","105357","649206","652442","653155","31563","652442","NA","Sternberg Task","74","73203","101","yes","1024"
"73.52941176470588","73.52941176470588","726.5490196078431","726.5490196078431","black","experiment","legacy","legacy","legacy","0","uniform","1","undefined","1","left","101","101","101","101","0","0","101","0","0","101","101","101","0","101","0","Sun Oct 25 18:38:57 2020","The main experiment item","yes","SternbergTask.osexp","/Users/tforestmoore/Desktop/Tarleton/Fall 2020/Math/Lab3","no","mono","no","18","no","white","no","yes","768","legacy","89","11","/Users/tforestmoore/Desktop/Tarleton/Fall 2020/Math/Lab3/MM-subject-4.csv","legacy","3 2 1 4 7","Lentiform Loewenfeld","3.3.3","2","y","0","left","right","return","left","NA","905","28930","8146","905","NA","2","legacy","5","1024","2","48000","-16","experiment","4","even","2","654257","656494","653172","654241","2607","113504","622485","2623","105357","655275","658511","659417","31563","658511","NA","Sternberg Task","75","74108","102","yes","1024"
"73.7864077669903","73.7864077669903","724.2718446601941","724.2718446601941","black","experiment","legacy","legacy","legacy","0","uniform","1","undefined","1","left","102","102","102","102","0","0","102","0","0","102","102","102","0","102","0","Sun Oct 25 18:38:57 2020","The main experiment item","yes","SternbergTask.osexp","/Users/tforestmoore/Desktop/Tarleton/Fall 2020/Math/Lab3","no","mono","no","18","no","white","no","yes","768","legacy","90","11","/Users/tforestmoore/Desktop/Tarleton/Fall 2020/Math/Lab3/MM-subject-4.csv","legacy","4","Lentiform Loewenfeld","3.3.3","1","y","0","left","right","return","left","NA","492","28930","8146","492","NA","2","legacy","1","1024","2","48000","-16","experiment","4","even","4","660518","662755","659433","660502","2607","113504","622485","2623","105357","661535","664772","665265","31563","664772","NA","Sternberg Task","76","74600","103","yes","1024"
"74.03846153846153","74.03846153846153","722.4326923076923","722.4326923076923","black","experiment","legacy","legacy","legacy","0","uniform","1","undefined","1","left","103","103","103","103","0","0","103","0","0","103","103","103","0","103","0","Sun Oct 25 18:38:57 2020","The main experiment item","yes","SternbergTask.osexp","/Users/tforestmoore/Desktop/Tarleton/Fall 2020/Math/Lab3","no","mono","no","18","no","white","no","yes","768","legacy","91","11","/Users/tforestmoore/Desktop/Tarleton/Fall 2020/Math/Lab3/MM-subject-4.csv","legacy","7 4 2 6 3 5","Lentiform Loewenfeld","3.3.3","6","y","0","left","right","return","left","NA","533","28930","8146","533","NA","2","legacy","6","1024","2","48000","-16","experiment","4","even","5","666367","668603","665282","666351","2607","113504","622485","2623","105357","667384","670620","671154","31563","670620","NA","Sternberg Task","77","75133","104","yes","1024"
"74.28571428571429","74.28571428571429","721.7904761904762","721.7904761904762","black","experiment","legacy","legacy","legacy","0","uniform","1","undefined","1","right","104","104","104","104","0","0","104","0","0","104","104","104","0","104","0","Sun Oct 25 18:38:57 2020","The main experiment item","yes","SternbergTask.osexp","/Users/tforestmoore/Desktop/Tarleton/Fall 2020/Math/Lab3","no","mono","no","18","no","white","no","yes","768","legacy","92","11","/Users/tforestmoore/Desktop/Tarleton/Fall 2020/Math/Lab3/MM-subject-4.csv","legacy","5 9 2 3","Lentiform Loewenfeld","3.3.3","0","n","0","right","right","return","right","NA","655","28930","8146","655","NA","2","legacy","4","1024","2","48000","-16","experiment","4","even","8","672254","674490","671170","672238","2607","113504","622485","2623","105357","673271","676507","677163","31563","676507","NA","Sternberg Task","78","75788","105","yes","1024"
"74.52830188679245","74.52830188679245","719.9905660377359","719.9905660377359","black","experiment","legacy","legacy","legacy","0","uniform","1","undefined","1","left","105","105","105","105","0","0","105","0","0","105","105","105","0","105","0","Sun Oct 25 18:38:57 2020","The main experiment item","yes","SternbergTask.osexp","/Users/tforestmoore/Desktop/Tarleton/Fall 2020/Math/Lab3","no","mono","no","18","no","white","no","yes","768","legacy","93","11","/Users/tforestmoore/Desktop/Tarleton/Fall 2020/Math/Lab3/MM-subject-4.csv","legacy","8 9 5 6 7","Lentiform Loewenfeld","3.3.3","1","y","0","left","right","return","left","NA","531","28930","8146","531","NA","2","legacy","5","1024","2","48000","-16","experiment","4","even","8","678265","680502","677179","678249","2607","113504","622485","2623","105357","679283","682519","683051","31563","682519","NA","Sternberg Task","79","76319","106","yes","1024"
"74.76635514018692","74.76635514018692","718.8878504672897","718.8878504672897","black","experiment","legacy","legacy","legacy","0","uniform","1","undefined","1","left","106","106","106","106","0","0","106","0","0","106","106","106","0","106","0","Sun Oct 25 18:38:57 2020","The main experiment item","yes","SternbergTask.osexp","/Users/tforestmoore/Desktop/Tarleton/Fall 2020/Math/Lab3","no","mono","no","18","no","white","no","yes","768","legacy","94","11","/Users/tforestmoore/Desktop/Tarleton/Fall 2020/Math/Lab3/MM-subject-4.csv","legacy","7 6","Lentiform Loewenfeld","3.3.3","2","y","0","left","right","return","left","NA","602","28930","8146","602","NA","2","legacy","2","1024","2","48000","-16","experiment","4","even","6","684153","686389","683068","684136","2607","113504","622485","2623","105357","685170","688406","689009","31563","688406","NA","Sternberg Task","80","76921","107","yes","1024"
"75","75","717.7407407407408","717.7407407407408","black","experiment","legacy","legacy","legacy","0","uniform","1","undefined","1","left","107","107","107","107","0","0","107","0","0","107","107","107","0","107","0","Sun Oct 25 18:38:57 2020","The main experiment item","yes","SternbergTask.osexp","/Users/tforestmoore/Desktop/Tarleton/Fall 2020/Math/Lab3","no","mono","no","18","no","white","no","yes","768","legacy","95","11","/Users/tforestmoore/Desktop/Tarleton/Fall 2020/Math/Lab3/MM-subject-4.csv","legacy","2 4 6 9","Lentiform Loewenfeld","3.3.3","3","y","0","left","right","return","left","NA","595","28930","8146","595","NA","2","legacy","4","1024","2","48000","-16","experiment","4","even","6","690110","692347","689025","690094","2607","113504","622485","2623","105357","691128","694364","694961","31563","694364","NA","Sternberg Task","81","77516","108","yes","1024"
"75.22935779816514","75.22935779816514","715.6238532110092","715.6238532110092","black","experiment","legacy","legacy","legacy","0","uniform","1","undefined","1","left","108","108","108","108","0","0","108","0","0","108","108","108","0","108","0","Sun Oct 25 18:38:57 2020","The main experiment item","yes","SternbergTask.osexp","/Users/tforestmoore/Desktop/Tarleton/Fall 2020/Math/Lab3","no","mono","no","18","no","white","no","yes","768","legacy","96","11","/Users/tforestmoore/Desktop/Tarleton/Fall 2020/Math/Lab3/MM-subject-4.csv","legacy","8","Lentiform Loewenfeld","3.3.3","1","y","0","left","right","return","left","NA","487","28930","8146","487","NA","2","legacy","1","1024","2","48000","-16","experiment","4","even","8","696062","698298","694978","696046","2607","113504","622485","2623","105357","697079","700316","700804","31563","700316","NA","Sternberg Task","82","78003","109","yes","1024"
"75.45454545454545","75.45454545454545","717.4363636363636","717.4363636363636","black","experiment","legacy","legacy","legacy","0","uniform","1","undefined","1","right","109","109","109","109","0","0","109","0","0","109","109","109","0","109","0","Sun Oct 25 18:38:57 2020","The main experiment item","yes","SternbergTask.osexp","/Users/tforestmoore/Desktop/Tarleton/Fall 2020/Math/Lab3","no","mono","no","18","no","white","no","yes","768","legacy","97","11","/Users/tforestmoore/Desktop/Tarleton/Fall 2020/Math/Lab3/MM-subject-4.csv","legacy","6 8","Lentiform Loewenfeld","3.3.3","0","n","0","right","right","return","right","NA","915","28930","8146","915","NA","2","legacy","2","1024","2","48000","-16","experiment","4","even","9","701907","704143","700821","701890","2607","113504","622485","2623","105357","702924","706160","707076","31563","706160","NA","Sternberg Task","83","78918","110","yes","1024"
