"acc","accuracy","average_response_time","avg_rt","background","block","canvas_backend","clock_backend","color_backend","compensation","coordinates","correct","correct_Instructions1","correct_keyboard_response","correct_response","count_ISI","count_Instructions1","count_Practiceloop","count_closing","count_correctFeedback","count_experiment","count_experimentalLoop","count_expsequence","count_fixation","count_incorrectFeedback","count_instructions2","count_keyboard_response","count_logger","count_memoryset","count_probe","datetime","description","disable_garbage_collection","experiment_file","experiment_path","font_bold","font_family","font_italic","font_size","font_underline","foreground","form_clicks","fullscreen","height","keyboard_backend","live_row","live_row_Practiceloop","logfile","mouse_backend","numberSet","opensesame_codename","opensesame_version","posInSet","present","psychopy_suppress_warnings","repeat_cycle","response","response_Instructions1","response_closing","response_instructions2","response_keyboard_response","response_time","response_time_Instructions1","response_time_closing","response_time_instructions2","response_time_keyboard_response","round_decimals","sampler_backend","setSize","sound_buf_size","sound_channels","sound_freq","sound_sample_size","start","subject_nr","subject_parity","target","time_ISI","time_Instructions1","time_Practiceloop","time_closing","time_correctFeedback","time_experiment","time_experimentalLoop","time_expsequence","time_fixation","time_incorrectFeedback","time_instructions2","time_keyboard_response","time_logger","time_memoryset","time_probe","title","total_correct","total_response_time","total_responses","uniform_coordinates","width"
"100","100","622","622","black","practice","legacy","legacy","legacy","0","uniform","1","undefined","1","right","0","0","0","0","0","0","0","0","0","0","0","0","0","0","0","10/17/20 22:30:50","The main experiment item","yes","SternbergTask.osexp","C:/Users/User/Desktop/Quant 2020","no","mono","no","18","no","white","no","yes","768","legacy","0","0","C:/Users/User/Desktop/Quant 2020/Sternberg Task 3/subject-1.csv","legacy","2 1","Lentiform Loewenfeld","3.3.3","0","n","yes","0","right","right","NA","NA","right","622","21545","NA","NA","622","2","legacy","2","1024","2","48000","-16","experiment","1","odd","5","26714","1905","23452","NA","NA","1900","NA","24498","24501","NA","NA","28721","29343","25508","28720","Sternberg Task","1","622","1","yes","1024"
"100","100","733","733","black","practice","legacy","legacy","legacy","0","uniform","1","undefined","1","left","1","0","0","0","1","0","0","1","1","1","0","1","1","1","1","10/17/20 22:30:50","The main experiment item","yes","SternbergTask.osexp","C:/Users/User/Desktop/Quant 2020","no","mono","no","18","no","white","no","yes","768","legacy","1","1","C:/Users/User/Desktop/Quant 2020/Sternberg Task 3/subject-1.csv","legacy","1 5 2 9","Lentiform Loewenfeld","3.3.3","2","y","yes","0","left","right","NA","NA","left","844","21545","NA","NA","844","2","legacy","4","1024","2","48000","-16","experiment","1","odd","5","32783","1905","23452","NA","29422","1900","NA","30568","30571","NA","NA","34789","35633","31577","34788","Sternberg Task","2","1466","2","yes","1024"
"100","100","686","686","black","practice","legacy","legacy","legacy","0","uniform","1","undefined","1","right","2","0","0","0","2","0","0","2","2","2","0","2","2","2","2","10/17/20 22:30:50","The main experiment item","yes","SternbergTask.osexp","C:/Users/User/Desktop/Quant 2020","no","mono","no","18","no","white","no","yes","768","legacy","2","2","C:/Users/User/Desktop/Quant 2020/Sternberg Task 3/subject-1.csv","legacy","3 1 9 4","Lentiform Loewenfeld","3.3.3","0","n","yes","0","right","right","NA","NA","right","592","21545","NA","NA","592","2","legacy","4","1024","2","48000","-16","experiment","1","odd","6","38994","1905","23452","NA","35638","1900","NA","36779","36782","NA","NA","41002","41594","37787","41001","Sternberg Task","3","2058","3","yes","1024"
"100","100","797.5","797.5","black","practice","legacy","legacy","legacy","0","uniform","1","undefined","1","left","3","0","0","0","3","0","0","3","3","3","0","3","3","3","3","10/17/20 22:30:50","The main experiment item","yes","SternbergTask.osexp","C:/Users/User/Desktop/Quant 2020","no","mono","no","18","no","white","no","yes","768","legacy","3","3","C:/Users/User/Desktop/Quant 2020/Sternberg Task 3/subject-1.csv","legacy","2 9 4","Lentiform Loewenfeld","3.3.3","3","y","yes","0","left","right","NA","NA","left","1132","21545","NA","NA","1132","2","legacy","3","1024","2","48000","-16","experiment","1","odd","4","44953","1905","23452","NA","41600","1900","NA","42739","42741","NA","NA","46960","48093","43747","46959","Sternberg Task","4","3190","4","yes","1024"
"100","100","841.4","841.4","black","practice","legacy","legacy","legacy","0","uniform","1","undefined","1","left","4","0","0","0","4","0","0","4","4","4","0","4","4","4","4","10/17/20 22:30:50","The main experiment item","yes","SternbergTask.osexp","C:/Users/User/Desktop/Quant 2020","no","mono","no","18","no","white","no","yes","768","legacy","4","4","C:/Users/User/Desktop/Quant 2020/Sternberg Task 3/subject-1.csv","legacy","4 3 1 7 9 8","Lentiform Loewenfeld","3.3.3","1","y","yes","0","left","right","NA","NA","left","1017","21545","NA","NA","1017","2","legacy","6","1024","2","48000","-16","experiment","1","odd","4","51467","1905","23452","NA","48099","1900","NA","49253","49255","NA","NA","53474","54491","50261","53473","Sternberg Task","5","4207","5","yes","1024"
"100","100","893","893","black","practice","legacy","legacy","legacy","0","uniform","1","undefined","1","right","5","0","0","0","5","0","0","5","5","5","0","5","5","5","5","10/17/20 22:30:50","The main experiment item","yes","SternbergTask.osexp","C:/Users/User/Desktop/Quant 2020","no","mono","no","18","no","white","no","yes","768","legacy","5","5","C:/Users/User/Desktop/Quant 2020/Sternberg Task 3/subject-1.csv","legacy","5 7 8 4 1 2","Lentiform Loewenfeld","3.3.3","0","n","yes","0","right","right","NA","NA","right","1151","21545","NA","NA","1151","2","legacy","6","1024","2","48000","-16","experiment","1","odd","6","57855","1905","23452","NA","54497","1900","NA","55642","55644","NA","NA","59861","61013","56650","59861","Sternberg Task","6","5358","6","yes","1024"
"100","100","889.285714286","889.285714286","black","practice","legacy","legacy","legacy","0","uniform","1","undefined","1","left","6","0","0","0","6","0","0","6","6","6","0","6","6","6","6","10/17/20 22:30:50","The main experiment item","yes","SternbergTask.osexp","C:/Users/User/Desktop/Quant 2020","no","mono","no","18","no","white","no","yes","768","legacy","6","6","C:/Users/User/Desktop/Quant 2020/Sternberg Task 3/subject-1.csv","legacy","6","Lentiform Loewenfeld","3.3.3","1","y","yes","0","left","right","NA","NA","left","867","21545","NA","NA","867","2","legacy","1","1024","2","48000","-16","experiment","1","odd","6","64363","1905","23452","NA","61018","1900","NA","62149","62151","NA","NA","66371","67239","63157","66370","Sternberg Task","7","6225","7","yes","1024"
"100","100","883.875","883.875","black","practice","legacy","legacy","legacy","0","uniform","1","undefined","1","right","7","0","0","0","7","0","0","7","7","7","0","7","7","7","7","10/17/20 22:30:50","The main experiment item","yes","SternbergTask.osexp","C:/Users/User/Desktop/Quant 2020","no","mono","no","18","no","white","no","yes","768","legacy","7","7","C:/Users/User/Desktop/Quant 2020/Sternberg Task 3/subject-1.csv","legacy","9 6 7 4 5","Lentiform Loewenfeld","3.3.3","0","n","yes","0","right","right","NA","NA","right","846","21545","NA","NA","846","2","legacy","5","1024","2","48000","-16","experiment","1","odd","3","70598","1905","23452","NA","67244","1900","NA","68384","68386","NA","NA","72605","73452","69391","72604","Sternberg Task","8","7071","8","yes","1024"
"100","100","855.555555556","855.555555556","black","practice","legacy","legacy","legacy","0","uniform","1","undefined","1","right","8","0","0","0","8","0","0","8","8","8","0","8","8","8","8","10/17/20 22:30:50","The main experiment item","yes","SternbergTask.osexp","C:/Users/User/Desktop/Quant 2020","no","mono","no","18","no","white","no","yes","768","legacy","8","8","C:/Users/User/Desktop/Quant 2020/Sternberg Task 3/subject-1.csv","legacy","5","Lentiform Loewenfeld","3.3.3","0","n","yes","0","right","right","NA","NA","right","629","21545","NA","NA","629","2","legacy","1","1024","2","48000","-16","experiment","1","odd","3","76807","1905","23452","NA","73457","1900","NA","74593","74595","NA","NA","78813","79442","75601","78813","Sternberg Task","9","7700","9","yes","1024"
"100","100","879.2","879.2","black","practice","legacy","legacy","legacy","0","uniform","1","undefined","1","left","9","0","0","0","9","0","0","9","9","9","0","9","9","9","9","10/17/20 22:30:50","The main experiment item","yes","SternbergTask.osexp","C:/Users/User/Desktop/Quant 2020","no","mono","no","18","no","white","no","yes","768","legacy","9","9","C:/Users/User/Desktop/Quant 2020/Sternberg Task 3/subject-1.csv","legacy","1 7 9 8 5","Lentiform Loewenfeld","3.3.3","4","y","yes","0","left","right","NA","NA","left","1092","21545","NA","NA","1092","2","legacy","5","1024","2","48000","-16","experiment","1","odd","8","82803","1905","23452","NA","79448","1900","NA","80589","80592","NA","NA","84811","85903","81598","84810","Sternberg Task","10","8792","10","yes","1024"
"100","100","875.272727273","875.272727273","black","practice","legacy","legacy","legacy","0","uniform","1","undefined","1","right","10","0","0","0","10","0","0","10","10","10","0","10","10","10","10","10/17/20 22:30:50","The main experiment item","yes","SternbergTask.osexp","C:/Users/User/Desktop/Quant 2020","no","mono","no","18","no","white","no","yes","768","legacy","10","10","C:/Users/User/Desktop/Quant 2020/Sternberg Task 3/subject-1.csv","legacy","4 1 5","Lentiform Loewenfeld","3.3.3","0","n","yes","0","right","right","NA","NA","right","836","21545","NA","NA","836","2","legacy","3","1024","2","48000","-16","experiment","1","odd","2","89259","1905","23452","NA","85909","1900","NA","87044","87046","NA","NA","91266","92103","88052","91265","Sternberg Task","11","9628","11","yes","1024"
"100","100","842.666666667","842.666666667","black","practice","legacy","legacy","legacy","0","uniform","1","undefined","1","left","11","0","0","0","11","0","0","11","11","11","0","11","11","11","11","10/17/20 22:30:50","The main experiment item","yes","SternbergTask.osexp","C:/Users/User/Desktop/Quant 2020","no","mono","no","18","no","white","no","yes","768","legacy","11","11","C:/Users/User/Desktop/Quant 2020/Sternberg Task 3/subject-1.csv","legacy","4 8","Lentiform Loewenfeld","3.3.3","1","y","yes","0","left","right","NA","NA","left","484","21545","NA","NA","484","2","legacy","2","1024","2","48000","-16","experiment","1","odd","4","95465","1905","23452","NA","92108","1900","NA","93250","93252","NA","NA","97472","97957","94258","97472","Sternberg Task","12","10112","12","yes","1024"
"92.3076923077","92.3076923077","829.384615385","829.384615385","black","experiment","legacy","legacy","legacy","0","uniform","0","undefined","0","left","12","0","0","0","12","0","0","12","12","12","0","12","12","12","12","10/17/20 22:30:50","The main experiment item","yes","SternbergTask.osexp","C:/Users/User/Desktop/Quant 2020","no","mono","no","18","no","white","no","yes","768","legacy","0","11","C:/Users/User/Desktop/Quant 2020/Sternberg Task 3/subject-1.csv","legacy","7 1 3","Lentiform Loewenfeld","3.3.3","2","y","yes","0","right","right","NA","left","right","670","21545","NA","10835","670","2","legacy","3","1024","2","48000","-16","experiment","1","odd","1","112214","1905","23452","NA","97962","1900","109840","110000","110003","NA","99004","114222","114893","111008","114221","Sternberg Task","12","10782","13","yes","1024"
"92.8571428571","92.8571428571","831.5","831.5","black","experiment","legacy","legacy","legacy","0","uniform","1","undefined","1","right","13","0","0","0","13","0","0","13","13","13","0","13","13","13","13","10/17/20 22:30:50","The main experiment item","yes","SternbergTask.osexp","C:/Users/User/Desktop/Quant 2020","no","mono","no","18","no","white","no","yes","768","legacy","1","11","C:/Users/User/Desktop/Quant 2020/Sternberg Task 3/subject-1.csv","legacy","1 6 4 3 9 7","Lentiform Loewenfeld","3.3.3","0","n","yes","0","right","right","NA","left","right","859","21545","NA","10835","859","2","legacy","6","1024","2","48000","-16","experiment","1","odd","8","118249","1905","23452","NA","97962","1900","109840","116033","116036","114898","99004","120256","121116","117041","120255","Sternberg Task","13","11641","14","yes","1024"
"93.3333333333","93.3333333333","835.133333333","835.133333333","black","experiment","legacy","legacy","legacy","0","uniform","1","undefined","1","right","14","0","0","0","14","0","0","14","14","14","0","14","14","14","14","10/17/20 22:30:50","The main experiment item","yes","SternbergTask.osexp","C:/Users/User/Desktop/Quant 2020","no","mono","no","18","no","white","no","yes","768","legacy","2","11","C:/Users/User/Desktop/Quant 2020/Sternberg Task 3/subject-1.csv","legacy","5 3 8 7 2 4","Lentiform Loewenfeld","3.3.3","0","n","yes","0","right","right","NA","left","right","886","21545","NA","10835","886","2","legacy","6","1024","2","48000","-16","experiment","1","odd","9","124477","1905","23452","NA","121121","1900","109840","122262","122264","114898","99004","126484","127371","123270","126483","Sternberg Task","14","12527","15","yes","1024"
"93.75","93.75","825.4375","825.4375","black","experiment","legacy","legacy","legacy","0","uniform","1","undefined","1","right","15","0","0","0","15","0","0","15","15","15","0","15","15","15","15","10/17/20 22:30:50","The main experiment item","yes","SternbergTask.osexp","C:/Users/User/Desktop/Quant 2020","no","mono","no","18","no","white","no","yes","768","legacy","3","11","C:/Users/User/Desktop/Quant 2020/Sternberg Task 3/subject-1.csv","legacy","1 6 4","Lentiform Loewenfeld","3.3.3","0","n","yes","0","right","right","NA","left","right","680","21545","NA","10835","680","2","legacy","3","1024","2","48000","-16","experiment","1","odd","7","130719","1905","23452","NA","127376","1900","109840","128509","128512","114898","99004","132726","133407","129514","132725","Sternberg Task","15","13207","16","yes","1024"
"94.1176470588","94.1176470588","809.470588235","809.470588235","black","experiment","legacy","legacy","legacy","0","uniform","1","undefined","1","left","16","0","0","0","16","0","0","16","16","16","0","16","16","16","16","10/17/20 22:30:50","The main experiment item","yes","SternbergTask.osexp","C:/Users/User/Desktop/Quant 2020","no","mono","no","18","no","white","no","yes","768","legacy","4","11","C:/Users/User/Desktop/Quant 2020/Sternberg Task 3/subject-1.csv","legacy","3 5 4 7","Lentiform Loewenfeld","3.3.3","1","y","yes","0","left","right","NA","left","left","554","21545","NA","10835","554","2","legacy","4","1024","2","48000","-16","experiment","1","odd","3","136762","1905","23452","NA","133412","1900","109840","134547","134549","114898","99004","138769","139324","135556","138769","Sternberg Task","16","13761","17","yes","1024"
"94.4444444444","94.4444444444","823.222222222","823.222222222","black","experiment","legacy","legacy","legacy","0","uniform","1","undefined","1","left","17","0","0","0","17","0","0","17","17","17","0","17","17","17","17","10/17/20 22:30:50","The main experiment item","yes","SternbergTask.osexp","C:/Users/User/Desktop/Quant 2020","no","mono","no","18","no","white","no","yes","768","legacy","5","11","C:/Users/User/Desktop/Quant 2020/Sternberg Task 3/subject-1.csv","legacy","3 2 1 4 7","Lentiform Loewenfeld","3.3.3","2","y","yes","0","left","right","NA","left","left","1057","21545","NA","10835","1057","2","legacy","5","1024","2","48000","-16","experiment","1","odd","2","142685","1905","23452","NA","139329","1900","109840","140471","140473","114898","99004","144691","145749","141478","144690","Sternberg Task","17","14818","18","yes","1024"
"94.7368421053","94.7368421053","814.052631579","814.052631579","black","experiment","legacy","legacy","legacy","0","uniform","1","undefined","1","right","18","0","0","0","18","0","0","18","18","18","0","18","18","18","18","10/17/20 22:30:50","The main experiment item","yes","SternbergTask.osexp","C:/Users/User/Desktop/Quant 2020","no","mono","no","18","no","white","no","yes","768","legacy","6","11","C:/Users/User/Desktop/Quant 2020/Sternberg Task 3/subject-1.csv","legacy","4 2 6 9","Lentiform Loewenfeld","3.3.3","0","n","yes","0","right","right","NA","left","right","649","21545","NA","10835","649","2","legacy","4","1024","2","48000","-16","experiment","1","odd","7","149104","1905","23452","NA","145754","1900","109840","146890","146893","114898","99004","151112","151762","147899","151111","Sternberg Task","18","15467","19","yes","1024"
"95","95","807.1","807.1","black","experiment","legacy","legacy","legacy","0","uniform","1","undefined","1","right","19","0","0","0","19","0","0","19","19","19","0","19","19","19","19","10/17/20 22:30:50","The main experiment item","yes","SternbergTask.osexp","C:/Users/User/Desktop/Quant 2020","no","mono","no","18","no","white","no","yes","768","legacy","7","11","C:/Users/User/Desktop/Quant 2020/Sternberg Task 3/subject-1.csv","legacy","8 4 3 5","Lentiform Loewenfeld","3.3.3","0","n","yes","0","right","right","NA","left","right","675","21545","NA","10835","675","2","legacy","4","1024","2","48000","-16","experiment","1","odd","6","155118","1905","23452","NA","151767","1900","109840","152903","152906","114898","99004","157126","157802","153912","157125","Sternberg Task","19","16142","20","yes","1024"
"95.2380952381","95.2380952381","805.19047619","805.19047619","black","experiment","legacy","legacy","legacy","0","uniform","1","undefined","1","right","20","0","0","0","20","0","0","20","20","20","0","20","20","20","20","10/17/20 22:30:50","The main experiment item","yes","SternbergTask.osexp","C:/Users/User/Desktop/Quant 2020","no","mono","no","18","no","white","no","yes","768","legacy","8","11","C:/Users/User/Desktop/Quant 2020/Sternberg Task 3/subject-1.csv","legacy","1 3 2 6 9","Lentiform Loewenfeld","3.3.3","0","n","yes","0","right","right","NA","left","right","767","21545","NA","10835","767","2","legacy","5","1024","2","48000","-16","experiment","1","odd","5","161149","1905","23452","NA","157806","1900","109840","158934","158937","114898","99004","163156","163924","159943","163155","Sternberg Task","20","16909","21","yes","1024"
"90.9090909091","90.9090909091","798.272727273","798.272727273","black","experiment","legacy","legacy","legacy","0","uniform","0","undefined","0","right","21","0","0","0","21","0","0","21","21","21","0","21","21","21","21","10/17/20 22:30:50","The main experiment item","yes","SternbergTask.osexp","C:/Users/User/Desktop/Quant 2020","no","mono","no","18","no","white","no","yes","768","legacy","9","11","C:/Users/User/Desktop/Quant 2020/Sternberg Task 3/subject-1.csv","legacy","7 9 1 6","Lentiform Loewenfeld","3.3.3","0","n","yes","0","left","right","NA","left","left","653","21545","NA","10835","653","2","legacy","4","1024","2","48000","-16","experiment","1","odd","4","167286","1905","23452","NA","163929","1900","109840","165071","165074","114898","99004","169289","169942","166080","169289","Sternberg Task","20","17562","22","yes","1024"
"91.3043478261","91.3043478261","801.695652174","801.695652174","black","experiment","legacy","legacy","legacy","0","uniform","1","undefined","1","right","22","0","0","0","22","0","0","22","22","22","0","22","22","22","22","10/17/20 22:30:50","The main experiment item","yes","SternbergTask.osexp","C:/Users/User/Desktop/Quant 2020","no","mono","no","18","no","white","no","yes","768","legacy","10","11","C:/Users/User/Desktop/Quant 2020/Sternberg Task 3/subject-1.csv","legacy","1 4 3 6 5","Lentiform Loewenfeld","3.3.3","0","n","yes","0","right","right","NA","left","right","877","21545","NA","10835","877","2","legacy","5","1024","2","48000","-16","experiment","1","odd","8","173294","1905","23452","NA","163929","1900","109840","171081","171083","169948","99004","175302","176180","172089","175301","Sternberg Task","21","18439","23","yes","1024"
"91.6666666667","91.6666666667","808.291666667","808.291666667","black","experiment","legacy","legacy","legacy","0","uniform","1","undefined","1","left","23","0","0","0","23","0","0","23","23","23","0","23","23","23","23","10/17/20 22:30:50","The main experiment item","yes","SternbergTask.osexp","C:/Users/User/Desktop/Quant 2020","no","mono","no","18","no","white","no","yes","768","legacy","11","11","C:/Users/User/Desktop/Quant 2020/Sternberg Task 3/subject-1.csv","legacy","6 9 7 4 5 1","Lentiform Loewenfeld","3.3.3","2","y","yes","0","left","right","NA","left","left","960","21545","NA","10835","960","2","legacy","6","1024","2","48000","-16","experiment","1","odd","9","179534","1905","23452","NA","176185","1900","109840","177319","177321","169948","99004","181541","182502","178328","181540","Sternberg Task","22","19399","24","yes","1024"
"92","92","802.28","802.28","black","experiment","legacy","legacy","legacy","0","uniform","1","undefined","1","right","24","0","0","0","24","0","0","24","24","24","0","24","24","24","24","10/17/20 22:30:50","The main experiment item","yes","SternbergTask.osexp","C:/Users/User/Desktop/Quant 2020","no","mono","no","18","no","white","no","yes","768","legacy","12","11","C:/Users/User/Desktop/Quant 2020/Sternberg Task 3/subject-1.csv","legacy","1 7 5 2","Lentiform Loewenfeld","3.3.3","0","n","yes","0","right","right","NA","left","right","658","21545","NA","10835","658","2","legacy","4","1024","2","48000","-16","experiment","1","odd","3","185861","1905","23452","NA","182509","1900","109840","183647","183649","169948","99004","187867","188526","184656","187867","Sternberg Task","23","20057","25","yes","1024"
"92.3076923077","92.3076923077","807.961538462","807.961538462","black","experiment","legacy","legacy","legacy","0","uniform","1","undefined","1","right","25","0","0","0","25","0","0","25","25","25","0","25","25","25","25","10/17/20 22:30:50","The main experiment item","yes","SternbergTask.osexp","C:/Users/User/Desktop/Quant 2020","no","mono","no","18","no","white","no","yes","768","legacy","13","11","C:/Users/User/Desktop/Quant 2020/Sternberg Task 3/subject-1.csv","legacy","1 7 8 3 9","Lentiform Loewenfeld","3.3.3","0","n","yes","0","right","right","NA","left","right","950","21545","NA","10835","950","2","legacy","5","1024","2","48000","-16","experiment","1","odd","2","191867","1905","23452","NA","188531","1900","109840","189652","189654","169948","99004","193873","194823","190659","193873","Sternberg Task","24","21007","26","yes","1024"
"92.5925925926","92.5925925926","809.407407407","809.407407407","black","experiment","legacy","legacy","legacy","0","uniform","1","undefined","1","left","26","0","0","0","26","0","0","26","26","26","0","26","26","26","26","10/17/20 22:30:50","The main experiment item","yes","SternbergTask.osexp","C:/Users/User/Desktop/Quant 2020","no","mono","no","18","no","white","no","yes","768","legacy","14","11","C:/Users/User/Desktop/Quant 2020/Sternberg Task 3/subject-1.csv","legacy","3 9 7 6 4","Lentiform Loewenfeld","3.3.3","3","y","yes","0","left","right","NA","left","left","847","21545","NA","10835","847","2","legacy","5","1024","2","48000","-16","experiment","1","odd","7","198183","1905","23452","NA","194829","1900","109840","195969","195971","169948","99004","200189","201037","196977","200189","Sternberg Task","25","21854","27","yes","1024"
"89.2857142857","89.2857142857","805.928571429","805.928571429","black","experiment","legacy","legacy","legacy","0","uniform","0","undefined","0","left","27","0","0","0","27","0","0","27","27","27","0","27","27","27","27","10/17/20 22:30:50","The main experiment item","yes","SternbergTask.osexp","C:/Users/User/Desktop/Quant 2020","no","mono","no","18","no","white","no","yes","768","legacy","15","11","C:/Users/User/Desktop/Quant 2020/Sternberg Task 3/subject-1.csv","legacy","5 2 9 6 1 7","Lentiform Loewenfeld","3.3.3","3","y","yes","0","right","right","NA","left","right","712","21545","NA","10835","712","2","legacy","6","1024","2","48000","-16","experiment","1","odd","9","204397","1905","23452","NA","201042","1900","109840","202181","202183","169948","99004","206404","207117","203190","206403","Sternberg Task","25","22566","28","yes","1024"
"89.6551724138","89.6551724138","798.931034483","798.931034483","black","experiment","legacy","legacy","legacy","0","uniform","1","undefined","1","right","28","0","0","0","28","0","0","28","28","28","0","28","28","28","28","10/17/20 22:30:50","The main experiment item","yes","SternbergTask.osexp","C:/Users/User/Desktop/Quant 2020","no","mono","no","18","no","white","no","yes","768","legacy","16","11","C:/Users/User/Desktop/Quant 2020/Sternberg Task 3/subject-1.csv","legacy","1 4 9 3","Lentiform Loewenfeld","3.3.3","0","n","yes","0","right","right","NA","left","right","603","21545","NA","10835","603","2","legacy","4","1024","2","48000","-16","experiment","1","odd","5","210470","1905","23452","NA","201042","1900","109840","208256","208258","207122","99004","212476","213080","209263","212475","Sternberg Task","26","23169","29","yes","1024"
"90","90","792.7","792.7","black","experiment","legacy","legacy","legacy","0","uniform","1","undefined","1","right","29","0","0","0","29","0","0","29","29","29","0","29","29","29","29","10/17/20 22:30:50","The main experiment item","yes","SternbergTask.osexp","C:/Users/User/Desktop/Quant 2020","no","mono","no","18","no","white","no","yes","768","legacy","17","11","C:/Users/User/Desktop/Quant 2020/Sternberg Task 3/subject-1.csv","legacy","3 9 1","Lentiform Loewenfeld","3.3.3","0","n","yes","0","right","right","NA","left","right","612","21545","NA","10835","612","2","legacy","3","1024","2","48000","-16","experiment","1","odd","7","216431","1905","23452","NA","213085","1900","109840","214219","214222","207122","99004","218439","219051","215227","218438","Sternberg Task","27","23781","30","yes","1024"
"90.3225806452","90.3225806452","787.032258065","787.032258065","black","experiment","legacy","legacy","legacy","0","uniform","1","undefined","1","right","30","0","0","0","30","0","0","30","30","30","0","30","30","30","30","10/17/20 22:30:50","The main experiment item","yes","SternbergTask.osexp","C:/Users/User/Desktop/Quant 2020","no","mono","no","18","no","white","no","yes","768","legacy","18","11","C:/Users/User/Desktop/Quant 2020/Sternberg Task 3/subject-1.csv","legacy","5","Lentiform Loewenfeld","3.3.3","0","n","yes","0","right","right","NA","left","right","617","21545","NA","10835","617","2","legacy","1","1024","2","48000","-16","experiment","1","odd","8","222402","1905","23452","NA","219057","1900","109840","220188","220191","207122","99004","224409","225027","221196","224408","Sternberg Task","28","24398","31","yes","1024"
"90.625","90.625","809.09375","809.09375","black","experiment","legacy","legacy","legacy","0","uniform","1","undefined","1","right","31","0","0","0","31","0","0","31","31","31","0","31","31","31","31","10/17/20 22:30:50","The main experiment item","yes","SternbergTask.osexp","C:/Users/User/Desktop/Quant 2020","no","mono","no","18","no","white","no","yes","768","legacy","19","11","C:/Users/User/Desktop/Quant 2020/Sternberg Task 3/subject-1.csv","legacy","4 8 1 2","Lentiform Loewenfeld","3.3.3","0","n","yes","0","right","right","NA","left","right","1493","21545","NA","10835","1493","2","legacy","4","1024","2","48000","-16","experiment","1","odd","7","228384","1905","23452","NA","225033","1900","109840","226170","226172","207122","99004","230390","231884","227177","230390","Sternberg Task","29","25891","32","yes","1024"
"90.9090909091","90.9090909091","813.272727273","813.272727273","black","experiment","legacy","legacy","legacy","0","uniform","1","undefined","1","right","32","0","0","0","32","0","0","32","32","32","0","32","32","32","32","10/17/20 22:30:50","The main experiment item","yes","SternbergTask.osexp","C:/Users/User/Desktop/Quant 2020","no","mono","no","18","no","white","no","yes","768","legacy","20","11","C:/Users/User/Desktop/Quant 2020/Sternberg Task 3/subject-1.csv","legacy","6 8","Lentiform Loewenfeld","3.3.3","0","n","yes","0","right","right","NA","left","right","947","21545","NA","10835","947","2","legacy","2","1024","2","48000","-16","experiment","1","odd","9","235243","1905","23452","NA","231889","1900","109840","233029","233032","207122","99004","237251","238199","234038","237250","Sternberg Task","30","26838","33","yes","1024"
"91.1764705882","91.1764705882","824.970588235","824.970588235","black","experiment","legacy","legacy","legacy","0","uniform","1","undefined","1","right","33","0","0","0","33","0","0","33","33","33","0","33","33","33","33","10/17/20 22:30:50","The main experiment item","yes","SternbergTask.osexp","C:/Users/User/Desktop/Quant 2020","no","mono","no","18","no","white","no","yes","768","legacy","21","11","C:/Users/User/Desktop/Quant 2020/Sternberg Task 3/subject-1.csv","legacy","3 4 9 6 7 8","Lentiform Loewenfeld","3.3.3","0","n","yes","0","right","right","NA","left","right","1211","21545","NA","10835","1211","2","legacy","6","1024","2","48000","-16","experiment","1","odd","2","241554","1905","23452","NA","238204","1900","109840","239339","239342","207122","99004","243561","244773","240348","243560","Sternberg Task","31","28049","34","yes","1024"
"91.4285714286","91.4285714286","817.571428571","817.571428571","black","experiment","legacy","legacy","legacy","0","uniform","1","undefined","1","left","34","0","0","0","34","0","0","34","34","34","0","34","34","34","34","10/17/20 22:30:50","The main experiment item","yes","SternbergTask.osexp","C:/Users/User/Desktop/Quant 2020","no","mono","no","18","no","white","no","yes","768","legacy","22","11","C:/Users/User/Desktop/Quant 2020/Sternberg Task 3/subject-1.csv","legacy","4 6 5 8","Lentiform Loewenfeld","3.3.3","1","y","yes","0","left","right","NA","left","left","566","21545","NA","10835","566","2","legacy","4","1024","2","48000","-16","experiment","1","odd","4","248135","1905","23452","NA","244779","1900","109840","245919","245922","207122","99004","250143","250710","246928","250142","Sternberg Task","32","28615","35","yes","1024"
"91.6666666667","91.6666666667","814.944444444","814.944444444","black","experiment","legacy","legacy","legacy","0","uniform","1","undefined","1","left","35","0","0","0","35","0","0","35","35","35","0","35","35","35","35","10/17/20 22:30:50","The main experiment item","yes","SternbergTask.osexp","C:/Users/User/Desktop/Quant 2020","no","mono","no","18","no","white","no","yes","768","legacy","23","11","C:/Users/User/Desktop/Quant 2020/Sternberg Task 3/subject-1.csv","legacy","8","Lentiform Loewenfeld","3.3.3","1","y","yes","0","left","right","NA","left","left","723","21545","NA","10835","723","2","legacy","1","1024","2","48000","-16","experiment","1","odd","8","254055","1905","23452","NA","250715","1900","109840","251841","251843","207122","99004","256062","256786","252849","256061","Sternberg Task","33","29338","36","yes","1024"
"91.8918918919","91.8918918919","818.243243243","818.243243243","black","experiment","legacy","legacy","legacy","0","uniform","1","undefined","1","left","36","0","0","0","36","0","0","36","36","36","0","36","36","36","36","10/17/20 22:30:50","The main experiment item","yes","SternbergTask.osexp","C:/Users/User/Desktop/Quant 2020","no","mono","no","18","no","white","no","yes","768","legacy","24","11","C:/Users/User/Desktop/Quant 2020/Sternberg Task 3/subject-1.csv","legacy","4 9 7 8 5 3","Lentiform Loewenfeld","3.3.3","4","y","yes","0","left","right","NA","left","left","937","21545","NA","10835","937","2","legacy","6","1024","2","48000","-16","experiment","1","odd","8","260143","1905","23452","NA","256791","1900","109840","257929","257931","207122","99004","262150","263088","258937","262150","Sternberg Task","34","30275","37","yes","1024"
"92.1052631579","92.1052631579","816.289473684","816.289473684","black","experiment","legacy","legacy","legacy","0","uniform","1","undefined","1","left","37","0","0","0","37","0","0","37","37","37","0","37","37","37","37","10/17/20 22:30:50","The main experiment item","yes","SternbergTask.osexp","C:/Users/User/Desktop/Quant 2020","no","mono","no","18","no","white","no","yes","768","legacy","25","11","C:/Users/User/Desktop/Quant 2020/Sternberg Task 3/subject-1.csv","legacy","5 2 6","Lentiform Loewenfeld","3.3.3","2","y","yes","0","left","right","NA","left","left","744","21545","NA","10835","744","2","legacy","3","1024","2","48000","-16","experiment","1","odd","2","266438","1905","23452","NA","263093","1900","109840","264225","264227","207122","99004","268445","269190","265233","268444","Sternberg Task","35","31019","38","yes","1024"
"92.3076923077","92.3076923077","811.641025641","811.641025641","black","experiment","legacy","legacy","legacy","0","uniform","1","undefined","1","right","38","0","0","0","38","0","0","38","38","38","0","38","38","38","38","10/17/20 22:30:50","The main experiment item","yes","SternbergTask.osexp","C:/Users/User/Desktop/Quant 2020","no","mono","no","18","no","white","no","yes","768","legacy","26","11","C:/Users/User/Desktop/Quant 2020/Sternberg Task 3/subject-1.csv","legacy","6 9 5","Lentiform Loewenfeld","3.3.3","0","n","yes","0","right","right","NA","left","right","635","21545","NA","10835","635","2","legacy","3","1024","2","48000","-16","experiment","1","odd","8","272548","1905","23452","NA","269195","1900","109840","270333","270336","207122","99004","274555","275191","271341","274554","Sternberg Task","36","31654","39","yes","1024"
"92.5","92.5","819.05","819.05","black","experiment","legacy","legacy","legacy","0","uniform","1","undefined","1","right","39","0","0","0","39","0","0","39","39","39","0","39","39","39","39","10/17/20 22:30:50","The main experiment item","yes","SternbergTask.osexp","C:/Users/User/Desktop/Quant 2020","no","mono","no","18","no","white","no","yes","768","legacy","27","11","C:/Users/User/Desktop/Quant 2020/Sternberg Task 3/subject-1.csv","legacy","7 1 5 6 3","Lentiform Loewenfeld","3.3.3","0","n","yes","0","right","right","NA","left","right","1108","21545","NA","10835","1108","2","legacy","5","1024","2","48000","-16","experiment","1","odd","8","278554","1905","23452","NA","275196","1900","109840","276339","276342","207122","99004","280560","281669","277348","280560","Sternberg Task","37","32762","40","yes","1024"
"92.6829268293","92.6829268293","814.414634146","814.414634146","black","experiment","legacy","legacy","legacy","0","uniform","1","undefined","1","right","40","0","0","0","40","0","0","40","40","40","0","40","40","40","40","10/17/20 22:30:50","The main experiment item","yes","SternbergTask.osexp","C:/Users/User/Desktop/Quant 2020","no","mono","no","18","no","white","no","yes","768","legacy","28","11","C:/Users/User/Desktop/Quant 2020/Sternberg Task 3/subject-1.csv","legacy","1","Lentiform Loewenfeld","3.3.3","0","n","yes","0","right","right","NA","left","right","629","21545","NA","10835","629","2","legacy","1","1024","2","48000","-16","experiment","1","odd","7","285024","1905","23452","NA","281674","1900","109840","282809","282812","207122","99004","287032","287662","283818","287031","Sternberg Task","38","33391","41","yes","1024"
"92.8571428571","92.8571428571","810.142857143","810.142857143","black","experiment","legacy","legacy","legacy","0","uniform","1","undefined","1","right","41","0","0","0","41","0","0","41","41","41","0","41","41","41","41","10/17/20 22:30:50","The main experiment item","yes","SternbergTask.osexp","C:/Users/User/Desktop/Quant 2020","no","mono","no","18","no","white","no","yes","768","legacy","29","11","C:/Users/User/Desktop/Quant 2020/Sternberg Task 3/subject-1.csv","legacy","7 8 6 1","Lentiform Loewenfeld","3.3.3","0","n","yes","0","right","right","NA","left","right","635","21545","NA","10835","635","2","legacy","4","1024","2","48000","-16","experiment","1","odd","3","291021","1905","23452","NA","287667","1900","109840","288804","288806","207122","99004","293027","293663","289813","293026","Sternberg Task","39","34026","42","yes","1024"
"93.023255814","93.023255814","817","817","black","experiment","legacy","legacy","legacy","0","uniform","1","undefined","1","right","42","0","0","0","42","0","0","42","42","42","0","42","42","42","42","10/17/20 22:30:50","The main experiment item","yes","SternbergTask.osexp","C:/Users/User/Desktop/Quant 2020","no","mono","no","18","no","white","no","yes","768","legacy","30","11","C:/Users/User/Desktop/Quant 2020/Sternberg Task 3/subject-1.csv","legacy","6 9 4 5 2","Lentiform Loewenfeld","3.3.3","0","n","yes","0","right","right","NA","left","right","1105","21545","NA","10835","1105","2","legacy","5","1024","2","48000","-16","experiment","1","odd","1","297023","1905","23452","NA","293668","1900","109840","294808","294810","207122","99004","299029","300135","295816","299028","Sternberg Task","40","35131","43","yes","1024"
"93.1818181818","93.1818181818","809.954545455","809.954545455","black","experiment","legacy","legacy","legacy","0","uniform","1","undefined","1","left","43","0","0","0","43","0","0","43","43","43","0","43","43","43","43","10/17/20 22:30:50","The main experiment item","yes","SternbergTask.osexp","C:/Users/User/Desktop/Quant 2020","no","mono","no","18","no","white","no","yes","768","legacy","31","11","C:/Users/User/Desktop/Quant 2020/Sternberg Task 3/subject-1.csv","legacy","2 3 7 4","Lentiform Loewenfeld","3.3.3","1","y","yes","0","left","right","NA","left","left","507","21545","NA","10835","507","2","legacy","4","1024","2","48000","-16","experiment","1","odd","2","303490","1905","23452","NA","300140","1900","109840","301275","301278","207122","99004","305496","306004","302284","305496","Sternberg Task","41","35638","44","yes","1024"
"93.3333333333","93.3333333333","811.111111111","811.111111111","black","experiment","legacy","legacy","legacy","0","uniform","1","undefined","1","left","44","0","0","0","44","0","0","44","44","44","0","44","44","44","44","10/17/20 22:30:50","The main experiment item","yes","SternbergTask.osexp","C:/Users/User/Desktop/Quant 2020","no","mono","no","18","no","white","no","yes","768","legacy","32","11","C:/Users/User/Desktop/Quant 2020/Sternberg Task 3/subject-1.csv","legacy","4 6 2 5 1","Lentiform Loewenfeld","3.3.3","5","y","yes","0","left","right","NA","left","left","862","21545","NA","10835","862","2","legacy","5","1024","2","48000","-16","experiment","1","odd","1","309366","1905","23452","NA","306009","1900","109840","307150","307153","207122","99004","311373","312236","308159","311373","Sternberg Task","42","36500","45","yes","1024"
"93.4782608696","93.4782608696","811.195652174","811.195652174","black","experiment","legacy","legacy","legacy","0","uniform","1","undefined","1","left","45","0","0","0","45","0","0","45","45","45","0","45","45","45","45","10/17/20 22:30:50","The main experiment item","yes","SternbergTask.osexp","C:/Users/User/Desktop/Quant 2020","no","mono","no","18","no","white","no","yes","768","legacy","33","11","C:/Users/User/Desktop/Quant 2020/Sternberg Task 3/subject-1.csv","legacy","8 1 6","Lentiform Loewenfeld","3.3.3","3","y","yes","0","left","right","NA","left","left","815","21545","NA","10835","815","2","legacy","3","1024","2","48000","-16","experiment","1","odd","6","315590","1905","23452","NA","312241","1900","109840","313376","313378","207122","99004","317597","318413","314384","317596","Sternberg Task","43","37315","46","yes","1024"
"93.6170212766","93.6170212766","812.042553191","812.042553191","black","experiment","legacy","legacy","legacy","0","uniform","1","undefined","1","left","46","0","0","0","46","0","0","46","46","46","0","46","46","46","46","10/17/20 22:30:50","The main experiment item","yes","SternbergTask.osexp","C:/Users/User/Desktop/Quant 2020","no","mono","no","18","no","white","no","yes","768","legacy","34","11","C:/Users/User/Desktop/Quant 2020/Sternberg Task 3/subject-1.csv","legacy","9 4 2","Lentiform Loewenfeld","3.3.3","1","y","yes","0","left","right","NA","left","left","851","21545","NA","10835","851","2","legacy","3","1024","2","48000","-16","experiment","1","odd","9","321769","1905","23452","NA","318418","1900","109840","319555","319558","207122","99004","323777","324629","320564","323776","Sternberg Task","44","38166","47","yes","1024"
"93.75","93.75","812.791666667","812.791666667","black","experiment","legacy","legacy","legacy","0","uniform","1","undefined","1","left","47","0","0","0","47","0","0","47","47","47","0","47","47","47","47","10/17/20 22:30:50","The main experiment item","yes","SternbergTask.osexp","C:/Users/User/Desktop/Quant 2020","no","mono","no","18","no","white","no","yes","768","legacy","35","11","C:/Users/User/Desktop/Quant 2020/Sternberg Task 3/subject-1.csv","legacy","7","Lentiform Loewenfeld","3.3.3","1","y","yes","0","left","right","NA","left","left","848","21545","NA","10835","848","2","legacy","1","1024","2","48000","-16","experiment","1","odd","7","327991","1905","23452","NA","324634","1900","109840","325776","325779","207122","99004","329997","330846","326785","329996","Sternberg Task","45","39014","48","yes","1024"
"93.8775510204","93.8775510204","818.367346939","818.367346939","black","experiment","legacy","legacy","legacy","0","uniform","1","undefined","1","left","48","0","0","0","48","0","0","48","48","48","0","48","48","48","48","10/17/20 22:30:50","The main experiment item","yes","SternbergTask.osexp","C:/Users/User/Desktop/Quant 2020","no","mono","no","18","no","white","no","yes","768","legacy","36","11","C:/Users/User/Desktop/Quant 2020/Sternberg Task 3/subject-1.csv","legacy","1 4 9 3 2 5","Lentiform Loewenfeld","3.3.3","3","y","yes","0","left","right","NA","left","left","1086","21545","NA","10835","1086","2","legacy","6","1024","2","48000","-16","experiment","1","odd","9","334207","1905","23452","NA","330851","1900","109840","331991","331994","207122","99004","336213","337300","333000","336213","Sternberg Task","46","40100","49","yes","1024"
"94","94","825.62","825.62","black","experiment","legacy","legacy","legacy","0","uniform","1","undefined","1","right","49","0","0","0","49","0","0","49","49","49","0","49","49","49","49","10/17/20 22:30:50","The main experiment item","yes","SternbergTask.osexp","C:/Users/User/Desktop/Quant 2020","no","mono","no","18","no","white","no","yes","768","legacy","37","11","C:/Users/User/Desktop/Quant 2020/Sternberg Task 3/subject-1.csv","legacy","6 9 7 3 8 2","Lentiform Loewenfeld","3.3.3","0","n","yes","0","right","right","NA","left","right","1181","21545","NA","10835","1181","2","legacy","6","1024","2","48000","-16","experiment","1","odd","5","340659","1905","23452","NA","337305","1900","109840","338445","338447","207122","99004","342666","343848","339453","342666","Sternberg Task","47","41281","50","yes","1024"
"94.1176470588","94.1176470588","840.529411765","840.529411765","black","experiment","legacy","legacy","legacy","0","uniform","1","undefined","1","right","50","0","0","0","50","0","0","50","50","50","0","50","50","50","50","10/17/20 22:30:50","The main experiment item","yes","SternbergTask.osexp","C:/Users/User/Desktop/Quant 2020","no","mono","no","18","no","white","no","yes","768","legacy","38","11","C:/Users/User/Desktop/Quant 2020/Sternberg Task 3/subject-1.csv","legacy","6 2 9 3 8 4","Lentiform Loewenfeld","3.3.3","0","n","yes","0","right","right","NA","left","right","1586","21545","NA","10835","1586","2","legacy","6","1024","2","48000","-16","experiment","1","odd","1","347202","1905","23452","NA","343853","1900","109840","344987","344989","207122","99004","349208","350795","345995","349207","Sternberg Task","48","42867","51","yes","1024"
"94.2307692308","94.2307692308","842.711538462","842.711538462","black","experiment","legacy","legacy","legacy","0","uniform","1","undefined","1","left","51","0","0","0","51","0","0","51","51","51","0","51","51","51","51","10/17/20 22:30:50","The main experiment item","yes","SternbergTask.osexp","C:/Users/User/Desktop/Quant 2020","no","mono","no","18","no","white","no","yes","768","legacy","39","11","C:/Users/User/Desktop/Quant 2020/Sternberg Task 3/subject-1.csv","legacy","4 1 5","Lentiform Loewenfeld","3.3.3","2","y","yes","0","left","right","NA","left","left","954","21545","NA","10835","954","2","legacy","3","1024","2","48000","-16","experiment","1","odd","1","354155","1905","23452","NA","350800","1900","109840","351940","351943","207122","99004","356162","357117","352950","356161","Sternberg Task","49","43821","52","yes","1024"
"94.3396226415","94.3396226415","840.603773585","840.603773585","black","experiment","legacy","legacy","legacy","0","uniform","1","undefined","1","right","52","0","0","0","52","0","0","52","52","52","0","52","52","52","52","10/17/20 22:30:50","The main experiment item","yes","SternbergTask.osexp","C:/Users/User/Desktop/Quant 2020","no","mono","no","18","no","white","no","yes","768","legacy","40","11","C:/Users/User/Desktop/Quant 2020/Sternberg Task 3/subject-1.csv","legacy","6 7 5 9","Lentiform Loewenfeld","3.3.3","0","n","yes","0","right","right","NA","left","right","731","21545","NA","10835","731","2","legacy","4","1024","2","48000","-16","experiment","1","odd","2","360471","1905","23452","NA","357122","1900","109840","358256","358258","207122","99004","362478","363211","359264","362477","Sternberg Task","50","44552","53","yes","1024"
"94.4444444444","94.4444444444","842.888888889","842.888888889","black","experiment","legacy","legacy","legacy","0","uniform","1","undefined","1","right","53","0","0","0","53","0","0","53","53","53","0","53","53","53","53","10/17/20 22:30:50","The main experiment item","yes","SternbergTask.osexp","C:/Users/User/Desktop/Quant 2020","no","mono","no","18","no","white","no","yes","768","legacy","41","11","C:/Users/User/Desktop/Quant 2020/Sternberg Task 3/subject-1.csv","legacy","7 1 8 4 9 3","Lentiform Loewenfeld","3.3.3","0","n","yes","0","right","right","NA","left","right","964","21545","NA","10835","964","2","legacy","6","1024","2","48000","-16","experiment","1","odd","6","366574","1905","23452","NA","363215","1900","109840","364360","364362","207122","99004","368580","369545","365368","368579","Sternberg Task","51","45516","54","yes","1024"
"94.5454545455","94.5454545455","838.509090909","838.509090909","black","experiment","legacy","legacy","legacy","0","uniform","1","undefined","1","right","54","0","0","0","54","0","0","54","54","54","0","54","54","54","54","10/17/20 22:30:50","The main experiment item","yes","SternbergTask.osexp","C:/Users/User/Desktop/Quant 2020","no","mono","no","18","no","white","no","yes","768","legacy","42","11","C:/Users/User/Desktop/Quant 2020/Sternberg Task 3/subject-1.csv","legacy","4 1","Lentiform Loewenfeld","3.3.3","0","n","yes","0","right","right","NA","left","right","602","21545","NA","10835","602","2","legacy","2","1024","2","48000","-16","experiment","1","odd","6","372906","1905","23452","NA","369550","1900","109840","370691","370693","207122","99004","374913","375517","371699","374913","Sternberg Task","52","46118","55","yes","1024"
"94.6428571429","94.6428571429","834.178571429","834.178571429","black","experiment","legacy","legacy","legacy","0","uniform","1","undefined","1","left","55","0","0","0","55","0","0","55","55","55","0","55","55","55","55","10/17/20 22:30:50","The main experiment item","yes","SternbergTask.osexp","C:/Users/User/Desktop/Quant 2020","no","mono","no","18","no","white","no","yes","768","legacy","43","11","C:/Users/User/Desktop/Quant 2020/Sternberg Task 3/subject-1.csv","legacy","9 3 1 2 5","Lentiform Loewenfeld","3.3.3","4","y","yes","0","left","right","NA","left","left","596","21545","NA","10835","596","2","legacy","5","1024","2","48000","-16","experiment","1","odd","2","378879","1905","23452","NA","375522","1900","109840","376665","376667","207122","99004","380886","381483","377673","380886","Sternberg Task","53","46714","56","yes","1024"
"94.7368421053","94.7368421053","837.280701754","837.280701754","black","experiment","legacy","legacy","legacy","0","uniform","1","undefined","1","right","56","0","0","0","56","0","0","56","56","56","0","56","56","56","56","10/17/20 22:30:50","The main experiment item","yes","SternbergTask.osexp","C:/Users/User/Desktop/Quant 2020","no","mono","no","18","no","white","no","yes","768","legacy","44","11","C:/Users/User/Desktop/Quant 2020/Sternberg Task 3/subject-1.csv","legacy","7 3 2 8","Lentiform Loewenfeld","3.3.3","0","n","yes","0","right","right","NA","left","right","1011","21545","NA","10835","1011","2","legacy","4","1024","2","48000","-16","experiment","1","odd","4","384847","1905","23452","NA","381488","1900","109840","382631","382634","207122","99004","386854","387866","383640","386853","Sternberg Task","54","47725","57","yes","1024"
"94.8275862069","94.8275862069","835.74137931","835.74137931","black","experiment","legacy","legacy","legacy","0","uniform","1","undefined","1","left","57","0","0","0","57","0","0","57","57","57","0","57","57","57","57","10/17/20 22:30:50","The main experiment item","yes","SternbergTask.osexp","C:/Users/User/Desktop/Quant 2020","no","mono","no","18","no","white","no","yes","768","legacy","45","11","C:/Users/User/Desktop/Quant 2020/Sternberg Task 3/subject-1.csv","legacy","6 8 9 3 4 9","Lentiform Loewenfeld","3.3.3","5","y","yes","0","left","right","NA","left","left","748","21545","NA","10835","748","2","legacy","6","1024","2","48000","-16","experiment","1","odd","4","391223","1905","23452","NA","387871","1900","109840","389006","389008","207122","99004","393229","393978","390014","393229","Sternberg Task","55","48473","58","yes","1024"
"94.9152542373","94.9152542373","835.796610169","835.796610169","black","experiment","legacy","legacy","legacy","0","uniform","1","undefined","1","right","58","0","0","0","58","0","0","58","58","58","0","58","58","58","58","10/17/20 22:30:50","The main experiment item","yes","SternbergTask.osexp","C:/Users/User/Desktop/Quant 2020","no","mono","no","18","no","white","no","yes","768","legacy","46","11","C:/Users/User/Desktop/Quant 2020/Sternberg Task 3/subject-1.csv","legacy","7 4 2 8 1 9","Lentiform Loewenfeld","3.3.3","0","n","yes","0","right","right","NA","left","right","839","21545","NA","10835","839","2","legacy","6","1024","2","48000","-16","experiment","1","odd","5","397335","1905","23452","NA","393984","1900","109840","395119","395122","207122","99004","399342","400182","396128","399341","Sternberg Task","56","49312","59","yes","1024"
"95","95","836.383333333","836.383333333","black","experiment","legacy","legacy","legacy","0","uniform","1","undefined","1","right","59","0","0","0","59","0","0","59","59","59","0","59","59","59","59","10/17/20 22:30:50","The main experiment item","yes","SternbergTask.osexp","C:/Users/User/Desktop/Quant 2020","no","mono","no","18","no","white","no","yes","768","legacy","47","11","C:/Users/User/Desktop/Quant 2020/Sternberg Task 3/subject-1.csv","legacy","3 9 8 1 6 4","Lentiform Loewenfeld","3.3.3","0","n","yes","0","right","right","NA","left","right","871","21545","NA","10835","871","2","legacy","6","1024","2","48000","-16","experiment","1","odd","7","403539","1905","23452","NA","400187","1900","109840","401325","401327","207122","99004","405546","406418","402333","405545","Sternberg Task","57","50183","60","yes","1024"
"95.0819672131","95.0819672131","836.508196721","836.508196721","black","experiment","legacy","legacy","legacy","0","uniform","1","undefined","1","left","60","0","0","0","60","0","0","60","60","60","0","60","60","60","60","10/17/20 22:30:50","The main experiment item","yes","SternbergTask.osexp","C:/Users/User/Desktop/Quant 2020","no","mono","no","18","no","white","no","yes","768","legacy","48","11","C:/Users/User/Desktop/Quant 2020/Sternberg Task 3/subject-1.csv","legacy","9 5 8 1","Lentiform Loewenfeld","3.3.3","2","y","yes","0","left","right","NA","left","left","844","21545","NA","10835","844","2","legacy","4","1024","2","48000","-16","experiment","1","odd","5","409778","1905","23452","NA","406423","1900","109840","407563","407566","207122","99004","411786","412631","408572","411785","Sternberg Task","58","51027","61","yes","1024"
"95.1612903226","95.1612903226","836.709677419","836.709677419","black","experiment","legacy","legacy","legacy","0","uniform","1","undefined","1","left","61","0","0","0","61","0","0","61","61","61","0","61","61","61","61","10/17/20 22:30:50","The main experiment item","yes","SternbergTask.osexp","C:/Users/User/Desktop/Quant 2020","no","mono","no","18","no","white","no","yes","768","legacy","49","11","C:/Users/User/Desktop/Quant 2020/Sternberg Task 3/subject-1.csv","legacy","7 8 6 3 1","Lentiform Loewenfeld","3.3.3","5","y","yes","0","left","right","NA","left","left","849","21545","NA","10835","849","2","legacy","5","1024","2","48000","-16","experiment","1","odd","1","415991","1905","23452","NA","412636","1900","109840","413776","413779","207122","99004","417998","418849","414785","417997","Sternberg Task","59","51876","62","yes","1024"
"95.2380952381","95.2380952381","836.777777778","836.777777778","black","experiment","legacy","legacy","legacy","0","uniform","1","undefined","1","left","62","0","0","0","62","0","0","62","62","62","0","62","62","62","62","10/17/20 22:30:50","The main experiment item","yes","SternbergTask.osexp","C:/Users/User/Desktop/Quant 2020","no","mono","no","18","no","white","no","yes","768","legacy","50","11","C:/Users/User/Desktop/Quant 2020/Sternberg Task 3/subject-1.csv","legacy","7 8 4 6 9 5","Lentiform Loewenfeld","3.3.3","4","y","yes","0","left","right","NA","left","left","841","21545","NA","10835","841","2","legacy","6","1024","2","48000","-16","experiment","1","odd","6","422204","1905","23452","NA","418854","1900","109840","419989","419991","207122","99004","424211","425053","420997","424211","Sternberg Task","60","52717","63","yes","1024"
"95.3125","95.3125","832.90625","832.90625","black","experiment","legacy","legacy","legacy","0","uniform","1","undefined","1","left","63","0","0","0","63","0","0","63","63","63","0","63","63","63","63","10/17/20 22:30:50","The main experiment item","yes","SternbergTask.osexp","C:/Users/User/Desktop/Quant 2020","no","mono","no","18","no","white","no","yes","768","legacy","51","11","C:/Users/User/Desktop/Quant 2020/Sternberg Task 3/subject-1.csv","legacy","4","Lentiform Loewenfeld","3.3.3","1","y","yes","0","left","right","NA","left","left","589","21545","NA","10835","589","2","legacy","1","1024","2","48000","-16","experiment","1","odd","4","428411","1905","23452","NA","425058","1900","109840","426196","426198","207122","99004","430417","431007","427204","430417","Sternberg Task","61","53306","64","yes","1024"
"95.3846153846","95.3846153846","833.046153846","833.046153846","black","experiment","legacy","legacy","legacy","0","uniform","1","undefined","1","left","64","0","0","0","64","0","0","64","64","64","0","64","64","64","64","10/17/20 22:30:50","The main experiment item","yes","SternbergTask.osexp","C:/Users/User/Desktop/Quant 2020","no","mono","no","18","no","white","no","yes","768","legacy","52","11","C:/Users/User/Desktop/Quant 2020/Sternberg Task 3/subject-1.csv","legacy","2 4 6 9","Lentiform Loewenfeld","3.3.3","3","y","yes","0","left","right","NA","left","left","842","21545","NA","10835","842","2","legacy","4","1024","2","48000","-16","experiment","1","odd","6","434374","1905","23452","NA","431012","1900","109840","432158","432161","207122","99004","436381","437224","433167","436380","Sternberg Task","62","54148","65","yes","1024"
"95.4545454545","95.4545454545","830.53030303","830.53030303","black","experiment","legacy","legacy","legacy","0","uniform","1","undefined","1","left","65","0","0","0","65","0","0","65","65","65","0","65","65","65","65","10/17/20 22:30:50","The main experiment item","yes","SternbergTask.osexp","C:/Users/User/Desktop/Quant 2020","no","mono","no","18","no","white","no","yes","768","legacy","53","11","C:/Users/User/Desktop/Quant 2020/Sternberg Task 3/subject-1.csv","legacy","8 3","Lentiform Loewenfeld","3.3.3","2","y","yes","0","left","right","NA","left","left","667","21545","NA","10835","667","2","legacy","2","1024","2","48000","-16","experiment","1","odd","3","440586","1905","23452","NA","437230","1900","109840","438371","438374","207122","99004","442594","443262","439380","442593","Sternberg Task","63","54815","66","yes","1024"
"95.5223880597","95.5223880597","826.567164179","826.567164179","black","experiment","legacy","legacy","legacy","0","uniform","1","undefined","1","left","66","0","0","0","66","0","0","66","66","66","0","66","66","66","66","10/17/20 22:30:50","The main experiment item","yes","SternbergTask.osexp","C:/Users/User/Desktop/Quant 2020","no","mono","no","18","no","white","no","yes","768","legacy","54","11","C:/Users/User/Desktop/Quant 2020/Sternberg Task 3/subject-1.csv","legacy","9 8 4","Lentiform Loewenfeld","3.3.3","1","y","yes","0","left","right","NA","left","left","565","21545","NA","10835","565","2","legacy","3","1024","2","48000","-16","experiment","1","odd","9","446620","1905","23452","NA","443267","1900","109840","444403","444406","207122","99004","448627","449194","445413","448626","Sternberg Task","64","55380","67","yes","1024"
"95.5882352941","95.5882352941","831.632352941","831.632352941","black","experiment","legacy","legacy","legacy","0","uniform","1","undefined","1","left","67","0","0","0","67","0","0","67","67","67","0","67","67","67","67","10/17/20 22:30:50","The main experiment item","yes","SternbergTask.osexp","C:/Users/User/Desktop/Quant 2020","no","mono","no","18","no","white","no","yes","768","legacy","55","11","C:/Users/User/Desktop/Quant 2020/Sternberg Task 3/subject-1.csv","legacy","5 7 8 2 3 8","Lentiform Loewenfeld","3.3.3","5","y","yes","0","left","right","NA","left","left","1171","21545","NA","10835","1171","2","legacy","6","1024","2","48000","-16","experiment","1","odd","3","452546","1905","23452","NA","449199","1900","109840","450331","450334","207122","99004","454552","455724","451339","454551","Sternberg Task","65","56551","68","yes","1024"
"95.652173913","95.652173913","832.594202899","832.594202899","black","experiment","legacy","legacy","legacy","0","uniform","1","undefined","1","left","68","0","0","0","68","0","0","68","68","68","0","68","68","68","68","10/17/20 22:30:50","The main experiment item","yes","SternbergTask.osexp","C:/Users/User/Desktop/Quant 2020","no","mono","no","18","no","white","no","yes","768","legacy","56","11","C:/Users/User/Desktop/Quant 2020/Sternberg Task 3/subject-1.csv","legacy","9 3 8 2 1 4","Lentiform Loewenfeld","3.3.3","3","y","yes","0","left","right","NA","left","left","898","21545","NA","10835","898","2","legacy","6","1024","2","48000","-16","experiment","1","odd","8","459077","1905","23452","NA","455729","1900","109840","456864","456866","207122","99004","461084","461983","457872","461083","Sternberg Task","66","57449","69","yes","1024"
"95.7142857143","95.7142857143","839","839","black","experiment","legacy","legacy","legacy","0","uniform","1","undefined","1","right","69","0","0","0","69","0","0","69","69","69","0","69","69","69","69","10/17/20 22:30:50","The main experiment item","yes","SternbergTask.osexp","C:/Users/User/Desktop/Quant 2020","no","mono","no","18","no","white","no","yes","768","legacy","57","11","C:/Users/User/Desktop/Quant 2020/Sternberg Task 3/subject-1.csv","legacy","2 3 8 5 6 7","Lentiform Loewenfeld","3.3.3","0","n","yes","0","right","right","NA","left","right","1281","21545","NA","10835","1281","2","legacy","6","1024","2","48000","-16","experiment","1","odd","1","465340","1905","23452","NA","461988","1900","109840","463126","463128","207122","99004","467347","468629","464133","467346","Sternberg Task","67","58730","70","yes","1024"
"95.7746478873","95.7746478873","848.85915493","848.85915493","black","experiment","legacy","legacy","legacy","0","uniform","1","undefined","1","right","70","0","0","0","70","0","0","70","70","70","0","70","70","70","70","10/17/20 22:30:50","The main experiment item","yes","SternbergTask.osexp","C:/Users/User/Desktop/Quant 2020","no","mono","no","18","no","white","no","yes","768","legacy","58","11","C:/Users/User/Desktop/Quant 2020/Sternberg Task 3/subject-1.csv","legacy","2 7 5","Lentiform Loewenfeld","3.3.3","0","n","yes","0","right","right","NA","left","right","1539","21545","NA","10835","1539","2","legacy","3","1024","2","48000","-16","experiment","1","odd","8","471993","1905","23452","NA","468635","1900","109840","469778","469781","207122","99004","473999","475540","470786","473999","Sternberg Task","68","60269","71","yes","1024"
"95.8333333333","95.8333333333","845.472222222","845.472222222","black","experiment","legacy","legacy","legacy","0","uniform","1","undefined","1","left","71","0","0","0","71","0","0","71","71","71","0","71","71","71","71","10/17/20 22:30:50","The main experiment item","yes","SternbergTask.osexp","C:/Users/User/Desktop/Quant 2020","no","mono","no","18","no","white","no","yes","768","legacy","59","11","C:/Users/User/Desktop/Quant 2020/Sternberg Task 3/subject-1.csv","legacy","2 4 8 5 1 3","Lentiform Loewenfeld","3.3.3","1","y","yes","0","left","right","NA","left","left","605","21545","NA","10835","605","2","legacy","6","1024","2","48000","-16","experiment","1","odd","2","478899","1905","23452","NA","475545","1900","109840","476684","476687","207122","99004","480906","481513","477693","480905","Sternberg Task","69","60874","72","yes","1024"
"95.8904109589","95.8904109589","843.136986301","843.136986301","black","experiment","legacy","legacy","legacy","0","uniform","1","undefined","1","right","72","0","0","0","72","0","0","72","72","72","0","72","72","72","72","10/17/20 22:30:50","The main experiment item","yes","SternbergTask.osexp","C:/Users/User/Desktop/Quant 2020","no","mono","no","18","no","white","no","yes","768","legacy","60","11","C:/Users/User/Desktop/Quant 2020/Sternberg Task 3/subject-1.csv","legacy","2 8 9 4 1","Lentiform Loewenfeld","3.3.3","0","n","yes","0","right","right","NA","left","right","675","21545","NA","10835","675","2","legacy","5","1024","2","48000","-16","experiment","1","odd","5","484870","1905","23452","NA","481518","1900","109840","482654","482657","207122","99004","486876","487552","483663","486876","Sternberg Task","70","61549","73","yes","1024"
"95.9459459459","95.9459459459","845.932432432","845.932432432","black","experiment","legacy","legacy","legacy","0","uniform","1","undefined","1","right","73","0","0","0","73","0","0","73","73","73","0","73","73","73","73","10/17/20 22:30:50","The main experiment item","yes","SternbergTask.osexp","C:/Users/User/Desktop/Quant 2020","no","mono","no","18","no","white","no","yes","768","legacy","61","11","C:/Users/User/Desktop/Quant 2020/Sternberg Task 3/subject-1.csv","legacy","2 8 7 9 5 3","Lentiform Loewenfeld","3.3.3","0","n","yes","0","right","right","NA","left","right","1050","21545","NA","10835","1050","2","legacy","6","1024","2","48000","-16","experiment","1","odd","6","490907","1905","23452","NA","487557","1900","109840","488692","488695","207122","99004","492915","493967","489700","492914","Sternberg Task","71","62599","74","yes","1024"
"96","96","844.026666667","844.026666667","black","experiment","legacy","legacy","legacy","0","uniform","1","undefined","1","left","74","0","0","0","74","0","0","74","74","74","0","74","74","74","74","10/17/20 22:30:50","The main experiment item","yes","SternbergTask.osexp","C:/Users/User/Desktop/Quant 2020","no","mono","no","18","no","white","no","yes","768","legacy","62","11","C:/Users/User/Desktop/Quant 2020/Sternberg Task 3/subject-1.csv","legacy","7 2 3","Lentiform Loewenfeld","3.3.3","3","y","yes","0","left","right","NA","left","left","703","21545","NA","10835","703","2","legacy","3","1024","2","48000","-16","experiment","1","odd","3","497320","1905","23452","NA","493972","1900","109840","495104","495107","207122","99004","499327","500031","496113","499326","Sternberg Task","72","63302","75","yes","1024"
"96.0526315789","96.0526315789","841.907894737","841.907894737","black","experiment","legacy","legacy","legacy","0","uniform","1","undefined","1","right","75","0","0","0","75","0","0","75","75","75","0","75","75","75","75","10/17/20 22:30:50","The main experiment item","yes","SternbergTask.osexp","C:/Users/User/Desktop/Quant 2020","no","mono","no","18","no","white","no","yes","768","legacy","63","11","C:/Users/User/Desktop/Quant 2020/Sternberg Task 3/subject-1.csv","legacy","7 9","Lentiform Loewenfeld","3.3.3","0","n","yes","0","right","right","NA","left","right","683","21545","NA","10835","683","2","legacy","2","1024","2","48000","-16","experiment","1","odd","1","503388","1905","23452","NA","500037","1900","109840","501173","501175","207122","99004","505395","506079","502181","505394","Sternberg Task","73","63985","76","yes","1024"
"96.1038961039","96.1038961039","839.974025974","839.974025974","black","experiment","legacy","legacy","legacy","0","uniform","1","undefined","1","left","76","0","0","0","76","0","0","76","76","76","0","76","76","76","76","10/17/20 22:30:50","The main experiment item","yes","SternbergTask.osexp","C:/Users/User/Desktop/Quant 2020","no","mono","no","18","no","white","no","yes","768","legacy","64","11","C:/Users/User/Desktop/Quant 2020/Sternberg Task 3/subject-1.csv","legacy","2 3","Lentiform Loewenfeld","3.3.3","1","y","yes","0","left","right","NA","left","left","693","21545","NA","10835","693","2","legacy","2","1024","2","48000","-16","experiment","1","odd","2","509438","1905","23452","NA","506084","1900","109840","507221","507224","207122","99004","511445","512140","508230","511444","Sternberg Task","74","64678","77","yes","1024"
"96.1538461538","96.1538461538","836.923076923","836.923076923","black","experiment","legacy","legacy","legacy","0","uniform","1","undefined","1","right","77","0","0","0","77","0","0","77","77","77","0","77","77","77","77","10/17/20 22:30:50","The main experiment item","yes","SternbergTask.osexp","C:/Users/User/Desktop/Quant 2020","no","mono","no","18","no","white","no","yes","768","legacy","65","11","C:/Users/User/Desktop/Quant 2020/Sternberg Task 3/subject-1.csv","legacy","7 1","Lentiform Loewenfeld","3.3.3","0","n","yes","0","right","right","NA","left","right","602","21545","NA","10835","602","2","legacy","2","1024","2","48000","-16","experiment","1","odd","8","515497","1905","23452","NA","512146","1900","109840","513282","513285","207122","99004","517504","518108","514291","517504","Sternberg Task","75","65280","78","yes","1024"
"96.2025316456","96.2025316456","834.924050633","834.924050633","black","experiment","legacy","legacy","legacy","0","uniform","1","undefined","1","left","78","0","0","0","78","0","0","78","78","78","0","78","78","78","78","10/17/20 22:30:50","The main experiment item","yes","SternbergTask.osexp","C:/Users/User/Desktop/Quant 2020","no","mono","no","18","no","white","no","yes","768","legacy","66","11","C:/Users/User/Desktop/Quant 2020/Sternberg Task 3/subject-1.csv","legacy","9 6 2 4 1","Lentiform Loewenfeld","3.3.3","4","y","yes","0","left","right","NA","left","left","679","21545","NA","10835","679","2","legacy","5","1024","2","48000","-16","experiment","1","odd","4","521474","1905","23452","NA","518113","1900","109840","519259","519262","207122","99004","523480","524160","520267","523479","Sternberg Task","76","65959","79","yes","1024"
"96.25","96.25","837.4125","837.4125","black","experiment","legacy","legacy","legacy","0","uniform","1","undefined","1","right","79","0","0","0","79","0","0","79","79","79","0","79","79","79","79","10/17/20 22:30:50","The main experiment item","yes","SternbergTask.osexp","C:/Users/User/Desktop/Quant 2020","no","mono","no","18","no","white","no","yes","768","legacy","67","11","C:/Users/User/Desktop/Quant 2020/Sternberg Task 3/subject-1.csv","legacy","9 8 2 7 4","Lentiform Loewenfeld","3.3.3","0","n","yes","0","right","right","NA","left","right","1034","21545","NA","10835","1034","2","legacy","5","1024","2","48000","-16","experiment","1","odd","5","527523","1905","23452","NA","524165","1900","109840","525308","525311","207122","99004","529530","530565","526317","529530","Sternberg Task","77","66993","80","yes","1024"
"96.2962962963","96.2962962963","839.851851852","839.851851852","black","experiment","legacy","legacy","legacy","0","uniform","1","undefined","1","right","80","0","0","0","80","0","0","80","80","80","0","80","80","80","80","10/17/20 22:30:50","The main experiment item","yes","SternbergTask.osexp","C:/Users/User/Desktop/Quant 2020","no","mono","no","18","no","white","no","yes","768","legacy","68","11","C:/Users/User/Desktop/Quant 2020/Sternberg Task 3/subject-1.csv","legacy","1 5 3 2 8","Lentiform Loewenfeld","3.3.3","0","n","yes","0","right","right","NA","left","right","1035","21545","NA","10835","1035","2","legacy","5","1024","2","48000","-16","experiment","1","odd","4","533919","1905","23452","NA","530570","1900","109840","531705","531707","207122","99004","535925","536961","532713","535925","Sternberg Task","78","68028","81","yes","1024"
"96.3414634146","96.3414634146","846.853658537","846.853658537","black","experiment","legacy","legacy","legacy","0","uniform","1","undefined","1","left","81","0","0","0","81","0","0","81","81","81","0","81","81","81","81","10/17/20 22:30:50","The main experiment item","yes","SternbergTask.osexp","C:/Users/User/Desktop/Quant 2020","no","mono","no","18","no","white","no","yes","768","legacy","69","11","C:/Users/User/Desktop/Quant 2020/Sternberg Task 3/subject-1.csv","legacy","4 7 6 8 2 3","Lentiform Loewenfeld","3.3.3","6","y","yes","0","left","right","NA","left","left","1414","21545","NA","10835","1414","2","legacy","6","1024","2","48000","-16","experiment","1","odd","3","540319","1905","23452","NA","536966","1900","109840","538104","538107","207122","99004","542325","543741","539113","542325","Sternberg Task","79","69442","82","yes","1024"
"96.3855421687","96.3855421687","850.204819277","850.204819277","black","experiment","legacy","legacy","legacy","0","uniform","1","undefined","1","right","82","0","0","0","82","0","0","82","82","82","0","82","82","82","82","10/17/20 22:30:50","The main experiment item","yes","SternbergTask.osexp","C:/Users/User/Desktop/Quant 2020","no","mono","no","18","no","white","no","yes","768","legacy","70","11","C:/Users/User/Desktop/Quant 2020/Sternberg Task 3/subject-1.csv","legacy","6 3 1 7 9 8","Lentiform Loewenfeld","3.3.3","0","n","yes","0","right","right","NA","left","right","1125","21545","NA","10835","1125","2","legacy","6","1024","2","48000","-16","experiment","1","odd","4","547095","1905","23452","NA","543746","1900","109840","544881","544883","207122","99004","549103","550230","545889","549102","Sternberg Task","80","70567","83","yes","1024"
"96.4285714286","96.4285714286","851.773809524","851.773809524","black","experiment","legacy","legacy","legacy","0","uniform","1","undefined","1","right","83","0","0","0","83","0","0","83","83","83","0","83","83","83","83","10/17/20 22:30:50","The main experiment item","yes","SternbergTask.osexp","C:/Users/User/Desktop/Quant 2020","no","mono","no","18","no","white","no","yes","768","legacy","71","11","C:/Users/User/Desktop/Quant 2020/Sternberg Task 3/subject-1.csv","legacy","9 5 3 2 8 6","Lentiform Loewenfeld","3.3.3","0","n","yes","0","right","right","NA","left","right","982","21545","NA","10835","982","2","legacy","6","1024","2","48000","-16","experiment","1","odd","7","553593","1905","23452","NA","550235","1900","109840","551378","551381","207122","99004","555599","556584","552386","555598","Sternberg Task","81","71549","84","yes","1024"
"96.4705882353","96.4705882353","850.976470588","850.976470588","black","experiment","legacy","legacy","legacy","0","uniform","1","undefined","1","right","84","0","0","0","84","0","0","84","84","84","0","84","84","84","84","10/17/20 22:30:50","The main experiment item","yes","SternbergTask.osexp","C:/Users/User/Desktop/Quant 2020","no","mono","no","18","no","white","no","yes","768","legacy","72","11","C:/Users/User/Desktop/Quant 2020/Sternberg Task 3/subject-1.csv","legacy","8 2 1 4 5 9","Lentiform Loewenfeld","3.3.3","0","n","yes","0","right","right","NA","left","right","784","21545","NA","10835","784","2","legacy","6","1024","2","48000","-16","experiment","1","odd","7","559937","1905","23452","NA","556591","1900","109840","557724","557727","207122","99004","561944","562729","558730","561944","Sternberg Task","82","72333","85","yes","1024"
"96.511627907","96.511627907","849.38372093","849.38372093","black","experiment","legacy","legacy","legacy","0","uniform","1","undefined","1","right","85","0","0","0","85","0","0","85","85","85","0","85","85","85","85","10/17/20 22:30:50","The main experiment item","yes","SternbergTask.osexp","C:/Users/User/Desktop/Quant 2020","no","mono","no","18","no","white","no","yes","768","legacy","73","11","C:/Users/User/Desktop/Quant 2020/Sternberg Task 3/subject-1.csv","legacy","2 8 9","Lentiform Loewenfeld","3.3.3","0","n","yes","0","right","right","NA","left","right","714","21545","NA","10835","714","2","legacy","3","1024","2","48000","-16","experiment","1","odd","6","566083","1905","23452","NA","562735","1900","109840","563870","563872","207122","99004","568091","568807","564877","568090","Sternberg Task","83","73047","86","yes","1024"
"96.5517241379","96.5517241379","848.528735632","848.528735632","black","experiment","legacy","legacy","legacy","0","uniform","1","undefined","1","left","86","0","0","0","86","0","0","86","86","86","0","86","86","86","86","10/17/20 22:30:50","The main experiment item","yes","SternbergTask.osexp","C:/Users/User/Desktop/Quant 2020","no","mono","no","18","no","white","no","yes","768","legacy","74","11","C:/Users/User/Desktop/Quant 2020/Sternberg Task 3/subject-1.csv","legacy","9 5 3 8 4","Lentiform Loewenfeld","3.3.3","1","y","yes","0","left","right","NA","left","left","775","21545","NA","10835","775","2","legacy","5","1024","2","48000","-16","experiment","1","odd","9","572166","1905","23452","NA","568812","1900","109840","569950","569953","207122","99004","574173","574949","570959","574172","Sternberg Task","84","73822","87","yes","1024"
"96.5909090909","96.5909090909","848.056818182","848.056818182","black","experiment","legacy","legacy","legacy","0","uniform","1","undefined","1","right","87","0","0","0","87","0","0","87","87","87","0","87","87","87","87","10/17/20 22:30:50","The main experiment item","yes","SternbergTask.osexp","C:/Users/User/Desktop/Quant 2020","no","mono","no","18","no","white","no","yes","768","legacy","75","11","C:/Users/User/Desktop/Quant 2020/Sternberg Task 3/subject-1.csv","legacy","2 5 1 4","Lentiform Loewenfeld","3.3.3","0","n","yes","0","right","right","NA","left","right","807","21545","NA","10835","807","2","legacy","4","1024","2","48000","-16","experiment","1","odd","6","578313","1905","23452","NA","574955","1900","109840","576097","576100","207122","99004","580320","581129","577106","580319","Sternberg Task","85","74629","88","yes","1024"
"96.6292134831","96.6292134831","848.561797753","848.561797753","black","experiment","legacy","legacy","legacy","0","uniform","1","undefined","1","left","88","0","0","0","88","0","0","88","88","88","0","88","88","88","88","10/17/20 22:30:50","The main experiment item","yes","SternbergTask.osexp","C:/Users/User/Desktop/Quant 2020","no","mono","no","18","no","white","no","yes","768","legacy","76","11","C:/Users/User/Desktop/Quant 2020/Sternberg Task 3/subject-1.csv","legacy","7 6","Lentiform Loewenfeld","3.3.3","2","y","yes","0","left","right","NA","left","left","893","21545","NA","10835","893","2","legacy","2","1024","2","48000","-16","experiment","1","odd","6","584475","1905","23452","NA","581134","1900","109840","582262","582264","207122","99004","586482","587376","583270","586481","Sternberg Task","86","75522","89","yes","1024"
"96.6666666667","96.6666666667","846.277777778","846.277777778","black","experiment","legacy","legacy","legacy","0","uniform","1","undefined","1","left","89","0","0","0","89","0","0","89","89","89","0","89","89","89","89","10/17/20 22:30:50","The main experiment item","yes","SternbergTask.osexp","C:/Users/User/Desktop/Quant 2020","no","mono","no","18","no","white","no","yes","768","legacy","77","11","C:/Users/User/Desktop/Quant 2020/Sternberg Task 3/subject-1.csv","legacy","8 5 4 7 3 1","Lentiform Loewenfeld","3.3.3","2","y","yes","0","left","right","NA","left","left","643","21545","NA","10835","643","2","legacy","6","1024","2","48000","-16","experiment","1","odd","5","590735","1905","23452","NA","587381","1900","109840","588521","588523","207122","99004","592743","593388","589528","592742","Sternberg Task","87","76165","90","yes","1024"
"96.7032967033","96.7032967033","845.516483516","845.516483516","black","experiment","legacy","legacy","legacy","0","uniform","1","undefined","1","right","90","0","0","0","90","0","0","90","90","90","0","90","90","90","90","10/17/20 22:30:50","The main experiment item","yes","SternbergTask.osexp","C:/Users/User/Desktop/Quant 2020","no","mono","no","18","no","white","no","yes","768","legacy","78","11","C:/Users/User/Desktop/Quant 2020/Sternberg Task 3/subject-1.csv","legacy","4 2 7 6 1 3","Lentiform Loewenfeld","3.3.3","0","n","yes","0","right","right","NA","left","right","777","21545","NA","10835","777","2","legacy","6","1024","2","48000","-16","experiment","1","odd","8","596741","1905","23452","NA","593393","1900","109840","594526","594529","207122","99004","598747","599526","595535","598746","Sternberg Task","88","76942","91","yes","1024"
"96.7391304348","96.7391304348","847.543478261","847.543478261","black","experiment","legacy","legacy","legacy","0","uniform","1","undefined","1","left","91","0","0","0","91","0","0","91","91","91","0","91","91","91","91","10/17/20 22:30:50","The main experiment item","yes","SternbergTask.osexp","C:/Users/User/Desktop/Quant 2020","no","mono","no","18","no","white","no","yes","768","legacy","79","11","C:/Users/User/Desktop/Quant 2020/Sternberg Task 3/subject-1.csv","legacy","6 7 8 5","Lentiform Loewenfeld","3.3.3","3","y","yes","0","left","right","NA","left","left","1032","21545","NA","10835","1032","2","legacy","4","1024","2","48000","-16","experiment","1","odd","8","602889","1905","23452","NA","599531","1900","109840","600674","600676","207122","99004","604896","605930","601684","604895","Sternberg Task","89","77974","92","yes","1024"
"96.7741935484","96.7741935484","847.677419355","847.677419355","black","experiment","legacy","legacy","legacy","0","uniform","1","undefined","1","right","92","0","0","0","92","0","0","92","92","92","0","92","92","92","92","10/17/20 22:30:50","The main experiment item","yes","SternbergTask.osexp","C:/Users/User/Desktop/Quant 2020","no","mono","no","18","no","white","no","yes","768","legacy","80","11","C:/Users/User/Desktop/Quant 2020/Sternberg Task 3/subject-1.csv","legacy","3 4 2","Lentiform Loewenfeld","3.3.3","0","n","yes","0","right","right","NA","left","right","860","21545","NA","10835","860","2","legacy","3","1024","2","48000","-16","experiment","1","odd","5","609282","1905","23452","NA","605935","1900","109840","607068","607070","207122","99004","611288","612149","608075","611287","Sternberg Task","90","78834","93","yes","1024"
"96.8085106383","96.8085106383","852.319148936","852.319148936","black","experiment","legacy","legacy","legacy","0","uniform","1","undefined","1","left","93","0","0","0","93","0","0","93","93","93","0","93","93","93","93","10/17/20 22:30:50","The main experiment item","yes","SternbergTask.osexp","C:/Users/User/Desktop/Quant 2020","no","mono","no","18","no","white","no","yes","768","legacy","81","11","C:/Users/User/Desktop/Quant 2020/Sternberg Task 3/subject-1.csv","legacy","3 4 9 6 2 9","Lentiform Loewenfeld","3.3.3","5","y","yes","0","left","right","NA","left","left","1284","21545","NA","10835","1284","2","legacy","6","1024","2","48000","-16","experiment","1","odd","2","615523","1905","23452","NA","612155","1900","109840","613308","613311","207122","99004","617530","618815","614316","617530","Sternberg Task","91","80118","94","yes","1024"
"96.8421052632","96.8421052632","851.894736842","851.894736842","black","experiment","legacy","legacy","legacy","0","uniform","1","undefined","1","left","94","0","0","0","94","0","0","94","94","94","0","94","94","94","94","10/17/20 22:30:50","The main experiment item","yes","SternbergTask.osexp","C:/Users/User/Desktop/Quant 2020","no","mono","no","18","no","white","no","yes","768","legacy","82","11","C:/Users/User/Desktop/Quant 2020/Sternberg Task 3/subject-1.csv","legacy","4 3 2 5 8","Lentiform Loewenfeld","3.3.3","2","y","yes","0","left","right","NA","left","left","812","21545","NA","10835","812","2","legacy","5","1024","2","48000","-16","experiment","1","odd","3","622178","1905","23452","NA","618820","1900","109840","619963","619966","207122","99004","624185","624999","620972","624185","Sternberg Task","92","80930","95","yes","1024"
"96.875","96.875","850.697916667","850.697916667","black","experiment","legacy","legacy","legacy","0","uniform","1","undefined","1","left","95","0","0","0","95","0","0","95","95","95","0","95","95","95","95","10/17/20 22:30:50","The main experiment item","yes","SternbergTask.osexp","C:/Users/User/Desktop/Quant 2020","no","mono","no","18","no","white","no","yes","768","legacy","83","11","C:/Users/User/Desktop/Quant 2020/Sternberg Task 3/subject-1.csv","legacy","8 7 3","Lentiform Loewenfeld","3.3.3","1","y","yes","0","left","right","NA","left","left","737","21545","NA","10835","737","2","legacy","3","1024","2","48000","-16","experiment","1","odd","8","628356","1905","23452","NA","625004","1900","109840","626142","626144","207122","99004","630363","631102","627150","630363","Sternberg Task","93","81667","96","yes","1024"
"96.9072164948","96.9072164948","851.072164948","851.072164948","black","experiment","legacy","legacy","legacy","0","uniform","1","undefined","1","right","96","0","0","0","96","0","0","96","96","96","0","96","96","96","96","10/17/20 22:30:50","The main experiment item","yes","SternbergTask.osexp","C:/Users/User/Desktop/Quant 2020","no","mono","no","18","no","white","no","yes","768","legacy","84","11","C:/Users/User/Desktop/Quant 2020/Sternberg Task 3/subject-1.csv","legacy","9 7 4 5 8","Lentiform Loewenfeld","3.3.3","0","n","yes","0","right","right","NA","left","right","887","21545","NA","10835","887","2","legacy","5","1024","2","48000","-16","experiment","1","odd","6","634455","1905","23452","NA","631108","1900","109840","632240","632243","207122","99004","636462","637351","633249","636461","Sternberg Task","94","82554","97","yes","1024"
"96.9387755102","96.9387755102","850","850","black","experiment","legacy","legacy","legacy","0","uniform","1","undefined","1","right","97","0","0","0","97","0","0","97","97","97","0","97","97","97","97","10/17/20 22:30:50","The main experiment item","yes","SternbergTask.osexp","C:/Users/User/Desktop/Quant 2020","no","mono","no","18","no","white","no","yes","768","legacy","85","11","C:/Users/User/Desktop/Quant 2020/Sternberg Task 3/subject-1.csv","legacy","8 6 3 4 7","Lentiform Loewenfeld","3.3.3","0","n","yes","0","right","right","NA","left","right","746","21545","NA","10835","746","2","legacy","5","1024","2","48000","-16","experiment","1","odd","1","640713","1905","23452","NA","637356","1900","109840","638498","638501","207122","99004","642719","643467","639507","642718","Sternberg Task","95","83300","98","yes","1024"
"96.9696969697","96.9696969697","850.01010101","850.01010101","black","experiment","legacy","legacy","legacy","0","uniform","1","undefined","1","left","98","0","0","0","98","0","0","98","98","98","0","98","98","98","98","10/17/20 22:30:50","The main experiment item","yes","SternbergTask.osexp","C:/Users/User/Desktop/Quant 2020","no","mono","no","18","no","white","no","yes","768","legacy","86","11","C:/Users/User/Desktop/Quant 2020/Sternberg Task 3/subject-1.csv","legacy","3 9 6 2","Lentiform Loewenfeld","3.3.3","4","y","yes","0","left","right","NA","left","left","851","21545","NA","10835","851","2","legacy","4","1024","2","48000","-16","experiment","1","odd","2","646820","1905","23452","NA","643472","1900","109840","644605","644608","207122","99004","648827","649680","645614","648827","Sternberg Task","96","84151","99","yes","1024"
"97","97","847.7","847.7","black","experiment","legacy","legacy","legacy","0","uniform","1","undefined","1","left","99","0","0","0","99","0","0","99","99","99","0","99","99","99","99","10/17/20 22:30:50","The main experiment item","yes","SternbergTask.osexp","C:/Users/User/Desktop/Quant 2020","no","mono","no","18","no","white","no","yes","768","legacy","87","11","C:/Users/User/Desktop/Quant 2020/Sternberg Task 3/subject-1.csv","legacy","6 1 2","Lentiform Loewenfeld","3.3.3","3","y","yes","0","left","right","NA","left","left","619","21545","NA","10835","619","2","legacy","3","1024","2","48000","-16","experiment","1","odd","2","653048","1905","23452","NA","649685","1900","109840","650833","650835","207122","99004","655055","655676","651841","655054","Sternberg Task","97","84770","100","yes","1024"
"97.0297029703","97.0297029703","846.326732673","846.326732673","black","experiment","legacy","legacy","legacy","0","uniform","1","undefined","1","left","100","0","0","0","100","0","0","100","100","100","0","100","100","100","100","10/17/20 22:30:50","The main experiment item","yes","SternbergTask.osexp","C:/Users/User/Desktop/Quant 2020","no","mono","no","18","no","white","no","yes","768","legacy","88","11","C:/Users/User/Desktop/Quant 2020/Sternberg Task 3/subject-1.csv","legacy","9 1 6 7 8","Lentiform Loewenfeld","3.3.3","1","y","yes","0","left","right","NA","left","left","709","21545","NA","10835","709","2","legacy","5","1024","2","48000","-16","experiment","1","odd","9","659032","1905","23452","NA","655681","1900","109840","656818","656821","207122","99004","661039","661750","657827","661039","Sternberg Task","98","85479","101","yes","1024"
"97.0588235294","97.0588235294","845.382352941","845.382352941","black","experiment","legacy","legacy","legacy","0","uniform","1","undefined","1","right","101","0","0","0","101","0","0","101","101","101","0","101","101","101","101","10/17/20 22:30:50","The main experiment item","yes","SternbergTask.osexp","C:/Users/User/Desktop/Quant 2020","no","mono","no","18","no","white","no","yes","768","legacy","89","11","C:/Users/User/Desktop/Quant 2020/Sternberg Task 3/subject-1.csv","legacy","5 9 2 3","Lentiform Loewenfeld","3.3.3","0","n","yes","0","right","right","NA","left","right","750","21545","NA","10835","750","2","legacy","4","1024","2","48000","-16","experiment","1","odd","8","665106","1905","23452","NA","661755","1900","109840","662892","662895","207122","99004","667114","667865","663901","667113","Sternberg Task","99","86229","102","yes","1024"
"97.0873786408","97.0873786408","842.990291262","842.990291262","black","experiment","legacy","legacy","legacy","0","uniform","1","undefined","1","right","102","0","0","0","102","0","0","102","102","102","0","102","102","102","102","10/17/20 22:30:50","The main experiment item","yes","SternbergTask.osexp","C:/Users/User/Desktop/Quant 2020","no","mono","no","18","no","white","no","yes","768","legacy","90","11","C:/Users/User/Desktop/Quant 2020/Sternberg Task 3/subject-1.csv","legacy","6 8 4","Lentiform Loewenfeld","3.3.3","0","n","yes","0","right","right","NA","left","right","599","21545","NA","10835","599","2","legacy","3","1024","2","48000","-16","experiment","1","odd","1","671215","1905","23452","NA","667871","1900","109840","669000","669003","207122","99004","673222","673823","670009","673221","Sternberg Task","100","86828","103","yes","1024"
"97.1153846154","97.1153846154","846.182692308","846.182692308","black","experiment","legacy","legacy","legacy","0","uniform","1","undefined","1","right","103","0","0","0","103","0","0","103","103","103","0","103","103","103","103","10/17/20 22:30:50","The main experiment item","yes","SternbergTask.osexp","C:/Users/User/Desktop/Quant 2020","no","mono","no","18","no","white","no","yes","768","legacy","91","11","C:/Users/User/Desktop/Quant 2020/Sternberg Task 3/subject-1.csv","legacy","2 6 4 3 9","Lentiform Loewenfeld","3.3.3","0","n","yes","0","right","right","NA","left","right","1175","21545","NA","10835","1175","2","legacy","5","1024","2","48000","-16","experiment","1","odd","1","677174","1905","23452","NA","673828","1900","109840","674961","674963","207122","99004","679182","680359","675968","679181","Sternberg Task","101","88003","104","yes","1024"
"97.1428571429","97.1428571429","846.361904762","846.361904762","black","experiment","legacy","legacy","legacy","0","uniform","1","undefined","1","right","104","0","0","0","104","0","0","104","104","104","0","104","104","104","104","10/17/20 22:30:50","The main experiment item","yes","SternbergTask.osexp","C:/Users/User/Desktop/Quant 2020","no","mono","no","18","no","white","no","yes","768","legacy","92","11","C:/Users/User/Desktop/Quant 2020/Sternberg Task 3/subject-1.csv","legacy","7 6 4 8 1 2","Lentiform Loewenfeld","3.3.3","0","n","yes","0","right","right","NA","left","right","865","21545","NA","10835","865","2","legacy","6","1024","2","48000","-16","experiment","1","odd","9","683714","1905","23452","NA","680364","1900","109840","681499","681502","207122","99004","685721","686588","682508","685720","Sternberg Task","102","88868","105","yes","1024"
"97.1698113208","97.1698113208","844.113207547","844.113207547","black","experiment","legacy","legacy","legacy","0","uniform","1","undefined","1","left","105","0","0","0","105","0","0","105","105","105","0","105","105","105","105","10/17/20 22:30:50","The main experiment item","yes","SternbergTask.osexp","C:/Users/User/Desktop/Quant 2020","no","mono","no","18","no","white","no","yes","768","legacy","93","11","C:/Users/User/Desktop/Quant 2020/Sternberg Task 3/subject-1.csv","legacy","2 6 1 7 4","Lentiform Loewenfeld","3.3.3","2","y","yes","0","left","right","NA","left","left","608","21545","NA","10835","608","2","legacy","5","1024","2","48000","-16","experiment","1","odd","6","689947","1905","23452","NA","686593","1900","109840","687731","687733","207122","99004","691953","692562","688740","691953","Sternberg Task","103","89476","106","yes","1024"
"97.1962616822","97.1962616822","842.102803738","842.102803738","black","experiment","legacy","legacy","legacy","0","uniform","1","undefined","1","right","106","0","0","0","106","0","0","106","106","106","0","106","106","106","106","10/17/20 22:30:50","The main experiment item","yes","SternbergTask.osexp","C:/Users/User/Desktop/Quant 2020","no","mono","no","18","no","white","no","yes","768","legacy","94","11","C:/Users/User/Desktop/Quant 2020/Sternberg Task 3/subject-1.csv","legacy","2 8 6 3 1","Lentiform Loewenfeld","3.3.3","0","n","yes","0","right","right","NA","left","right","629","21545","NA","10835","629","2","legacy","5","1024","2","48000","-16","experiment","1","odd","7","695920","1905","23452","NA","692568","1900","109840","693706","693708","207122","99004","697927","698558","694714","697926","Sternberg Task","104","90105","107","yes","1024"
"97.2222222222","97.2222222222","839.87037037","839.87037037","black","experiment","legacy","legacy","legacy","0","uniform","1","undefined","1","left","107","0","0","0","107","0","0","107","107","107","0","107","107","107","107","10/17/20 22:30:50","The main experiment item","yes","SternbergTask.osexp","C:/Users/User/Desktop/Quant 2020","no","mono","no","18","no","white","no","yes","768","legacy","95","11","C:/Users/User/Desktop/Quant 2020/Sternberg Task 3/subject-1.csv","legacy","2 5 4 8 7","Lentiform Loewenfeld","3.3.3","3","y","yes","0","left","right","NA","left","left","601","21545","NA","10835","601","2","legacy","5","1024","2","48000","-16","experiment","1","odd","4","701917","1905","23452","NA","698563","1900","109840","699701","699704","207122","99004","703925","704528","700710","703924","Sternberg Task","105","90706","108","yes","1024"
"97.247706422","97.247706422","840.183486239","840.183486239","black","experiment","legacy","legacy","legacy","0","uniform","1","undefined","1","left","108","0","0","0","108","0","0","108","108","108","0","108","108","108","108","10/17/20 22:30:50","The main experiment item","yes","SternbergTask.osexp","C:/Users/User/Desktop/Quant 2020","no","mono","no","18","no","white","no","yes","768","legacy","96","11","C:/Users/User/Desktop/Quant 2020/Sternberg Task 3/subject-1.csv","legacy","7 4 2 6 3 5","Lentiform Loewenfeld","3.3.3","6","y","yes","0","left","right","NA","left","left","874","21545","NA","10835","874","2","legacy","6","1024","2","48000","-16","experiment","1","odd","5","707886","1905","23452","NA","704533","1900","109840","705671","705674","207122","99004","709894","710770","706680","709893","Sternberg Task","106","91580","109","yes","1024"
"97.2727272727","97.2727272727","842.7","842.7","black","experiment","legacy","legacy","legacy","0","uniform","1","undefined","1","right","109","0","0","0","109","0","0","109","109","109","0","109","109","109","109","10/17/20 22:30:50","The main experiment item","yes","SternbergTask.osexp","C:/Users/User/Desktop/Quant 2020","no","mono","no","18","no","white","no","yes","768","legacy","97","11","C:/Users/User/Desktop/Quant 2020/Sternberg Task 3/subject-1.csv","legacy","8 4 3 9","Lentiform Loewenfeld","3.3.3","0","n","yes","0","right","right","NA","left","right","1117","21545","NA","10835","1117","2","legacy","4","1024","2","48000","-16","experiment","1","odd","5","714127","1905","23452","NA","710775","1900","109840","711913","711915","207122","99004","716133","717252","712921","716133","Sternberg Task","107","92697","110","yes","1024"
"97.2972972973","97.2972972973","842.315315315","842.315315315","black","experiment","legacy","legacy","legacy","0","uniform","1","undefined","1","left","110","0","0","0","110","0","0","110","110","110","0","110","110","110","110","10/17/20 22:30:50","The main experiment item","yes","SternbergTask.osexp","C:/Users/User/Desktop/Quant 2020","no","mono","no","18","no","white","no","yes","768","legacy","98","11","C:/Users/User/Desktop/Quant 2020/Sternberg Task 3/subject-1.csv","legacy","3 5 7 1","Lentiform Loewenfeld","3.3.3","3","y","yes","0","left","right","NA","left","left","800","21545","NA","10835","800","2","legacy","4","1024","2","48000","-16","experiment","1","odd","7","720609","1905","23452","NA","717257","1900","109840","718393","718396","207122","99004","722616","723418","719402","722615","Sternberg Task","108","93497","111","yes","1024"
"97.3214285714","97.3214285714","844.098214286","844.098214286","black","experiment","legacy","legacy","legacy","0","uniform","1","undefined","1","right","111","0","0","0","111","0","0","111","111","111","0","111","111","111","111","10/17/20 22:30:50","The main experiment item","yes","SternbergTask.osexp","C:/Users/User/Desktop/Quant 2020","no","mono","no","18","no","white","no","yes","768","legacy","99","11","C:/Users/User/Desktop/Quant 2020/Sternberg Task 3/subject-1.csv","legacy","5 2","Lentiform Loewenfeld","3.3.3","0","n","yes","0","right","right","NA","left","right","1042","21545","NA","10835","1042","2","legacy","2","1024","2","48000","-16","experiment","1","odd","7","726774","1905","23452","NA","723423","1900","109840","724560","724562","207122","99004","728779","729823","725567","728779","Sternberg Task","109","94539","112","yes","1024"
"97.3451327434","97.3451327434","844.955752212","844.955752212","black","experiment","legacy","legacy","legacy","0","uniform","1","undefined","1","right","112","0","0","0","112","0","0","112","112","112","0","112","112","112","112","10/17/20 22:30:50","The main experiment item","yes","SternbergTask.osexp","C:/Users/User/Desktop/Quant 2020","no","mono","no","18","no","white","no","yes","768","legacy","100","11","C:/Users/User/Desktop/Quant 2020/Sternberg Task 3/subject-1.csv","legacy","8 5 7 3 6","Lentiform Loewenfeld","3.3.3","0","n","yes","0","right","right","NA","left","right","941","21545","NA","10835","941","2","legacy","5","1024","2","48000","-16","experiment","1","odd","9","733184","1905","23452","NA","729828","1900","109840","730968","730971","207122","99004","735190","736133","731976","735189","Sternberg Task","110","95480","113","yes","1024"
"97.3684210526","97.3684210526","844.578947368","844.578947368","black","experiment","legacy","legacy","legacy","0","uniform","1","undefined","1","right","113","0","0","0","113","0","0","113","113","113","0","113","113","113","113","10/17/20 22:30:50","The main experiment item","yes","SternbergTask.osexp","C:/Users/User/Desktop/Quant 2020","no","mono","no","18","no","white","no","yes","768","legacy","101","11","C:/Users/User/Desktop/Quant 2020/Sternberg Task 3/subject-1.csv","legacy","9","Lentiform Loewenfeld","3.3.3","0","n","yes","0","right","right","NA","left","right","802","21545","NA","10835","802","2","legacy","1","1024","2","48000","-16","experiment","1","odd","6","739488","1905","23452","NA","736138","1900","109840","737273","737276","207122","99004","741496","742300","738282","741495","Sternberg Task","111","96282","114","yes","1024"
"97.3913043478","97.3913043478","843.339130435","843.339130435","black","experiment","legacy","legacy","legacy","0","uniform","1","undefined","1","left","114","0","0","0","114","0","0","114","114","114","0","114","114","114","114","10/17/20 22:30:50","The main experiment item","yes","SternbergTask.osexp","C:/Users/User/Desktop/Quant 2020","no","mono","no","18","no","white","no","yes","768","legacy","102","11","C:/Users/User/Desktop/Quant 2020/Sternberg Task 3/subject-1.csv","legacy","8 9 6 1","Lentiform Loewenfeld","3.3.3","2","y","yes","0","left","right","NA","left","left","702","21545","NA","10835","702","2","legacy","4","1024","2","48000","-16","experiment","1","odd","9","745657","1905","23452","NA","742306","1900","109840","743442","743444","207122","99004","747664","748368","744450","747663","Sternberg Task","112","96984","115","yes","1024"
"97.4137931034","97.4137931034","847.051724138","847.051724138","black","experiment","legacy","legacy","legacy","0","uniform","1","undefined","1","right","115","0","0","0","115","0","0","115","115","115","0","115","115","115","115","10/17/20 22:30:50","The main experiment item","yes","SternbergTask.osexp","C:/Users/User/Desktop/Quant 2020","no","mono","no","18","no","white","no","yes","768","legacy","103","11","C:/Users/User/Desktop/Quant 2020/Sternberg Task 3/subject-1.csv","legacy","8 5 4 2 9 6","Lentiform Loewenfeld","3.3.3","0","n","yes","0","right","right","NA","left","right","1274","21545","NA","10835","1274","2","legacy","6","1024","2","48000","-16","experiment","1","odd","3","751723","1905","23452","NA","748374","1900","109840","749507","749509","207122","99004","753729","755005","750515","753729","Sternberg Task","113","98258","116","yes","1024"
"97.4358974359","97.4358974359","845.504273504","845.504273504","black","experiment","legacy","legacy","legacy","0","uniform","1","undefined","1","left","116","0","0","0","116","0","0","116","116","116","0","116","116","116","116","10/17/20 22:30:50","The main experiment item","yes","SternbergTask.osexp","C:/Users/User/Desktop/Quant 2020","no","mono","no","18","no","white","no","yes","768","legacy","104","11","C:/Users/User/Desktop/Quant 2020/Sternberg Task 3/subject-1.csv","legacy","8 5 3 7 4 6","Lentiform Loewenfeld","3.3.3","6","y","yes","0","left","right","NA","left","left","666","21545","NA","10835","666","2","legacy","6","1024","2","48000","-16","experiment","1","odd","6","758361","1905","23452","NA","755010","1900","109840","756146","756149","207122","99004","760368","761036","757154","760367","Sternberg Task","114","98924","117","yes","1024"
