"acc","accuracy","average_response_time","avg_rt","background","block","canvas_backend","clock_backend","color_backend","compensation","coordinates","correct","correct_instruction1","correct_keyboard_response","correct_response","count_Fixation","count_IncorrectFeedback","count_Instructions2","count_MemSet","count_ThankYou","count_correctfeedback","count_expLoop","count_expSequence","count_experiment","count_instruction1","count_isi","count_keyboard_response","count_logger","count_practiceLoop","count_probe","datetime","description","disable_garbage_collection","experiment_file","experiment_path","font_bold","font_family","font_italic","font_size","font_underline","foreground","form_clicks","fullscreen","height","keyboard_backend","live_row","live_row_practiceLoop","logfile","mouse_backend","numberSet","opensesame_codename","opensesame_version","posInSet","present","repeat_cycle","response","response_Instructions2","response_ThankYou","response_instruction1","response_keyboard_response","response_time","response_time_Instructions2","response_time_ThankYou","response_time_instruction1","response_time_keyboard_response","round_decimals","sampler_backend","setSize","sound_buf_size","sound_channels","sound_freq","sound_sample_size","start","subject_nr","subject_parity","target","time_Fixation","time_IncorrectFeedback","time_Instructions2","time_MemSet","time_ThankYou","time_correctfeedback","time_expLoop","time_expSequence","time_experiment","time_instruction1","time_isi","time_keyboard_response","time_logger","time_practiceLoop","time_probe","title","total_correct","total_response_time","total_responses","uniform_coordinates","width"
"100","100","819","819","black","practice","legacy","legacy","legacy","0","uniform","1","undefined","1","left","0","0","0","0","0","0","0","0","0","0","0","0","0","0","0","Sun Oct 18 15:49:11 2020","The main experiment item","yes","Sternbergtask.osexp","C:\Users\chris\OneDrive\Desktop","no","mono","no","18","no","white","no","yes","768","legacy","0","0","C:/Users/chris/OneDrive/Desktop/CM-subject-1.csv","legacy","4 3 1 7 9 8","Lentiform Loewenfeld","3.3.3","1","y","0","left","NA","NA","right","left","819","NA","NA","20956","819","2","legacy","6","1024","2","48000","-16","experiment","1","odd","4","23648","NA","NA","24653","NA","NA","NA","23646","2176","2181","25860","27867","28686","23138","27866","Sternberg task","1","819","1","yes","1024"
"100","100","710.5","710.5","black","practice","legacy","legacy","legacy","0","uniform","1","undefined","1","right","1","1","0","1","0","1","0","1","0","0","1","1","1","0","1","Sun Oct 18 15:49:11 2020","The main experiment item","yes","Sternbergtask.osexp","C:\Users\chris\OneDrive\Desktop","no","mono","no","18","no","white","no","yes","768","legacy","1","1","C:/Users/chris/OneDrive/Desktop/CM-subject-1.csv","legacy","5 7 8 4 1 2","Lentiform Loewenfeld","3.3.3","0","n","0","right","NA","NA","right","right","602","NA","NA","20956","602","2","legacy","6","1024","2","48000","-16","experiment","1","odd","6","29868","NA","NA","30874","NA","28737","NA","29866","2176","2181","32079","34085","34687","23138","34084","Sternberg task","2","1421","2","yes","1024"
"100","100","593.6666666666666","593.6666666666666","black","practice","legacy","legacy","legacy","0","uniform","1","undefined","1","left","2","2","0","2","0","2","0","2","0","0","2","2","2","0","2","Sun Oct 18 15:49:11 2020","The main experiment item","yes","Sternbergtask.osexp","C:\Users\chris\OneDrive\Desktop","no","mono","no","18","no","white","no","yes","768","legacy","2","2","C:/Users/chris/OneDrive/Desktop/CM-subject-1.csv","legacy","1 5 2 9","Lentiform Loewenfeld","3.3.3","2","y","0","left","NA","NA","right","left","360","NA","NA","20956","360","2","legacy","4","1024","2","48000","-16","experiment","1","odd","5","35815","NA","NA","36817","NA","34696","NA","35813","2176","2181","38022","40027","40387","23138","40027","Sternberg task","3","1781","3","yes","1024"
"100","100","576.25","576.25","black","practice","legacy","legacy","legacy","0","uniform","1","undefined","1","left","3","3","0","3","0","3","0","3","0","0","3","3","3","0","3","Sun Oct 18 15:49:11 2020","The main experiment item","yes","Sternbergtask.osexp","C:\Users\chris\OneDrive\Desktop","no","mono","no","18","no","white","no","yes","768","legacy","3","3","C:/Users/chris/OneDrive/Desktop/CM-subject-1.csv","legacy","4 8","Lentiform Loewenfeld","3.3.3","1","y","0","left","NA","NA","right","left","524","NA","NA","20956","524","2","legacy","2","1024","2","48000","-16","experiment","1","odd","4","41529","NA","NA","42534","NA","40396","NA","41527","2176","2181","43739","45745","46270","23138","45744","Sternberg task","4","2305","4","yes","1024"
"100","100","565.8","565.8","black","practice","legacy","legacy","legacy","0","uniform","1","undefined","1","right","4","4","0","4","0","4","0","4","0","0","4","4","4","0","4","Sun Oct 18 15:49:11 2020","The main experiment item","yes","Sternbergtask.osexp","C:\Users\chris\OneDrive\Desktop","no","mono","no","18","no","white","no","yes","768","legacy","4","4","C:/Users/chris/OneDrive/Desktop/CM-subject-1.csv","legacy","3 1 9 4","Lentiform Loewenfeld","3.3.3","0","n","0","right","NA","NA","right","right","524","NA","NA","20956","524","2","legacy","4","1024","2","48000","-16","experiment","1","odd","6","47410","NA","NA","48416","NA","46279","NA","47408","2176","2181","49621","51626","52151","23138","51626","Sternberg task","5","2829","5","yes","1024"
"100","100","575","575","black","practice","legacy","legacy","legacy","0","uniform","1","undefined","1","right","5","5","0","5","0","5","0","5","0","0","5","5","5","0","5","Sun Oct 18 15:49:11 2020","The main experiment item","yes","Sternbergtask.osexp","C:\Users\chris\OneDrive\Desktop","no","mono","no","18","no","white","no","yes","768","legacy","5","5","C:/Users/chris/OneDrive/Desktop/CM-subject-1.csv","legacy","4 1 5","Lentiform Loewenfeld","3.3.3","0","n","0","right","NA","NA","right","right","621","NA","NA","20956","621","2","legacy","3","1024","2","48000","-16","experiment","1","odd","2","53285","NA","NA","54290","NA","52159","NA","53283","2176","2181","55495","57500","58121","23138","57500","Sternberg task","6","3450","6","yes","1024"
"100","100","585.2857142857143","585.2857142857143","black","practice","legacy","legacy","legacy","0","uniform","1","undefined","1","right","6","6","0","6","0","6","0","6","0","0","6","6","6","0","6","Sun Oct 18 15:49:11 2020","The main experiment item","yes","Sternbergtask.osexp","C:\Users\chris\OneDrive\Desktop","no","mono","no","18","no","white","no","yes","768","legacy","6","6","C:/Users/chris/OneDrive/Desktop/CM-subject-1.csv","legacy","5","Lentiform Loewenfeld","3.3.3","0","n","0","right","NA","NA","right","right","647","NA","NA","20956","647","2","legacy","1","1024","2","48000","-16","experiment","1","odd","3","59275","NA","NA","60280","NA","58130","NA","59273","2176","2181","61486","63491","64139","23138","63491","Sternberg task","7","4097","7","yes","1024"
"87.5","87.5","612.125","612.125","black","practice","legacy","legacy","legacy","0","uniform","0","undefined","0","right","7","7","0","7","0","7","0","7","0","0","7","7","7","0","7","Sun Oct 18 15:49:11 2020","The main experiment item","yes","Sternbergtask.osexp","C:\Users\chris\OneDrive\Desktop","no","mono","no","18","no","white","no","yes","768","legacy","7","7","C:/Users/chris/OneDrive/Desktop/CM-subject-1.csv","legacy","2 1","Lentiform Loewenfeld","3.3.3","0","n","0","left","NA","NA","right","left","800","NA","NA","20956","800","2","legacy","2","1024","2","48000","-16","experiment","1","odd","5","65268","NA","NA","66274","NA","64148","NA","65266","2176","2181","67479","69485","70286","23138","69484","Sternberg task","7","4897","8","yes","1024"
"88.88888888888889","88.88888888888889","673.7777777777778","673.7777777777778","black","practice","legacy","legacy","legacy","0","uniform","1","undefined","1","right","8","8","0","8","0","8","0","8","0","0","8","8","8","0","8","Sun Oct 18 15:49:11 2020","The main experiment item","yes","Sternbergtask.osexp","C:\Users\chris\OneDrive\Desktop","no","mono","no","18","no","white","no","yes","768","legacy","8","8","C:/Users/chris/OneDrive/Desktop/CM-subject-1.csv","legacy","9 6 7 4 5","Lentiform Loewenfeld","3.3.3","0","n","0","right","NA","NA","right","right","1167","NA","NA","20956","1167","2","legacy","5","1024","2","48000","-16","experiment","1","odd","3","71429","70295","NA","72434","NA","64148","NA","71427","2176","2181","73639","75645","76812","23138","75644","Sternberg task","8","6064","9","yes","1024"
"90","90","674.6","674.6","black","practice","legacy","legacy","legacy","0","uniform","1","undefined","1","left","9","9","0","9","0","9","0","9","0","0","9","9","9","0","9","Sun Oct 18 15:49:11 2020","The main experiment item","yes","Sternbergtask.osexp","C:\Users\chris\OneDrive\Desktop","no","mono","no","18","no","white","no","yes","768","legacy","9","9","C:/Users/chris/OneDrive/Desktop/CM-subject-1.csv","legacy","2 9 4","Lentiform Loewenfeld","3.3.3","3","y","0","left","NA","NA","right","left","682","NA","NA","20956","682","2","legacy","3","1024","2","48000","-16","experiment","1","odd","4","77951","70295","NA","78954","NA","76821","NA","77949","2176","2181","80159","82165","82847","23138","82164","Sternberg task","9","6746","10","yes","1024"
"90.9090909090909","90.9090909090909","714.8181818181819","714.8181818181819","black","practice","legacy","legacy","legacy","0","uniform","1","undefined","1","left","10","10","0","10","0","10","0","10","0","0","10","10","10","0","10","Sun Oct 18 15:49:11 2020","The main experiment item","yes","Sternbergtask.osexp","C:\Users\chris\OneDrive\Desktop","no","mono","no","18","no","white","no","yes","768","legacy","10","10","C:/Users/chris/OneDrive/Desktop/CM-subject-1.csv","legacy","1 7 9 8 5","Lentiform Loewenfeld","3.3.3","4","y","0","left","NA","NA","right","left","1117","NA","NA","20956","1117","2","legacy","5","1024","2","48000","-16","experiment","1","odd","8","83996","70295","NA","85001","NA","82857","NA","83994","2176","2181","86206","88211","89328","23138","88211","Sternberg task","10","7863","11","yes","1024"
"91.66666666666667","91.66666666666667","698","698","black","practice","legacy","legacy","legacy","0","uniform","1","undefined","1","left","11","11","0","11","0","11","0","11","0","0","11","11","11","0","11","Sun Oct 18 15:49:11 2020","The main experiment item","yes","Sternbergtask.osexp","C:\Users\chris\OneDrive\Desktop","no","mono","no","18","no","white","no","yes","768","legacy","11","11","C:/Users/chris/OneDrive/Desktop/CM-subject-1.csv","legacy","6","Lentiform Loewenfeld","3.3.3","1","y","0","left","NA","NA","right","left","513","NA","NA","20956","513","2","legacy","1","1024","2","48000","-16","experiment","1","odd","6","90457","70295","NA","91463","NA","89338","NA","90455","2176","2181","92668","94674","95188","23138","94674","Sternberg task","11","8376","12","yes","1024"
"92.3076923076923","92.3076923076923","699.7692307692307","699.7692307692307","black","experiment","legacy","legacy","legacy","0","uniform","1","undefined","1","right","12","12","0","12","0","12","0","12","0","0","12","12","12","0","12","Sun Oct 18 15:49:11 2020","The main experiment item","yes","Sternbergtask.osexp","C:\Users\chris\OneDrive\Desktop","no","mono","no","18","no","white","no","yes","768","legacy","0","11","C:/Users/chris/OneDrive/Desktop/CM-subject-1.csv","legacy","8 5 4 2 9 6","Lentiform Loewenfeld","3.3.3","0","n","0","right","right","NA","right","right","721","4580","NA","20956","721","2","legacy","6","1024","2","48000","-16","experiment","1","odd","3","100928","70295","96249","101933","NA","95196","100830","100926","2176","2181","103138","105144","105866","23138","105143","Sternberg task","12","9097","13","yes","1024"
"85.71428571428571","85.71428571428571","724","724","black","experiment","legacy","legacy","legacy","0","uniform","0","undefined","0","right","13","13","0","13","0","13","0","13","0","0","13","13","13","0","13","Sun Oct 18 15:49:11 2020","The main experiment item","yes","Sternbergtask.osexp","C:\Users\chris\OneDrive\Desktop","no","mono","no","18","no","white","no","yes","768","legacy","1","11","C:/Users/chris/OneDrive/Desktop/CM-subject-1.csv","legacy","6 9 4 5 2","Lentiform Loewenfeld","3.3.3","0","n","0","left","right","NA","right","left","1039","4580","NA","20956","1039","2","legacy","5","1024","2","48000","-16","experiment","1","odd","1","106997","70295","96249","108002","NA","105875","100830","106995","2176","2181","109208","111213","112252","23138","111213","Sternberg task","12","10136","14","yes","1024"
"86.66666666666667","86.66666666666667","725.7333333333333","725.7333333333333","black","experiment","legacy","legacy","legacy","0","uniform","1","undefined","1","left","14","14","0","14","0","14","0","14","0","0","14","14","14","0","14","Sun Oct 18 15:49:11 2020","The main experiment item","yes","Sternbergtask.osexp","C:\Users\chris\OneDrive\Desktop","no","mono","no","18","no","white","no","yes","768","legacy","2","11","C:/Users/chris/OneDrive/Desktop/CM-subject-1.csv","legacy","5 2 9 6 1 7","Lentiform Loewenfeld","3.3.3","3","y","0","left","right","NA","right","left","750","4580","NA","20956","750","2","legacy","6","1024","2","48000","-16","experiment","1","odd","9","113384","112261","96249","114389","NA","105875","100830","113382","2176","2181","115594","117599","118350","23138","117599","Sternberg task","13","10886","15","yes","1024"
"87.5","87.5","718","718","black","experiment","legacy","legacy","legacy","0","uniform","1","undefined","1","right","15","15","0","15","0","15","0","15","0","0","15","15","15","0","15","Sun Oct 18 15:49:11 2020","The main experiment item","yes","Sternbergtask.osexp","C:\Users\chris\OneDrive\Desktop","no","mono","no","18","no","white","no","yes","768","legacy","3","11","C:/Users/chris/OneDrive/Desktop/CM-subject-1.csv","legacy","2 8 6 3 1","Lentiform Loewenfeld","3.3.3","0","n","0","right","right","NA","right","right","602","4580","NA","20956","602","2","legacy","5","1024","2","48000","-16","experiment","1","odd","7","119484","112261","96249","120489","NA","118359","100830","119482","2176","2181","121694","123699","124302","23138","123699","Sternberg task","14","11488","16","yes","1024"
"88.23529411764706","88.23529411764706","712.7647058823529","712.7647058823529","black","experiment","legacy","legacy","legacy","0","uniform","1","undefined","1","right","16","16","0","16","0","16","0","16","0","0","16","16","16","0","16","Sun Oct 18 15:49:11 2020","The main experiment item","yes","Sternbergtask.osexp","C:\Users\chris\OneDrive\Desktop","no","mono","no","18","no","white","no","yes","768","legacy","4","11","C:/Users/chris/OneDrive/Desktop/CM-subject-1.csv","legacy","6 2 9 3 8 4","Lentiform Loewenfeld","3.3.3","0","n","0","right","right","NA","right","right","629","4580","NA","20956","629","2","legacy","6","1024","2","48000","-16","experiment","1","odd","1","125441","112261","96249","126446","NA","124311","100830","125439","2176","2181","127651","129657","130287","23138","129657","Sternberg task","15","12117","17","yes","1024"
"88.88888888888889","88.88888888888889","706","706","black","experiment","legacy","legacy","legacy","0","uniform","1","undefined","1","right","17","17","0","17","0","17","0","17","0","0","17","17","17","0","17","Sun Oct 18 15:49:11 2020","The main experiment item","yes","Sternbergtask.osexp","C:\Users\chris\OneDrive\Desktop","no","mono","no","18","no","white","no","yes","768","legacy","5","11","C:/Users/chris/OneDrive/Desktop/CM-subject-1.csv","legacy","4 2 7 6 1 3","Lentiform Loewenfeld","3.3.3","0","n","0","right","right","NA","right","right","591","4580","NA","20956","591","2","legacy","6","1024","2","48000","-16","experiment","1","odd","8","131416","112261","96249","132421","NA","130296","100830","131414","2176","2181","133626","135632","136224","23138","135632","Sternberg task","16","12708","18","yes","1024"
"89.47368421052632","89.47368421052632","718.5263157894736","718.5263157894736","black","experiment","legacy","legacy","legacy","0","uniform","1","undefined","1","right","18","18","0","18","0","18","0","18","0","0","18","18","18","0","18","Sun Oct 18 15:49:11 2020","The main experiment item","yes","Sternbergtask.osexp","C:\Users\chris\OneDrive\Desktop","no","mono","no","18","no","white","no","yes","768","legacy","6","11","C:/Users/chris/OneDrive/Desktop/CM-subject-1.csv","legacy","3 4 9 6 7 8","Lentiform Loewenfeld","3.3.3","0","n","0","right","right","NA","right","right","944","4580","NA","20956","944","2","legacy","6","1024","2","48000","-16","experiment","1","odd","2","137361","112261","96249","138366","NA","136233","100830","137358","2176","2181","139571","141576","142521","23138","141576","Sternberg task","17","13652","19","yes","1024"
"90","90","716","716","black","experiment","legacy","legacy","legacy","0","uniform","1","undefined","1","left","19","19","0","19","0","19","0","19","0","0","19","19","19","0","19","Sun Oct 18 15:49:11 2020","The main experiment item","yes","Sternbergtask.osexp","C:\Users\chris\OneDrive\Desktop","no","mono","no","18","no","white","no","yes","768","legacy","7","11","C:/Users/chris/OneDrive/Desktop/CM-subject-1.csv","legacy","6 9 7 4 5 1","Lentiform Loewenfeld","3.3.3","2","y","0","left","right","NA","right","left","668","4580","NA","20956","668","2","legacy","6","1024","2","48000","-16","experiment","1","odd","9","143696","112261","96249","144701","NA","142530","100830","143694","2176","2181","145906","147911","148579","23138","147911","Sternberg task","18","14320","20","yes","1024"
"90.47619047619048","90.47619047619048","706.7619047619048","706.7619047619048","black","experiment","legacy","legacy","legacy","0","uniform","1","undefined","1","left","20","20","0","20","0","20","0","20","0","0","20","20","20","0","20","Sun Oct 18 15:49:11 2020","The main experiment item","yes","Sternbergtask.osexp","C:\Users\chris\OneDrive\Desktop","no","mono","no","18","no","white","no","yes","768","legacy","8","11","C:/Users/chris/OneDrive/Desktop/CM-subject-1.csv","legacy","9 1 6 7 8","Lentiform Loewenfeld","3.3.3","1","y","0","left","right","NA","right","left","522","4580","NA","20956","522","2","legacy","5","1024","2","48000","-16","experiment","1","odd","9","149714","112261","96249","150719","NA","148588","100830","149712","2176","2181","151925","153930","154453","23138","153930","Sternberg task","19","14842","21","yes","1024"
"90.9090909090909","90.9090909090909","701.1818181818181","701.1818181818181","black","experiment","legacy","legacy","legacy","0","uniform","1","undefined","1","left","21","21","0","21","0","21","0","21","0","0","21","21","21","0","21","Sun Oct 18 15:49:11 2020","The main experiment item","yes","Sternbergtask.osexp","C:\Users\chris\OneDrive\Desktop","no","mono","no","18","no","white","no","yes","768","legacy","9","11","C:/Users/chris/OneDrive/Desktop/CM-subject-1.csv","legacy","2 3 7 4","Lentiform Loewenfeld","3.3.3","1","y","0","left","right","NA","right","left","584","4580","NA","20956","584","2","legacy","4","1024","2","48000","-16","experiment","1","odd","2","155590","112261","96249","156595","NA","154462","100830","155588","2176","2181","157800","159805","160390","23138","159805","Sternberg task","20","15426","22","yes","1024"
"91.30434782608695","91.30434782608695","702.6521739130435","702.6521739130435","black","experiment","legacy","legacy","legacy","0","uniform","1","undefined","1","left","22","22","0","22","0","22","0","22","0","0","22","22","22","0","22","Sun Oct 18 15:49:11 2020","The main experiment item","yes","Sternbergtask.osexp","C:\Users\chris\OneDrive\Desktop","no","mono","no","18","no","white","no","yes","768","legacy","10","11","C:/Users/chris/OneDrive/Desktop/CM-subject-1.csv","legacy","8 3","Lentiform Loewenfeld","3.3.3","2","y","0","left","right","NA","right","left","735","4580","NA","20956","735","2","legacy","2","1024","2","48000","-16","experiment","1","odd","3","161551","112261","96249","162556","NA","160400","100830","161549","2176","2181","163761","165767","166502","23138","165767","Sternberg task","21","16161","23","yes","1024"
"91.66666666666667","91.66666666666667","709.75","709.75","black","experiment","legacy","legacy","legacy","0","uniform","1","undefined","1","left","23","23","0","23","0","23","0","23","0","0","23","23","23","0","23","Sun Oct 18 15:49:11 2020","The main experiment item","yes","Sternbergtask.osexp","C:\Users\chris\OneDrive\Desktop","no","mono","no","18","no","white","no","yes","768","legacy","11","11","C:/Users/chris/OneDrive/Desktop/CM-subject-1.csv","legacy","5 7 3 6 2","Lentiform Loewenfeld","3.3.3","5","y","0","left","right","NA","right","left","873","4580","NA","20956","873","2","legacy","5","1024","2","48000","-16","experiment","1","odd","2","167644","112261","96249","168649","NA","166512","100830","167642","2176","2181","169854","171860","172734","23138","171860","Sternberg task","22","17034","24","yes","1024"
"92","92","709.04","709.04","black","experiment","legacy","legacy","legacy","0","uniform","1","undefined","1","left","24","24","0","24","0","24","0","24","0","0","24","24","24","0","24","Sun Oct 18 15:49:11 2020","The main experiment item","yes","Sternbergtask.osexp","C:\Users\chris\OneDrive\Desktop","no","mono","no","18","no","white","no","yes","768","legacy","12","11","C:/Users/chris/OneDrive/Desktop/CM-subject-1.csv","legacy","3 5 4 7","Lentiform Loewenfeld","3.3.3","1","y","0","left","right","NA","right","left","692","4580","NA","20956","692","2","legacy","4","1024","2","48000","-16","experiment","1","odd","3","173859","112261","96249","174864","NA","172743","100830","173857","2176","2181","176068","178074","178766","23138","178074","Sternberg task","23","17726","25","yes","1024"
"92.3076923076923","92.3076923076923","696.5384615384615","696.5384615384615","black","experiment","legacy","legacy","legacy","0","uniform","1","undefined","1","right","25","25","0","25","0","25","0","25","0","0","25","25","25","0","25","Sun Oct 18 15:49:11 2020","The main experiment item","yes","Sternbergtask.osexp","C:\Users\chris\OneDrive\Desktop","no","mono","no","18","no","white","no","yes","768","legacy","13","11","C:/Users/chris/OneDrive/Desktop/CM-subject-1.csv","legacy","1 8 7","Lentiform Loewenfeld","3.3.3","0","n","0","right","right","NA","right","right","384","4580","NA","20956","384","2","legacy","3","1024","2","48000","-16","experiment","1","odd","4","179902","112261","96249","180907","NA","178775","100830","179900","2176","2181","182113","184118","184502","23138","184118","Sternberg task","24","18110","26","yes","1024"
"92.5925925925926","92.5925925925926","706.4814814814815","706.4814814814815","black","experiment","legacy","legacy","legacy","0","uniform","1","undefined","1","left","26","26","0","26","0","26","0","26","0","0","26","26","26","0","26","Sun Oct 18 15:49:11 2020","The main experiment item","yes","Sternbergtask.osexp","C:\Users\chris\OneDrive\Desktop","no","mono","no","18","no","white","no","yes","768","legacy","14","11","C:/Users/chris/OneDrive/Desktop/CM-subject-1.csv","legacy","3 4 9 6 2 9","Lentiform Loewenfeld","3.3.3","5","y","0","left","right","NA","right","left","965","4580","NA","20956","965","2","legacy","6","1024","2","48000","-16","experiment","1","odd","2","185644","112261","96249","186649","NA","184512","100830","185642","2176","2181","187854","189859","190825","23138","189859","Sternberg task","25","19075","27","yes","1024"
"89.28571428571429","89.28571428571429","701.3214285714286","701.3214285714286","black","experiment","legacy","legacy","legacy","0","uniform","0","undefined","0","left","27","27","0","27","0","27","0","27","0","0","27","27","27","0","27","Sun Oct 18 15:49:11 2020","The main experiment item","yes","Sternbergtask.osexp","C:\Users\chris\OneDrive\Desktop","no","mono","no","18","no","white","no","yes","768","legacy","15","11","C:/Users/chris/OneDrive/Desktop/CM-subject-1.csv","legacy","7 2 3","Lentiform Loewenfeld","3.3.3","3","y","0","right","right","NA","right","right","562","4580","NA","20956","562","2","legacy","3","1024","2","48000","-16","experiment","1","odd","3","191954","112261","96249","192959","NA","190834","100830","191952","2176","2181","194163","196169","196731","23138","196169","Sternberg task","25","19637","28","yes","1024"
"89.65517241379311","89.65517241379311","704.8965517241379","704.8965517241379","black","experiment","legacy","legacy","legacy","0","uniform","1","undefined","1","right","28","28","0","28","0","28","0","28","0","0","28","28","28","0","28","Sun Oct 18 15:49:11 2020","The main experiment item","yes","Sternbergtask.osexp","C:\Users\chris\OneDrive\Desktop","no","mono","no","18","no","white","no","yes","768","legacy","16","11","C:/Users/chris/OneDrive/Desktop/CM-subject-1.csv","legacy","1 5 3 2 8","Lentiform Loewenfeld","3.3.3","0","n","0","right","right","NA","right","right","805","4580","NA","20956","805","2","legacy","5","1024","2","48000","-16","experiment","1","odd","4","197864","196741","96249","198869","NA","190834","100830","197862","2176","2181","200074","202079","202884","23138","202079","Sternberg task","26","20442","29","yes","1024"
"90","90","709.6666666666666","709.6666666666666","black","experiment","legacy","legacy","legacy","0","uniform","1","undefined","1","right","29","29","0","29","0","29","0","29","0","0","29","29","29","0","29","Sun Oct 18 15:49:11 2020","The main experiment item","yes","Sternbergtask.osexp","C:\Users\chris\OneDrive\Desktop","no","mono","no","18","no","white","no","yes","768","legacy","17","11","C:/Users/chris/OneDrive/Desktop/CM-subject-1.csv","legacy","1 6 4","Lentiform Loewenfeld","3.3.3","0","n","0","right","right","NA","right","right","848","4580","NA","20956","848","2","legacy","3","1024","2","48000","-16","experiment","1","odd","7","204035","196741","96249","205040","NA","202893","100830","204033","2176","2181","206246","208252","209101","23138","208251","Sternberg task","27","21290","30","yes","1024"
"90.3225806451613","90.3225806451613","707.1612903225806","707.1612903225806","black","experiment","legacy","legacy","legacy","0","uniform","1","undefined","1","right","30","30","0","30","0","30","0","30","0","0","30","30","30","0","30","Sun Oct 18 15:49:11 2020","The main experiment item","yes","Sternbergtask.osexp","C:\Users\chris\OneDrive\Desktop","no","mono","no","18","no","white","no","yes","768","legacy","18","11","C:/Users/chris/OneDrive/Desktop/CM-subject-1.csv","legacy","2 6 4 3 9","Lentiform Loewenfeld","3.3.3","0","n","0","right","right","NA","right","right","632","4580","NA","20956","632","2","legacy","5","1024","2","48000","-16","experiment","1","odd","1","210223","196741","96249","211225","NA","209110","100830","210221","2176","2181","212430","214436","215069","23138","214436","Sternberg task","28","21922","31","yes","1024"
"90.625","90.625","706.28125","706.28125","black","experiment","legacy","legacy","legacy","0","uniform","1","undefined","1","right","31","31","0","31","0","31","0","31","0","0","31","31","31","0","31","Sun Oct 18 15:49:11 2020","The main experiment item","yes","Sternbergtask.osexp","C:\Users\chris\OneDrive\Desktop","no","mono","no","18","no","white","no","yes","768","legacy","19","11","C:/Users/chris/OneDrive/Desktop/CM-subject-1.csv","legacy","7 9 1 6","Lentiform Loewenfeld","3.3.3","0","n","0","right","right","NA","right","right","679","4580","NA","20956","679","2","legacy","4","1024","2","48000","-16","experiment","1","odd","4","216198","196741","96249","217204","NA","215078","100830","216196","2176","2181","218409","220414","221094","23138","220414","Sternberg task","29","22601","32","yes","1024"
"90.9090909090909","90.9090909090909","711.6060606060606","711.6060606060606","black","experiment","legacy","legacy","legacy","0","uniform","1","undefined","1","right","32","32","0","32","0","32","0","32","0","0","32","32","32","0","32","Sun Oct 18 15:49:11 2020","The main experiment item","yes","Sternbergtask.osexp","C:\Users\chris\OneDrive\Desktop","no","mono","no","18","no","white","no","yes","768","legacy","20","11","C:/Users/chris/OneDrive/Desktop/CM-subject-1.csv","legacy","3 9 1","Lentiform Loewenfeld","3.3.3","0","n","0","right","right","NA","right","right","882","4580","NA","20956","882","2","legacy","3","1024","2","48000","-16","experiment","1","odd","7","222254","196741","96249","223259","NA","221103","100830","222252","2176","2181","224461","226467","227350","23138","226467","Sternberg task","30","23483","33","yes","1024"
"91.17647058823529","91.17647058823529","710.1470588235294","710.1470588235294","black","experiment","legacy","legacy","legacy","0","uniform","1","undefined","1","left","33","33","0","33","0","33","0","33","0","0","33","33","33","0","33","Sun Oct 18 15:49:11 2020","The main experiment item","yes","Sternbergtask.osexp","C:\Users\chris\OneDrive\Desktop","no","mono","no","18","no","white","no","yes","768","legacy","21","11","C:/Users/chris/OneDrive/Desktop/CM-subject-1.csv","legacy","7 4 2 6 3 5","Lentiform Loewenfeld","3.3.3","6","y","0","left","right","NA","right","left","662","4580","NA","20956","662","2","legacy","6","1024","2","48000","-16","experiment","1","odd","5","228466","196741","96249","229471","NA","227359","100830","228464","2176","2181","230676","232682","233345","23138","232681","Sternberg task","31","24145","34","yes","1024"
"91.42857142857143","91.42857142857143","707.5142857142857","707.5142857142857","black","experiment","legacy","legacy","legacy","0","uniform","1","undefined","1","right","34","34","0","34","0","34","0","34","0","0","34","34","34","0","34","Sun Oct 18 15:49:11 2020","The main experiment item","yes","Sternbergtask.osexp","C:\Users\chris\OneDrive\Desktop","no","mono","no","18","no","white","no","yes","768","legacy","22","11","C:/Users/chris/OneDrive/Desktop/CM-subject-1.csv","legacy","3 9 8 1 6 4","Lentiform Loewenfeld","3.3.3","0","n","0","right","right","NA","right","right","618","4580","NA","20956","618","2","legacy","6","1024","2","48000","-16","experiment","1","odd","7","234470","196741","96249","235475","NA","233354","100830","234468","2176","2181","236680","238685","239304","23138","238685","Sternberg task","32","24763","35","yes","1024"
"91.66666666666667","91.66666666666667","709.3333333333334","709.3333333333334","black","experiment","legacy","legacy","legacy","0","uniform","1","undefined","1","right","35","35","0","35","0","35","0","35","0","0","35","35","35","0","35","Sun Oct 18 15:49:11 2020","The main experiment item","yes","Sternbergtask.osexp","C:\Users\chris\OneDrive\Desktop","no","mono","no","18","no","white","no","yes","768","legacy","23","11","C:/Users/chris/OneDrive/Desktop/CM-subject-1.csv","legacy","9 8 2 7 4","Lentiform Loewenfeld","3.3.3","0","n","0","right","right","NA","right","right","773","4580","NA","20956","773","2","legacy","5","1024","2","48000","-16","experiment","1","odd","5","240443","196741","96249","241448","NA","239313","100830","240441","2176","2181","242654","244659","245432","23138","244659","Sternberg task","33","25536","36","yes","1024"
"91.89189189189189","91.89189189189189","709.4054054054054","709.4054054054054","black","experiment","legacy","legacy","legacy","0","uniform","1","undefined","1","left","36","36","0","36","0","36","0","36","0","0","36","36","36","0","36","Sun Oct 18 15:49:11 2020","The main experiment item","yes","Sternbergtask.osexp","C:\Users\chris\OneDrive\Desktop","no","mono","no","18","no","white","no","yes","768","legacy","24","11","C:/Users/chris/OneDrive/Desktop/CM-subject-1.csv","legacy","2 4 8 5 1 3","Lentiform Loewenfeld","3.3.3","1","y","0","left","right","NA","right","left","712","4580","NA","20956","712","2","legacy","6","1024","2","48000","-16","experiment","1","odd","2","246577","196741","96249","247583","NA","245441","100830","246575","2176","2181","248788","250793","251506","23138","250793","Sternberg task","34","26248","37","yes","1024"
"92.10526315789474","92.10526315789474","708.1842105263158","708.1842105263158","black","experiment","legacy","legacy","legacy","0","uniform","1","undefined","1","right","37","37","0","37","0","37","0","37","0","0","37","37","37","0","37","Sun Oct 18 15:49:11 2020","The main experiment item","yes","Sternbergtask.osexp","C:\Users\chris\OneDrive\Desktop","no","mono","no","18","no","white","no","yes","768","legacy","25","11","C:/Users/chris/OneDrive/Desktop/CM-subject-1.csv","legacy","6 3 1 7 9 8","Lentiform Loewenfeld","3.3.3","0","n","0","right","right","NA","right","right","663","4580","NA","20956","663","2","legacy","6","1024","2","48000","-16","experiment","1","odd","4","252658","196741","96249","253663","NA","251515","100830","252656","2176","2181","254868","256873","257537","23138","256873","Sternberg task","35","26911","38","yes","1024"
"92.3076923076923","92.3076923076923","715.4358974358975","715.4358974358975","black","experiment","legacy","legacy","legacy","0","uniform","1","undefined","1","left","38","38","0","38","0","38","0","38","0","0","38","38","38","0","38","Sun Oct 18 15:49:11 2020","The main experiment item","yes","Sternbergtask.osexp","C:\Users\chris\OneDrive\Desktop","no","mono","no","18","no","white","no","yes","768","legacy","26","11","C:/Users/chris/OneDrive/Desktop/CM-subject-1.csv","legacy","2 4 6 9","Lentiform Loewenfeld","3.3.3","3","y","0","left","right","NA","right","left","991","4580","NA","20956","991","2","legacy","4","1024","2","48000","-16","experiment","1","odd","6","258667","196741","96249","259672","NA","257545","100830","258665","2176","2181","260877","262882","263873","23138","262882","Sternberg task","36","27902","39","yes","1024"
"92.5","92.5","714.675","714.675","black","experiment","legacy","legacy","legacy","0","uniform","1","undefined","1","left","39","39","0","39","0","39","0","39","0","0","39","39","39","0","39","Sun Oct 18 15:49:11 2020","The main experiment item","yes","Sternbergtask.osexp","C:\Users\chris\OneDrive\Desktop","no","mono","no","18","no","white","no","yes","768","legacy","27","11","C:/Users/chris/OneDrive/Desktop/CM-subject-1.csv","legacy","9 3 8 2 1 4","Lentiform Loewenfeld","3.3.3","3","y","0","left","right","NA","right","left","685","4580","NA","20956","685","2","legacy","6","1024","2","48000","-16","experiment","1","odd","8","265005","196741","96249","266010","NA","263883","100830","265003","2176","2181","267215","269220","269906","23138","269220","Sternberg task","37","28587","40","yes","1024"
"92.6829268292683","92.6829268292683","719.8048780487804","719.8048780487804","black","experiment","legacy","legacy","legacy","0","uniform","1","undefined","1","left","40","40","0","40","0","40","0","40","0","0","40","40","40","0","40","Sun Oct 18 15:49:11 2020","The main experiment item","yes","Sternbergtask.osexp","C:\Users\chris\OneDrive\Desktop","no","mono","no","18","no","white","no","yes","768","legacy","28","11","C:/Users/chris/OneDrive/Desktop/CM-subject-1.csv","legacy","7 8 6 3 1","Lentiform Loewenfeld","3.3.3","5","y","0","left","right","NA","right","left","925","4580","NA","20956","925","2","legacy","5","1024","2","48000","-16","experiment","1","odd","1","271030","196741","96249","272034","NA","269915","100830","271028","2176","2181","273239","275244","276170","23138","275244","Sternberg task","38","29512","41","yes","1024"
"92.85714285714286","92.85714285714286","721.8333333333334","721.8333333333334","black","experiment","legacy","legacy","legacy","0","uniform","1","undefined","1","right","41","41","0","41","0","41","0","41","0","0","41","41","41","0","41","Sun Oct 18 15:49:11 2020","The main experiment item","yes","Sternbergtask.osexp","C:\Users\chris\OneDrive\Desktop","no","mono","no","18","no","white","no","yes","768","legacy","29","11","C:/Users/chris/OneDrive/Desktop/CM-subject-1.csv","legacy","9 7 4 5 8","Lentiform Loewenfeld","3.3.3","0","n","0","right","right","NA","right","right","805","4580","NA","20956","805","2","legacy","5","1024","2","48000","-16","experiment","1","odd","6","277297","196741","96249","278303","NA","276178","100830","277295","2176","2181","279509","281515","282320","23138","281514","Sternberg task","39","30317","42","yes","1024"
"93.02325581395348","93.02325581395348","727.2790697674419","727.2790697674419","black","experiment","legacy","legacy","legacy","0","uniform","1","undefined","1","right","42","42","0","42","0","42","0","42","0","0","42","42","42","0","42","Sun Oct 18 15:49:11 2020","The main experiment item","yes","Sternbergtask.osexp","C:\Users\chris\OneDrive\Desktop","no","mono","no","18","no","white","no","yes","768","legacy","30","11","C:/Users/chris/OneDrive/Desktop/CM-subject-1.csv","legacy","6 9 5","Lentiform Loewenfeld","3.3.3","0","n","0","right","right","NA","right","right","956","4580","NA","20956","956","2","legacy","3","1024","2","48000","-16","experiment","1","odd","8","283468","196741","96249","284473","NA","282329","100830","283466","2176","2181","285678","287684","288640","23138","287684","Sternberg task","40","31273","43","yes","1024"
"90.9090909090909","90.9090909090909","734.7045454545455","734.7045454545455","black","experiment","legacy","legacy","legacy","0","uniform","0","undefined","0","right","43","43","0","43","0","43","0","43","0","0","43","43","43","0","43","Sun Oct 18 15:49:11 2020","The main experiment item","yes","Sternbergtask.osexp","C:\Users\chris\OneDrive\Desktop","no","mono","no","18","no","white","no","yes","768","legacy","31","11","C:/Users/chris/OneDrive/Desktop/CM-subject-1.csv","legacy","7 3 2 8","Lentiform Loewenfeld","3.3.3","0","n","0","left","right","NA","right","left","1054","4580","NA","20956","1054","2","legacy","4","1024","2","48000","-16","experiment","1","odd","4","289781","196741","96249","290786","NA","288650","100830","289779","2176","2181","291991","293996","295051","23138","293996","Sternberg task","40","32327","44","yes","1024"
"91.11111111111111","91.11111111111111","733.3555555555556","733.3555555555556","black","experiment","legacy","legacy","legacy","0","uniform","1","undefined","1","left","44","44","0","44","0","44","0","44","0","0","44","44","44","0","44","Sun Oct 18 15:49:11 2020","The main experiment item","yes","Sternbergtask.osexp","C:\Users\chris\OneDrive\Desktop","no","mono","no","18","no","white","no","yes","768","legacy","32","11","C:/Users/chris/OneDrive/Desktop/CM-subject-1.csv","legacy","7 6","Lentiform Loewenfeld","3.3.3","2","y","0","left","right","NA","right","left","674","4580","NA","20956","674","2","legacy","2","1024","2","48000","-16","experiment","1","odd","6","296176","295060","96249","297181","NA","288650","100830","296174","2176","2181","298387","300393","301068","23138","300393","Sternberg task","41","33001","45","yes","1024"
"91.30434782608695","91.30434782608695","738.0217391304348","738.0217391304348","black","experiment","legacy","legacy","legacy","0","uniform","1","undefined","1","right","45","45","0","45","0","45","0","45","0","0","45","45","45","0","45","Sun Oct 18 15:49:11 2020","The main experiment item","yes","Sternbergtask.osexp","C:\Users\chris\OneDrive\Desktop","no","mono","no","18","no","white","no","yes","768","legacy","33","11","C:/Users/chris/OneDrive/Desktop/CM-subject-1.csv","legacy","2 7 5","Lentiform Loewenfeld","3.3.3","0","n","0","right","right","NA","right","right","948","4580","NA","20956","948","2","legacy","3","1024","2","48000","-16","experiment","1","odd","8","302197","295060","96249","303202","NA","301076","100830","302195","2176","2181","304407","306413","307362","23138","306413","Sternberg task","42","33949","46","yes","1024"
"91.48936170212765","91.48936170212765","739.4255319148937","739.4255319148937","black","experiment","legacy","legacy","legacy","0","uniform","1","undefined","1","right","46","46","0","46","0","46","0","46","0","0","46","46","46","0","46","Sun Oct 18 15:49:11 2020","The main experiment item","yes","Sternbergtask.osexp","C:\Users\chris\OneDrive\Desktop","no","mono","no","18","no","white","no","yes","768","legacy","34","11","C:/Users/chris/OneDrive/Desktop/CM-subject-1.csv","legacy","3 4 2","Lentiform Loewenfeld","3.3.3","0","n","0","right","right","NA","right","right","804","4580","NA","20956","804","2","legacy","3","1024","2","48000","-16","experiment","1","odd","5","308502","295060","96249","309507","NA","307371","100830","308500","2176","2181","310712","312717","313522","23138","312717","Sternberg task","43","34753","47","yes","1024"
"91.66666666666667","91.66666666666667","741.1041666666666","741.1041666666666","black","experiment","legacy","legacy","legacy","0","uniform","1","undefined","1","right","47","47","0","47","0","47","0","47","0","0","47","47","47","0","47","Sun Oct 18 15:49:11 2020","The main experiment item","yes","Sternbergtask.osexp","C:\Users\chris\OneDrive\Desktop","no","mono","no","18","no","white","no","yes","768","legacy","35","11","C:/Users/chris/OneDrive/Desktop/CM-subject-1.csv","legacy","2 8 9 4 1","Lentiform Loewenfeld","3.3.3","0","n","0","right","right","NA","right","right","820","4580","NA","20956","820","2","legacy","5","1024","2","48000","-16","experiment","1","odd","5","314654","295060","96249","315659","NA","313531","100830","314652","2176","2181","316865","318870","319691","23138","318870","Sternberg task","44","35573","48","yes","1024"
"89.79591836734694","89.79591836734694","743.0408163265306","743.0408163265306","black","experiment","legacy","legacy","legacy","0","uniform","0","undefined","0","left","48","48","0","48","0","48","0","48","0","0","48","48","48","0","48","Sun Oct 18 15:49:11 2020","The main experiment item","yes","Sternbergtask.osexp","C:\Users\chris\OneDrive\Desktop","no","mono","no","18","no","white","no","yes","768","legacy","36","11","C:/Users/chris/OneDrive/Desktop/CM-subject-1.csv","legacy","8 5 4 7 3 1","Lentiform Loewenfeld","3.3.3","2","y","0","right","right","NA","right","right","836","4580","NA","20956","836","2","legacy","6","1024","2","48000","-16","experiment","1","odd","5","320830","295060","96249","321835","NA","319700","100830","320828","2176","2181","323040","325046","325883","23138","325045","Sternberg task","44","36409","49","yes","1024"
"88","88","751.4","751.4","black","experiment","legacy","legacy","legacy","0","uniform","0","undefined","0","right","49","49","0","49","0","49","0","49","0","0","49","49","49","0","49","Sun Oct 18 15:49:11 2020","The main experiment item","yes","Sternbergtask.osexp","C:\Users\chris\OneDrive\Desktop","no","mono","no","18","no","white","no","yes","768","legacy","37","11","C:/Users/chris/OneDrive/Desktop/CM-subject-1.csv","legacy","8 4 3 9","Lentiform Loewenfeld","3.3.3","0","n","0","left","right","NA","right","left","1161","4580","NA","20956","1161","2","legacy","4","1024","2","48000","-16","experiment","1","odd","5","327010","325892","96249","328015","NA","319700","100830","327008","2176","2181","329220","331225","332387","23138","331225","Sternberg task","44","37570","50","yes","1024"
"88.23529411764706","88.23529411764706","750.2941176470588","750.2941176470588","black","experiment","legacy","legacy","legacy","0","uniform","1","undefined","1","right","50","50","0","50","0","50","0","50","0","0","50","50","50","0","50","Sun Oct 18 15:49:11 2020","The main experiment item","yes","Sternbergtask.osexp","C:\Users\chris\OneDrive\Desktop","no","mono","no","18","no","white","no","yes","768","legacy","38","11","C:/Users/chris/OneDrive/Desktop/CM-subject-1.csv","legacy","7 4 2 8 1 9","Lentiform Loewenfeld","3.3.3","0","n","0","right","right","NA","right","right","695","4580","NA","20956","695","2","legacy","6","1024","2","48000","-16","experiment","1","odd","5","333523","332396","96249","334528","NA","319700","100830","333521","2176","2181","335733","337738","338434","23138","337738","Sternberg task","45","38265","51","yes","1024"
"88.46153846153847","88.46153846153847","756.3653846153846","756.3653846153846","black","experiment","legacy","legacy","legacy","0","uniform","1","undefined","1","right","51","51","0","51","0","51","0","51","0","0","51","51","51","0","51","Sun Oct 18 15:49:11 2020","The main experiment item","yes","Sternbergtask.osexp","C:\Users\chris\OneDrive\Desktop","no","mono","no","18","no","white","no","yes","768","legacy","39","11","C:/Users/chris/OneDrive/Desktop/CM-subject-1.csv","legacy","1 7 5 2","Lentiform Loewenfeld","3.3.3","0","n","0","right","right","NA","right","right","1066","4580","NA","20956","1066","2","legacy","4","1024","2","48000","-16","experiment","1","odd","3","339559","332396","96249","340564","NA","338442","100830","339557","2176","2181","341769","343774","344841","23138","343774","Sternberg task","46","39331","52","yes","1024"
"88.67924528301887","88.67924528301887","753.811320754717","753.811320754717","black","experiment","legacy","legacy","legacy","0","uniform","1","undefined","1","left","52","52","0","52","0","52","0","52","0","0","52","52","52","0","52","Sun Oct 18 15:49:11 2020","The main experiment item","yes","Sternbergtask.osexp","C:\Users\chris\OneDrive\Desktop","no","mono","no","18","no","white","no","yes","768","legacy","40","11","C:/Users/chris/OneDrive/Desktop/CM-subject-1.csv","legacy","8 7 3","Lentiform Loewenfeld","3.3.3","1","y","0","left","right","NA","right","left","621","4580","NA","20956","621","2","legacy","3","1024","2","48000","-16","experiment","1","odd","8","345974","332396","96249","346979","NA","344850","100830","345972","2176","2181","348184","350189","350811","23138","350189","Sternberg task","47","39952","53","yes","1024"
"88.88888888888889","88.88888888888889","752.2777777777778","752.2777777777778","black","experiment","legacy","legacy","legacy","0","uniform","1","undefined","1","left","53","53","0","53","0","53","0","53","0","0","53","53","53","0","53","Sun Oct 18 15:49:11 2020","The main experiment item","yes","Sternbergtask.osexp","C:\Users\chris\OneDrive\Desktop","no","mono","no","18","no","white","no","yes","768","legacy","41","11","C:/Users/chris/OneDrive/Desktop/CM-subject-1.csv","legacy","2 6 1 7 4","Lentiform Loewenfeld","3.3.3","2","y","0","left","right","NA","right","left","671","4580","NA","20956","671","2","legacy","5","1024","2","48000","-16","experiment","1","odd","6","351940","332396","96249","352945","NA","350820","100830","351938","2176","2181","354150","356155","356827","23138","356155","Sternberg task","48","40623","54","yes","1024"
"89.0909090909091","89.0909090909091","754.4","754.4","black","experiment","legacy","legacy","legacy","0","uniform","1","undefined","1","left","54","54","0","54","0","54","0","54","0","0","54","54","54","0","54","Sun Oct 18 15:49:11 2020","The main experiment item","yes","Sternbergtask.osexp","C:\Users\chris\OneDrive\Desktop","no","mono","no","18","no","white","no","yes","768","legacy","42","11","C:/Users/chris/OneDrive/Desktop/CM-subject-1.csv","legacy","3 9 6 2","Lentiform Loewenfeld","3.3.3","4","y","0","left","right","NA","right","left","869","4580","NA","20956","869","2","legacy","4","1024","2","48000","-16","experiment","1","odd","2","357950","332396","96249","358955","NA","356836","100830","357947","2176","2181","360160","362165","363035","23138","362165","Sternberg task","49","41492","55","yes","1024"
"89.28571428571429","89.28571428571429","752.5535714285714","752.5535714285714","black","experiment","legacy","legacy","legacy","0","uniform","1","undefined","1","left","55","55","0","55","0","55","0","55","0","0","55","55","55","0","55","Sun Oct 18 15:49:11 2020","The main experiment item","yes","Sternbergtask.osexp","C:\Users\chris\OneDrive\Desktop","no","mono","no","18","no","white","no","yes","768","legacy","43","11","C:/Users/chris/OneDrive/Desktop/CM-subject-1.csv","legacy","2 3","Lentiform Loewenfeld","3.3.3","1","y","0","left","right","NA","right","left","651","4580","NA","20956","651","2","legacy","2","1024","2","48000","-16","experiment","1","odd","2","364159","332396","96249","365164","NA","363045","100830","364157","2176","2181","366370","368376","369028","23138","368375","Sternberg task","50","42143","56","yes","1024"
"89.47368421052632","89.47368421052632","753.859649122807","753.859649122807","black","experiment","legacy","legacy","legacy","0","uniform","1","undefined","1","right","56","56","0","56","0","56","0","56","0","0","56","56","56","0","56","Sun Oct 18 15:49:11 2020","The main experiment item","yes","Sternbergtask.osexp","C:\Users\chris\OneDrive\Desktop","no","mono","no","18","no","white","no","yes","768","legacy","44","11","C:/Users/chris/OneDrive/Desktop/CM-subject-1.csv","legacy","4 8 1 2","Lentiform Loewenfeld","3.3.3","0","n","0","right","right","NA","right","right","827","4580","NA","20956","827","2","legacy","4","1024","2","48000","-16","experiment","1","odd","7","370158","332396","96249","371164","NA","369037","100830","370156","2176","2181","372369","374375","375203","23138","374375","Sternberg task","51","42970","57","yes","1024"
"89.65517241379311","89.65517241379311","759.8103448275862","759.8103448275862","black","experiment","legacy","legacy","legacy","0","uniform","1","undefined","1","left","57","57","0","57","0","57","0","57","0","0","57","57","57","0","57","Sun Oct 18 15:49:11 2020","The main experiment item","yes","Sternbergtask.osexp","C:\Users\chris\OneDrive\Desktop","no","mono","no","18","no","white","no","yes","768","legacy","45","11","C:/Users/chris/OneDrive/Desktop/CM-subject-1.csv","legacy","4 3 2 5 8","Lentiform Loewenfeld","3.3.3","2","y","0","left","right","NA","right","left","1099","4580","NA","20956","1099","2","legacy","5","1024","2","48000","-16","experiment","1","odd","3","376332","332396","96249","377337","NA","375212","100830","376330","2176","2181","378542","380544","381645","23138","380544","Sternberg task","52","44069","58","yes","1024"
"89.83050847457628","89.83050847457628","764.6610169491526","764.6610169491526","black","experiment","legacy","legacy","legacy","0","uniform","1","undefined","1","right","58","58","0","58","0","58","0","58","0","0","58","58","58","0","58","Sun Oct 18 15:49:11 2020","The main experiment item","yes","Sternbergtask.osexp","C:\Users\chris\OneDrive\Desktop","no","mono","no","18","no","white","no","yes","768","legacy","46","11","C:/Users/chris/OneDrive/Desktop/CM-subject-1.csv","legacy","1 7 8 3 9","Lentiform Loewenfeld","3.3.3","0","n","0","right","right","NA","right","right","1046","4580","NA","20956","1046","2","legacy","5","1024","2","48000","-16","experiment","1","odd","2","382751","332396","96249","383752","NA","381650","100830","382748","2176","2181","384958","386963","388010","23138","386963","Sternberg task","53","45115","59","yes","1024"
"90","90","764.3166666666667","764.3166666666667","black","experiment","legacy","legacy","legacy","0","uniform","1","undefined","1","left","59","59","0","59","0","59","0","59","0","0","59","59","59","0","59","Sun Oct 18 15:49:11 2020","The main experiment item","yes","Sternbergtask.osexp","C:\Users\chris\OneDrive\Desktop","no","mono","no","18","no","white","no","yes","768","legacy","47","11","C:/Users/chris/OneDrive/Desktop/CM-subject-1.csv","legacy","4 6 5 8","Lentiform Loewenfeld","3.3.3","1","y","0","left","right","NA","right","left","744","4580","NA","20956","744","2","legacy","4","1024","2","48000","-16","experiment","1","odd","4","389139","332396","96249","390144","NA","388019","100830","389137","2176","2181","391349","393355","394100","23138","393354","Sternberg task","54","45859","60","yes","1024"
"88.52459016393442","88.52459016393442","784.5737704918033","784.5737704918033","black","experiment","legacy","legacy","legacy","0","uniform","0","undefined","0","right","60","60","0","60","0","60","0","60","0","0","60","60","60","0","60","Sun Oct 18 15:49:11 2020","The main experiment item","yes","Sternbergtask.osexp","C:\Users\chris\OneDrive\Desktop","no","mono","no","18","no","white","no","yes","768","legacy","48","11","C:/Users/chris/OneDrive/Desktop/CM-subject-1.csv","legacy","5 3 8 7 2 4","Lentiform Loewenfeld","3.3.3","0","n","0","None","right","NA","right","None","2000","4580","NA","20956","2000","2","legacy","6","1024","2","48000","-16","experiment","1","odd","9","395249","332396","96249","396254","NA","394109","100830","395246","2176","2181","397459","399464","401464","23138","399464","Sternberg task","54","47859","61","yes","1024"
"88.70967741935483","88.70967741935483","785.3387096774194","785.3387096774194","black","experiment","legacy","legacy","legacy","0","uniform","1","undefined","1","right","61","61","0","61","0","61","0","61","0","0","61","61","61","0","61","Sun Oct 18 15:49:11 2020","The main experiment item","yes","Sternbergtask.osexp","C:\Users\chris\OneDrive\Desktop","no","mono","no","18","no","white","no","yes","768","legacy","49","11","C:/Users/chris/OneDrive/Desktop/CM-subject-1.csv","legacy","2 8 7 9 5 3","Lentiform Loewenfeld","3.3.3","0","n","0","right","right","NA","right","right","832","4580","NA","20956","832","2","legacy","6","1024","2","48000","-16","experiment","1","odd","6","402571","401473","96249","403576","NA","394109","100830","402568","2176","2181","404780","406785","407618","23138","406785","Sternberg task","55","48691","62","yes","1024"
"88.88888888888889","88.88888888888889","787.2063492063492","787.2063492063492","black","experiment","legacy","legacy","legacy","0","uniform","1","undefined","1","left","62","62","0","62","0","62","0","62","0","0","62","62","62","0","62","Sun Oct 18 15:49:11 2020","The main experiment item","yes","Sternbergtask.osexp","C:\Users\chris\OneDrive\Desktop","no","mono","no","18","no","white","no","yes","768","legacy","50","11","C:/Users/chris/OneDrive/Desktop/CM-subject-1.csv","legacy","6 1 2","Lentiform Loewenfeld","3.3.3","3","y","0","left","right","NA","right","left","903","4580","NA","20956","903","2","legacy","3","1024","2","48000","-16","experiment","1","odd","2","408756","401473","96249","409761","NA","407626","100830","408754","2176","2181","410966","412972","413876","23138","412972","Sternberg task","56","49594","63","yes","1024"
"89.0625","89.0625","785.46875","785.46875","black","experiment","legacy","legacy","legacy","0","uniform","1","undefined","1","right","63","63","0","63","0","63","0","63","0","0","63","63","63","0","63","Sun Oct 18 15:49:11 2020","The main experiment item","yes","Sternbergtask.osexp","C:\Users\chris\OneDrive\Desktop","no","mono","no","18","no","white","no","yes","768","legacy","51","11","C:/Users/chris/OneDrive/Desktop/CM-subject-1.csv","legacy","7 8 6 1","Lentiform Loewenfeld","3.3.3","0","n","0","right","right","NA","right","right","676","4580","NA","20956","676","2","legacy","4","1024","2","48000","-16","experiment","1","odd","3","415001","401473","96249","416006","NA","413885","100830","414999","2176","2181","417211","419216","419893","23138","419216","Sternberg task","57","50270","64","yes","1024"
"89.23076923076923","89.23076923076923","782.8","782.8","black","experiment","legacy","legacy","legacy","0","uniform","1","undefined","1","left","64","64","0","64","0","64","0","64","0","0","64","64","64","0","64","Sun Oct 18 15:49:11 2020","The main experiment item","yes","Sternbergtask.osexp","C:\Users\chris\OneDrive\Desktop","no","mono","no","18","no","white","no","yes","768","legacy","52","11","C:/Users/chris/OneDrive/Desktop/CM-subject-1.csv","legacy","5 2 6","Lentiform Loewenfeld","3.3.3","2","y","0","left","right","NA","right","left","612","4580","NA","20956","612","2","legacy","3","1024","2","48000","-16","experiment","1","odd","2","421027","401473","96249","422033","NA","419902","100830","421025","2176","2181","423238","425243","425856","23138","425243","Sternberg task","58","50882","65","yes","1024"
"89.39393939393939","89.39393939393939","782.3030303030303","782.3030303030303","black","experiment","legacy","legacy","legacy","0","uniform","1","undefined","1","left","65","65","0","65","0","65","0","65","0","0","65","65","65","0","65","Sun Oct 18 15:49:11 2020","The main experiment item","yes","Sternbergtask.osexp","C:\Users\chris\OneDrive\Desktop","no","mono","no","18","no","white","no","yes","768","legacy","53","11","C:/Users/chris/OneDrive/Desktop/CM-subject-1.csv","legacy","7","Lentiform Loewenfeld","3.3.3","1","y","0","left","right","NA","right","left","750","4580","NA","20956","750","2","legacy","1","1024","2","48000","-16","experiment","1","odd","7","426980","401473","96249","427985","NA","425865","100830","426978","2176","2181","429190","431195","431946","23138","431195","Sternberg task","59","51632","66","yes","1024"
"89.55223880597015","89.55223880597015","778.9402985074627","778.9402985074627","black","experiment","legacy","legacy","legacy","0","uniform","1","undefined","1","left","66","66","0","66","0","66","0","66","0","0","66","66","66","0","66","Sun Oct 18 15:49:11 2020","The main experiment item","yes","Sternbergtask.osexp","C:\Users\chris\OneDrive\Desktop","no","mono","no","18","no","white","no","yes","768","legacy","54","11","C:/Users/chris/OneDrive/Desktop/CM-subject-1.csv","legacy","7 1 8 5 6 2","Lentiform Loewenfeld","3.3.3","2","y","0","left","right","NA","right","left","557","4580","NA","20956","557","2","legacy","6","1024","2","48000","-16","experiment","1","odd","1","433070","401473","96249","434075","NA","431955","100830","433067","2176","2181","435280","437285","437843","23138","437285","Sternberg task","60","52189","67","yes","1024"
"88.23529411764706","88.23529411764706","778.4264705882352","778.4264705882352","black","experiment","legacy","legacy","legacy","0","uniform","0","undefined","0","right","67","67","0","67","0","67","0","67","0","0","67","67","67","0","67","Sun Oct 18 15:49:11 2020","The main experiment item","yes","Sternbergtask.osexp","C:\Users\chris\OneDrive\Desktop","no","mono","no","18","no","white","no","yes","768","legacy","55","11","C:/Users/chris/OneDrive/Desktop/CM-subject-1.csv","legacy","1 6 4 3 9 7","Lentiform Loewenfeld","3.3.3","0","n","0","left","right","NA","right","left","744","4580","NA","20956","744","2","legacy","6","1024","2","48000","-16","experiment","1","odd","8","438979","401473","96249","439984","NA","437853","100830","438977","2176","2181","441190","443196","443941","23138","443196","Sternberg task","60","52933","68","yes","1024"
"88.40579710144928","88.40579710144928","775.4347826086956","775.4347826086956","black","experiment","legacy","legacy","legacy","0","uniform","1","undefined","1","left","68","68","0","68","0","68","0","68","0","0","68","68","68","0","68","Sun Oct 18 15:49:11 2020","The main experiment item","yes","Sternbergtask.osexp","C:\Users\chris\OneDrive\Desktop","no","mono","no","18","no","white","no","yes","768","legacy","56","11","C:/Users/chris/OneDrive/Desktop/CM-subject-1.csv","legacy","3 4","Lentiform Loewenfeld","3.3.3","1","y","0","left","right","NA","right","left","572","4580","NA","20956","572","2","legacy","2","1024","2","48000","-16","experiment","1","odd","3","445076","443951","96249","446081","NA","437853","100830","445074","2176","2181","447286","449291","449864","23138","449291","Sternberg task","61","53505","69","yes","1024"
"88.57142857142857","88.57142857142857","779.6","779.6","black","experiment","legacy","legacy","legacy","0","uniform","1","undefined","1","right","69","69","0","69","0","69","0","69","0","0","69","69","69","0","69","Sun Oct 18 15:49:11 2020","The main experiment item","yes","Sternbergtask.osexp","C:\Users\chris\OneDrive\Desktop","no","mono","no","18","no","white","no","yes","768","legacy","57","11","C:/Users/chris/OneDrive/Desktop/CM-subject-1.csv","legacy","5 3 2 6 9 8","Lentiform Loewenfeld","3.3.3","0","n","0","right","right","NA","right","right","1067","4580","NA","20956","1067","2","legacy","6","1024","2","48000","-16","experiment","1","odd","4","451021","443951","96249","452025","NA","449873","100830","451019","2176","2181","453231","455236","456304","23138","455236","Sternberg task","62","54572","70","yes","1024"
"88.73239436619718","88.73239436619718","776.3943661971831","776.3943661971831","black","experiment","legacy","legacy","legacy","0","uniform","1","undefined","1","left","70","70","0","70","0","70","0","70","0","0","70","70","70","0","70","Sun Oct 18 15:49:11 2020","The main experiment item","yes","Sternbergtask.osexp","C:\Users\chris\OneDrive\Desktop","no","mono","no","18","no","white","no","yes","768","legacy","58","11","C:/Users/chris/OneDrive/Desktop/CM-subject-1.csv","legacy","9 3 1 2 5","Lentiform Loewenfeld","3.3.3","4","y","0","left","right","NA","right","left","552","4580","NA","20956","552","2","legacy","5","1024","2","48000","-16","experiment","1","odd","2","457429","443951","96249","458434","NA","456313","100830","457427","2176","2181","459639","461644","462197","23138","461644","Sternberg task","63","55124","71","yes","1024"
"88.88888888888889","88.88888888888889","773.2638888888889","773.2638888888889","black","experiment","legacy","legacy","legacy","0","uniform","1","undefined","1","left","71","71","0","71","0","71","0","71","0","0","71","71","71","0","71","Sun Oct 18 15:49:11 2020","The main experiment item","yes","Sternbergtask.osexp","C:\Users\chris\OneDrive\Desktop","no","mono","no","18","no","white","no","yes","768","legacy","59","11","C:/Users/chris/OneDrive/Desktop/CM-subject-1.csv","legacy","8","Lentiform Loewenfeld","3.3.3","1","y","0","left","right","NA","right","left","551","4580","NA","20956","551","2","legacy","1","1024","2","48000","-16","experiment","1","odd","8","463327","443951","96249","464332","NA","462206","100830","463324","2176","2181","465538","467544","468096","23138","467543","Sternberg task","64","55675","72","yes","1024"
"89.04109589041096","89.04109589041096","772.1917808219179","772.1917808219179","black","experiment","legacy","legacy","legacy","0","uniform","1","undefined","1","right","72","72","0","72","0","72","0","72","0","0","72","72","72","0","72","Sun Oct 18 15:49:11 2020","The main experiment item","yes","Sternbergtask.osexp","C:\Users\chris\OneDrive\Desktop","no","mono","no","18","no","white","no","yes","768","legacy","60","11","C:/Users/chris/OneDrive/Desktop/CM-subject-1.csv","legacy","7 9","Lentiform Loewenfeld","3.3.3","0","n","0","right","right","NA","right","right","695","4580","NA","20956","695","2","legacy","2","1024","2","48000","-16","experiment","1","odd","1","469243","443951","96249","470248","NA","468105","100830","469241","2176","2181","471453","473458","474154","23138","473458","Sternberg task","65","56370","73","yes","1024"
"89.1891891891892","89.1891891891892","770.5945945945946","770.5945945945946","black","experiment","legacy","legacy","legacy","0","uniform","1","undefined","1","left","73","73","0","73","0","73","0","73","0","0","73","73","73","0","73","Sun Oct 18 15:49:11 2020","The main experiment item","yes","Sternbergtask.osexp","C:\Users\chris\OneDrive\Desktop","no","mono","no","18","no","white","no","yes","768","legacy","61","11","C:/Users/chris/OneDrive/Desktop/CM-subject-1.csv","legacy","9 5 3 8 4","Lentiform Loewenfeld","3.3.3","1","y","0","left","right","NA","right","left","654","4580","NA","20956","654","2","legacy","5","1024","2","48000","-16","experiment","1","odd","9","475278","443951","96249","476283","NA","474164","100830","475275","2176","2181","477488","479494","480149","23138","479493","Sternberg task","66","57024","74","yes","1024"
"88","88","772.7333333333333","772.7333333333333","black","experiment","legacy","legacy","legacy","0","uniform","0","undefined","0","left","74","74","0","74","0","74","0","74","0","0","74","74","74","0","74","Sun Oct 18 15:49:11 2020","The main experiment item","yes","Sternbergtask.osexp","C:\Users\chris\OneDrive\Desktop","no","mono","no","18","no","white","no","yes","768","legacy","62","11","C:/Users/chris/OneDrive/Desktop/CM-subject-1.csv","legacy","3 2 1 4 7","Lentiform Loewenfeld","3.3.3","2","y","0","right","right","NA","right","right","931","4580","NA","20956","931","2","legacy","5","1024","2","48000","-16","experiment","1","odd","2","481289","443951","96249","482294","NA","480159","100830","481287","2176","2181","483499","485505","486437","23138","485505","Sternberg task","66","57955","75","yes","1024"
"88.15789473684211","88.15789473684211","768.3157894736842","768.3157894736842","black","experiment","legacy","legacy","legacy","0","uniform","1","undefined","1","left","75","75","0","75","0","75","0","75","0","0","75","75","75","0","75","Sun Oct 18 15:49:11 2020","The main experiment item","yes","Sternbergtask.osexp","C:\Users\chris\OneDrive\Desktop","no","mono","no","18","no","white","no","yes","768","legacy","63","11","C:/Users/chris/OneDrive/Desktop/CM-subject-1.csv","legacy","7 1 3","Lentiform Loewenfeld","3.3.3","2","y","0","left","right","NA","right","left","437","4580","NA","20956","437","2","legacy","3","1024","2","48000","-16","experiment","1","odd","1","487572","486446","96249","488577","NA","480159","100830","487569","2176","2181","489782","491787","492225","23138","491787","Sternberg task","67","58392","76","yes","1024"
"88.31168831168831","88.31168831168831","766.5064935064935","766.5064935064935","black","experiment","legacy","legacy","legacy","0","uniform","1","undefined","1","right","76","76","0","76","0","76","0","76","0","0","76","76","76","0","76","Sun Oct 18 15:49:11 2020","The main experiment item","yes","Sternbergtask.osexp","C:\Users\chris\OneDrive\Desktop","no","mono","no","18","no","white","no","yes","768","legacy","64","11","C:/Users/chris/OneDrive/Desktop/CM-subject-1.csv","legacy","8 9","Lentiform Loewenfeld","3.3.3","0","n","0","right","right","NA","right","right","629","4580","NA","20956","629","2","legacy","2","1024","2","48000","-16","experiment","1","odd","5","493356","486446","96249","494361","NA","492235","100830","493354","2176","2181","495567","497572","498202","23138","497572","Sternberg task","68","59021","77","yes","1024"
"88.46153846153847","88.46153846153847","771.9615384615385","771.9615384615385","black","experiment","legacy","legacy","legacy","0","uniform","1","undefined","1","right","77","77","0","77","0","77","0","77","0","0","77","77","77","0","77","Sun Oct 18 15:49:11 2020","The main experiment item","yes","Sternbergtask.osexp","C:\Users\chris\OneDrive\Desktop","no","mono","no","18","no","white","no","yes","768","legacy","65","11","C:/Users/chris/OneDrive/Desktop/CM-subject-1.csv","legacy","7 1 8 4 9 3","Lentiform Loewenfeld","3.3.3","0","n","0","right","right","NA","right","right","1192","4580","NA","20956","1192","2","legacy","6","1024","2","48000","-16","experiment","1","odd","6","499328","486446","96249","500335","NA","498212","100830","499326","2176","2181","501540","503545","504738","23138","503545","Sternberg task","69","60213","78","yes","1024"
"88.60759493670886","88.60759493670886","772.3924050632911","772.3924050632911","black","experiment","legacy","legacy","legacy","0","uniform","1","undefined","1","left","78","78","0","78","0","78","0","78","0","0","78","78","78","0","78","Sun Oct 18 15:49:11 2020","The main experiment item","yes","Sternbergtask.osexp","C:\Users\chris\OneDrive\Desktop","no","mono","no","18","no","white","no","yes","768","legacy","66","11","C:/Users/chris/OneDrive/Desktop/CM-subject-1.csv","legacy","4 9 7 8 5 3","Lentiform Loewenfeld","3.3.3","4","y","0","left","right","NA","right","left","806","4580","NA","20956","806","2","legacy","6","1024","2","48000","-16","experiment","1","odd","8","505876","486446","96249","506881","NA","504748","100830","505873","2176","2181","508088","510094","510901","23138","510093","Sternberg task","70","61019","79","yes","1024"
"88.75","88.75","777.0125","777.0125","black","experiment","legacy","legacy","legacy","0","uniform","1","undefined","1","left","79","79","0","79","0","79","0","79","0","0","79","79","79","0","79","Sun Oct 18 15:49:11 2020","The main experiment item","yes","Sternbergtask.osexp","C:\Users\chris\OneDrive\Desktop","no","mono","no","18","no","white","no","yes","768","legacy","67","11","C:/Users/chris/OneDrive/Desktop/CM-subject-1.csv","legacy","9 1 7 2","Lentiform Loewenfeld","3.3.3","2","y","0","left","right","NA","right","left","1142","4580","NA","20956","1142","2","legacy","4","1024","2","48000","-16","experiment","1","odd","1","512062","486446","96249","513067","NA","510909","100830","512060","2176","2181","514272","516277","517420","23138","516277","Sternberg task","71","62161","80","yes","1024"
"88.88888888888889","88.88888888888889","775.283950617284","775.283950617284","black","experiment","legacy","legacy","legacy","0","uniform","1","undefined","1","right","80","80","0","80","0","80","0","80","0","0","80","80","80","0","80","Sun Oct 18 15:49:11 2020","The main experiment item","yes","Sternbergtask.osexp","C:\Users\chris\OneDrive\Desktop","no","mono","no","18","no","white","no","yes","768","legacy","68","11","C:/Users/chris/OneDrive/Desktop/CM-subject-1.csv","legacy","5","Lentiform Loewenfeld","3.3.3","0","n","0","right","right","NA","right","right","637","4580","NA","20956","637","2","legacy","1","1024","2","48000","-16","experiment","1","odd","8","518558","486446","96249","519563","NA","517429","100830","518556","2176","2181","520768","522774","523412","23138","522773","Sternberg task","72","62798","81","yes","1024"
"89.02439024390245","89.02439024390245","774.4146341463414","774.4146341463414","black","experiment","legacy","legacy","legacy","0","uniform","1","undefined","1","left","81","81","0","81","0","81","0","81","0","0","81","81","81","0","81","Sun Oct 18 15:49:11 2020","The main experiment item","yes","Sternbergtask.osexp","C:\Users\chris\OneDrive\Desktop","no","mono","no","18","no","white","no","yes","768","legacy","69","11","C:/Users/chris/OneDrive/Desktop/CM-subject-1.csv","legacy","4 1 5","Lentiform Loewenfeld","3.3.3","2","y","0","left","right","NA","right","left","704","4580","NA","20956","704","2","legacy","3","1024","2","48000","-16","experiment","1","odd","1","524535","486446","96249","525540","NA","523416","100830","524533","2176","2181","526745","528750","529455","23138","528750","Sternberg task","73","63502","82","yes","1024"
"89.1566265060241","89.1566265060241","772.6265060240963","772.6265060240963","black","experiment","legacy","legacy","legacy","0","uniform","1","undefined","1","left","82","82","0","82","0","82","0","82","0","0","82","82","82","0","82","Sun Oct 18 15:49:11 2020","The main experiment item","yes","Sternbergtask.osexp","C:\Users\chris\OneDrive\Desktop","no","mono","no","18","no","white","no","yes","768","legacy","70","11","C:/Users/chris/OneDrive/Desktop/CM-subject-1.csv","legacy","9 4 2","Lentiform Loewenfeld","3.3.3","1","y","0","left","right","NA","right","left","626","4580","NA","20956","626","2","legacy","3","1024","2","48000","-16","experiment","1","odd","9","530596","486446","96249","531601","NA","529464","100830","530594","2176","2181","532807","534813","535441","23138","534813","Sternberg task","74","64128","83","yes","1024"
"89.28571428571429","89.28571428571429","774.0357142857143","774.0357142857143","black","experiment","legacy","legacy","legacy","0","uniform","1","undefined","1","left","83","83","0","83","0","83","0","83","0","0","83","83","83","0","83","Sun Oct 18 15:49:11 2020","The main experiment item","yes","Sternbergtask.osexp","C:\Users\chris\OneDrive\Desktop","no","mono","no","18","no","white","no","yes","768","legacy","71","11","C:/Users/chris/OneDrive/Desktop/CM-subject-1.csv","legacy","3 9 7 6 4","Lentiform Loewenfeld","3.3.3","3","y","0","left","right","NA","right","left","891","4580","NA","20956","891","2","legacy","5","1024","2","48000","-16","experiment","1","odd","7","536566","486446","96249","537572","NA","535450","100830","536564","2176","2181","538777","540783","541675","23138","540783","Sternberg task","75","65019","84","yes","1024"
"89.41176470588235","89.41176470588235","778.964705882353","778.964705882353","black","experiment","legacy","legacy","legacy","0","uniform","1","undefined","1","left","84","84","0","84","0","84","0","84","0","0","84","84","84","0","84","Sun Oct 18 15:49:11 2020","The main experiment item","yes","Sternbergtask.osexp","C:\Users\chris\OneDrive\Desktop","no","mono","no","18","no","white","no","yes","768","legacy","72","11","C:/Users/chris/OneDrive/Desktop/CM-subject-1.csv","legacy","6 2","Lentiform Loewenfeld","3.3.3","1","y","0","left","right","NA","right","left","1193","4580","NA","20956","1193","2","legacy","2","1024","2","48000","-16","experiment","1","odd","6","542799","486446","96249","543806","NA","541684","100830","542797","2176","2181","545011","547017","548211","23138","547017","Sternberg task","76","66212","85","yes","1024"
"88.37209302325581","88.37209302325581","783.1279069767442","783.1279069767442","black","experiment","legacy","legacy","legacy","0","uniform","0","undefined","0","left","85","85","0","85","0","85","0","85","0","0","85","85","85","0","85","Sun Oct 18 15:49:11 2020","The main experiment item","yes","Sternbergtask.osexp","C:\Users\chris\OneDrive\Desktop","no","mono","no","18","no","white","no","yes","768","legacy","73","11","C:/Users/chris/OneDrive/Desktop/CM-subject-1.csv","legacy","6 8 9 3 4 9","Lentiform Loewenfeld","3.3.3","5","y","0","right","right","NA","right","right","1137","4580","NA","20956","1137","2","legacy","6","1024","2","48000","-16","experiment","1","odd","4","549343","486446","96249","550348","NA","548220","100830","549341","2176","2181","551553","553559","554697","23138","553559","Sternberg task","76","67349","86","yes","1024"
"88.50574712643679","88.50574712643679","781.8620689655172","781.8620689655172","black","experiment","legacy","legacy","legacy","0","uniform","1","undefined","1","right","86","86","0","86","0","86","0","86","0","0","86","86","86","0","86","Sun Oct 18 15:49:11 2020","The main experiment item","yes","Sternbergtask.osexp","C:\Users\chris\OneDrive\Desktop","no","mono","no","18","no","white","no","yes","768","legacy","74","11","C:/Users/chris/OneDrive/Desktop/CM-subject-1.csv","legacy","5 2","Lentiform Loewenfeld","3.3.3","0","n","0","right","right","NA","right","right","673","4580","NA","20956","673","2","legacy","2","1024","2","48000","-16","experiment","1","odd","7","555826","554707","96249","556831","NA","548220","100830","555823","2176","2181","558036","560042","560716","23138","560041","Sternberg task","77","68022","87","yes","1024"
"88.63636363636364","88.63636363636364","780.9886363636364","780.9886363636364","black","experiment","legacy","legacy","legacy","0","uniform","1","undefined","1","left","87","87","0","87","0","87","0","87","0","0","87","87","87","0","87","Sun Oct 18 15:49:11 2020","The main experiment item","yes","Sternbergtask.osexp","C:\Users\chris\OneDrive\Desktop","no","mono","no","18","no","white","no","yes","768","legacy","75","11","C:/Users/chris/OneDrive/Desktop/CM-subject-1.csv","legacy","7 8 4 6 9 5","Lentiform Loewenfeld","3.3.3","4","y","0","left","right","NA","right","left","705","4580","NA","20956","705","2","legacy","6","1024","2","48000","-16","experiment","1","odd","6","561853","554707","96249","562858","NA","560725","100830","561851","2176","2181","564063","566069","566775","23138","566069","Sternberg task","78","68727","88","yes","1024"
"88.76404494382022","88.76404494382022","780.8089887640449","780.8089887640449","black","experiment","legacy","legacy","legacy","0","uniform","1","undefined","1","right","88","88","0","88","0","88","0","88","0","0","88","88","88","0","88","Sun Oct 18 15:49:11 2020","The main experiment item","yes","Sternbergtask.osexp","C:\Users\chris\OneDrive\Desktop","no","mono","no","18","no","white","no","yes","768","legacy","76","11","C:/Users/chris/OneDrive/Desktop/CM-subject-1.csv","legacy","7 6 4 8 1 2","Lentiform Loewenfeld","3.3.3","0","n","0","right","right","NA","right","right","765","4580","NA","20956","765","2","legacy","6","1024","2","48000","-16","experiment","1","odd","9","567912","554707","96249","568918","NA","566784","100830","567911","2176","2181","570123","572128","572894","23138","572128","Sternberg task","79","69492","89","yes","1024"
"87.77777777777777","87.77777777777777","782.6555555555556","782.6555555555556","black","experiment","legacy","legacy","legacy","0","uniform","0","undefined","0","left","89","89","0","89","0","89","0","89","0","0","89","89","89","0","89","Sun Oct 18 15:49:11 2020","The main experiment item","yes","Sternbergtask.osexp","C:\Users\chris\OneDrive\Desktop","no","mono","no","18","no","white","no","yes","768","legacy","77","11","C:/Users/chris/OneDrive/Desktop/CM-subject-1.csv","legacy","8 5 3 7 4 6","Lentiform Loewenfeld","3.3.3","6","y","0","right","right","NA","right","right","947","4580","NA","20956","947","2","legacy","6","1024","2","48000","-16","experiment","1","odd","6","574026","554707","96249","575031","NA","572903","100830","574024","2176","2181","576236","578243","579191","23138","578243","Sternberg task","79","70439","90","yes","1024"
"87.91208791208791","87.91208791208791","779.2967032967033","779.2967032967033","black","experiment","legacy","legacy","legacy","0","uniform","1","undefined","1","left","90","90","0","90","0","90","0","90","0","0","90","90","90","0","90","Sun Oct 18 15:49:11 2020","The main experiment item","yes","Sternbergtask.osexp","C:\Users\chris\OneDrive\Desktop","no","mono","no","18","no","white","no","yes","768","legacy","78","11","C:/Users/chris/OneDrive/Desktop/CM-subject-1.csv","legacy","8 9 5 7 1 6","Lentiform Loewenfeld","3.3.3","4","y","0","left","right","NA","right","left","477","4580","NA","20956","477","2","legacy","6","1024","2","48000","-16","experiment","1","odd","7","580325","579201","96249","581330","NA","572903","100830","580323","2176","2181","582535","584541","585018","23138","584541","Sternberg task","80","70916","91","yes","1024"
"88.04347826086956","88.04347826086956","778.5","778.5","black","experiment","legacy","legacy","legacy","0","uniform","1","undefined","1","left","91","91","0","91","0","91","0","91","0","0","91","91","91","0","91","Sun Oct 18 15:49:11 2020","The main experiment item","yes","Sternbergtask.osexp","C:\Users\chris\OneDrive\Desktop","no","mono","no","18","no","white","no","yes","768","legacy","79","11","C:/Users/chris/OneDrive/Desktop/CM-subject-1.csv","legacy","6 5","Lentiform Loewenfeld","3.3.3","2","y","0","left","right","NA","right","left","706","4580","NA","20956","706","2","legacy","2","1024","2","48000","-16","experiment","1","odd","5","586210","579201","96249","587215","NA","585027","100830","586207","2176","2181","588419","590424","591131","23138","590424","Sternberg task","81","71622","92","yes","1024"
"88.17204301075269","88.17204301075269","777.9139784946236","777.9139784946236","black","experiment","legacy","legacy","legacy","0","uniform","1","undefined","1","left","92","92","0","92","0","92","0","92","0","0","92","92","92","0","92","Sun Oct 18 15:49:11 2020","The main experiment item","yes","Sternbergtask.osexp","C:\Users\chris\OneDrive\Desktop","no","mono","no","18","no","white","no","yes","768","legacy","80","11","C:/Users/chris/OneDrive/Desktop/CM-subject-1.csv","legacy","4 7 6 8 2 3","Lentiform Loewenfeld","3.3.3","6","y","0","left","right","NA","right","left","724","4580","NA","20956","724","2","legacy","6","1024","2","48000","-16","experiment","1","odd","3","592272","579201","96249","593277","NA","591140","100830","592270","2176","2181","594483","596488","597213","23138","596488","Sternberg task","82","72346","93","yes","1024"
"88.29787234042553","88.29787234042553","775.031914893617","775.031914893617","black","experiment","legacy","legacy","legacy","0","uniform","1","undefined","1","left","93","93","0","93","0","93","0","93","0","0","93","93","93","0","93","Sun Oct 18 15:49:11 2020","The main experiment item","yes","Sternbergtask.osexp","C:\Users\chris\OneDrive\Desktop","no","mono","no","18","no","white","no","yes","768","legacy","81","11","C:/Users/chris/OneDrive/Desktop/CM-subject-1.csv","legacy","3 5 7 1","Lentiform Loewenfeld","3.3.3","3","y","0","left","right","NA","right","left","507","4580","NA","20956","507","2","legacy","4","1024","2","48000","-16","experiment","1","odd","7","598346","579201","96249","599351","NA","597222","100830","598344","2176","2181","600556","602563","603071","23138","602563","Sternberg task","83","72853","94","yes","1024"
"88.42105263157895","88.42105263157895","773.7052631578947","773.7052631578947","black","experiment","legacy","legacy","legacy","0","uniform","1","undefined","1","right","94","94","0","94","0","94","0","94","0","0","94","94","94","0","94","Sun Oct 18 15:49:11 2020","The main experiment item","yes","Sternbergtask.osexp","C:\Users\chris\OneDrive\Desktop","no","mono","no","18","no","white","no","yes","768","legacy","82","11","C:/Users/chris/OneDrive/Desktop/CM-subject-1.csv","legacy","8 6 3 4 7","Lentiform Loewenfeld","3.3.3","0","n","0","right","right","NA","right","right","649","4580","NA","20956","649","2","legacy","5","1024","2","48000","-16","experiment","1","odd","1","604206","579201","96249","605211","NA","603080","100830","604204","2176","2181","606416","608421","609071","23138","608421","Sternberg task","84","73502","95","yes","1024"
"87.5","87.5","772.75","772.75","black","experiment","legacy","legacy","legacy","0","uniform","0","undefined","0","right","95","95","0","95","0","95","0","95","0","0","95","95","95","0","95","Sun Oct 18 15:49:11 2020","The main experiment item","yes","Sternbergtask.osexp","C:\Users\chris\OneDrive\Desktop","no","mono","no","18","no","white","no","yes","768","legacy","83","11","C:/Users/chris/OneDrive/Desktop/CM-subject-1.csv","legacy","1 4 9 3","Lentiform Loewenfeld","3.3.3","0","n","0","left","right","NA","right","left","682","4580","NA","20956","682","2","legacy","4","1024","2","48000","-16","experiment","1","odd","5","610208","579201","96249","611213","NA","609075","100830","610206","2176","2181","612418","614423","615106","23138","614423","Sternberg task","84","74184","96","yes","1024"
"87.62886597938144","87.62886597938144","778.4123711340206","778.4123711340206","black","experiment","legacy","legacy","legacy","0","uniform","1","undefined","1","left","96","96","0","96","0","96","0","96","0","0","96","96","96","0","96","Sun Oct 18 15:49:11 2020","The main experiment item","yes","Sternbergtask.osexp","C:\Users\chris\OneDrive\Desktop","no","mono","no","18","no","white","no","yes","768","legacy","84","11","C:/Users/chris/OneDrive/Desktop/CM-subject-1.csv","legacy","9 6 2 4 1","Lentiform Loewenfeld","3.3.3","4","y","0","left","right","NA","right","left","1322","4580","NA","20956","1322","2","legacy","5","1024","2","48000","-16","experiment","1","odd","4","616237","615115","96249","617242","NA","609075","100830","616234","2176","2181","618447","620454","621777","23138","620454","Sternberg task","85","75506","97","yes","1024"
"87.75510204081633","87.75510204081633","778.1632653061224","778.1632653061224","black","experiment","legacy","legacy","legacy","0","uniform","1","undefined","1","left","97","97","0","97","0","97","0","97","0","0","97","97","97","0","97","Sun Oct 18 15:49:11 2020","The main experiment item","yes","Sternbergtask.osexp","C:\Users\chris\OneDrive\Desktop","no","mono","no","18","no","white","no","yes","768","legacy","85","11","C:/Users/chris/OneDrive/Desktop/CM-subject-1.csv","legacy","1 4 9 3 2 5","Lentiform Loewenfeld","3.3.3","3","y","0","left","right","NA","right","left","754","4580","NA","20956","754","2","legacy","6","1024","2","48000","-16","experiment","1","odd","9","622937","615115","96249","623942","NA","621787","100830","622935","2176","2181","625148","627153","627908","23138","627153","Sternberg task","86","76260","98","yes","1024"
"87.87878787878788","87.87878787878788","777.8585858585859","777.8585858585859","black","experiment","legacy","legacy","legacy","0","uniform","1","undefined","1","left","98","98","0","98","0","98","0","98","0","0","98","98","98","0","98","Sun Oct 18 15:49:11 2020","The main experiment item","yes","Sternbergtask.osexp","C:\Users\chris\OneDrive\Desktop","no","mono","no","18","no","white","no","yes","768","legacy","86","11","C:/Users/chris/OneDrive/Desktop/CM-subject-1.csv","legacy","8 5 1 3 9","Lentiform Loewenfeld","3.3.3","4","y","0","left","right","NA","right","left","748","4580","NA","20956","748","2","legacy","5","1024","2","48000","-16","experiment","1","odd","3","629056","615115","96249","630062","NA","627916","100830","629054","2176","2181","631267","633272","634022","23138","633272","Sternberg task","87","77008","99","yes","1024"
"88","88","779.13","779.13","black","experiment","legacy","legacy","legacy","0","uniform","1","undefined","1","left","99","99","0","99","0","99","0","99","0","0","99","99","99","0","99","Sun Oct 18 15:49:11 2020","The main experiment item","yes","Sternbergtask.osexp","C:\Users\chris\OneDrive\Desktop","no","mono","no","18","no","white","no","yes","768","legacy","87","11","C:/Users/chris/OneDrive/Desktop/CM-subject-1.csv","legacy","3 5 9 6 2 4","Lentiform Loewenfeld","3.3.3","1","y","0","left","right","NA","right","left","905","4580","NA","20956","905","2","legacy","6","1024","2","48000","-16","experiment","1","odd","3","635181","615115","96249","636186","NA","634030","100830","635179","2176","2181","637391","639397","640303","23138","639397","Sternberg task","88","77913","100","yes","1024"
"88.11881188118812","88.11881188118812","780.1089108910891","780.1089108910891","black","experiment","legacy","legacy","legacy","0","uniform","1","undefined","1","right","100","100","0","100","0","100","0","100","0","0","100","100","100","0","100","Sun Oct 18 15:49:11 2020","The main experiment item","yes","Sternbergtask.osexp","C:\Users\chris\OneDrive\Desktop","no","mono","no","18","no","white","no","yes","768","legacy","88","11","C:/Users/chris/OneDrive/Desktop/CM-subject-1.csv","legacy","8 2 1 4 5 9","Lentiform Loewenfeld","3.3.3","0","n","0","right","right","NA","right","right","878","4580","NA","20956","878","2","legacy","6","1024","2","48000","-16","experiment","1","odd","7","641441","615115","96249","642446","NA","640312","100830","641439","2176","2181","643651","645656","646535","23138","645656","Sternberg task","89","78791","101","yes","1024"
"87.25490196078431","87.25490196078431","780.2647058823529","780.2647058823529","black","experiment","legacy","legacy","legacy","0","uniform","0","undefined","0","right","101","101","0","101","0","101","0","101","0","0","101","101","101","0","101","Sun Oct 18 15:49:11 2020","The main experiment item","yes","Sternbergtask.osexp","C:\Users\chris\OneDrive\Desktop","no","mono","no","18","no","white","no","yes","768","legacy","89","11","C:/Users/chris/OneDrive/Desktop/CM-subject-1.csv","legacy","4 2 6 9","Lentiform Loewenfeld","3.3.3","0","n","0","left","right","NA","right","left","796","4580","NA","20956","796","2","legacy","4","1024","2","48000","-16","experiment","1","odd","7","647677","615115","96249","648682","NA","646543","100830","647675","2176","2181","649887","651892","652689","23138","651892","Sternberg task","89","79587","102","yes","1024"
"87.37864077669903","87.37864077669903","786.504854368932","786.504854368932","black","experiment","legacy","legacy","legacy","0","uniform","1","undefined","1","left","102","102","0","102","0","102","0","102","0","0","102","102","102","0","102","Sun Oct 18 15:49:11 2020","The main experiment item","yes","Sternbergtask.osexp","C:\Users\chris\OneDrive\Desktop","no","mono","no","18","no","white","no","yes","768","legacy","90","11","C:/Users/chris/OneDrive/Desktop/CM-subject-1.csv","legacy","9 8 4","Lentiform Loewenfeld","3.3.3","1","y","0","left","right","NA","right","left","1423","4580","NA","20956","1423","2","legacy","3","1024","2","48000","-16","experiment","1","odd","9","653849","652693","96249","654854","NA","646543","100830","653847","2176","2181","656059","658064","659488","23138","658064","Sternberg task","90","81010","103","yes","1024"
"87.5","87.5","786.4615384615385","786.4615384615385","black","experiment","legacy","legacy","legacy","0","uniform","1","undefined","1","left","103","103","0","103","0","103","0","103","0","0","103","103","103","0","103","Sun Oct 18 15:49:11 2020","The main experiment item","yes","Sternbergtask.osexp","C:\Users\chris\OneDrive\Desktop","no","mono","no","18","no","white","no","yes","768","legacy","91","11","C:/Users/chris/OneDrive/Desktop/CM-subject-1.csv","legacy","6 7 8 5","Lentiform Loewenfeld","3.3.3","3","y","0","left","right","NA","right","left","782","4580","NA","20956","782","2","legacy","4","1024","2","48000","-16","experiment","1","odd","8","660612","652693","96249","661617","NA","659497","100830","660610","2176","2181","662820","664826","665609","23138","664825","Sternberg task","91","81792","104","yes","1024"
"86.66666666666667","86.66666666666667","785.5238095238095","785.5238095238095","black","experiment","legacy","legacy","legacy","0","uniform","0","undefined","0","right","104","104","0","104","0","104","0","104","0","0","104","104","104","0","104","Sun Oct 18 15:49:11 2020","The main experiment item","yes","Sternbergtask.osexp","C:\Users\chris\OneDrive\Desktop","no","mono","no","18","no","white","no","yes","768","legacy","92","11","C:/Users/chris/OneDrive/Desktop/CM-subject-1.csv","legacy","1","Lentiform Loewenfeld","3.3.3","0","n","0","left","right","NA","right","left","688","4580","NA","20956","688","2","legacy","1","1024","2","48000","-16","experiment","1","odd","7","666758","652693","96249","667763","NA","665618","100830","666756","2176","2181","668970","670977","671667","23138","670977","Sternberg task","91","82480","105","yes","1024"
"86.79245283018868","86.79245283018868","791.9150943396227","791.9150943396227","black","experiment","legacy","legacy","legacy","0","uniform","1","undefined","1","left","105","105","0","105","0","105","0","105","0","0","105","105","105","0","105","Sun Oct 18 15:49:11 2020","The main experiment item","yes","Sternbergtask.osexp","C:\Users\chris\OneDrive\Desktop","no","mono","no","18","no","white","no","yes","768","legacy","93","11","C:/Users/chris/OneDrive/Desktop/CM-subject-1.csv","legacy","9 5 8 1","Lentiform Loewenfeld","3.3.3","2","y","0","left","right","NA","right","left","1463","4580","NA","20956","1463","2","legacy","4","1024","2","48000","-16","experiment","1","odd","5","672816","671676","96249","673822","NA","665618","100830","672814","2176","2181","675027","677033","678497","23138","677033","Sternberg task","92","83943","106","yes","1024"
"86.91588785046729","86.91588785046729","795.2990654205607","795.2990654205607","black","experiment","legacy","legacy","legacy","0","uniform","1","undefined","1","left","106","106","0","106","0","106","0","106","0","0","106","106","106","0","106","Sun Oct 18 15:49:11 2020","The main experiment item","yes","Sternbergtask.osexp","C:\Users\chris\OneDrive\Desktop","no","mono","no","18","no","white","no","yes","768","legacy","94","11","C:/Users/chris/OneDrive/Desktop/CM-subject-1.csv","legacy","4 1 8 7 5","Lentiform Loewenfeld","3.3.3","3","y","0","left","right","NA","right","left","1154","4580","NA","20956","1154","2","legacy","5","1024","2","48000","-16","experiment","1","odd","8","679645","671676","96249","680650","NA","678506","100830","679643","2176","2181","681855","683861","685016","23138","683860","Sternberg task","93","85097","107","yes","1024"
"87.03703703703704","87.03703703703704","796.4814814814815","796.4814814814815","black","experiment","legacy","legacy","legacy","0","uniform","1","undefined","1","right","107","107","0","107","0","107","0","107","0","0","107","107","107","0","107","Sun Oct 18 15:49:11 2020","The main experiment item","yes","Sternbergtask.osexp","C:\Users\chris\OneDrive\Desktop","no","mono","no","18","no","white","no","yes","768","legacy","95","11","C:/Users/chris/OneDrive/Desktop/CM-subject-1.csv","legacy","2 8 9","Lentiform Loewenfeld","3.3.3","0","n","0","right","right","NA","right","right","923","4580","NA","20956","923","2","legacy","3","1024","2","48000","-16","experiment","1","odd","6","686164","671676","96249","687169","NA","685026","100830","686162","2176","2181","688374","690379","691303","23138","690379","Sternberg task","94","86020","108","yes","1024"
"87.1559633027523","87.1559633027523","795.8348623853211","795.8348623853211","black","experiment","legacy","legacy","legacy","0","uniform","1","undefined","1","right","108","108","0","108","0","108","0","108","0","0","108","108","108","0","108","Sun Oct 18 15:49:11 2020","The main experiment item","yes","Sternbergtask.osexp","C:\Users\chris\OneDrive\Desktop","no","mono","no","18","no","white","no","yes","768","legacy","96","11","C:/Users/chris/OneDrive/Desktop/CM-subject-1.csv","legacy","6 8","Lentiform Loewenfeld","3.3.3","0","n","0","right","right","NA","right","right","726","4580","NA","20956","726","2","legacy","2","1024","2","48000","-16","experiment","1","odd","9","692427","671676","96249","693432","NA","691312","100830","692425","2176","2181","694637","696642","697369","23138","696642","Sternberg task","95","86746","109","yes","1024"
"87.27272727272727","87.27272727272727","796.3181818181819","796.3181818181819","black","experiment","legacy","legacy","legacy","0","uniform","1","undefined","1","right","109","109","0","109","0","109","0","109","0","0","109","109","109","0","109","Sun Oct 18 15:49:11 2020","The main experiment item","yes","Sternbergtask.osexp","C:\Users\chris\OneDrive\Desktop","no","mono","no","18","no","white","no","yes","768","legacy","97","11","C:/Users/chris/OneDrive/Desktop/CM-subject-1.csv","legacy","5 9 2 3","Lentiform Loewenfeld","3.3.3","0","n","0","right","right","NA","right","right","849","4580","NA","20956","849","2","legacy","4","1024","2","48000","-16","experiment","1","odd","8","698496","671676","96249","699501","NA","697378","100830","698494","2176","2181","700706","702711","703561","23138","702711","Sternberg task","96","87595","110","yes","1024"
"87.38738738738739","87.38738738738739","797.6486486486486","797.6486486486486","black","experiment","legacy","legacy","legacy","0","uniform","1","undefined","1","left","110","110","0","110","0","110","0","110","0","0","110","110","110","0","110","Sun Oct 18 15:49:11 2020","The main experiment item","yes","Sternbergtask.osexp","C:\Users\chris\OneDrive\Desktop","no","mono","no","18","no","white","no","yes","768","legacy","98","11","C:/Users/chris/OneDrive/Desktop/CM-subject-1.csv","legacy","2 8 5 1","Lentiform Loewenfeld","3.3.3","4","y","0","left","right","NA","right","left","944","4580","NA","20956","944","2","legacy","4","1024","2","48000","-16","experiment","1","odd","1","704684","671676","96249","705690","NA","703571","100830","704682","2176","2181","706895","708899","709844","23138","708898","Sternberg task","97","88539","111","yes","1024"
"87.5","87.5","805.7053571428571","805.7053571428571","black","experiment","legacy","legacy","legacy","0","uniform","1","undefined","1","left","111","111","0","111","0","111","0","111","0","0","111","111","111","0","111","Sun Oct 18 15:49:11 2020","The main experiment item","yes","Sternbergtask.osexp","C:\Users\chris\OneDrive\Desktop","no","mono","no","18","no","white","no","yes","768","legacy","99","11","C:/Users/chris/OneDrive/Desktop/CM-subject-1.csv","legacy","2 5 4 8 7","Lentiform Loewenfeld","3.3.3","3","y","0","left","right","NA","right","left","1700","4580","NA","20956","1700","2","legacy","5","1024","2","48000","-16","experiment","1","odd","4","710993","671676","96249","711998","NA","709848","100830","710991","2176","2181","713203","715208","716909","23138","715208","Sternberg task","98","90239","112","yes","1024"
"87.61061946902655","87.61061946902655","808.3185840707964","808.3185840707964","black","experiment","legacy","legacy","legacy","0","uniform","1","undefined","1","right","112","112","0","112","0","112","0","112","0","0","112","112","112","0","112","Sun Oct 18 15:49:11 2020","The main experiment item","yes","Sternbergtask.osexp","C:\Users\chris\OneDrive\Desktop","no","mono","no","18","no","white","no","yes","768","legacy","100","11","C:/Users/chris/OneDrive/Desktop/CM-subject-1.csv","legacy","1 7 5 2 9","Lentiform Loewenfeld","3.3.3","0","n","0","right","right","NA","right","right","1101","4580","NA","20956","1101","2","legacy","5","1024","2","48000","-16","experiment","1","odd","3","718032","671676","96249","719037","NA","716918","100830","718030","2176","2181","720242","722247","723349","23138","722247","Sternberg task","99","91340","113","yes","1024"
"87.71929824561404","87.71929824561404","809.219298245614","809.219298245614","black","experiment","legacy","legacy","legacy","0","uniform","1","undefined","1","right","113","113","0","113","0","113","0","113","0","0","113","113","113","0","113","Sun Oct 18 15:49:11 2020","The main experiment item","yes","Sternbergtask.osexp","C:\Users\chris\OneDrive\Desktop","no","mono","no","18","no","white","no","yes","768","legacy","101","11","C:/Users/chris/OneDrive/Desktop/CM-subject-1.csv","legacy","1 3 2 6 9","Lentiform Loewenfeld","3.3.3","0","n","0","right","right","NA","right","right","911","4580","NA","20956","911","2","legacy","5","1024","2","48000","-16","experiment","1","odd","5","724480","671676","96249","725485","NA","723358","100830","724478","2176","2181","726690","728695","729607","23138","728695","Sternberg task","100","92251","114","yes","1024"
"87.82608695652173","87.82608695652173","806.8869565217391","806.8869565217391","black","experiment","legacy","legacy","legacy","0","uniform","1","undefined","1","right","114","114","0","114","0","114","0","114","0","0","114","114","114","0","114","Sun Oct 18 15:49:11 2020","The main experiment item","yes","Sternbergtask.osexp","C:\Users\chris\OneDrive\Desktop","no","mono","no","18","no","white","no","yes","768","legacy","102","11","C:/Users/chris/OneDrive/Desktop/CM-subject-1.csv","legacy","7 1","Lentiform Loewenfeld","3.3.3","0","n","0","right","right","NA","right","right","541","4580","NA","20956","541","2","legacy","2","1024","2","48000","-16","experiment","1","odd","8","730742","671676","96249","731747","NA","729617","100830","730740","2176","2181","732952","734957","735499","23138","734957","Sternberg task","101","92792","115","yes","1024"
"87.93103448275862","87.93103448275862","807.1293103448276","807.1293103448276","black","experiment","legacy","legacy","legacy","0","uniform","1","undefined","1","right","115","115","0","115","0","115","0","115","0","0","115","115","115","0","115","Sun Oct 18 15:49:11 2020","The main experiment item","yes","Sternbergtask.osexp","C:\Users\chris\OneDrive\Desktop","no","mono","no","18","no","white","no","yes","768","legacy","103","11","C:/Users/chris/OneDrive/Desktop/CM-subject-1.csv","legacy","9 5 3 2 8 6","Lentiform Loewenfeld","3.3.3","0","n","0","right","right","NA","right","right","835","4580","NA","20956","835","2","legacy","6","1024","2","48000","-16","experiment","1","odd","7","736627","671676","96249","737632","NA","735508","100830","736625","2176","2181","738837","740842","741678","23138","740842","Sternberg task","102","93627","116","yes","1024"
"88.03418803418803","88.03418803418803","808.3760683760684","808.3760683760684","black","experiment","legacy","legacy","legacy","0","uniform","1","undefined","1","right","116","116","0","116","0","116","0","116","0","0","116","116","116","0","116","Sun Oct 18 15:49:11 2020","The main experiment item","yes","Sternbergtask.osexp","C:\Users\chris\OneDrive\Desktop","no","mono","no","18","no","white","no","yes","768","legacy","104","11","C:/Users/chris/OneDrive/Desktop/CM-subject-1.csv","legacy","6 8 4","Lentiform Loewenfeld","3.3.3","0","n","0","right","right","NA","right","right","953","4580","NA","20956","953","2","legacy","3","1024","2","48000","-16","experiment","1","odd","1","742806","671676","96249","743811","NA","741687","100830","742804","2176","2181","745016","747021","747976","23138","747021","Sternberg task","103","94580","117","yes","1024"
