"acc","accuracy","average_response_time","avg_rt","background","block","canvas_backend","clock_backend","color_backend","compensation","coordinates","correct","correct_instruction1","correct_new_keyboard_response","correct_response","count_ISI","count_correctfeedback","count_expSequence","count_experiment","count_experimentLoop","count_fixation","count_incorrect","count_instruction1","count_instruction2","count_memorySet","count_new_keyboard_response","count_new_logger","count_practiceLoop","count_probe","count_thankYou","datetime","description","disable_garbage_collection","experiment_file","experiment_path","font_bold","font_family","font_italic","font_size","font_underline","foreground","form_clicks","fullscreen","height","keyboard_backend","live_row","live_row_practiceLoop","logfile","mouse_backend","numberSet","opensesame_codename","opensesame_version","posInSet","present","repeat_cycle","response","response_instruction1","response_instruction2","response_new_keyboard_response","response_thankYou","response_time","response_time_instruction1","response_time_instruction2","response_time_new_keyboard_response","response_time_thankYou","round_decimals","sampler_backend","setSize","sound_buf_size","sound_channels","sound_freq","sound_sample_size","start","subject_nr","subject_parity","target","time_ISI","time_correctfeedback","time_expSequence","time_experiment","time_experimentLoop","time_fixation","time_incorrect","time_instruction1","time_instruction2","time_memorySet","time_new_keyboard_response","time_new_logger","time_practiceLoop","time_probe","time_thankYou","title","total_correct","total_response_time","total_responses","uniform_coordinates","width"
"0","0","2000","2000","black","practice","legacy","legacy","legacy","0","uniform","0","undefined","0","left","0","0","0","0","0","0","0","0","0","0","0","0","0","0","0","Sun Oct 25 14:38:01 2020","The main experiment item","yes","SternbergTask-AL.osexp","/Users/annielenoir/Desktop","no","mono","no","18","no","white","no","no","768","legacy","0","0","/Users/annielenoir/Desktop/AL-subject-3.csv","legacy","2 9 4","Lentiform Loewenfeld","3.3.3","3","y","0","None","left","NA","None","NA","2000","110535","NA","2000","NA","2","legacy","3","1024","2","48000","-16","experiment","3","odd","4","115165","NA","112510","1690","NA","112666","NA","1862","NA","113817","117314","119314","112406","117314","NA","Sternberg Task","0","2000","1","yes","1024"
"0","0","2000","2000","black","practice","legacy","legacy","legacy","0","uniform","0","undefined","0","right","1","1","1","0","0","1","1","0","0","1","1","1","0","1","0","Sun Oct 25 14:38:01 2020","The main experiment item","yes","SternbergTask-AL.osexp","/Users/annielenoir/Desktop","no","mono","no","18","no","white","no","no","768","legacy","1","1","/Users/annielenoir/Desktop/AL-subject-3.csv","legacy","4 1 5","Lentiform Loewenfeld","3.3.3","0","n","0","None","left","NA","None","NA","2000","110535","NA","2000","NA","2","legacy","3","1024","2","48000","-16","experiment","3","odd","2","123588","NA","120936","1690","NA","121088","119517","1862","NA","122237","125744","127744","112406","125744","NA","Sternberg Task","0","4000","2","yes","1024"
"33.333333333333336","33.333333333333336","1895","1895","black","practice","legacy","legacy","legacy","0","uniform","1","undefined","1","right","2","2","2","0","0","2","2","0","0","2","2","2","0","2","0","Sun Oct 25 14:38:01 2020","The main experiment item","yes","SternbergTask-AL.osexp","/Users/annielenoir/Desktop","no","mono","no","18","no","white","no","no","768","legacy","2","2","/Users/annielenoir/Desktop/AL-subject-3.csv","legacy","5 7 8 4 1 2","Lentiform Loewenfeld","3.3.3","0","n","0","right","left","NA","right","NA","1685","110535","NA","1685","NA","2","legacy","6","1024","2","48000","-16","experiment","3","odd","6","131645","NA","129010","1690","NA","129155","127894","1862","NA","130298","133787","135473","112406","133787","NA","Sternberg Task","1","5685","3","yes","1024"
"50","50","1724","1724","black","practice","legacy","legacy","legacy","0","uniform","1","undefined","1","right","3","3","3","0","0","3","3","0","0","3","3","3","0","3","0","Sun Oct 25 14:38:01 2020","The main experiment item","yes","SternbergTask-AL.osexp","/Users/annielenoir/Desktop","no","mono","no","18","no","white","no","no","768","legacy","3","3","/Users/annielenoir/Desktop/AL-subject-3.csv","legacy","3 1 9 4","Lentiform Loewenfeld","3.3.3","0","n","0","right","left","NA","right","NA","1211","110535","NA","1211","NA","2","legacy","4","1024","2","48000","-16","experiment","3","odd","6","139368","135622","136734","1690","NA","136882","127894","1862","NA","138024","141513","142724","112406","141513","NA","Sternberg Task","2","6896","4","yes","1024"
"60","60","1638.2","1638.2","black","practice","legacy","legacy","legacy","0","uniform","1","undefined","1","right","4","4","4","0","0","4","4","0","0","4","4","4","0","4","0","Sun Oct 25 14:38:01 2020","The main experiment item","yes","SternbergTask-AL.osexp","/Users/annielenoir/Desktop","no","mono","no","18","no","white","no","no","768","legacy","4","4","/Users/annielenoir/Desktop/AL-subject-3.csv","legacy","2 1","Lentiform Loewenfeld","3.3.3","0","n","0","right","left","NA","right","NA","1295","110535","NA","1295","NA","2","legacy","2","1024","2","48000","-16","experiment","3","odd","5","146669","142881","144041","1690","NA","144182","127894","1862","NA","145322","148811","150107","112406","148811","NA","Sternberg Task","3","8191","5","yes","1024"
"66.66666666666667","66.66666666666667","1594.1666666666667","1594.1666666666667","black","practice","legacy","legacy","legacy","0","uniform","1","undefined","1","right","5","5","5","0","0","5","5","0","0","5","5","5","0","5","0","Sun Oct 25 14:38:01 2020","The main experiment item","yes","SternbergTask-AL.osexp","/Users/annielenoir/Desktop","no","mono","no","18","no","white","no","no","768","legacy","5","5","/Users/annielenoir/Desktop/AL-subject-3.csv","legacy","5","Lentiform Loewenfeld","3.3.3","0","n","0","right","left","NA","right","NA","1374","110535","NA","1374","NA","2","legacy","1","1024","2","48000","-16","experiment","3","odd","3","154036","150254","151400","1690","NA","151546","127894","1862","NA","152690","156182","157557","112406","156181","NA","Sternberg Task","4","9565","6","yes","1024"
"71.42857142857143","71.42857142857143","1556.4285714285713","1556.4285714285713","black","practice","legacy","legacy","legacy","0","uniform","1","undefined","1","left","6","6","6","0","0","6","6","0","0","6","6","6","0","6","0","Sun Oct 25 14:38:01 2020","The main experiment item","yes","SternbergTask-AL.osexp","/Users/annielenoir/Desktop","no","mono","no","18","no","white","no","no","768","legacy","6","6","/Users/annielenoir/Desktop/AL-subject-3.csv","legacy","1 7 9 8 5","Lentiform Loewenfeld","3.3.3","4","y","0","left","left","NA","left","NA","1330","110535","NA","1330","NA","2","legacy","5","1024","2","48000","-16","experiment","3","odd","8","161510","157710","158862","1690","NA","159010","127894","1862","NA","160159","163650","164981","112406","163650","NA","Sternberg Task","5","10895","7","yes","1024"
"62.5","62.5","1611.875","1611.875","black","practice","legacy","legacy","legacy","0","uniform","0","undefined","0","left","7","7","7","0","0","7","7","0","0","7","7","7","0","7","0","Sun Oct 25 14:38:01 2020","The main experiment item","yes","SternbergTask-AL.osexp","/Users/annielenoir/Desktop","no","mono","no","18","no","white","no","no","768","legacy","7","7","/Users/annielenoir/Desktop/AL-subject-3.csv","legacy","6","Lentiform Loewenfeld","3.3.3","1","y","0","None","left","NA","None","NA","2000","110535","NA","2000","NA","2","legacy","1","1024","2","48000","-16","experiment","3","odd","6","168903","165132","166277","1690","NA","166413","127894","1862","NA","167556","171048","173048","112406","171048","NA","Sternberg Task","5","12895","8","yes","1024"
"66.66666666666667","66.66666666666667","1552.6666666666667","1552.6666666666667","black","practice","legacy","legacy","legacy","0","uniform","1","undefined","1","left","8","8","8","0","0","8","8","0","0","8","8","8","0","8","0","Sun Oct 25 14:38:01 2020","The main experiment item","yes","SternbergTask-AL.osexp","/Users/annielenoir/Desktop","no","mono","no","18","no","white","no","no","768","legacy","8","8","/Users/annielenoir/Desktop/AL-subject-3.csv","legacy","4 3 1 7 9 8","Lentiform Loewenfeld","3.3.3","1","y","0","left","left","NA","left","NA","1079","110535","NA","1079","NA","2","legacy","6","1024","2","48000","-16","experiment","3","odd","4","176960","165132","174328","1690","NA","174464","173191","1862","NA","175612","179106","180186","112406","179105","NA","Sternberg Task","6","13974","9","yes","1024"
"70","70","1520.8","1520.8","black","practice","legacy","legacy","legacy","0","uniform","1","undefined","1","right","9","9","9","0","0","9","9","0","0","9","9","9","0","9","0","Sun Oct 25 14:38:01 2020","The main experiment item","yes","SternbergTask-AL.osexp","/Users/annielenoir/Desktop","no","mono","no","18","no","white","no","no","768","legacy","9","9","/Users/annielenoir/Desktop/AL-subject-3.csv","legacy","9 6 7 4 5","Lentiform Loewenfeld","3.3.3","0","n","0","right","left","NA","right","NA","1234","110535","NA","1234","NA","2","legacy","5","1024","2","48000","-16","experiment","3","odd","3","184098","180330","181467","1690","NA","181604","173191","1862","NA","182751","186243","187478","112406","186243","NA","Sternberg Task","7","15208","10","yes","1024"
"72.72727272727273","72.72727272727273","1485.2727272727273","1485.2727272727273","black","practice","legacy","legacy","legacy","0","uniform","1","undefined","1","left","10","10","10","0","0","10","10","0","0","10","10","10","0","10","0","Sun Oct 25 14:38:01 2020","The main experiment item","yes","SternbergTask-AL.osexp","/Users/annielenoir/Desktop","no","mono","no","18","no","white","no","no","768","legacy","10","10","/Users/annielenoir/Desktop/AL-subject-3.csv","legacy","1 5 2 9","Lentiform Loewenfeld","3.3.3","2","y","0","left","left","NA","left","NA","1130","110535","NA","1130","NA","2","legacy","4","1024","2","48000","-16","experiment","3","odd","5","191389","187621","188761","1690","NA","188897","173191","1862","NA","190042","193535","194665","112406","193534","NA","Sternberg Task","8","16338","11","yes","1024"
"75","75","1414.8333333333333","1414.8333333333333","black","practice","legacy","legacy","legacy","0","uniform","1","undefined","1","left","11","11","11","0","0","11","11","0","0","11","11","11","0","11","0","Sun Oct 25 14:38:01 2020","The main experiment item","yes","SternbergTask-AL.osexp","/Users/annielenoir/Desktop","no","mono","no","18","no","white","no","no","768","legacy","11","11","/Users/annielenoir/Desktop/AL-subject-3.csv","legacy","4 8","Lentiform Loewenfeld","3.3.3","1","y","0","left","left","NA","left","NA","640","110535","NA","640","NA","2","legacy","2","1024","2","48000","-16","experiment","3","odd","4","198598","194811","195973","1690","NA","196109","173191","1862","NA","197250","200742","201383","112406","200742","NA","Sternberg Task","9","16978","12","yes","1024"
"76.92307692307692","76.92307692307692","1367.5384615384614","1367.5384615384614","black","experiment","legacy","legacy","legacy","0","uniform","1","undefined","1","right","12","12","12","0","0","12","12","0","0","12","12","12","0","12","0","Sun Oct 25 14:38:01 2020","The main experiment item","yes","SternbergTask-AL.osexp","/Users/annielenoir/Desktop","no","mono","no","18","no","white","no","no","768","legacy","0","11","/Users/annielenoir/Desktop/AL-subject-3.csv","legacy","1 4 9 2 5","Lentiform Loewenfeld","3.3.3","0","n","0","right","left","left","right","NA","800","110535","7436","800","NA","2","legacy","5","1024","2","48000","-16","experiment","3","odd","7","212927","201526","210292","1690","210191","210431","173191","1862","202754","211577","215074","215875","112406","215074","NA","Sternberg Task","10","17778","13","yes","1024"
"78.57142857142857","78.57142857142857","1324.9285714285713","1324.9285714285713","black","experiment","legacy","legacy","legacy","0","uniform","1","undefined","1","right","13","13","13","0","0","13","13","0","0","13","13","13","0","13","0","Sun Oct 25 14:38:01 2020","The main experiment item","yes","SternbergTask-AL.osexp","/Users/annielenoir/Desktop","no","mono","no","18","no","white","no","no","768","legacy","1","11","/Users/annielenoir/Desktop/AL-subject-3.csv","legacy","1","Lentiform Loewenfeld","3.3.3","0","n","0","right","left","left","right","NA","771","110535","7436","771","NA","2","legacy","1","1024","2","48000","-16","experiment","3","odd","7","219870","216025","217239","1690","210191","217380","173191","1862","202754","218522","222015","222787","112406","222015","NA","Sternberg Task","11","18549","14","yes","1024"
"80","80","1311.2","1311.2","black","experiment","legacy","legacy","legacy","0","uniform","1","undefined","1","right","14","14","14","0","0","14","14","0","0","14","14","14","0","14","0","Sun Oct 25 14:38:01 2020","The main experiment item","yes","SternbergTask-AL.osexp","/Users/annielenoir/Desktop","no","mono","no","18","no","white","no","no","768","legacy","2","11","/Users/annielenoir/Desktop/AL-subject-3.csv","legacy","1 6 4 3 9 7","Lentiform Loewenfeld","3.3.3","0","n","0","right","left","left","right","NA","1119","110535","7436","1119","NA","2","legacy","6","1024","2","48000","-16","experiment","3","odd","8","226734","222945","224096","1690","210191","224240","173191","1862","202754","225386","228878","230000","112406","228878","NA","Sternberg Task","12","19668","15","yes","1024"
"81.25","81.25","1314.0625","1314.0625","black","experiment","legacy","legacy","legacy","0","uniform","1","undefined","1","left","15","15","15","0","0","15","15","0","0","15","15","15","0","15","0","Sun Oct 25 14:38:01 2020","The main experiment item","yes","SternbergTask-AL.osexp","/Users/annielenoir/Desktop","no","mono","no","18","no","white","no","no","768","legacy","3","11","/Users/annielenoir/Desktop/AL-subject-3.csv","legacy","4 6 2 5 1","Lentiform Loewenfeld","3.3.3","5","y","0","left","left","left","left","NA","1357","110535","7436","1357","NA","2","legacy","5","1024","2","48000","-16","experiment","3","odd","1","233982","230181","231351","1690","210191","231488","173191","1862","202754","232627","236127","237485","112406","236127","NA","Sternberg Task","13","21025","16","yes","1024"
"82.3529411764706","82.3529411764706","1284.6470588235295","1284.6470588235295","black","experiment","legacy","legacy","legacy","0","uniform","1","undefined","1","right","16","16","16","0","0","16","16","0","0","16","16","16","0","16","0","Sun Oct 25 14:38:01 2020","The main experiment item","yes","SternbergTask-AL.osexp","/Users/annielenoir/Desktop","no","mono","no","18","no","white","no","no","768","legacy","4","11","/Users/annielenoir/Desktop/AL-subject-3.csv","legacy","8 5 7 3 6","Lentiform Loewenfeld","3.3.3","0","n","0","right","left","left","right","NA","814","110535","7436","814","NA","2","legacy","5","1024","2","48000","-16","experiment","3","odd","9","241426","237644","238793","1690","210191","238937","173191","1862","202754","240083","243574","244389","112406","243574","NA","Sternberg Task","14","21839","17","yes","1024"
"77.77777777777777","77.77777777777777","1272.9444444444443","1272.9444444444443","black","experiment","legacy","legacy","legacy","0","uniform","0","undefined","0","left","17","17","17","0","0","17","17","0","0","17","17","17","0","17","0","Sun Oct 25 14:38:01 2020","The main experiment item","yes","SternbergTask-AL.osexp","/Users/annielenoir/Desktop","no","mono","no","18","no","white","no","no","768","legacy","5","11","/Users/annielenoir/Desktop/AL-subject-3.csv","legacy","7 8 6 3 1","Lentiform Loewenfeld","3.3.3","5","y","0","right","left","left","right","NA","1074","110535","7436","1074","NA","2","legacy","5","1024","2","48000","-16","experiment","3","odd","1","248328","244537","245706","1690","210191","245844","173191","1862","202754","246981","250472","251547","112406","250471","NA","Sternberg Task","14","22913","18","yes","1024"
"78.94736842105263","78.94736842105263","1292.8947368421052","1292.8947368421052","black","experiment","legacy","legacy","legacy","0","uniform","1","undefined","1","right","18","18","18","0","0","18","18","0","0","18","18","18","0","18","0","Sun Oct 25 14:38:01 2020","The main experiment item","yes","SternbergTask-AL.osexp","/Users/annielenoir/Desktop","no","mono","no","18","no","white","no","no","768","legacy","6","11","/Users/annielenoir/Desktop/AL-subject-3.csv","legacy","8 9","Lentiform Loewenfeld","3.3.3","0","n","0","right","left","left","right","NA","1652","110535","7436","1652","NA","2","legacy","2","1024","2","48000","-16","experiment","3","odd","5","255492","244537","252864","1690","210191","253002","251697","1862","202754","254143","257637","259289","112406","257637","NA","Sternberg Task","15","24565","19","yes","1024"
"80","80","1309.4","1309.4","black","experiment","legacy","legacy","legacy","0","uniform","1","undefined","1","right","19","19","19","0","0","19","19","0","0","19","19","19","0","19","0","Sun Oct 25 14:38:01 2020","The main experiment item","yes","SternbergTask-AL.osexp","/Users/annielenoir/Desktop","no","mono","no","18","no","white","no","no","768","legacy","7","11","/Users/annielenoir/Desktop/AL-subject-3.csv","legacy","2 3 8 5 6 7","Lentiform Loewenfeld","3.3.3","0","n","0","right","left","left","right","NA","1623","110535","7436","1623","NA","2","legacy","6","1024","2","48000","-16","experiment","3","odd","1","263202","259438","260571","1690","210191","260706","251697","1862","202754","261854","265347","266971","112406","265346","NA","Sternberg Task","16","26188","20","yes","1024"
"76.19047619047619","76.19047619047619","1295.142857142857","1295.142857142857","black","experiment","legacy","legacy","legacy","0","uniform","0","undefined","0","left","20","20","20","0","0","20","20","0","0","20","20","20","0","20","0","Sun Oct 25 14:38:01 2020","The main experiment item","yes","SternbergTask-AL.osexp","/Users/annielenoir/Desktop","no","mono","no","18","no","white","no","no","768","legacy","8","11","/Users/annielenoir/Desktop/AL-subject-3.csv","legacy","2 8 5 1","Lentiform Loewenfeld","3.3.3","4","y","0","right","left","left","right","NA","1010","110535","7436","1010","NA","2","legacy","4","1024","2","48000","-16","experiment","3","odd","1","270871","267118","268242","1690","210191","268378","251697","1862","202754","269523","273018","274029","112406","273018","NA","Sternberg Task","16","27198","21","yes","1024"
"77.27272727272727","77.27272727272727","1303.3636363636363","1303.3636363636363","black","experiment","legacy","legacy","legacy","0","uniform","1","undefined","1","right","21","21","21","0","0","21","21","0","0","21","21","21","0","21","0","Sun Oct 25 14:38:01 2020","The main experiment item","yes","SternbergTask-AL.osexp","/Users/annielenoir/Desktop","no","mono","no","18","no","white","no","no","768","legacy","9","11","/Users/annielenoir/Desktop/AL-subject-3.csv","legacy","4 1","Lentiform Loewenfeld","3.3.3","0","n","0","right","left","left","right","NA","1476","110535","7436","1476","NA","2","legacy","2","1024","2","48000","-16","experiment","3","odd","6","278058","267118","275343","1690","210191","275503","274177","1862","202754","276673","280231","281708","112406","280231","NA","Sternberg Task","17","28674","22","yes","1024"
"78.26086956521739","78.26086956521739","1310.3478260869565","1310.3478260869565","black","experiment","legacy","legacy","legacy","0","uniform","1","undefined","1","right","22","22","22","0","0","22","22","0","0","22","22","22","0","22","0","Sun Oct 25 14:38:01 2020","The main experiment item","yes","SternbergTask-AL.osexp","/Users/annielenoir/Desktop","no","mono","no","18","no","white","no","no","768","legacy","10","11","/Users/annielenoir/Desktop/AL-subject-3.csv","legacy","1 5 3 2 8","Lentiform Loewenfeld","3.3.3","0","n","0","right","left","left","right","NA","1464","110535","7436","1464","NA","2","legacy","5","1024","2","48000","-16","experiment","3","odd","4","285718","281866","283037","1690","210191","283200","274177","1862","202754","284352","287888","289353","112406","287887","NA","Sternberg Task","18","30138","23","yes","1024"
"79.16666666666667","79.16666666666667","1335.2083333333333","1335.2083333333333","black","experiment","legacy","legacy","legacy","0","uniform","1","undefined","1","left","23","23","23","0","0","23","23","0","0","23","23","23","0","23","0","Sun Oct 25 14:38:01 2020","The main experiment item","yes","SternbergTask-AL.osexp","/Users/annielenoir/Desktop","no","mono","no","18","no","white","no","no","768","legacy","11","11","/Users/annielenoir/Desktop/AL-subject-3.csv","legacy","6 8 9 3 4 9","Lentiform Loewenfeld","3.3.3","5","y","0","left","left","left","left","NA","1907","110535","7436","1907","NA","2","legacy","6","1024","2","48000","-16","experiment","3","odd","4","293385","289516","290715","1690","210191","290875","274177","1862","202754","292028","295545","297453","112406","295545","NA","Sternberg Task","19","32045","24","yes","1024"
"76","76","1355.56","1355.56","black","experiment","legacy","legacy","legacy","0","uniform","0","undefined","0","left","24","24","24","0","0","24","24","0","0","24","24","24","0","24","0","Sun Oct 25 14:38:01 2020","The main experiment item","yes","SternbergTask-AL.osexp","/Users/annielenoir/Desktop","no","mono","no","18","no","white","no","no","768","legacy","12","11","/Users/annielenoir/Desktop/AL-subject-3.csv","legacy","6 5","Lentiform Loewenfeld","3.3.3","2","y","0","right","left","left","right","NA","1844","110535","7436","1844","NA","2","legacy","2","1024","2","48000","-16","experiment","3","odd","5","301382","297599","298730","1690","210191","298879","274177","1862","202754","300031","303534","305379","112406","303534","NA","Sternberg Task","19","33889","25","yes","1024"
"76.92307692307692","76.92307692307692","1348.3076923076924","1348.3076923076924","black","experiment","legacy","legacy","legacy","0","uniform","1","undefined","1","left","25","25","25","0","0","25","25","0","0","25","25","25","0","25","0","Sun Oct 25 14:38:01 2020","The main experiment item","yes","SternbergTask-AL.osexp","/Users/annielenoir/Desktop","no","mono","no","18","no","white","no","no","768","legacy","13","11","/Users/annielenoir/Desktop/AL-subject-3.csv","legacy","3 4","Lentiform Loewenfeld","3.3.3","1","y","0","left","left","left","left","NA","1167","110535","7436","1167","NA","2","legacy","2","1024","2","48000","-16","experiment","3","odd","3","309310","297599","306656","1690","210191","306806","305534","1862","202754","307961","311478","312646","112406","311478","NA","Sternberg Task","20","35056","26","yes","1024"
"77.77777777777777","77.77777777777777","1353.4074074074074","1353.4074074074074","black","experiment","legacy","legacy","legacy","0","uniform","1","undefined","1","left","26","26","26","0","0","26","26","0","0","26","26","26","0","26","0","Sun Oct 25 14:38:01 2020","The main experiment item","yes","SternbergTask-AL.osexp","/Users/annielenoir/Desktop","no","mono","no","18","no","white","no","no","768","legacy","14","11","/Users/annielenoir/Desktop/AL-subject-3.csv","legacy","7 1 8 5 6 2","Lentiform Loewenfeld","3.3.3","2","y","0","left","left","left","left","NA","1486","110535","7436","1486","NA","2","legacy","6","1024","2","48000","-16","experiment","3","odd","1","316588","312792","313917","1690","210191","314073","305534","1862","202754","315233","318742","320229","112406","318742","NA","Sternberg Task","21","36542","27","yes","1024"
"78.57142857142857","78.57142857142857","1362.1785714285713","1362.1785714285713","black","experiment","legacy","legacy","legacy","0","uniform","1","undefined","1","right","27","27","27","0","0","27","27","0","0","27","27","27","0","27","0","Sun Oct 25 14:38:01 2020","The main experiment item","yes","SternbergTask-AL.osexp","/Users/annielenoir/Desktop","no","mono","no","18","no","white","no","no","768","legacy","15","11","/Users/annielenoir/Desktop/AL-subject-3.csv","legacy","8 5 4 2 9 6","Lentiform Loewenfeld","3.3.3","0","n","0","right","left","left","right","NA","1599","110535","7436","1599","NA","2","legacy","6","1024","2","48000","-16","experiment","3","odd","3","324220","320381","321563","1690","210191","321715","305534","1862","202754","322866","326375","327974","112406","326375","NA","Sternberg Task","22","38141","28","yes","1024"
"79.3103448275862","79.3103448275862","1364.4827586206898","1364.4827586206898","black","experiment","legacy","legacy","legacy","0","uniform","1","undefined","1","left","28","28","28","0","0","28","28","0","0","28","28","28","0","28","0","Sun Oct 25 14:38:01 2020","The main experiment item","yes","SternbergTask-AL.osexp","/Users/annielenoir/Desktop","no","mono","no","18","no","white","no","no","768","legacy","16","11","/Users/annielenoir/Desktop/AL-subject-3.csv","legacy","6 9 3 1","Lentiform Loewenfeld","3.3.3","4","y","0","left","left","left","left","NA","1429","110535","7436","1429","NA","2","legacy","4","1024","2","48000","-16","experiment","3","odd","1","331914","328124","329251","1690","210191","329402","305534","1862","202754","330557","334070","335500","112406","334070","NA","Sternberg Task","23","39570","29","yes","1024"
"80","80","1355.3666666666666","1355.3666666666666","black","experiment","legacy","legacy","legacy","0","uniform","1","undefined","1","right","29","29","29","0","0","29","29","0","0","29","29","29","0","29","0","Sun Oct 25 14:38:01 2020","The main experiment item","yes","SternbergTask-AL.osexp","/Users/annielenoir/Desktop","no","mono","no","18","no","white","no","no","768","legacy","17","11","/Users/annielenoir/Desktop/AL-subject-3.csv","legacy","2 5 1 4","Lentiform Loewenfeld","3.3.3","0","n","0","right","left","left","right","NA","1091","110535","7436","1091","NA","2","legacy","4","1024","2","48000","-16","experiment","3","odd","6","339458","335648","336791","1690","210191","336942","305534","1862","202754","338102","341612","342704","112406","341612","NA","Sternberg Task","24","40661","30","yes","1024"
"80.64516129032258","80.64516129032258","1368.9354838709678","1368.9354838709678","black","experiment","legacy","legacy","legacy","0","uniform","1","undefined","1","right","30","30","30","0","0","30","30","0","0","30","30","30","0","30","0","Sun Oct 25 14:38:01 2020","The main experiment item","yes","SternbergTask-AL.osexp","/Users/annielenoir/Desktop","no","mono","no","18","no","white","no","no","768","legacy","18","11","/Users/annielenoir/Desktop/AL-subject-3.csv","legacy","5 7 3","Lentiform Loewenfeld","3.3.3","0","n","0","right","left","left","right","NA","1776","110535","7436","1776","NA","2","legacy","3","1024","2","48000","-16","experiment","3","odd","9","346690","342857","344034","1690","210191","344189","305534","1862","202754","345334","348841","350618","112406","348841","NA","Sternberg Task","25","42437","31","yes","1024"
"81.25","81.25","1362.4375","1362.4375","black","experiment","legacy","legacy","legacy","0","uniform","1","undefined","1","left","31","31","31","0","0","31","31","0","0","31","31","31","0","31","0","Sun Oct 25 14:38:01 2020","The main experiment item","yes","SternbergTask-AL.osexp","/Users/annielenoir/Desktop","no","mono","no","18","no","white","no","no","768","legacy","19","11","/Users/annielenoir/Desktop/AL-subject-3.csv","legacy","9 5 8 1","Lentiform Loewenfeld","3.3.3","2","y","0","left","left","left","left","NA","1161","110535","7436","1161","NA","2","legacy","4","1024","2","48000","-16","experiment","3","odd","5","354567","350772","351900","1690","210191","352053","305534","1862","202754","353208","356727","357888","112406","356727","NA","Sternberg Task","26","43598","32","yes","1024"
"81.81818181818181","81.81818181818181","1356.060606060606","1356.060606060606","black","experiment","legacy","legacy","legacy","0","uniform","1","undefined","1","right","32","32","32","0","0","32","32","0","0","32","32","32","0","32","0","Sun Oct 25 14:38:01 2020","The main experiment item","yes","SternbergTask-AL.osexp","/Users/annielenoir/Desktop","no","mono","no","18","no","white","no","no","768","legacy","20","11","/Users/annielenoir/Desktop/AL-subject-3.csv","legacy","2 6 4 3 9","Lentiform Loewenfeld","3.3.3","0","n","0","right","left","left","right","NA","1152","110535","7436","1152","NA","2","legacy","5","1024","2","48000","-16","experiment","3","odd","1","361873","358041","359213","1690","210191","359364","305534","1862","202754","360517","364028","365181","112406","364028","NA","Sternberg Task","27","44750","33","yes","1024"
"82.3529411764706","82.3529411764706","1345.9705882352941","1345.9705882352941","black","experiment","legacy","legacy","legacy","0","uniform","1","undefined","1","right","33","33","33","0","0","33","33","0","0","33","33","33","0","33","0","Sun Oct 25 14:38:01 2020","The main experiment item","yes","SternbergTask-AL.osexp","/Users/annielenoir/Desktop","no","mono","no","18","no","white","no","no","768","legacy","21","11","/Users/annielenoir/Desktop/AL-subject-3.csv","legacy","6 2 9 3 8 4","Lentiform Loewenfeld","3.3.3","0","n","0","right","left","left","right","NA","1013","110535","7436","1013","NA","2","legacy","6","1024","2","48000","-16","experiment","3","odd","1","369147","365332","366493","1690","210191","366645","305534","1862","202754","367796","371297","372311","112406","371297","NA","Sternberg Task","28","45763","34","yes","1024"
"82.85714285714286","82.85714285714286","1341.6857142857143","1341.6857142857143","black","experiment","legacy","legacy","legacy","0","uniform","1","undefined","1","left","34","34","34","0","0","34","34","0","0","34","34","34","0","34","0","Sun Oct 25 14:38:01 2020","The main experiment item","yes","SternbergTask-AL.osexp","/Users/annielenoir/Desktop","no","mono","no","18","no","white","no","no","768","legacy","22","11","/Users/annielenoir/Desktop/AL-subject-3.csv","legacy","9 6 2 4 1","Lentiform Loewenfeld","3.3.3","4","y","0","left","left","left","left","NA","1196","110535","7436","1196","NA","2","legacy","5","1024","2","48000","-16","experiment","3","odd","4","376243","372463","373601","1690","210191","373746","305534","1862","202754","374891","378390","379587","112406","378390","NA","Sternberg Task","29","46959","35","yes","1024"
"83.33333333333333","83.33333333333333","1340.4166666666667","1340.4166666666667","black","experiment","legacy","legacy","legacy","0","uniform","1","undefined","1","left","35","35","35","0","0","35","35","0","0","35","35","35","0","35","0","Sun Oct 25 14:38:01 2020","The main experiment item","yes","SternbergTask-AL.osexp","/Users/annielenoir/Desktop","no","mono","no","18","no","white","no","no","768","legacy","23","11","/Users/annielenoir/Desktop/AL-subject-3.csv","legacy","3 5 7 1","Lentiform Loewenfeld","3.3.3","3","y","0","left","left","left","left","NA","1296","110535","7436","1296","NA","2","legacy","4","1024","2","48000","-16","experiment","3","odd","7","383500","379743","380874","1690","210191","381016","305534","1862","202754","382158","385646","386943","112406","385646","NA","Sternberg Task","30","48255","36","yes","1024"
"83.78378378378379","83.78378378378379","1354.2972972972973","1354.2972972972973","black","experiment","legacy","legacy","legacy","0","uniform","1","undefined","1","left","36","36","36","0","0","36","36","0","0","36","36","36","0","36","0","Sun Oct 25 14:38:01 2020","The main experiment item","yes","SternbergTask-AL.osexp","/Users/annielenoir/Desktop","no","mono","no","18","no","white","no","no","768","legacy","24","11","/Users/annielenoir/Desktop/AL-subject-3.csv","legacy","3 9 7 6 4","Lentiform Loewenfeld","3.3.3","3","y","0","left","left","left","left","NA","1854","110535","7436","1854","NA","2","legacy","5","1024","2","48000","-16","experiment","3","odd","7","390870","387090","388235","1690","210191","388380","305534","1862","202754","389523","393015","394870","112406","393015","NA","Sternberg Task","31","50109","37","yes","1024"
"84.21052631578948","84.21052631578948","1349.078947368421","1349.078947368421","black","experiment","legacy","legacy","legacy","0","uniform","1","undefined","1","left","37","37","37","0","0","37","37","0","0","37","37","37","0","37","0","Sun Oct 25 14:38:01 2020","The main experiment item","yes","SternbergTask-AL.osexp","/Users/annielenoir/Desktop","no","mono","no","18","no","white","no","no","768","legacy","25","11","/Users/annielenoir/Desktop/AL-subject-3.csv","legacy","7 4 2 6 3 5","Lentiform Loewenfeld","3.3.3","6","y","0","left","left","left","left","NA","1156","110535","7436","1156","NA","2","legacy","6","1024","2","48000","-16","experiment","3","odd","5","398785","395013","396151","1690","210191","396288","305534","1862","202754","397435","400932","402088","112406","400932","NA","Sternberg Task","32","51265","38","yes","1024"
"84.61538461538461","84.61538461538461","1362.2051282051282","1362.2051282051282","black","experiment","legacy","legacy","legacy","0","uniform","1","undefined","1","right","38","38","38","0","0","38","38","0","0","38","38","38","0","38","0","Sun Oct 25 14:38:01 2020","The main experiment item","yes","SternbergTask-AL.osexp","/Users/annielenoir/Desktop","no","mono","no","18","no","white","no","no","768","legacy","26","11","/Users/annielenoir/Desktop/AL-subject-3.csv","legacy","5 3 8 7 2 4","Lentiform Loewenfeld","3.3.3","0","n","0","right","left","left","right","NA","1861","110535","7436","1861","NA","2","legacy","6","1024","2","48000","-16","experiment","3","odd","9","405998","402234","403368","1690","210191","403504","305534","1862","202754","404649","408142","410004","112406","408141","NA","Sternberg Task","33","53126","39","yes","1024"
"85","85","1353.675","1353.675","black","experiment","legacy","legacy","legacy","0","uniform","1","undefined","1","left","39","39","39","0","0","39","39","0","0","39","39","39","0","39","0","Sun Oct 25 14:38:01 2020","The main experiment item","yes","SternbergTask-AL.osexp","/Users/annielenoir/Desktop","no","mono","no","18","no","white","no","no","768","legacy","27","11","/Users/annielenoir/Desktop/AL-subject-3.csv","legacy","7","Lentiform Loewenfeld","3.3.3","1","y","0","left","left","left","left","NA","1021","110535","7436","1021","NA","2","legacy","1","1024","2","48000","-16","experiment","3","odd","7","413904","410144","411275","1690","210191","411411","305534","1862","202754","412557","416050","417071","112406","416050","NA","Sternberg Task","34","54147","40","yes","1024"
"85.36585365853658","85.36585365853658","1343.5121951219512","1343.5121951219512","black","experiment","legacy","legacy","legacy","0","uniform","1","undefined","1","right","40","40","40","0","0","40","40","0","0","40","40","40","0","40","0","Sun Oct 25 14:38:01 2020","The main experiment item","yes","SternbergTask-AL.osexp","/Users/annielenoir/Desktop","no","mono","no","18","no","white","no","no","768","legacy","28","11","/Users/annielenoir/Desktop/AL-subject-3.csv","legacy","6 9 4 5 2","Lentiform Loewenfeld","3.3.3","0","n","0","right","left","left","right","NA","937","110535","7436","937","NA","2","legacy","5","1024","2","48000","-16","experiment","3","odd","1","420978","417218","418350","1690","210191","418485","305534","1862","202754","419630","423123","424061","112406","423123","NA","Sternberg Task","35","55084","41","yes","1024"
"85.71428571428571","85.71428571428571","1339.0238095238096","1339.0238095238096","black","experiment","legacy","legacy","legacy","0","uniform","1","undefined","1","right","41","41","41","0","0","41","41","0","0","41","41","41","0","41","0","Sun Oct 25 14:38:01 2020","The main experiment item","yes","SternbergTask-AL.osexp","/Users/annielenoir/Desktop","no","mono","no","18","no","white","no","no","768","legacy","29","11","/Users/annielenoir/Desktop/AL-subject-3.csv","legacy","8 2 1 4 5 9","Lentiform Loewenfeld","3.3.3","0","n","0","right","left","left","right","NA","1155","110535","7436","1155","NA","2","legacy","6","1024","2","48000","-16","experiment","3","odd","7","427983","424207","425366","1690","210191","425501","305534","1862","202754","426636","430129","431284","112406","430128","NA","Sternberg Task","36","56239","42","yes","1024"
"86.04651162790698","86.04651162790698","1344.1162790697674","1344.1162790697674","black","experiment","legacy","legacy","legacy","0","uniform","1","undefined","1","right","42","42","42","0","0","42","42","0","0","42","42","42","0","42","0","Sun Oct 25 14:38:01 2020","The main experiment item","yes","SternbergTask-AL.osexp","/Users/annielenoir/Desktop","no","mono","no","18","no","white","no","no","768","legacy","30","11","/Users/annielenoir/Desktop/AL-subject-3.csv","legacy","7 4 2 8 1 9","Lentiform Loewenfeld","3.3.3","0","n","0","right","left","left","right","NA","1558","110535","7436","1558","NA","2","legacy","6","1024","2","48000","-16","experiment","3","odd","5","435204","431431","432587","1690","210191","432721","305534","1862","202754","433857","437347","438906","112406","437347","NA","Sternberg Task","37","57797","43","yes","1024"
"86.36363636363636","86.36363636363636","1338.1363636363637","1338.1363636363637","black","experiment","legacy","legacy","legacy","0","uniform","1","undefined","1","left","43","43","43","0","0","43","43","0","0","43","43","43","0","43","0","Sun Oct 25 14:38:01 2020","The main experiment item","yes","SternbergTask-AL.osexp","/Users/annielenoir/Desktop","no","mono","no","18","no","white","no","no","768","legacy","31","11","/Users/annielenoir/Desktop/AL-subject-3.csv","legacy","6 7 9 3 1 2","Lentiform Loewenfeld","3.3.3","1","y","0","left","left","left","left","NA","1081","110535","7436","1081","NA","2","legacy","6","1024","2","48000","-16","experiment","3","odd","6","442811","439050","440180","1690","210191","440316","305534","1862","202754","441462","444956","446038","112406","444956","NA","Sternberg Task","38","58878","44","yes","1024"
"86.66666666666667","86.66666666666667","1328.6","1328.6","black","experiment","legacy","legacy","legacy","0","uniform","1","undefined","1","right","44","44","44","0","0","44","44","0","0","44","44","44","0","44","0","Sun Oct 25 14:38:01 2020","The main experiment item","yes","SternbergTask-AL.osexp","/Users/annielenoir/Desktop","no","mono","no","18","no","white","no","no","768","legacy","32","11","/Users/annielenoir/Desktop/AL-subject-3.csv","legacy","1 7 5 2","Lentiform Loewenfeld","3.3.3","0","n","0","right","left","left","right","NA","909","110535","7436","909","NA","2","legacy","4","1024","2","48000","-16","experiment","3","odd","3","449954","446187","447338","1690","210191","447472","305534","1862","202754","448606","452099","453009","112406","452098","NA","Sternberg Task","39","59787","45","yes","1024"
"86.95652173913044","86.95652173913044","1329.0652173913043","1329.0652173913043","black","experiment","legacy","legacy","legacy","0","uniform","1","undefined","1","right","45","45","45","0","0","45","45","0","0","45","45","45","0","45","0","Sun Oct 25 14:38:01 2020","The main experiment item","yes","SternbergTask-AL.osexp","/Users/annielenoir/Desktop","no","mono","no","18","no","white","no","no","768","legacy","33","11","/Users/annielenoir/Desktop/AL-subject-3.csv","legacy","9","Lentiform Loewenfeld","3.3.3","0","n","0","right","left","left","right","NA","1350","110535","7436","1350","NA","2","legacy","1","1024","2","48000","-16","experiment","3","odd","6","456939","453156","454316","1690","210191","454454","305534","1862","202754","455591","459083","460434","112406","459083","NA","Sternberg Task","40","61137","46","yes","1024"
"87.23404255319149","87.23404255319149","1325.3829787234042","1325.3829787234042","black","experiment","legacy","legacy","legacy","0","uniform","1","undefined","1","left","46","46","46","0","0","46","46","0","0","46","46","46","0","46","0","Sun Oct 25 14:38:01 2020","The main experiment item","yes","SternbergTask-AL.osexp","/Users/annielenoir/Desktop","no","mono","no","18","no","white","no","no","768","legacy","34","11","/Users/annielenoir/Desktop/AL-subject-3.csv","legacy","2 4 6 9","Lentiform Loewenfeld","3.3.3","3","y","0","left","left","left","left","NA","1156","110535","7436","1156","NA","2","legacy","4","1024","2","48000","-16","experiment","3","odd","6","464359","460579","461733","1690","210191","461867","305534","1862","202754","463010","466504","467661","112406","466503","NA","Sternberg Task","41","62293","47","yes","1024"
"87.5","87.5","1319.125","1319.125","black","experiment","legacy","legacy","legacy","0","uniform","1","undefined","1","left","47","47","47","0","0","47","47","0","0","47","47","47","0","47","0","Sun Oct 25 14:38:01 2020","The main experiment item","yes","SternbergTask-AL.osexp","/Users/annielenoir/Desktop","no","mono","no","18","no","white","no","no","768","legacy","35","11","/Users/annielenoir/Desktop/AL-subject-3.csv","legacy","8 3","Lentiform Loewenfeld","3.3.3","2","y","0","left","left","left","left","NA","1025","110535","7436","1025","NA","2","legacy","2","1024","2","48000","-16","experiment","3","odd","3","471588","467809","468968","1690","210191","469103","305534","1862","202754","470239","473732","474759","112406","473732","NA","Sternberg Task","42","63318","48","yes","1024"
"87.75510204081633","87.75510204081633","1312.7755102040817","1312.7755102040817","black","experiment","legacy","legacy","legacy","0","uniform","1","undefined","1","left","48","48","48","0","0","48","48","0","0","48","48","48","0","48","0","Sun Oct 25 14:38:01 2020","The main experiment item","yes","SternbergTask-AL.osexp","/Users/annielenoir/Desktop","no","mono","no","18","no","white","no","no","768","legacy","36","11","/Users/annielenoir/Desktop/AL-subject-3.csv","legacy","2 4 8 5 1 3","Lentiform Loewenfeld","3.3.3","1","y","0","left","left","left","left","NA","1008","110535","7436","1008","NA","2","legacy","6","1024","2","48000","-16","experiment","3","odd","2","478693","474906","476067","1690","210191","476210","305534","1862","202754","477345","480837","481846","112406","480837","NA","Sternberg Task","43","64326","49","yes","1024"
"88","88","1300.48","1300.48","black","experiment","legacy","legacy","legacy","0","uniform","1","undefined","1","right","49","49","49","0","0","49","49","0","0","49","49","49","0","49","0","Sun Oct 25 14:38:01 2020","The main experiment item","yes","SternbergTask-AL.osexp","/Users/annielenoir/Desktop","no","mono","no","18","no","white","no","no","768","legacy","37","11","/Users/annielenoir/Desktop/AL-subject-3.csv","legacy","5 2","Lentiform Loewenfeld","3.3.3","0","n","0","right","left","left","right","NA","698","110535","7436","698","NA","2","legacy","2","1024","2","48000","-16","experiment","3","odd","7","485773","481994","483153","1690","210191","483290","305534","1862","202754","484425","487919","488618","112406","487919","NA","Sternberg Task","44","65024","50","yes","1024"
"88.23529411764706","88.23529411764706","1293.686274509804","1293.686274509804","black","experiment","legacy","legacy","legacy","0","uniform","1","undefined","1","left","50","50","50","0","0","50","50","0","0","50","50","50","0","50","0","Sun Oct 25 14:38:01 2020","The main experiment item","yes","SternbergTask-AL.osexp","/Users/annielenoir/Desktop","no","mono","no","18","no","white","no","no","768","legacy","38","11","/Users/annielenoir/Desktop/AL-subject-3.csv","legacy","8","Lentiform Loewenfeld","3.3.3","1","y","0","left","left","left","left","NA","954","110535","7436","954","NA","2","legacy","1","1024","2","48000","-16","experiment","3","odd","8","492561","488769","489936","1690","210191","490075","305534","1862","202754","491213","494704","495659","112406","494704","NA","Sternberg Task","45","65978","51","yes","1024"
"88.46153846153847","88.46153846153847","1286.5384615384614","1286.5384615384614","black","experiment","legacy","legacy","legacy","0","uniform","1","undefined","1","left","51","51","51","0","0","51","51","0","0","51","51","51","0","51","0","Sun Oct 25 14:38:01 2020","The main experiment item","yes","SternbergTask-AL.osexp","/Users/annielenoir/Desktop","no","mono","no","18","no","white","no","no","768","legacy","39","11","/Users/annielenoir/Desktop/AL-subject-3.csv","legacy","9 8 4","Lentiform Loewenfeld","3.3.3","1","y","0","left","left","left","left","NA","922","110535","7436","922","NA","2","legacy","3","1024","2","48000","-16","experiment","3","odd","9","499599","495807","496974","1690","210191","497112","305534","1862","202754","498251","501744","502667","112406","501744","NA","Sternberg Task","46","66900","52","yes","1024"
"88.67924528301887","88.67924528301887","1279.6792452830189","1279.6792452830189","black","experiment","legacy","legacy","legacy","0","uniform","1","undefined","1","right","52","52","52","0","0","52","52","0","0","52","52","52","0","52","0","Sun Oct 25 14:38:01 2020","The main experiment item","yes","SternbergTask-AL.osexp","/Users/annielenoir/Desktop","no","mono","no","18","no","white","no","no","768","legacy","40","11","/Users/annielenoir/Desktop/AL-subject-3.csv","legacy","1 7 8 3 9","Lentiform Loewenfeld","3.3.3","0","n","0","right","left","left","right","NA","923","110535","7436","923","NA","2","legacy","5","1024","2","48000","-16","experiment","3","odd","2","506611","502815","503980","1690","210191","504117","305534","1862","202754","505254","508755","509678","112406","508755","NA","Sternberg Task","47","67823","53","yes","1024"
"88.88888888888889","88.88888888888889","1270.6851851851852","1270.6851851851852","black","experiment","legacy","legacy","legacy","0","uniform","1","undefined","1","right","53","53","53","0","0","53","53","0","0","53","53","53","0","53","0","Sun Oct 25 14:38:01 2020","The main experiment item","yes","SternbergTask-AL.osexp","/Users/annielenoir/Desktop","no","mono","no","18","no","white","no","no","768","legacy","41","11","/Users/annielenoir/Desktop/AL-subject-3.csv","legacy","2 8 7 9 5 3","Lentiform Loewenfeld","3.3.3","0","n","0","right","left","left","right","NA","794","110535","7436","794","NA","2","legacy","6","1024","2","48000","-16","experiment","3","odd","6","513617","509828","510995","1690","210191","511132","305534","1862","202754","512270","515763","516558","112406","515763","NA","Sternberg Task","48","68617","54","yes","1024"
"89.0909090909091","89.0909090909091","1262.4363636363637","1262.4363636363637","black","experiment","legacy","legacy","legacy","0","uniform","1","undefined","1","right","54","54","54","0","0","54","54","0","0","54","54","54","0","54","0","Sun Oct 25 14:38:01 2020","The main experiment item","yes","SternbergTask-AL.osexp","/Users/annielenoir/Desktop","no","mono","no","18","no","white","no","no","768","legacy","42","11","/Users/annielenoir/Desktop/AL-subject-3.csv","legacy","2 7 5","Lentiform Loewenfeld","3.3.3","0","n","0","right","left","left","right","NA","817","110535","7436","817","NA","2","legacy","3","1024","2","48000","-16","experiment","3","odd","8","520501","516705","517878","1690","210191","518016","305534","1862","202754","519153","522644","523462","112406","522643","NA","Sternberg Task","49","69434","55","yes","1024"
"89.28571428571429","89.28571428571429","1257.0357142857142","1257.0357142857142","black","experiment","legacy","legacy","legacy","0","uniform","1","undefined","1","right","55","55","55","0","0","55","55","0","0","55","55","55","0","55","0","Sun Oct 25 14:38:01 2020","The main experiment item","yes","SternbergTask-AL.osexp","/Users/annielenoir/Desktop","no","mono","no","18","no","white","no","no","768","legacy","43","11","/Users/annielenoir/Desktop/AL-subject-3.csv","legacy","7 6 4 8 1 2","Lentiform Loewenfeld","3.3.3","0","n","0","right","left","left","right","NA","960","110535","7436","960","NA","2","legacy","6","1024","2","48000","-16","experiment","3","odd","9","527367","523606","524741","1690","210191","524884","305534","1862","202754","526026","529512","530473","112406","529511","NA","Sternberg Task","50","70394","56","yes","1024"
"89.47368421052632","89.47368421052632","1250.0877192982457","1250.0877192982457","black","experiment","legacy","legacy","legacy","0","uniform","1","undefined","1","right","56","56","56","0","0","56","56","0","0","56","56","56","0","56","0","Sun Oct 25 14:38:01 2020","The main experiment item","yes","SternbergTask-AL.osexp","/Users/annielenoir/Desktop","no","mono","no","18","no","white","no","no","768","legacy","44","11","/Users/annielenoir/Desktop/AL-subject-3.csv","legacy","8 6 3 4 7","Lentiform Loewenfeld","3.3.3","0","n","0","right","left","left","right","NA","861","110535","7436","861","NA","2","legacy","5","1024","2","48000","-16","experiment","3","odd","1","534401","530617","531767","1690","210191","531910","305534","1862","202754","533054","536547","537409","112406","536547","NA","Sternberg Task","51","71255","57","yes","1024"
"89.65517241379311","89.65517241379311","1244.948275862069","1244.948275862069","black","experiment","legacy","legacy","legacy","0","uniform","1","undefined","1","left","57","57","57","0","0","57","57","0","0","57","57","57","0","57","0","Sun Oct 25 14:38:01 2020","The main experiment item","yes","SternbergTask-AL.osexp","/Users/annielenoir/Desktop","no","mono","no","18","no","white","no","no","768","legacy","45","11","/Users/annielenoir/Desktop/AL-subject-3.csv","legacy","8 1 6","Lentiform Loewenfeld","3.3.3","3","y","0","left","left","left","left","NA","952","110535","7436","952","NA","2","legacy","3","1024","2","48000","-16","experiment","3","odd","6","541319","537558","538692","1690","210191","538837","305534","1862","202754","539982","543453","544406","112406","543453","NA","Sternberg Task","52","72207","58","yes","1024"
"89.83050847457628","89.83050847457628","1239.542372881356","1239.542372881356","black","experiment","legacy","legacy","legacy","0","uniform","1","undefined","1","left","58","58","58","0","0","58","58","0","0","58","58","58","0","58","0","Sun Oct 25 14:38:01 2020","The main experiment item","yes","SternbergTask-AL.osexp","/Users/annielenoir/Desktop","no","mono","no","18","no","white","no","no","768","legacy","46","11","/Users/annielenoir/Desktop/AL-subject-3.csv","legacy","6 7 8 5","Lentiform Loewenfeld","3.3.3","3","y","0","left","left","left","left","NA","926","110535","7436","926","NA","2","legacy","4","1024","2","48000","-16","experiment","3","odd","8","548297","544560","545683","1690","210191","545821","305534","1862","202754","546958","550431","551358","112406","550431","NA","Sternberg Task","53","73133","59","yes","1024"
"90","90","1234.1166666666666","1234.1166666666666","black","experiment","legacy","legacy","legacy","0","uniform","1","undefined","1","right","59","59","59","0","0","59","59","0","0","59","59","59","0","59","0","Sun Oct 25 14:38:01 2020","The main experiment item","yes","SternbergTask-AL.osexp","/Users/annielenoir/Desktop","no","mono","no","18","no","white","no","no","768","legacy","47","11","/Users/annielenoir/Desktop/AL-subject-3.csv","legacy","3 9 8 1 6 4","Lentiform Loewenfeld","3.3.3","0","n","0","right","left","left","right","NA","914","110535","7436","914","NA","2","legacy","6","1024","2","48000","-16","experiment","3","odd","7","555256","551508","552646","1690","210191","552783","305534","1862","202754","553917","557400","558315","112406","557400","NA","Sternberg Task","54","74047","60","yes","1024"
"90.1639344262295","90.1639344262295","1229.0655737704917","1229.0655737704917","black","experiment","legacy","legacy","legacy","0","uniform","1","undefined","1","left","60","60","60","0","0","60","60","0","0","60","60","60","0","60","0","Sun Oct 25 14:38:01 2020","The main experiment item","yes","SternbergTask-AL.osexp","/Users/annielenoir/Desktop","no","mono","no","18","no","white","no","no","768","legacy","48","11","/Users/annielenoir/Desktop/AL-subject-3.csv","legacy","2 5 4 8 7","Lentiform Loewenfeld","3.3.3","3","y","0","left","left","left","left","NA","926","110535","7436","926","NA","2","legacy","5","1024","2","48000","-16","experiment","3","odd","4","562262","558464","559643","1690","210191","559779","305534","1862","202754","560915","564405","565332","112406","564405","NA","Sternberg Task","55","74973","61","yes","1024"
"90.3225806451613","90.3225806451613","1223.5806451612902","1223.5806451612902","black","experiment","legacy","legacy","legacy","0","uniform","1","undefined","1","left","61","61","61","0","0","61","61","0","0","61","61","61","0","61","0","Sun Oct 25 14:38:01 2020","The main experiment item","yes","SternbergTask-AL.osexp","/Users/annielenoir/Desktop","no","mono","no","18","no","white","no","no","768","legacy","49","11","/Users/annielenoir/Desktop/AL-subject-3.csv","legacy","8 9 5 6 7","Lentiform Loewenfeld","3.3.3","1","y","0","left","left","left","left","NA","889","110535","7436","889","NA","2","legacy","5","1024","2","48000","-16","experiment","3","odd","8","569270","565481","566648","1690","210191","566786","305534","1862","202754","567923","571414","572304","112406","571414","NA","Sternberg Task","56","75862","62","yes","1024"
"90.47619047619048","90.47619047619048","1223.873015873016","1223.873015873016","black","experiment","legacy","legacy","legacy","0","uniform","1","undefined","1","right","62","62","62","0","0","62","62","0","0","62","62","62","0","62","0","Sun Oct 25 14:38:01 2020","The main experiment item","yes","SternbergTask-AL.osexp","/Users/annielenoir/Desktop","no","mono","no","18","no","white","no","no","768","legacy","50","11","/Users/annielenoir/Desktop/AL-subject-3.csv","legacy","5 9 2 3","Lentiform Loewenfeld","3.3.3","0","n","0","right","left","left","right","NA","1242","110535","7436","1242","NA","2","legacy","4","1024","2","48000","-16","experiment","3","odd","8","576240","572451","573617","1690","210191","573755","305534","1862","202754","574892","578383","579626","112406","578383","NA","Sternberg Task","57","77104","63","yes","1024"
"90.625","90.625","1233.328125","1233.328125","black","experiment","legacy","legacy","legacy","0","uniform","1","undefined","1","right","63","63","63","0","0","63","63","0","0","63","63","63","0","63","0","Sun Oct 25 14:38:01 2020","The main experiment item","yes","SternbergTask-AL.osexp","/Users/annielenoir/Desktop","no","mono","no","18","no","white","no","no","768","legacy","51","11","/Users/annielenoir/Desktop/AL-subject-3.csv","legacy","3 4 2","Lentiform Loewenfeld","3.3.3","0","n","0","right","left","left","right","NA","1829","110535","7436","1829","NA","2","legacy","3","1024","2","48000","-16","experiment","3","odd","5","583548","579771","580931","1690","210191","581066","305534","1862","202754","582201","585694","587524","112406","585694","NA","Sternberg Task","58","78933","64","yes","1024"
"90.76923076923077","90.76923076923077","1228.3076923076924","1228.3076923076924","black","experiment","legacy","legacy","legacy","0","uniform","1","undefined","1","left","64","64","64","0","0","64","64","0","0","64","64","64","0","64","0","Sun Oct 25 14:38:01 2020","The main experiment item","yes","SternbergTask-AL.osexp","/Users/annielenoir/Desktop","no","mono","no","18","no","white","no","no","768","legacy","52","11","/Users/annielenoir/Desktop/AL-subject-3.csv","legacy","6 2","Lentiform Loewenfeld","3.3.3","1","y","0","left","left","left","left","NA","907","110535","7436","907","NA","2","legacy","2","1024","2","48000","-16","experiment","3","odd","6","591403","587668","588773","1690","210191","588915","305534","1862","202754","590059","593549","594457","112406","593549","NA","Sternberg Task","59","79840","65","yes","1024"
"90.9090909090909","90.9090909090909","1220.7727272727273","1220.7727272727273","black","experiment","legacy","legacy","legacy","0","uniform","1","undefined","1","right","65","65","65","0","0","65","65","0","0","65","65","65","0","65","0","Sun Oct 25 14:38:01 2020","The main experiment item","yes","SternbergTask-AL.osexp","/Users/annielenoir/Desktop","no","mono","no","18","no","white","no","no","768","legacy","53","11","/Users/annielenoir/Desktop/AL-subject-3.csv","legacy","4 8 1 2","Lentiform Loewenfeld","3.3.3","0","n","0","right","left","left","right","NA","731","110535","7436","731","NA","2","legacy","4","1024","2","48000","-16","experiment","3","odd","7","598378","594603","595739","1690","210191","595882","305534","1862","202754","597027","600524","601256","112406","600524","NA","Sternberg Task","60","80571","66","yes","1024"
"91.04477611940298","91.04477611940298","1222.0597014925372","1222.0597014925372","black","experiment","legacy","legacy","legacy","0","uniform","1","undefined","1","left","66","66","66","0","0","66","66","0","0","66","66","66","0","66","0","Sun Oct 25 14:38:01 2020","The main experiment item","yes","SternbergTask-AL.osexp","/Users/annielenoir/Desktop","no","mono","no","18","no","white","no","no","768","legacy","54","11","/Users/annielenoir/Desktop/AL-subject-3.csv","legacy","2 6 1 7 4","Lentiform Loewenfeld","3.3.3","2","y","0","left","left","left","left","NA","1307","110535","7436","1307","NA","2","legacy","5","1024","2","48000","-16","experiment","3","odd","6","605210","601406","602570","1690","210191","602717","305534","1862","202754","603861","607359","608667","112406","607359","NA","Sternberg Task","61","81878","67","yes","1024"
"91.17647058823529","91.17647058823529","1223.8235294117646","1223.8235294117646","black","experiment","legacy","legacy","legacy","0","uniform","1","undefined","1","left","67","67","67","0","0","67","67","0","0","67","67","67","0","67","0","Sun Oct 25 14:38:01 2020","The main experiment item","yes","SternbergTask-AL.osexp","/Users/annielenoir/Desktop","no","mono","no","18","no","white","no","no","768","legacy","55","11","/Users/annielenoir/Desktop/AL-subject-3.csv","legacy","8 5 4 7 3 1","Lentiform Loewenfeld","3.3.3","2","y","0","left","left","left","left","NA","1342","110535","7436","1342","NA","2","legacy","6","1024","2","48000","-16","experiment","3","odd","5","612610","608822","609985","1690","210191","610121","305534","1862","202754","611263","614754","616097","112406","614754","NA","Sternberg Task","62","83220","68","yes","1024"
"91.30434782608695","91.30434782608695","1220.536231884058","1220.536231884058","black","experiment","legacy","legacy","legacy","0","uniform","1","undefined","1","right","68","68","68","0","0","68","68","0","0","68","68","68","0","68","0","Sun Oct 25 14:38:01 2020","The main experiment item","yes","SternbergTask-AL.osexp","/Users/annielenoir/Desktop","no","mono","no","18","no","white","no","no","768","legacy","56","11","/Users/annielenoir/Desktop/AL-subject-3.csv","legacy","7 1 5 6 3","Lentiform Loewenfeld","3.3.3","0","n","0","right","left","left","right","NA","997","110535","7436","997","NA","2","legacy","5","1024","2","48000","-16","experiment","3","odd","8","620027","616246","617401","1690","210191","617536","305534","1862","202754","618683","622170","623168","112406","622170","NA","Sternberg Task","63","84217","69","yes","1024"
"91.42857142857143","91.42857142857143","1217.857142857143","1217.857142857143","black","experiment","legacy","legacy","legacy","0","uniform","1","undefined","1","left","69","69","69","0","0","69","69","0","0","69","69","69","0","69","0","Sun Oct 25 14:38:01 2020","The main experiment item","yes","SternbergTask-AL.osexp","/Users/annielenoir/Desktop","no","mono","no","18","no","white","no","no","768","legacy","57","11","/Users/annielenoir/Desktop/AL-subject-3.csv","legacy","4 9 7 8 5 3","Lentiform Loewenfeld","3.3.3","4","y","0","left","left","left","left","NA","1033","110535","7436","1033","NA","2","legacy","6","1024","2","48000","-16","experiment","3","odd","8","627086","623316","624455","1690","210191","624597","305534","1862","202754","625741","629228","630262","112406","629228","NA","Sternberg Task","64","85250","70","yes","1024"
"91.54929577464789","91.54929577464789","1211.3521126760563","1211.3521126760563","black","experiment","legacy","legacy","legacy","0","uniform","1","undefined","1","left","70","70","70","0","0","70","70","0","0","70","70","70","0","70","0","Sun Oct 25 14:38:01 2020","The main experiment item","yes","SternbergTask-AL.osexp","/Users/annielenoir/Desktop","no","mono","no","18","no","white","no","no","768","legacy","58","11","/Users/annielenoir/Desktop/AL-subject-3.csv","legacy","4 6 5 8","Lentiform Loewenfeld","3.3.3","1","y","0","left","left","left","left","NA","756","110535","7436","756","NA","2","legacy","4","1024","2","48000","-16","experiment","3","odd","4","634155","630413","631541","1690","210191","631680","305534","1862","202754","632819","636291","637048","112406","636291","NA","Sternberg Task","65","86006","71","yes","1024"
"91.66666666666667","91.66666666666667","1207.7916666666667","1207.7916666666667","black","experiment","legacy","legacy","legacy","0","uniform","1","undefined","1","left","71","71","71","0","0","71","71","0","0","71","71","71","0","71","0","Sun Oct 25 14:38:01 2020","The main experiment item","yes","SternbergTask-AL.osexp","/Users/annielenoir/Desktop","no","mono","no","18","no","white","no","no","768","legacy","59","11","/Users/annielenoir/Desktop/AL-subject-3.csv","legacy","6 1 2","Lentiform Loewenfeld","3.3.3","3","y","0","left","left","left","left","NA","955","110535","7436","955","NA","2","legacy","3","1024","2","48000","-16","experiment","3","odd","2","640942","637197","638331","1690","210191","638470","305534","1862","202754","639606","643076","644033","112406","643076","NA","Sternberg Task","66","86961","72","yes","1024"
"91.78082191780823","91.78082191780823","1212.5205479452054","1212.5205479452054","black","experiment","legacy","legacy","legacy","0","uniform","1","undefined","1","right","72","72","72","0","0","72","72","0","0","72","72","72","0","72","0","Sun Oct 25 14:38:01 2020","The main experiment item","yes","SternbergTask-AL.osexp","/Users/annielenoir/Desktop","no","mono","no","18","no","white","no","no","768","legacy","60","11","/Users/annielenoir/Desktop/AL-subject-3.csv","legacy","9 8 2 7 4","Lentiform Loewenfeld","3.3.3","0","n","0","right","left","left","right","NA","1553","110535","7436","1553","NA","2","legacy","5","1024","2","48000","-16","experiment","3","odd","5","647920","644181","645307","1690","210191","645445","305534","1862","202754","646582","650053","651607","112406","650053","NA","Sternberg Task","67","88514","73","yes","1024"
"91.89189189189189","91.89189189189189","1211.9864864864865","1211.9864864864865","black","experiment","legacy","legacy","legacy","0","uniform","1","undefined","1","left","73","73","73","0","0","73","73","0","0","73","73","73","0","73","0","Sun Oct 25 14:38:01 2020","The main experiment item","yes","SternbergTask-AL.osexp","/Users/annielenoir/Desktop","no","mono","no","18","no","white","no","no","768","legacy","61","11","/Users/annielenoir/Desktop/AL-subject-3.csv","legacy","5 2 6","Lentiform Loewenfeld","3.3.3","2","y","0","left","left","left","left","NA","1173","110535","7436","1173","NA","2","legacy","3","1024","2","48000","-16","experiment","3","odd","2","655456","651754","652851","1690","210191","652984","305534","1862","202754","654119","657590","658764","112406","657589","NA","Sternberg Task","68","89687","74","yes","1024"
"92","92","1205.7333333333333","1205.7333333333333","black","experiment","legacy","legacy","legacy","0","uniform","1","undefined","1","left","74","74","74","0","0","74","74","0","0","74","74","74","0","74","0","Sun Oct 25 14:38:01 2020","The main experiment item","yes","SternbergTask-AL.osexp","/Users/annielenoir/Desktop","no","mono","no","18","no","white","no","no","768","legacy","62","11","/Users/annielenoir/Desktop/AL-subject-3.csv","legacy","2 3 7 4","Lentiform Loewenfeld","3.3.3","1","y","0","left","left","left","left","NA","743","110535","7436","743","NA","2","legacy","4","1024","2","48000","-16","experiment","3","odd","2","662636","658914","660033","1690","210191","660166","305534","1862","202754","661300","664769","665513","112406","664769","NA","Sternberg Task","69","90430","75","yes","1024"
"92.10526315789474","92.10526315789474","1203.2631578947369","1203.2631578947369","black","experiment","legacy","legacy","legacy","0","uniform","1","undefined","1","right","75","75","75","0","0","75","75","0","0","75","75","75","0","75","0","Sun Oct 25 14:38:01 2020","The main experiment item","yes","SternbergTask-AL.osexp","/Users/annielenoir/Desktop","no","mono","no","18","no","white","no","no","768","legacy","63","11","/Users/annielenoir/Desktop/AL-subject-3.csv","legacy","2 8 6 3 1","Lentiform Loewenfeld","3.3.3","0","n","0","right","left","left","right","NA","1018","110535","7436","1018","NA","2","legacy","5","1024","2","48000","-16","experiment","3","odd","7","669408","665666","666796","1690","210191","666935","305534","1862","202754","668072","671541","672560","112406","671541","NA","Sternberg Task","70","91448","76","yes","1024"
"92.20779220779221","92.20779220779221","1200.1168831168832","1200.1168831168832","black","experiment","legacy","legacy","legacy","0","uniform","1","undefined","1","left","76","76","76","0","0","76","76","0","0","76","76","76","0","76","0","Sun Oct 25 14:38:01 2020","The main experiment item","yes","SternbergTask-AL.osexp","/Users/annielenoir/Desktop","no","mono","no","18","no","white","no","no","768","legacy","64","11","/Users/annielenoir/Desktop/AL-subject-3.csv","legacy","7 8 4 6 9 5","Lentiform Loewenfeld","3.3.3","4","y","0","left","left","left","left","NA","961","110535","7436","961","NA","2","legacy","6","1024","2","48000","-16","experiment","3","odd","6","676508","672708","673889","1690","210191","674024","305534","1862","202754","675160","678653","679615","112406","678653","NA","Sternberg Task","71","92409","77","yes","1024"
"92.3076923076923","92.3076923076923","1194.8974358974358","1194.8974358974358","black","experiment","legacy","legacy","legacy","0","uniform","1","undefined","1","left","77","77","77","0","0","77","77","0","0","77","77","77","0","77","0","Sun Oct 25 14:38:01 2020","The main experiment item","yes","SternbergTask-AL.osexp","/Users/annielenoir/Desktop","no","mono","no","18","no","white","no","no","768","legacy","65","11","/Users/annielenoir/Desktop/AL-subject-3.csv","legacy","9 3 1 2 5","Lentiform Loewenfeld","3.3.3","4","y","0","left","left","left","left","NA","793","110535","7436","793","NA","2","legacy","5","1024","2","48000","-16","experiment","3","odd","2","683562","679764","680944","1690","210191","681080","305534","1862","202754","682216","685706","686500","112406","685706","NA","Sternberg Task","72","93202","78","yes","1024"
"92.40506329113924","92.40506329113924","1191.9367088607594","1191.9367088607594","black","experiment","legacy","legacy","legacy","0","uniform","1","undefined","1","right","78","78","78","0","0","78","78","0","0","78","78","78","0","78","0","Sun Oct 25 14:38:01 2020","The main experiment item","yes","SternbergTask-AL.osexp","/Users/annielenoir/Desktop","no","mono","no","18","no","white","no","no","768","legacy","66","11","/Users/annielenoir/Desktop/AL-subject-3.csv","legacy","6 9 5","Lentiform Loewenfeld","3.3.3","0","n","0","right","left","left","right","NA","961","110535","7436","961","NA","2","legacy","3","1024","2","48000","-16","experiment","3","odd","8","690436","686650","687812","1690","210191","687951","305534","1862","202754","689088","692582","693544","112406","692582","NA","Sternberg Task","73","94163","79","yes","1024"
"92.5","92.5","1189.6","1189.6","black","experiment","legacy","legacy","legacy","0","uniform","1","undefined","1","left","79","79","79","0","0","79","79","0","0","79","79","79","0","79","0","Sun Oct 25 14:38:01 2020","The main experiment item","yes","SternbergTask-AL.osexp","/Users/annielenoir/Desktop","no","mono","no","18","no","white","no","no","768","legacy","67","11","/Users/annielenoir/Desktop/AL-subject-3.csv","legacy","4 1 5","Lentiform Loewenfeld","3.3.3","2","y","0","left","left","left","left","NA","1005","110535","7436","1005","NA","2","legacy","3","1024","2","48000","-16","experiment","3","odd","1","697476","693691","694855","1690","210191","694993","305534","1862","202754","696129","699620","700626","112406","699620","NA","Sternberg Task","74","95168","80","yes","1024"
"92.5925925925926","92.5925925925926","1188.1234567901236","1188.1234567901236","black","experiment","legacy","legacy","legacy","0","uniform","1","undefined","1","left","80","80","80","0","0","80","80","0","0","80","80","80","0","80","0","Sun Oct 25 14:38:01 2020","The main experiment item","yes","SternbergTask-AL.osexp","/Users/annielenoir/Desktop","no","mono","no","18","no","white","no","no","768","legacy","68","11","/Users/annielenoir/Desktop/AL-subject-3.csv","legacy","8 5 3 7 4 6","Lentiform Loewenfeld","3.3.3","6","y","0","left","left","left","left","NA","1070","110535","7436","1070","NA","2","legacy","6","1024","2","48000","-16","experiment","3","odd","6","704570","700774","701947","1690","210191","702087","305534","1862","202754","703221","706714","707785","112406","706714","NA","Sternberg Task","75","96238","81","yes","1024"
"92.6829268292683","92.6829268292683","1185.9634146341464","1185.9634146341464","black","experiment","legacy","legacy","legacy","0","uniform","1","undefined","1","left","81","81","81","0","0","81","81","0","0","81","81","81","0","81","0","Sun Oct 25 14:38:01 2020","The main experiment item","yes","SternbergTask-AL.osexp","/Users/annielenoir/Desktop","no","mono","no","18","no","white","no","no","768","legacy","69","11","/Users/annielenoir/Desktop/AL-subject-3.csv","legacy","8 9 5 7 1 6","Lentiform Loewenfeld","3.3.3","4","y","0","left","left","left","left","NA","1011","110535","7436","1011","NA","2","legacy","6","1024","2","48000","-16","experiment","3","odd","7","711713","707935","709093","1690","210191","709230","305534","1862","202754","710365","713858","714870","112406","713858","NA","Sternberg Task","76","97249","82","yes","1024"
"92.7710843373494","92.7710843373494","1181.4819277108434","1181.4819277108434","black","experiment","legacy","legacy","legacy","0","uniform","1","undefined","1","left","82","82","82","0","0","82","82","0","0","82","82","82","0","82","0","Sun Oct 25 14:38:01 2020","The main experiment item","yes","SternbergTask-AL.osexp","/Users/annielenoir/Desktop","no","mono","no","18","no","white","no","no","768","legacy","70","11","/Users/annielenoir/Desktop/AL-subject-3.csv","legacy","3 9 6 2","Lentiform Loewenfeld","3.3.3","4","y","0","left","left","left","left","NA","814","110535","7436","814","NA","2","legacy","4","1024","2","48000","-16","experiment","3","odd","2","718798","715019","716178","1690","210191","716315","305534","1862","202754","717451","720944","721759","112406","720944","NA","Sternberg Task","77","98063","83","yes","1024"
"92.85714285714286","92.85714285714286","1177.8095238095239","1177.8095238095239","black","experiment","legacy","legacy","legacy","0","uniform","1","undefined","1","left","83","83","83","0","0","83","83","0","0","83","83","83","0","83","0","Sun Oct 25 14:38:01 2020","The main experiment item","yes","SternbergTask-AL.osexp","/Users/annielenoir/Desktop","no","mono","no","18","no","white","no","no","768","legacy","71","11","/Users/annielenoir/Desktop/AL-subject-3.csv","legacy","9 5 3 8 4","Lentiform Loewenfeld","3.3.3","1","y","0","left","left","left","left","NA","873","110535","7436","873","NA","2","legacy","5","1024","2","48000","-16","experiment","3","odd","9","725713","721913","723091","1690","210191","723228","305534","1862","202754","724366","727858","728732","112406","727858","NA","Sternberg Task","78","98936","84","yes","1024"
"92.94117647058823","92.94117647058823","1172.164705882353","1172.164705882353","black","experiment","legacy","legacy","legacy","0","uniform","1","undefined","1","left","84","84","84","0","0","84","84","0","0","84","84","84","0","84","0","Sun Oct 25 14:38:01 2020","The main experiment item","yes","SternbergTask-AL.osexp","/Users/annielenoir/Desktop","no","mono","no","18","no","white","no","no","768","legacy","72","11","/Users/annielenoir/Desktop/AL-subject-3.csv","legacy","8 7 3","Lentiform Loewenfeld","3.3.3","1","y","0","left","left","left","left","NA","698","110535","7436","698","NA","2","legacy","3","1024","2","48000","-16","experiment","3","odd","8","732676","728879","730054","1690","210191","730192","305534","1862","202754","731329","734821","735520","112406","734821","NA","Sternberg Task","79","99634","85","yes","1024"
"93.02325581395348","93.02325581395348","1166.6627906976744","1166.6627906976744","black","experiment","legacy","legacy","legacy","0","uniform","1","undefined","1","left","85","85","85","0","0","85","85","0","0","85","85","85","0","85","0","Sun Oct 25 14:38:01 2020","The main experiment item","yes","SternbergTask-AL.osexp","/Users/annielenoir/Desktop","no","mono","no","18","no","white","no","no","768","legacy","73","11","/Users/annielenoir/Desktop/AL-subject-3.csv","legacy","2 3","Lentiform Loewenfeld","3.3.3","1","y","0","left","left","left","left","NA","699","110535","7436","699","NA","2","legacy","2","1024","2","48000","-16","experiment","3","odd","2","739489","735670","736861","1690","210191","737003","305534","1862","202754","738142","741630","742330","112406","741630","NA","Sternberg Task","80","100333","86","yes","1024"
"93.10344827586206","93.10344827586206","1163.2643678160919","1163.2643678160919","black","experiment","legacy","legacy","legacy","0","uniform","1","undefined","1","right","86","86","86","0","0","86","86","0","0","86","86","86","0","86","0","Sun Oct 25 14:38:01 2020","The main experiment item","yes","SternbergTask-AL.osexp","/Users/annielenoir/Desktop","no","mono","no","18","no","white","no","no","768","legacy","74","11","/Users/annielenoir/Desktop/AL-subject-3.csv","legacy","1 7 5 2 9","Lentiform Loewenfeld","3.3.3","0","n","0","right","left","left","right","NA","871","110535","7436","871","NA","2","legacy","5","1024","2","48000","-16","experiment","3","odd","3","746277","742474","743649","1690","210191","743789","305534","1862","202754","744928","748419","749291","112406","748418","NA","Sternberg Task","81","101204","87","yes","1024"
"93.18181818181819","93.18181818181819","1163.5113636363637","1163.5113636363637","black","experiment","legacy","legacy","legacy","0","uniform","1","undefined","1","right","87","87","87","0","0","87","87","0","0","87","87","87","0","87","0","Sun Oct 25 14:38:01 2020","The main experiment item","yes","SternbergTask-AL.osexp","/Users/annielenoir/Desktop","no","mono","no","18","no","white","no","no","768","legacy","75","11","/Users/annielenoir/Desktop/AL-subject-3.csv","legacy","8 4 3 9","Lentiform Loewenfeld","3.3.3","0","n","0","right","left","left","right","NA","1185","110535","7436","1185","NA","2","legacy","4","1024","2","48000","-16","experiment","3","odd","5","753245","749439","750623","1690","210191","750760","305534","1862","202754","751898","755389","756575","112406","755389","NA","Sternberg Task","82","102389","88","yes","1024"
"93.25842696629213","93.25842696629213","1162.5505617977528","1162.5505617977528","black","experiment","legacy","legacy","legacy","0","uniform","1","undefined","1","right","88","88","88","0","0","88","88","0","0","88","88","88","0","88","0","Sun Oct 25 14:38:01 2020","The main experiment item","yes","SternbergTask-AL.osexp","/Users/annielenoir/Desktop","no","mono","no","18","no","white","no","no","768","legacy","76","11","/Users/annielenoir/Desktop/AL-subject-3.csv","legacy","7 1 8 4 9 3","Lentiform Loewenfeld","3.3.3","0","n","0","right","left","left","right","NA","1078","110535","7436","1078","NA","2","legacy","6","1024","2","48000","-16","experiment","3","odd","6","760507","756723","757890","1690","210191","758025","305534","1862","202754","759159","762651","763730","112406","762651","NA","Sternberg Task","83","103467","89","yes","1024"
"93.33333333333333","93.33333333333333","1159.4777777777779","1159.4777777777779","black","experiment","legacy","legacy","legacy","0","uniform","1","undefined","1","right","89","89","89","0","0","89","89","0","0","89","89","89","0","89","0","Sun Oct 25 14:38:01 2020","The main experiment item","yes","SternbergTask-AL.osexp","/Users/annielenoir/Desktop","no","mono","no","18","no","white","no","no","768","legacy","77","11","/Users/annielenoir/Desktop/AL-subject-3.csv","legacy","1 4 9 3","Lentiform Loewenfeld","3.3.3","0","n","0","right","left","left","right","NA","886","110535","7436","886","NA","2","legacy","4","1024","2","48000","-16","experiment","3","odd","5","767655","763878","765037","1690","210191","765174","305534","1862","202754","766310","769799","770686","112406","769799","NA","Sternberg Task","84","104353","90","yes","1024"
"93.4065934065934","93.4065934065934","1161.5714285714287","1161.5714285714287","black","experiment","legacy","legacy","legacy","0","uniform","1","undefined","1","left","90","90","90","0","0","90","90","0","0","90","90","90","0","90","0","Sun Oct 25 14:38:01 2020","The main experiment item","yes","SternbergTask-AL.osexp","/Users/annielenoir/Desktop","no","mono","no","18","no","white","no","no","768","legacy","78","11","/Users/annielenoir/Desktop/AL-subject-3.csv","legacy","9 1 7 2","Lentiform Loewenfeld","3.3.3","2","y","0","left","left","left","left","NA","1350","110535","7436","1350","NA","2","legacy","4","1024","2","48000","-16","experiment","3","odd","1","774643","770839","772022","1690","210191","772159","305534","1862","202754","773296","776787","778139","112406","776787","NA","Sternberg Task","85","105703","91","yes","1024"
"93.47826086956522","93.47826086956522","1157.5978260869565","1157.5978260869565","black","experiment","legacy","legacy","legacy","0","uniform","1","undefined","1","right","91","91","91","0","0","91","91","0","0","91","91","91","0","91","0","Sun Oct 25 14:38:01 2020","The main experiment item","yes","SternbergTask-AL.osexp","/Users/annielenoir/Desktop","no","mono","no","18","no","white","no","no","768","legacy","79","11","/Users/annielenoir/Desktop/AL-subject-3.csv","legacy","5 3 2 6 9 8","Lentiform Loewenfeld","3.3.3","0","n","0","right","left","left","right","NA","796","110535","7436","796","NA","2","legacy","6","1024","2","48000","-16","experiment","3","odd","4","782074","778287","779452","1690","210191","779586","305534","1862","202754","780726","784219","785016","112406","784218","NA","Sternberg Task","86","106499","92","yes","1024"
"93.54838709677419","93.54838709677419","1156.1397849462367","1156.1397849462367","black","experiment","legacy","legacy","legacy","0","uniform","1","undefined","1","right","92","92","92","0","0","92","92","0","0","92","92","92","0","92","0","Sun Oct 25 14:38:01 2020","The main experiment item","yes","SternbergTask-AL.osexp","/Users/annielenoir/Desktop","no","mono","no","18","no","white","no","no","768","legacy","80","11","/Users/annielenoir/Desktop/AL-subject-3.csv","legacy","4 2 6 9","Lentiform Loewenfeld","3.3.3","0","n","0","right","left","left","right","NA","1022","110535","7436","1022","NA","2","legacy","4","1024","2","48000","-16","experiment","3","odd","7","788946","785165","786323","1690","210191","786462","305534","1862","202754","787599","791090","792113","112406","791089","NA","Sternberg Task","87","107521","93","yes","1024"
"93.61702127659575","93.61702127659575","1151.9574468085107","1151.9574468085107","black","experiment","legacy","legacy","legacy","0","uniform","1","undefined","1","right","93","93","93","0","0","93","93","0","0","93","93","93","0","93","0","Sun Oct 25 14:38:01 2020","The main experiment item","yes","SternbergTask-AL.osexp","/Users/annielenoir/Desktop","no","mono","no","18","no","white","no","no","768","legacy","81","11","/Users/annielenoir/Desktop/AL-subject-3.csv","legacy","4 2 7 6 1 3","Lentiform Loewenfeld","3.3.3","0","n","0","right","left","left","right","NA","763","110535","7436","763","NA","2","legacy","6","1024","2","48000","-16","experiment","3","odd","8","796057","792261","793435","1690","210191","793572","305534","1862","202754","794708","798201","798965","112406","798200","NA","Sternberg Task","88","108284","94","yes","1024"
"93.6842105263158","93.6842105263158","1149.778947368421","1149.778947368421","black","experiment","legacy","legacy","legacy","0","uniform","1","undefined","1","left","94","94","94","0","0","94","94","0","0","94","94","94","0","94","0","Sun Oct 25 14:38:01 2020","The main experiment item","yes","SternbergTask-AL.osexp","/Users/annielenoir/Desktop","no","mono","no","18","no","white","no","no","768","legacy","82","11","/Users/annielenoir/Desktop/AL-subject-3.csv","legacy","9 3 8 2 1 4","Lentiform Loewenfeld","3.3.3","3","y","0","left","left","left","left","NA","945","110535","7436","945","NA","2","legacy","6","1024","2","48000","-16","experiment","3","odd","8","802916","799115","800293","1690","210191","800431","305534","1862","202754","801569","805059","806005","112406","805059","NA","Sternberg Task","89","109229","95","yes","1024"
"93.75","93.75","1157.0416666666667","1157.0416666666667","black","experiment","legacy","legacy","legacy","0","uniform","1","undefined","1","right","95","95","95","0","0","95","95","0","0","95","95","95","0","95","0","Sun Oct 25 14:38:01 2020","The main experiment item","yes","SternbergTask-AL.osexp","/Users/annielenoir/Desktop","no","mono","no","18","no","white","no","no","768","legacy","83","11","/Users/annielenoir/Desktop/AL-subject-3.csv","legacy","6 9 7 3 8 2","Lentiform Loewenfeld","3.3.3","0","n","0","right","left","left","right","NA","1847","110535","7436","1847","NA","2","legacy","6","1024","2","48000","-16","experiment","3","odd","5","809935","806154","807312","1690","210191","807449","305534","1862","202754","808586","812079","813927","112406","812079","NA","Sternberg Task","90","111076","96","yes","1024"
"93.81443298969072","93.81443298969072","1155.0824742268042","1155.0824742268042","black","experiment","legacy","legacy","legacy","0","uniform","1","undefined","1","left","96","96","96","0","0","96","96","0","0","96","96","96","0","96","0","Sun Oct 25 14:38:01 2020","The main experiment item","yes","SternbergTask-AL.osexp","/Users/annielenoir/Desktop","no","mono","no","18","no","white","no","no","768","legacy","84","11","/Users/annielenoir/Desktop/AL-subject-3.csv","legacy","8 5 1 3 9","Lentiform Loewenfeld","3.3.3","4","y","0","left","left","left","left","NA","967","110535","7436","967","NA","2","legacy","5","1024","2","48000","-16","experiment","3","odd","3","817843","814071","815213","1690","210191","815349","305534","1862","202754","816494","819988","820955","112406","819987","NA","Sternberg Task","91","112043","97","yes","1024"
"92.85714285714286","92.85714285714286","1152.3061224489795","1152.3061224489795","black","experiment","legacy","legacy","legacy","0","uniform","0","undefined","0","left","97","97","97","0","0","97","97","0","0","97","97","97","0","97","0","Sun Oct 25 14:38:01 2020","The main experiment item","yes","SternbergTask-AL.osexp","/Users/annielenoir/Desktop","no","mono","no","18","no","white","no","no","768","legacy","85","11","/Users/annielenoir/Desktop/AL-subject-3.csv","legacy","5 2 9 6 1 7","Lentiform Loewenfeld","3.3.3","3","y","0","right","left","left","right","NA","883","110535","7436","883","NA","2","legacy","6","1024","2","48000","-16","experiment","3","odd","9","824871","821099","822246","1690","210191","822380","305534","1862","202754","823523","827016","827899","112406","827016","NA","Sternberg Task","91","112926","98","yes","1024"
"92.92929292929293","92.92929292929293","1151.9292929292928","1151.9292929292928","black","experiment","legacy","legacy","legacy","0","uniform","1","undefined","1","left","98","98","98","0","0","98","98","0","0","98","98","98","0","98","0","Sun Oct 25 14:38:01 2020","The main experiment item","yes","SternbergTask-AL.osexp","/Users/annielenoir/Desktop","no","mono","no","18","no","white","no","no","768","legacy","86","11","/Users/annielenoir/Desktop/AL-subject-3.csv","legacy","4 3 2 5 8","Lentiform Loewenfeld","3.3.3","2","y","0","left","left","left","left","NA","1115","110535","7436","1115","NA","2","legacy","5","1024","2","48000","-16","experiment","3","odd","3","831819","821099","829199","1690","210191","829337","828049","1862","202754","830475","833962","835078","112406","833961","NA","Sternberg Task","92","114041","99","yes","1024"
"93","93","1148.82","1148.82","black","experiment","legacy","legacy","legacy","0","uniform","1","undefined","1","right","99","99","99","0","0","99","99","0","0","99","99","99","0","99","0","Sun Oct 25 14:38:01 2020","The main experiment item","yes","SternbergTask-AL.osexp","/Users/annielenoir/Desktop","no","mono","no","18","no","white","no","no","768","legacy","87","11","/Users/annielenoir/Desktop/AL-subject-3.csv","legacy","7 8 6 1","Lentiform Loewenfeld","3.3.3","0","n","0","right","left","left","right","NA","841","110535","7436","841","NA","2","legacy","4","1024","2","48000","-16","experiment","3","odd","3","839002","835222","836368","1690","210191","836513","828049","1862","202754","837656","841146","841988","112406","841146","NA","Sternberg Task","93","114882","100","yes","1024"
"93.06930693069307","93.06930693069307","1148.960396039604","1148.960396039604","black","experiment","legacy","legacy","legacy","0","uniform","1","undefined","1","right","100","100","100","0","0","100","100","0","0","100","100","100","0","100","0","Sun Oct 25 14:38:01 2020","The main experiment item","yes","SternbergTask-AL.osexp","/Users/annielenoir/Desktop","no","mono","no","18","no","white","no","no","768","legacy","88","11","/Users/annielenoir/Desktop/AL-subject-3.csv","legacy","6 8","Lentiform Loewenfeld","3.3.3","0","n","0","right","left","left","right","NA","1163","110535","7436","1163","NA","2","legacy","2","1024","2","48000","-16","experiment","3","odd","9","845897","842132","843266","1690","210191","843409","828049","1862","202754","844553","848039","849203","112406","848039","NA","Sternberg Task","94","116045","101","yes","1024"
"93.13725490196079","93.13725490196079","1146.235294117647","1146.235294117647","black","experiment","legacy","legacy","legacy","0","uniform","1","undefined","1","right","101","101","101","0","0","101","101","0","0","101","101","101","0","101","0","Sun Oct 25 14:38:01 2020","The main experiment item","yes","SternbergTask-AL.osexp","/Users/annielenoir/Desktop","no","mono","no","18","no","white","no","no","768","legacy","89","11","/Users/annielenoir/Desktop/AL-subject-3.csv","legacy","1 8 7","Lentiform Loewenfeld","3.3.3","0","n","0","right","left","left","right","NA","871","110535","7436","871","NA","2","legacy","3","1024","2","48000","-16","experiment","3","odd","4","853131","849354","850498","1690","210191","850640","828049","1862","202754","851787","855277","856149","112406","855277","NA","Sternberg Task","95","116916","102","yes","1024"
"93.20388349514563","93.20388349514563","1144.514563106796","1144.514563106796","black","experiment","legacy","legacy","legacy","0","uniform","1","undefined","1","left","102","102","102","0","0","102","102","0","0","102","102","102","0","102","0","Sun Oct 25 14:38:01 2020","The main experiment item","yes","SternbergTask-AL.osexp","/Users/annielenoir/Desktop","no","mono","no","18","no","white","no","no","768","legacy","90","11","/Users/annielenoir/Desktop/AL-subject-3.csv","legacy","8 9 6 1","Lentiform Loewenfeld","3.3.3","2","y","0","left","left","left","left","NA","969","110535","7436","969","NA","2","legacy","4","1024","2","48000","-16","experiment","3","odd","9","860090","856302","857456","1690","210191","857601","828049","1862","202754","858744","862240","863211","112406","862240","NA","Sternberg Task","96","117885","103","yes","1024"
"93.26923076923077","93.26923076923077","1144.2115384615386","1144.2115384615386","black","experiment","legacy","legacy","legacy","0","uniform","1","undefined","1","left","103","103","103","0","0","103","103","0","0","103","103","103","0","103","0","Sun Oct 25 14:38:01 2020","The main experiment item","yes","SternbergTask-AL.osexp","/Users/annielenoir/Desktop","no","mono","no","18","no","white","no","no","768","legacy","91","11","/Users/annielenoir/Desktop/AL-subject-3.csv","legacy","1 4 9 3 2 5","Lentiform Loewenfeld","3.3.3","3","y","0","left","left","left","left","NA","1113","110535","7436","1113","NA","2","legacy","6","1024","2","48000","-16","experiment","3","odd","9","867147","863357","864526","1690","210191","864663","828049","1862","202754","865799","869291","870405","112406","869291","NA","Sternberg Task","97","118998","104","yes","1024"
"93.33333333333333","93.33333333333333","1142.057142857143","1142.057142857143","black","experiment","legacy","legacy","legacy","0","uniform","1","undefined","1","right","104","104","104","0","0","104","104","0","0","104","104","104","0","104","0","Sun Oct 25 14:38:01 2020","The main experiment item","yes","SternbergTask-AL.osexp","/Users/annielenoir/Desktop","no","mono","no","18","no","white","no","no","768","legacy","92","11","/Users/annielenoir/Desktop/AL-subject-3.csv","legacy","6 9 4 5 3 2","Lentiform Loewenfeld","3.3.3","0","n","0","right","left","left","right","NA","918","110535","7436","918","NA","2","legacy","6","1024","2","48000","-16","experiment","3","odd","8","874351","870558","871729","1690","210191","871866","828049","1862","202754","873003","876497","877416","112406","876497","NA","Sternberg Task","98","119916","105","yes","1024"
"93.39622641509433","93.39622641509433","1138.5377358490566","1138.5377358490566","black","experiment","legacy","legacy","legacy","0","uniform","1","undefined","1","left","105","105","105","0","0","105","105","0","0","105","105","105","0","105","0","Sun Oct 25 14:38:01 2020","The main experiment item","yes","SternbergTask-AL.osexp","/Users/annielenoir/Desktop","no","mono","no","18","no","white","no","no","768","legacy","93","11","/Users/annielenoir/Desktop/AL-subject-3.csv","legacy","6 9 7 4 5 1","Lentiform Loewenfeld","3.3.3","2","y","0","left","left","left","left","NA","769","110535","7436","769","NA","2","legacy","6","1024","2","48000","-16","experiment","3","odd","9","881361","877566","878740","1690","210191","878877","828049","1862","202754","880015","883506","884277","112406","883505","NA","Sternberg Task","99","120685","106","yes","1024"
"93.45794392523365","93.45794392523365","1136","1136","black","experiment","legacy","legacy","legacy","0","uniform","1","undefined","1","left","106","106","106","0","0","106","106","0","0","106","106","106","0","106","0","Sun Oct 25 14:38:01 2020","The main experiment item","yes","SternbergTask-AL.osexp","/Users/annielenoir/Desktop","no","mono","no","18","no","white","no","no","768","legacy","94","11","/Users/annielenoir/Desktop/AL-subject-3.csv","legacy","3 5 9 6 2 4","Lentiform Loewenfeld","3.3.3","1","y","0","left","left","left","left","NA","867","110535","7436","867","NA","2","legacy","6","1024","2","48000","-16","experiment","3","odd","3","888245","884427","885604","1690","210191","885741","828049","1862","202754","886897","890389","891257","112406","890389","NA","Sternberg Task","100","121552","107","yes","1024"
"93.51851851851852","93.51851851851852","1133.2314814814815","1133.2314814814815","black","experiment","legacy","legacy","legacy","0","uniform","1","undefined","1","right","107","107","107","0","0","107","107","0","0","107","107","107","0","107","0","Sun Oct 25 14:38:01 2020","The main experiment item","yes","SternbergTask-AL.osexp","/Users/annielenoir/Desktop","no","mono","no","18","no","white","no","no","768","legacy","95","11","/Users/annielenoir/Desktop/AL-subject-3.csv","legacy","1 6 4","Lentiform Loewenfeld","3.3.3","0","n","0","right","left","left","right","NA","837","110535","7436","837","NA","2","legacy","3","1024","2","48000","-16","experiment","3","odd","7","895197","891406","892575","1690","210191","892712","828049","1862","202754","893849","897341","898180","112406","897340","NA","Sternberg Task","101","122389","108","yes","1024"
"93.57798165137615","93.57798165137615","1129.0550458715597","1129.0550458715597","black","experiment","legacy","legacy","legacy","0","uniform","1","undefined","1","right","108","108","108","0","0","108","108","0","0","108","108","108","0","108","0","Sun Oct 25 14:38:01 2020","The main experiment item","yes","SternbergTask-AL.osexp","/Users/annielenoir/Desktop","no","mono","no","18","no","white","no","no","768","legacy","96","11","/Users/annielenoir/Desktop/AL-subject-3.csv","legacy","1 4 3 6 5","Lentiform Loewenfeld","3.3.3","0","n","0","right","left","left","right","NA","678","110535","7436","678","NA","2","legacy","5","1024","2","48000","-16","experiment","3","odd","8","902126","898333","899505","1690","210191","899642","828049","1862","202754","900779","904271","904950","112406","904271","NA","Sternberg Task","102","123067","109","yes","1024"
"93.63636363636364","93.63636363636364","1124.9727272727273","1124.9727272727273","black","experiment","legacy","legacy","legacy","0","uniform","1","undefined","1","right","109","109","109","0","0","109","109","0","0","109","109","109","0","109","0","Sun Oct 25 14:38:01 2020","The main experiment item","yes","SternbergTask-AL.osexp","/Users/annielenoir/Desktop","no","mono","no","18","no","white","no","no","768","legacy","97","11","/Users/annielenoir/Desktop/AL-subject-3.csv","legacy","9 7 4 5 8","Lentiform Loewenfeld","3.3.3","0","n","0","right","left","left","right","NA","680","110535","7436","680","NA","2","legacy","5","1024","2","48000","-16","experiment","3","odd","6","908893","905097","906267","1690","210191","906407","828049","1862","202754","907546","911034","911715","112406","911034","NA","Sternberg Task","103","123747","110","yes","1024"
"93.69369369369369","93.69369369369369","1122.1531531531532","1122.1531531531532","black","experiment","legacy","legacy","legacy","0","uniform","1","undefined","1","left","110","110","110","0","0","110","110","0","0","110","110","110","0","110","0","Sun Oct 25 14:38:01 2020","The main experiment item","yes","SternbergTask-AL.osexp","/Users/annielenoir/Desktop","no","mono","no","18","no","white","no","no","768","legacy","98","11","/Users/annielenoir/Desktop/AL-subject-3.csv","legacy","3 2 1 4 7","Lentiform Loewenfeld","3.3.3","2","y","0","left","left","left","left","NA","812","110535","7436","812","NA","2","legacy","5","1024","2","48000","-16","experiment","3","odd","2","915663","911860","913035","1690","210191","913176","828049","1862","202754","914315","917806","918619","112406","917806","NA","Sternberg Task","104","124559","111","yes","1024"
"93.75","93.75","1121.1339285714287","1121.1339285714287","black","experiment","legacy","legacy","legacy","0","uniform","1","undefined","1","right","111","111","111","0","0","111","111","0","0","111","111","111","0","111","0","Sun Oct 25 14:38:01 2020","The main experiment item","yes","SternbergTask-AL.osexp","/Users/annielenoir/Desktop","no","mono","no","18","no","white","no","no","768","legacy","99","11","/Users/annielenoir/Desktop/AL-subject-3.csv","legacy","3 9 1","Lentiform Loewenfeld","3.3.3","0","n","0","right","left","left","right","NA","1008","110535","7436","1008","NA","2","legacy","3","1024","2","48000","-16","experiment","3","odd","7","922565","918770","919943","1690","210191","920080","828049","1862","202754","921217","924709","925718","112406","924709","NA","Sternberg Task","105","125567","112","yes","1024"
"93.80530973451327","93.80530973451327","1120.504424778761","1120.504424778761","black","experiment","legacy","legacy","legacy","0","uniform","1","undefined","1","left","112","112","112","0","0","112","112","0","0","112","112","112","0","112","0","Sun Oct 25 14:38:01 2020","The main experiment item","yes","SternbergTask-AL.osexp","/Users/annielenoir/Desktop","no","mono","no","18","no","white","no","no","768","legacy","100","11","/Users/annielenoir/Desktop/AL-subject-3.csv","legacy","7 2 3","Lentiform Loewenfeld","3.3.3","3","y","0","left","left","left","left","NA","1050","110535","7436","1050","NA","2","legacy","3","1024","2","48000","-16","experiment","3","odd","3","929671","925874","927052","1690","210191","927188","828049","1862","202754","928323","931815","932867","112406","931815","NA","Sternberg Task","106","126617","113","yes","1024"
"93.85964912280701","93.85964912280701","1118.2456140350878","1118.2456140350878","black","experiment","legacy","legacy","legacy","0","uniform","1","undefined","1","right","113","113","113","0","0","113","113","0","0","113","113","113","0","113","0","Sun Oct 25 14:38:01 2020","The main experiment item","yes","SternbergTask-AL.osexp","/Users/annielenoir/Desktop","no","mono","no","18","no","white","no","no","768","legacy","101","11","/Users/annielenoir/Desktop/AL-subject-3.csv","legacy","6 7 5 9","Lentiform Loewenfeld","3.3.3","0","n","0","right","left","left","right","NA","863","110535","7436","863","NA","2","legacy","4","1024","2","48000","-16","experiment","3","odd","2","936792","933015","934171","1690","210191","934308","828049","1862","202754","935444","938938","939802","112406","938938","NA","Sternberg Task","107","127480","114","yes","1024"
"93.91304347826087","93.91304347826087","1114.591304347826","1114.591304347826","black","experiment","legacy","legacy","legacy","0","uniform","1","undefined","1","left","114","114","114","0","0","114","114","0","0","114","114","114","0","114","0","Sun Oct 25 14:38:01 2020","The main experiment item","yes","SternbergTask-AL.osexp","/Users/annielenoir/Desktop","no","mono","no","18","no","white","no","no","768","legacy","102","11","/Users/annielenoir/Desktop/AL-subject-3.csv","legacy","9 4 2","Lentiform Loewenfeld","3.3.3","1","y","0","left","left","left","left","NA","698","110535","7436","698","NA","2","legacy","3","1024","2","48000","-16","experiment","3","odd","9","943744","939951","941123","1690","210191","941260","828049","1862","202754","942397","945890","946590","112406","945890","NA","Sternberg Task","108","128178","115","yes","1024"
"93.96551724137932","93.96551724137932","1110.6810344827586","1110.6810344827586","black","experiment","legacy","legacy","legacy","0","uniform","1","undefined","1","right","115","115","115","0","0","115","115","0","0","115","115","115","0","115","0","Sun Oct 25 14:38:01 2020","The main experiment item","yes","SternbergTask-AL.osexp","/Users/annielenoir/Desktop","no","mono","no","18","no","white","no","no","768","legacy","103","11","/Users/annielenoir/Desktop/AL-subject-3.csv","legacy","6 8 4","Lentiform Loewenfeld","3.3.3","0","n","0","right","left","left","right","NA","661","110535","7436","661","NA","2","legacy","3","1024","2","48000","-16","experiment","3","odd","1","950555","946744","947929","1690","210191","948068","828049","1862","202754","949208","952697","953359","112406","952697","NA","Sternberg Task","109","128839","116","yes","1024"
"94.01709401709402","94.01709401709402","1109.017094017094","1109.017094017094","black","experiment","legacy","legacy","legacy","0","uniform","1","undefined","1","left","116","116","116","0","0","116","116","0","0","116","116","116","0","116","0","Sun Oct 25 14:38:01 2020","The main experiment item","yes","SternbergTask-AL.osexp","/Users/annielenoir/Desktop","no","mono","no","18","no","white","no","no","768","legacy","104","11","/Users/annielenoir/Desktop/AL-subject-3.csv","legacy","4 1 8 7 5","Lentiform Loewenfeld","3.3.3","3","y","0","left","left","left","left","NA","916","110535","7436","916","NA","2","legacy","5","1024","2","48000","-16","experiment","3","odd","8","957304","953504","954679","1690","210191","954819","828049","1862","202754","955957","959445","960362","112406","959445","NA","Sternberg Task","110","129755","117","yes","1024"
