acc,accuracy,average_response_time,avg_rt,background,block,canvas_backend,clock_backend,color_backend,compensation,coordinates,correct,correct_Instruction_1,correct_Keyboard_Response,correct_response,count_Correct_Feedback,count_Experimental_Loop,count_Fixation,count_ISI,count_Incorrect_Feedback,count_Instruction_1,count_Instructions_2,count_Instructions_3_Thanks,count_Keyboard_Response,count_Logger,count_Memory_Set,count_Practice_Loop,count_Probe,count_expSequence,count_experiment,count_new_sketchpad,datetime,description,disable_garbage_collection,experiment_file,experiment_path,font_bold,font_family,font_italic,font_size,font_underline,foreground,form_clicks,fullscreen,height,keyboard_backend,live_row,live_row_Practice_Loop,logfile,mouse_backend,numberSet,opensesame_codename,opensesame_version,posInSet,present,repeat_cycle,response,response_Incorrect_Feedback,response_Instruction_1,response_Instructions_2,response_Instructions_3_Thanks,response_Keyboard_Response,response_new_sketchpad,response_time,response_time_Incorrect_Feedback,response_time_Instruction_1,response_time_Instructions_2,response_time_Instructions_3_Thanks,response_time_Keyboard_Response,response_time_new_sketchpad,round_decimals,sampler_backend,setSize,sound_buf_size,sound_channels,sound_freq,sound_sample_size,start,subject_nr,subject_parity,target,time_Correct_Feedback,time_Experimental_Loop,time_Fixation,time_ISI,time_Incorrect_Feedback,time_Instruction_1,time_Instructions_2,time_Instructions_3_Thanks,time_Keyboard_Response,time_Logger,time_Memory_Set,time_Practice_Loop,time_Probe,time_expSequence,time_experiment,time_new_sketchpad,title,total_correct,total_response_time,total_responses,uniform_coordinates,width100,100,811,811,black,practice,legacy,legacy,legacy,0,uniform,1,undefined,1,left,0,0,0,0,0,0,0,0,0,0,0,0,0,0,0,NA,Sun Oct 18 19:08:55 2020,The main experiment item,yes,SternbergTask.osexp,C:/Users/JHS6-EAGLE/Desktop/OpenSes Files,no,mono,no,18,no,white,no,no,768,legacy,0,0,C:/Users/JHS6-EAGLE/Desktop/OpenSes Files/JS-subject-1.csv,legacy,2 9 4,Lentiform Loewenfeld,3.3.3,3,y,0,left,NA,right,NA,NA,left,NA,811,NA,26462,NA,NA,811,NA,2,legacy,3,1024,2,48000,-16,experiment,1,odd,4,NA,NA,28012,30214,NA,1324,NA,NA,32215,33026,29013,27787,32215,28008,1320,NA,Sternberg Task,1,811,1,yes,1024100,100,1189,1189,black,practice,legacy,legacy,legacy,0,uniform,1,undefined,1,left,1,0,1,1,1,0,0,0,1,1,1,0,1,1,0,NA,Sun Oct 18 19:08:55 2020,The main experiment item,yes,SternbergTask.osexp,C:/Users/JHS6-EAGLE/Desktop/OpenSes Files,no,mono,no,18,no,white,no,no,768,legacy,1,1,C:/Users/JHS6-EAGLE/Desktop/OpenSes Files/JS-subject-1.csv,legacy,6,Lentiform Loewenfeld,3.3.3,1,y,0,left,NA,right,NA,NA,left,NA,1567,NA,26462,NA,NA,1567,NA,2,legacy,1,1024,2,48000,-16,experiment,1,odd,6,33075,NA,34176,36378,NA,1324,NA,NA,38379,39946,35177,27787,38379,34174,1320,NA,Sternberg Task,2,2378,2,yes,1024100,100,987.3333333,987.3333333,black,practice,legacy,legacy,legacy,0,uniform,1,undefined,1,left,2,0,2,2,2,0,0,0,2,2,2,0,2,2,0,NA,Sun Oct 18 19:08:55 2020,The main experiment item,yes,SternbergTask.osexp,C:/Users/JHS6-EAGLE/Desktop/OpenSes Files,no,mono,no,18,no,white,no,no,768,legacy,2,2,C:/Users/JHS6-EAGLE/Desktop/OpenSes Files/JS-subject-1.csv,legacy,1 5 2 9,Lentiform Loewenfeld,3.3.3,2,y,0,left,NA,right,NA,NA,left,NA,584,NA,26462,NA,NA,584,NA,2,legacy,4,1024,2,48000,-16,experiment,1,odd,5,39951,NA,41048,43254,NA,1324,NA,NA,45255,45839,42053,27787,45255,41046,1320,NA,Sternberg Task,3,2962,3,yes,1024100,100,963,963,black,practice,legacy,legacy,legacy,0,uniform,1,undefined,1,left,3,0,3,3,3,0,0,0,3,3,3,0,3,3,0,NA,Sun Oct 18 19:08:55 2020,The main experiment item,yes,SternbergTask.osexp,C:/Users/JHS6-EAGLE/Desktop/OpenSes Files,no,mono,no,18,no,white,no,no,768,legacy,3,3,C:/Users/JHS6-EAGLE/Desktop/OpenSes Files/JS-subject-1.csv,legacy,4 3 1 7 9 8,Lentiform Loewenfeld,3.3.3,1,y,0,left,NA,right,NA,NA,left,NA,890,NA,26462,NA,NA,890,NA,2,legacy,6,1024,2,48000,-16,experiment,1,odd,4,45853,NA,46929,49132,NA,1324,NA,NA,51133,52024,47931,27787,51133,46927,1320,NA,Sternberg Task,4,3852,4,yes,1024100,100,892.6,892.6,black,practice,legacy,legacy,legacy,0,uniform,1,undefined,1,right,4,0,4,4,4,0,0,0,4,4,4,0,4,4,0,NA,Sun Oct 18 19:08:55 2020,The main experiment item,yes,SternbergTask.osexp,C:/Users/JHS6-EAGLE/Desktop/OpenSes Files,no,mono,no,18,no,white,no,no,768,legacy,4,4,C:/Users/JHS6-EAGLE/Desktop/OpenSes Files/JS-subject-1.csv,legacy,9 6 7 4 5,Lentiform Loewenfeld,3.3.3,0,n,0,right,NA,right,NA,NA,right,NA,611,NA,26462,NA,NA,611,NA,2,legacy,5,1024,2,48000,-16,experiment,1,odd,3,52029,NA,53120,55323,NA,1324,NA,NA,57324,57936,54121,27787,57324,53115,1320,NA,Sternberg Task,5,4463,5,yes,1024100,100,878.1666667,878.1666667,black,practice,legacy,legacy,legacy,0,uniform,1,undefined,1,right,5,0,5,5,5,0,0,0,5,5,5,0,5,5,0,NA,Sun Oct 18 19:08:55 2020,The main experiment item,yes,SternbergTask.osexp,C:/Users/JHS6-EAGLE/Desktop/OpenSes Files,no,mono,no,18,no,white,no,no,768,legacy,5,5,C:/Users/JHS6-EAGLE/Desktop/OpenSes Files/JS-subject-1.csv,legacy,4 1 5,Lentiform Loewenfeld,3.3.3,0,n,0,right,NA,right,NA,NA,right,NA,806,NA,26462,NA,NA,806,NA,2,legacy,3,1024,2,48000,-16,experiment,1,odd,2,57945,NA,59018,61220,NA,1324,NA,NA,63222,64029,60019,27787,63222,59016,1320,NA,Sternberg Task,6,5269,6,yes,1024100,100,818.4285714,818.4285714,black,practice,legacy,legacy,legacy,0,uniform,1,undefined,1,right,6,0,6,6,6,0,0,0,6,6,6,0,6,6,0,NA,Sun Oct 18 19:08:55 2020,The main experiment item,yes,SternbergTask.osexp,C:/Users/JHS6-EAGLE/Desktop/OpenSes Files,no,mono,no,18,no,white,no,no,768,legacy,6,6,C:/Users/JHS6-EAGLE/Desktop/OpenSes Files/JS-subject-1.csv,legacy,5,Lentiform Loewenfeld,3.3.3,0,n,0,right,NA,right,NA,NA,right,NA,460,NA,26462,NA,NA,460,NA,2,legacy,1,1024,2,48000,-16,experiment,1,odd,3,64032,NA,65141,67343,NA,1324,NA,NA,69347,69808,66142,27787,69346,65139,1320,NA,Sternberg Task,7,5729,7,yes,1024100,100,803.625,803.625,black,practice,legacy,legacy,legacy,0,uniform,1,undefined,1,right,7,0,7,7,7,0,0,0,7,7,7,0,7,7,0,NA,Sun Oct 18 19:08:55 2020,The main experiment item,yes,SternbergTask.osexp,C:/Users/JHS6-EAGLE/Desktop/OpenSes Files,no,mono,no,18,no,white,no,no,768,legacy,7,7,C:/Users/JHS6-EAGLE/Desktop/OpenSes Files/JS-subject-1.csv,legacy,3 1 9 4,Lentiform Loewenfeld,3.3.3,0,n,0,right,NA,right,NA,NA,right,NA,700,NA,26462,NA,NA,700,NA,2,legacy,4,1024,2,48000,-16,experiment,1,odd,6,69816,NA,70890,73094,NA,1324,NA,NA,75099,75800,71893,27787,75098,70888,1320,NA,Sternberg Task,8,6429,8,yes,1024100,100,800.4444444,800.4444444,black,practice,legacy,legacy,legacy,0,uniform,1,undefined,1,right,8,0,8,8,8,0,0,0,8,8,8,0,8,8,0,NA,Sun Oct 18 19:08:55 2020,The main experiment item,yes,SternbergTask.osexp,C:/Users/JHS6-EAGLE/Desktop/OpenSes Files,no,mono,no,18,no,white,no,no,768,legacy,8,8,C:/Users/JHS6-EAGLE/Desktop/OpenSes Files/JS-subject-1.csv,legacy,5 7 8 4 1 2,Lentiform Loewenfeld,3.3.3,0,n,0,right,NA,right,NA,NA,right,NA,775,NA,26462,NA,NA,775,NA,2,legacy,6,1024,2,48000,-16,experiment,1,odd,6,75809,NA,76888,79094,NA,1324,NA,NA,81095,81870,77889,27787,81095,76885,1320,NA,Sternberg Task,9,7204,9,yes,1024100,100,784.8,784.8,black,practice,legacy,legacy,legacy,0,uniform,1,undefined,1,left,9,0,9,9,9,0,0,0,9,9,9,0,9,9,0,NA,Sun Oct 18 19:08:55 2020,The main experiment item,yes,SternbergTask.osexp,C:/Users/JHS6-EAGLE/Desktop/OpenSes Files,no,mono,no,18,no,white,no,no,768,legacy,9,9,C:/Users/JHS6-EAGLE/Desktop/OpenSes Files/JS-subject-1.csv,legacy,1 7 9 8 5,Lentiform Loewenfeld,3.3.3,4,y,0,left,NA,right,NA,NA,left,NA,644,NA,26462,NA,NA,644,NA,2,legacy,5,1024,2,48000,-16,experiment,1,odd,8,81875,NA,82976,85187,NA,1324,NA,NA,87188,87832,83978,27787,87188,82972,1320,NA,Sternberg Task,10,7848,10,yes,1024100,100,764,764,black,practice,legacy,legacy,legacy,0,uniform,1,undefined,1,left,10,0,10,10,10,0,0,0,10,10,10,0,10,10,0,NA,Sun Oct 18 19:08:55 2020,The main experiment item,yes,SternbergTask.osexp,C:/Users/JHS6-EAGLE/Desktop/OpenSes Files,no,mono,no,18,no,white,no,no,768,legacy,10,10,C:/Users/JHS6-EAGLE/Desktop/OpenSes Files/JS-subject-1.csv,legacy,4 8,Lentiform Loewenfeld,3.3.3,1,y,0,left,NA,right,NA,NA,left,NA,556,NA,26462,NA,NA,556,NA,2,legacy,2,1024,2,48000,-16,experiment,1,odd,4,87843,NA,88915,91121,NA,1324,NA,NA,93123,93679,89917,27787,93123,88914,1320,NA,Sternberg Task,11,8404,11,yes,1024100,100,746.5,746.5,black,practice,legacy,legacy,legacy,0,uniform,1,undefined,1,right,11,0,11,11,11,0,0,0,11,11,11,0,11,11,0,NA,Sun Oct 18 19:08:55 2020,The main experiment item,yes,SternbergTask.osexp,C:/Users/JHS6-EAGLE/Desktop/OpenSes Files,no,mono,no,18,no,white,no,no,768,legacy,11,11,C:/Users/JHS6-EAGLE/Desktop/OpenSes Files/JS-subject-1.csv,legacy,2 1,Lentiform Loewenfeld,3.3.3,0,n,0,right,NA,right,NA,NA,right,NA,554,NA,26462,NA,NA,554,NA,2,legacy,2,1024,2,48000,-16,experiment,1,odd,5,93686,NA,94772,96974,NA,1324,NA,NA,98975,99530,95773,27787,98975,94770,1320,NA,Sternberg Task,12,8958,12,yes,1024100,100,735.6923077,735.6923077,black,experiment,legacy,legacy,legacy,0,uniform,1,undefined,1,right,12,0,12,12,12,0,0,0,12,12,12,0,12,12,0,NA,Sun Oct 18 19:08:55 2020,The main experiment item,yes,SternbergTask.osexp,C:/Users/JHS6-EAGLE/Desktop/OpenSes Files,no,mono,no,18,no,white,no,no,768,legacy,0,11,C:/Users/JHS6-EAGLE/Desktop/OpenSes Files/JS-subject-1.csv,legacy,6 9 4 5 2,Lentiform Loewenfeld,3.3.3,0,n,0,right,NA,right,left,NA,right,NA,606,NA,26462,459098,NA,606,NA,2,legacy,5,1024,2,48000,-16,experiment,1,odd,1,99535,559672,559765,561967,NA,1324,100573,NA,563971,564577,560766,27787,563971,559761,1320,NA,Sternberg Task,13,9564,13,yes,1024100,100,729.9285714,729.9285714,black,experiment,legacy,legacy,legacy,0,uniform,1,undefined,1,right,13,0,13,13,13,0,0,0,13,13,13,0,13,13,0,NA,Sun Oct 18 19:08:55 2020,The main experiment item,yes,SternbergTask.osexp,C:/Users/JHS6-EAGLE/Desktop/OpenSes Files,no,mono,no,18,no,white,no,no,768,legacy,1,11,C:/Users/JHS6-EAGLE/Desktop/OpenSes Files/JS-subject-1.csv,legacy,6 8 4,Lentiform Loewenfeld,3.3.3,0,n,0,right,NA,right,left,NA,right,NA,655,NA,26462,459098,NA,655,NA,2,legacy,3,1024,2,48000,-16,experiment,1,odd,1,564588,559672,566430,568632,NA,1324,100573,NA,570634,571290,567431,27787,570634,566428,1320,NA,Sternberg Task,14,10219,14,yes,1024100,100,717.2666667,717.2666667,black,experiment,legacy,legacy,legacy,0,uniform,1,undefined,1,right,14,0,14,14,14,0,0,0,14,14,14,0,14,14,0,NA,Sun Oct 18 19:08:55 2020,The main experiment item,yes,SternbergTask.osexp,C:/Users/JHS6-EAGLE/Desktop/OpenSes Files,no,mono,no,18,no,white,no,no,768,legacy,2,11,C:/Users/JHS6-EAGLE/Desktop/OpenSes Files/JS-subject-1.csv,legacy,5 7 3,Lentiform Loewenfeld,3.3.3,0,n,0,right,NA,right,left,NA,right,NA,540,NA,26462,459098,NA,540,NA,2,legacy,3,1024,2,48000,-16,experiment,1,odd,9,571300,559672,572372,574578,NA,1324,100573,NA,576579,577120,573377,27787,576579,572371,1320,NA,Sternberg Task,15,10759,15,yes,1024100,100,707.9375,707.9375,black,experiment,legacy,legacy,legacy,0,uniform,1,undefined,1,right,15,0,15,15,15,0,0,0,15,15,15,0,15,15,0,NA,Sun Oct 18 19:08:55 2020,The main experiment item,yes,SternbergTask.osexp,C:/Users/JHS6-EAGLE/Desktop/OpenSes Files,no,mono,no,18,no,white,no,no,768,legacy,3,11,C:/Users/JHS6-EAGLE/Desktop/OpenSes Files/JS-subject-1.csv,legacy,5 9 2 3,Lentiform Loewenfeld,3.3.3,0,n,0,right,NA,right,left,NA,right,NA,568,NA,26462,459098,NA,568,NA,2,legacy,4,1024,2,48000,-16,experiment,1,odd,8,577127,559672,578199,580402,NA,1324,100573,NA,582404,582972,579201,27787,582404,578198,1320,NA,Sternberg Task,16,11327,16,yes,1024100,100,686.2941176,686.2941176,black,experiment,legacy,legacy,legacy,0,uniform,1,undefined,1,left,16,0,16,16,16,0,0,0,16,16,16,0,16,16,0,NA,Sun Oct 18 19:08:55 2020,The main experiment item,yes,SternbergTask.osexp,C:/Users/JHS6-EAGLE/Desktop/OpenSes Files,no,mono,no,18,no,white,no,no,768,legacy,4,11,C:/Users/JHS6-EAGLE/Desktop/OpenSes Files/JS-subject-1.csv,legacy,7,Lentiform Loewenfeld,3.3.3,1,y,0,left,NA,right,left,NA,left,NA,340,NA,26462,459098,NA,340,NA,2,legacy,1,1024,2,48000,-16,experiment,1,odd,7,582977,559672,584052,586254,NA,1324,100573,NA,588257,588598,585053,27787,588257,584050,1320,NA,Sternberg Task,17,11667,17,yes,1024100,100,676.7777778,676.7777778,black,experiment,legacy,legacy,legacy,0,uniform,1,undefined,1,right,17,0,17,17,17,0,0,0,17,17,17,0,17,17,0,NA,Sun Oct 18 19:08:55 2020,The main experiment item,yes,SternbergTask.osexp,C:/Users/JHS6-EAGLE/Desktop/OpenSes Files,no,mono,no,18,no,white,no,no,768,legacy,5,11,C:/Users/JHS6-EAGLE/Desktop/OpenSes Files/JS-subject-1.csv,legacy,8 4 3 5,Lentiform Loewenfeld,3.3.3,0,n,0,right,NA,right,left,NA,right,NA,515,NA,26462,459098,NA,515,NA,2,legacy,4,1024,2,48000,-16,experiment,1,odd,6,588608,559672,589681,591886,NA,1324,100573,NA,593887,594402,590682,27787,593887,589680,1320,NA,Sternberg Task,18,12182,18,yes,1024100,100,667.1578947,667.1578947,black,experiment,legacy,legacy,legacy,0,uniform,1,undefined,1,left,18,0,18,18,18,0,0,0,18,18,18,0,18,18,0,NA,Sun Oct 18 19:08:55 2020,The main experiment item,yes,SternbergTask.osexp,C:/Users/JHS6-EAGLE/Desktop/OpenSes Files,no,mono,no,18,no,white,no,no,768,legacy,6,11,C:/Users/JHS6-EAGLE/Desktop/OpenSes Files/JS-subject-1.csv,legacy,9 4 2,Lentiform Loewenfeld,3.3.3,1,y,0,left,NA,right,left,NA,left,NA,494,NA,26462,459098,NA,494,NA,2,legacy,3,1024,2,48000,-16,experiment,1,odd,9,594411,559672,595484,597690,NA,1324,100573,NA,599694,600188,596485,27787,599694,595483,1320,NA,Sternberg Task,19,12676,19,yes,1024100,100,659.85,659.85,black,experiment,legacy,legacy,legacy,0,uniform,1,undefined,1,right,19,0,19,19,19,0,0,0,19,19,19,0,19,19,0,NA,Sun Oct 18 19:08:55 2020,The main experiment item,yes,SternbergTask.osexp,C:/Users/JHS6-EAGLE/Desktop/OpenSes Files,no,mono,no,18,no,white,no,no,768,legacy,7,11,C:/Users/JHS6-EAGLE/Desktop/OpenSes Files/JS-subject-1.csv,legacy,8 5 7 3 6,Lentiform Loewenfeld,3.3.3,0,n,0,right,NA,right,left,NA,right,NA,521,NA,26462,459098,NA,521,NA,2,legacy,5,1024,2,48000,-16,experiment,1,odd,9,600194,559672,601272,603475,NA,1324,100573,NA,605475,605996,602273,27787,605475,601271,1320,NA,Sternberg Task,20,13197,20,yes,1024100,100,652.047619,652.047619,black,experiment,legacy,legacy,legacy,0,uniform,1,undefined,1,right,20,0,20,20,20,0,0,0,20,20,20,0,20,20,0,NA,Sun Oct 18 19:08:55 2020,The main experiment item,yes,SternbergTask.osexp,C:/Users/JHS6-EAGLE/Desktop/OpenSes Files,no,mono,no,18,no,white,no,no,768,legacy,8,11,C:/Users/JHS6-EAGLE/Desktop/OpenSes Files/JS-subject-1.csv,legacy,7 1 5 6 3,Lentiform Loewenfeld,3.3.3,0,n,0,right,NA,right,left,NA,right,NA,496,NA,26462,459098,NA,496,NA,2,legacy,5,1024,2,48000,-16,experiment,1,odd,8,606002,559672,607074,609280,NA,1324,100573,NA,611281,611778,608079,27787,611281,607073,1320,NA,Sternberg Task,21,13693,21,yes,1024100,100,636.5454545,636.5454545,black,experiment,legacy,legacy,legacy,0,uniform,1,undefined,1,left,21,0,21,21,21,0,0,0,21,21,21,0,21,21,0,NA,Sun Oct 18 19:08:55 2020,The main experiment item,yes,SternbergTask.osexp,C:/Users/JHS6-EAGLE/Desktop/OpenSes Files,no,mono,no,18,no,white,no,no,768,legacy,9,11,C:/Users/JHS6-EAGLE/Desktop/OpenSes Files/JS-subject-1.csv,legacy,3 4,Lentiform Loewenfeld,3.3.3,1,y,0,left,NA,right,left,NA,left,NA,311,NA,26462,459098,NA,311,NA,2,legacy,2,1024,2,48000,-16,experiment,1,odd,3,611782,559672,612855,615057,NA,1324,100573,NA,617058,617370,613856,27787,617058,612854,1320,NA,Sternberg Task,22,14004,22,yes,1024100,100,626.0869565,626.0869565,black,experiment,legacy,legacy,legacy,0,uniform,1,undefined,1,right,22,0,22,22,22,0,0,0,22,22,22,0,22,22,0,NA,Sun Oct 18 19:08:55 2020,The main experiment item,yes,SternbergTask.osexp,C:/Users/JHS6-EAGLE/Desktop/OpenSes Files,no,mono,no,18,no,white,no,no,768,legacy,10,11,C:/Users/JHS6-EAGLE/Desktop/OpenSes Files/JS-subject-1.csv,legacy,5 2,Lentiform Loewenfeld,3.3.3,0,n,0,right,NA,right,left,NA,right,NA,396,NA,26462,459098,NA,396,NA,2,legacy,2,1024,2,48000,-16,experiment,1,odd,7,617374,559672,618447,620652,NA,1324,100573,NA,622657,623054,619451,27787,622657,618446,1320,NA,Sternberg Task,23,14400,23,yes,102495.83333333,95.83333333,620.625,620.625,black,experiment,legacy,legacy,legacy,0,uniform,0,undefined,0,left,23,0,23,23,23,0,0,0,23,23,23,0,23,23,0,NA,Sun Oct 18 19:08:55 2020,The main experiment item,yes,SternbergTask.osexp,C:/Users/JHS6-EAGLE/Desktop/OpenSes Files,no,mono,no,18,no,white,no,no,768,legacy,11,11,C:/Users/JHS6-EAGLE/Desktop/OpenSes Files/JS-subject-1.csv,legacy,7 1 8 5 6 2,Lentiform Loewenfeld,3.3.3,2,y,0,right,NA,right,left,NA,right,NA,495,NA,26462,459098,NA,495,NA,2,legacy,6,1024,2,48000,-16,experiment,1,odd,1,623061,559672,624136,626341,NA,1324,100573,NA,628342,628837,625140,27787,628342,624135,1320,NA,Sternberg Task,23,14895,24,yes,102496,96,623.36,623.36,black,experiment,legacy,legacy,legacy,0,uniform,1,undefined,1,right,24,0,24,24,24,0,0,0,24,24,24,0,24,24,0,NA,Sun Oct 18 19:08:55 2020,The main experiment item,yes,SternbergTask.osexp,C:/Users/JHS6-EAGLE/Desktop/OpenSes Files,no,mono,no,18,no,white,no,no,768,legacy,12,11,C:/Users/JHS6-EAGLE/Desktop/OpenSes Files/JS-subject-1.csv,legacy,9 5 3 2 8 6,Lentiform Loewenfeld,3.3.3,0,n,0,right,right,right,left,NA,right,NA,689,2917,26462,459098,NA,689,NA,2,legacy,6,1024,2,48000,-16,experiment,1,odd,7,623061,559672,631860,634064,628843,1324,100573,NA,636065,636755,632861,27787,636065,631858,1320,NA,Sternberg Task,24,15584,25,yes,102496.15384615,96.15384615,619.3461538,619.3461538,black,experiment,legacy,legacy,legacy,0,uniform,1,undefined,1,right,25,0,25,25,25,0,0,0,25,25,25,0,25,25,0,NA,Sun Oct 18 19:08:55 2020,The main experiment item,yes,SternbergTask.osexp,C:/Users/JHS6-EAGLE/Desktop/OpenSes Files,no,mono,no,18,no,white,no,no,768,legacy,13,11,C:/Users/JHS6-EAGLE/Desktop/OpenSes Files/JS-subject-1.csv,legacy,1,Lentiform Loewenfeld,3.3.3,0,n,0,right,right,right,left,NA,right,NA,519,2917,26462,459098,NA,519,NA,2,legacy,1,1024,2,48000,-16,experiment,1,odd,7,636762,559672,637835,640037,628843,1324,100573,NA,642038,642558,638836,27787,642038,637833,1320,NA,Sternberg Task,25,16103,26,yes,102496.2962963,96.2962963,621.6666667,621.6666667,black,experiment,legacy,legacy,legacy,0,uniform,1,undefined,1,right,26,0,26,26,26,0,0,0,26,26,26,0,26,26,0,NA,Sun Oct 18 19:08:55 2020,The main experiment item,yes,SternbergTask.osexp,C:/Users/JHS6-EAGLE/Desktop/OpenSes Files,no,mono,no,18,no,white,no,no,768,legacy,14,11,C:/Users/JHS6-EAGLE/Desktop/OpenSes Files/JS-subject-1.csv,legacy,8 5 4 2 9 6,Lentiform Loewenfeld,3.3.3,0,n,0,right,right,right,left,NA,right,NA,682,2917,26462,459098,NA,682,NA,2,legacy,6,1024,2,48000,-16,experiment,1,odd,3,642563,559672,643637,645839,628843,1324,100573,NA,647840,648523,644638,27787,647840,643634,1320,NA,Sternberg Task,26,16785,27,yes,102496.42857143,96.42857143,624.3214286,624.3214286,black,experiment,legacy,legacy,legacy,0,uniform,1,undefined,1,right,27,0,27,27,27,0,0,0,27,27,27,0,27,27,0,NA,Sun Oct 18 19:08:55 2020,The main experiment item,yes,SternbergTask.osexp,C:/Users/JHS6-EAGLE/Desktop/OpenSes Files,no,mono,no,18,no,white,no,no,768,legacy,15,11,C:/Users/JHS6-EAGLE/Desktop/OpenSes Files/JS-subject-1.csv,legacy,8 2 1 4 5 9,Lentiform Loewenfeld,3.3.3,0,n,0,right,right,right,left,NA,right,NA,696,2917,26462,459098,NA,696,NA,2,legacy,6,1024,2,48000,-16,experiment,1,odd,7,648537,559672,649612,651814,628843,1324,100573,NA,653815,654511,650613,27787,653815,649611,1320,NA,Sternberg Task,27,17481,28,yes,102493.10344828,93.10344828,620.4482759,620.4482759,black,experiment,legacy,legacy,legacy,0,uniform,0,undefined,0,left,28,0,28,28,28,0,0,0,28,28,28,0,28,28,0,NA,Sun Oct 18 19:08:55 2020,The main experiment item,yes,SternbergTask.osexp,C:/Users/JHS6-EAGLE/Desktop/OpenSes Files,no,mono,no,18,no,white,no,no,768,legacy,16,11,C:/Users/JHS6-EAGLE/Desktop/OpenSes Files/JS-subject-1.csv,legacy,6 1 2,Lentiform Loewenfeld,3.3.3,3,y,0,right,right,right,left,NA,right,NA,512,2917,26462,459098,NA,512,NA,2,legacy,3,1024,2,48000,-16,experiment,1,odd,2,654524,559672,655598,657800,628843,1324,100573,NA,659801,660314,656599,27787,659801,655597,1320,NA,Sternberg Task,27,17993,29,yes,102493.33333333,93.33333333,623.6333333,623.6333333,black,experiment,legacy,legacy,legacy,0,uniform,1,undefined,1,left,29,0,29,29,29,0,0,0,29,29,29,0,29,29,0,NA,Sun Oct 18 19:08:55 2020,The main experiment item,yes,SternbergTask.osexp,C:/Users/JHS6-EAGLE/Desktop/OpenSes Files,no,mono,no,18,no,white,no,no,768,legacy,17,11,C:/Users/JHS6-EAGLE/Desktop/OpenSes Files/JS-subject-1.csv,legacy,8 1 6,Lentiform Loewenfeld,3.3.3,3,y,0,left,right,right,left,NA,left,NA,716,3250,26462,459098,NA,716,NA,2,legacy,3,1024,2,48000,-16,experiment,1,odd,6,654524,559672,663677,665879,660321,1324,100573,NA,667884,668601,664678,27787,667883,663676,1320,NA,Sternberg Task,28,18709,30,yes,102493.5483871,93.5483871,622.3225806,622.3225806,black,experiment,legacy,legacy,legacy,0,uniform,1,undefined,1,right,30,0,30,30,30,0,0,0,30,30,30,0,30,30,0,NA,Sun Oct 18 19:08:55 2020,The main experiment item,yes,SternbergTask.osexp,C:/Users/JHS6-EAGLE/Desktop/OpenSes Files,no,mono,no,18,no,white,no,no,768,legacy,18,11,C:/Users/JHS6-EAGLE/Desktop/OpenSes Files/JS-subject-1.csv,legacy,2 5 1 4,Lentiform Loewenfeld,3.3.3,0,n,0,right,right,right,left,NA,right,NA,583,3250,26462,459098,NA,583,NA,2,legacy,4,1024,2,48000,-16,experiment,1,odd,6,668607,559672,669687,671889,660321,1324,100573,NA,673890,674474,670688,27787,673890,669686,1320,NA,Sternberg Task,29,19292,31,yes,102493.75,93.75,623.875,623.875,black,experiment,legacy,legacy,legacy,0,uniform,1,undefined,1,right,31,0,31,31,31,0,0,0,31,31,31,0,31,31,0,NA,Sun Oct 18 19:08:55 2020,The main experiment item,yes,SternbergTask.osexp,C:/Users/JHS6-EAGLE/Desktop/OpenSes Files,no,mono,no,18,no,white,no,no,768,legacy,19,11,C:/Users/JHS6-EAGLE/Desktop/OpenSes Files/JS-subject-1.csv,legacy,6 9 4 5 3 2,Lentiform Loewenfeld,3.3.3,0,n,0,right,right,right,left,NA,right,NA,672,3250,26462,459098,NA,672,NA,2,legacy,6,1024,2,48000,-16,experiment,1,odd,8,674479,559672,675553,677755,660321,1324,100573,NA,679756,680429,676554,27787,679756,675552,1320,NA,Sternberg Task,30,19964,32,yes,102493.93939394,93.93939394,621.6666667,621.6666667,black,experiment,legacy,legacy,legacy,0,uniform,1,undefined,1,right,32,0,32,32,32,0,0,0,32,32,32,0,32,32,0,NA,Sun Oct 18 19:08:55 2020,The main experiment item,yes,SternbergTask.osexp,C:/Users/JHS6-EAGLE/Desktop/OpenSes Files,no,mono,no,18,no,white,no,no,768,legacy,20,11,C:/Users/JHS6-EAGLE/Desktop/OpenSes Files/JS-subject-1.csv,legacy,1 8 7,Lentiform Loewenfeld,3.3.3,0,n,0,right,right,right,left,NA,right,NA,551,3250,26462,459098,NA,551,NA,2,legacy,3,1024,2,48000,-16,experiment,1,odd,4,680436,559672,681514,683718,660321,1324,100573,NA,685719,686271,682515,27787,685719,681513,1320,NA,Sternberg Task,31,20515,33,yes,102494.11764706,94.11764706,620.2058824,620.2058824,black,experiment,legacy,legacy,legacy,0,uniform,1,undefined,1,right,33,0,33,33,33,0,0,0,33,33,33,0,33,33,0,NA,Sun Oct 18 19:08:55 2020,The main experiment item,yes,SternbergTask.osexp,C:/Users/JHS6-EAGLE/Desktop/OpenSes Files,no,mono,no,18,no,white,no,no,768,legacy,21,11,C:/Users/JHS6-EAGLE/Desktop/OpenSes Files/JS-subject-1.csv,legacy,6 8,Lentiform Loewenfeld,3.3.3,0,n,0,right,right,right,left,NA,right,NA,572,3250,26462,459098,NA,572,NA,2,legacy,2,1024,2,48000,-16,experiment,1,odd,9,686284,559672,687358,689560,660321,1324,100573,NA,691561,692133,688359,27787,691561,687356,1320,NA,Sternberg Task,32,21087,34,yes,102494.28571429,94.28571429,624.6,624.6,black,experiment,legacy,legacy,legacy,0,uniform,1,undefined,1,left,34,0,34,34,34,0,0,0,34,34,34,0,34,34,0,NA,Sun Oct 18 19:08:55 2020,The main experiment item,yes,SternbergTask.osexp,C:/Users/JHS6-EAGLE/Desktop/OpenSes Files,no,mono,no,18,no,white,no,no,768,legacy,22,11,C:/Users/JHS6-EAGLE/Desktop/OpenSes Files/JS-subject-1.csv,legacy,7 2 3,Lentiform Loewenfeld,3.3.3,3,y,0,left,right,right,left,NA,left,NA,774,3250,26462,459098,NA,774,NA,2,legacy,3,1024,2,48000,-16,experiment,1,odd,3,692137,559672,693214,695416,660321,1324,100573,NA,697417,698191,694215,27787,697417,693212,1320,NA,Sternberg Task,33,21861,35,yes,102494.44444444,94.44444444,620.9444444,620.9444444,black,experiment,legacy,legacy,legacy,0,uniform,1,undefined,1,right,35,0,35,35,35,0,0,0,35,35,35,0,35,35,0,NA,Sun Oct 18 19:08:55 2020,The main experiment item,yes,SternbergTask.osexp,C:/Users/JHS6-EAGLE/Desktop/OpenSes Files,no,mono,no,18,no,white,no,no,768,legacy,23,11,C:/Users/JHS6-EAGLE/Desktop/OpenSes Files/JS-subject-1.csv,legacy,2 7 5,Lentiform Loewenfeld,3.3.3,0,n,0,right,right,right,left,NA,right,NA,493,3250,26462,459098,NA,493,NA,2,legacy,3,1024,2,48000,-16,experiment,1,odd,8,698195,559672,699271,701473,660321,1324,100573,NA,703473,703967,700272,27787,703473,699269,1320,NA,Sternberg Task,34,22354,36,yes,102494.59459459,94.59459459,617.5135135,617.5135135,black,experiment,legacy,legacy,legacy,0,uniform,1,undefined,1,left,36,0,36,36,36,0,0,0,36,36,36,0,36,36,0,NA,Sun Oct 18 19:08:55 2020,The main experiment item,yes,SternbergTask.osexp,C:/Users/JHS6-EAGLE/Desktop/OpenSes Files,no,mono,no,18,no,white,no,no,768,legacy,24,11,C:/Users/JHS6-EAGLE/Desktop/OpenSes Files/JS-subject-1.csv,legacy,3 9 7 6 4,Lentiform Loewenfeld,3.3.3,3,y,0,left,right,right,left,NA,left,NA,494,3250,26462,459098,NA,494,NA,2,legacy,5,1024,2,48000,-16,experiment,1,odd,7,703972,559672,705046,707247,660321,1324,100573,NA,709248,709743,706047,27787,709248,705045,1320,NA,Sternberg Task,35,22848,37,yes,102494.73684211,94.73684211,623.5526316,623.5526316,black,experiment,legacy,legacy,legacy,0,uniform,1,undefined,1,left,37,0,37,37,37,0,0,0,37,37,37,0,37,37,0,NA,Sun Oct 18 19:08:55 2020,The main experiment item,yes,SternbergTask.osexp,C:/Users/JHS6-EAGLE/Desktop/OpenSes Files,no,mono,no,18,no,white,no,no,768,legacy,25,11,C:/Users/JHS6-EAGLE/Desktop/OpenSes Files/JS-subject-1.csv,legacy,8 5 4 7 3 1,Lentiform Loewenfeld,3.3.3,2,y,0,left,right,right,left,NA,left,NA,847,3250,26462,459098,NA,847,NA,2,legacy,6,1024,2,48000,-16,experiment,1,odd,5,709747,559672,710824,713029,660321,1324,100573,NA,715030,715878,711825,27787,715030,710822,1320,NA,Sternberg Task,36,23695,38,yes,102494.87179487,94.87179487,629.025641,629.025641,black,experiment,legacy,legacy,legacy,0,uniform,1,undefined,1,right,38,0,38,38,38,0,0,0,38,38,38,0,38,38,0,NA,Sun Oct 18 19:08:55 2020,The main experiment item,yes,SternbergTask.osexp,C:/Users/JHS6-EAGLE/Desktop/OpenSes Files,no,mono,no,18,no,white,no,no,768,legacy,26,11,C:/Users/JHS6-EAGLE/Desktop/OpenSes Files/JS-subject-1.csv,legacy,6 9 7 3 8 2,Lentiform Loewenfeld,3.3.3,0,n,0,right,right,right,left,NA,right,NA,837,3250,26462,459098,NA,837,NA,2,legacy,6,1024,2,48000,-16,experiment,1,odd,5,715883,559672,716981,719183,660321,1324,100573,NA,721184,722021,717982,27787,721184,716979,1320,NA,Sternberg Task,37,24532,39,yes,102495,95,628.875,628.875,black,experiment,legacy,legacy,legacy,0,uniform,1,undefined,1,left,39,0,39,39,39,0,0,0,39,39,39,0,39,39,0,NA,Sun Oct 18 19:08:55 2020,The main experiment item,yes,SternbergTask.osexp,C:/Users/JHS6-EAGLE/Desktop/OpenSes Files,no,mono,no,18,no,white,no,no,768,legacy,27,11,C:/Users/JHS6-EAGLE/Desktop/OpenSes Files/JS-subject-1.csv,legacy,5 7 3 6 2,Lentiform Loewenfeld,3.3.3,5,y,0,left,right,right,left,NA,left,NA,623,3250,26462,459098,NA,623,NA,2,legacy,5,1024,2,48000,-16,experiment,1,odd,2,722027,559672,723103,725305,660321,1324,100573,NA,727306,727930,724104,27787,727306,723101,1320,NA,Sternberg Task,38,25155,40,yes,102495.12195122,95.12195122,631.2926829,631.2926829,black,experiment,legacy,legacy,legacy,0,uniform,1,undefined,1,right,40,0,40,40,40,0,0,0,40,40,40,0,40,40,0,NA,Sun Oct 18 19:08:55 2020,The main experiment item,yes,SternbergTask.osexp,C:/Users/JHS6-EAGLE/Desktop/OpenSes Files,no,mono,no,18,no,white,no,no,768,legacy,28,11,C:/Users/JHS6-EAGLE/Desktop/OpenSes Files/JS-subject-1.csv,legacy,1 6 4 3 9 7,Lentiform Loewenfeld,3.3.3,0,n,0,right,right,right,left,NA,right,NA,728,3250,26462,459098,NA,728,NA,2,legacy,6,1024,2,48000,-16,experiment,1,odd,8,727940,559672,729038,731245,660321,1324,100573,NA,733246,733974,730043,27787,733246,729036,1320,NA,Sternberg Task,39,25883,41,yes,102495.23809524,95.23809524,631.3809524,631.3809524,black,experiment,legacy,legacy,legacy,0,uniform,1,undefined,1,right,41,0,41,41,41,0,0,0,41,41,41,0,41,41,0,NA,Sun Oct 18 19:08:55 2020,The main experiment item,yes,SternbergTask.osexp,C:/Users/JHS6-EAGLE/Desktop/OpenSes Files,no,mono,no,18,no,white,no,no,768,legacy,29,11,C:/Users/JHS6-EAGLE/Desktop/OpenSes Files/JS-subject-1.csv,legacy,8 9,Lentiform Loewenfeld,3.3.3,0,n,0,right,right,right,left,NA,right,NA,635,3250,26462,459098,NA,635,NA,2,legacy,2,1024,2,48000,-16,experiment,1,odd,5,733979,559672,735055,737260,660321,1324,100573,NA,739261,739896,736056,27787,739261,735054,1320,NA,Sternberg Task,40,26518,42,yes,102495.34883721,95.34883721,631.9302326,631.9302326,black,experiment,legacy,legacy,legacy,0,uniform,1,undefined,1,left,42,0,42,42,42,0,0,0,42,42,42,0,42,42,0,NA,Sun Oct 18 19:08:55 2020,The main experiment item,yes,SternbergTask.osexp,C:/Users/JHS6-EAGLE/Desktop/OpenSes Files,no,mono,no,18,no,white,no,no,768,legacy,30,11,C:/Users/JHS6-EAGLE/Desktop/OpenSes Files/JS-subject-1.csv,legacy,2 6 1 7 4,Lentiform Loewenfeld,3.3.3,2,y,0,left,right,right,left,NA,left,NA,655,3250,26462,459098,NA,655,NA,2,legacy,5,1024,2,48000,-16,experiment,1,odd,6,739902,559672,740976,743178,660321,1324,100573,NA,745179,745835,741977,27787,745179,740975,1320,NA,Sternberg Task,41,27173,43,yes,102495.45454545,95.45454545,632.0227273,632.0227273,black,experiment,legacy,legacy,legacy,0,uniform,1,undefined,1,left,43,0,43,43,43,0,0,0,43,43,43,0,43,43,0,NA,Sun Oct 18 19:08:55 2020,The main experiment item,yes,SternbergTask.osexp,C:/Users/JHS6-EAGLE/Desktop/OpenSes Files,no,mono,no,18,no,white,no,no,768,legacy,31,11,C:/Users/JHS6-EAGLE/Desktop/OpenSes Files/JS-subject-1.csv,legacy,6 7 9 3 1 2,Lentiform Loewenfeld,3.3.3,1,y,0,left,right,right,left,NA,left,NA,636,3250,26462,459098,NA,636,NA,2,legacy,6,1024,2,48000,-16,experiment,1,odd,6,745838,559672,746927,749129,660321,1324,100573,NA,751130,751766,747928,27787,751130,746925,1320,NA,Sternberg Task,42,27809,44,yes,102495.55555556,95.55555556,635.7777778,635.7777778,black,experiment,legacy,legacy,legacy,0,uniform,1,undefined,1,right,44,0,44,44,44,0,0,0,44,44,44,0,44,44,0,NA,Sun Oct 18 19:08:55 2020,The main experiment item,yes,SternbergTask.osexp,C:/Users/JHS6-EAGLE/Desktop/OpenSes Files,no,mono,no,18,no,white,no,no,768,legacy,32,11,C:/Users/JHS6-EAGLE/Desktop/OpenSes Files/JS-subject-1.csv,legacy,4 2 7 6 1 3,Lentiform Loewenfeld,3.3.3,0,n,0,right,right,right,left,NA,right,NA,801,3250,26462,459098,NA,801,NA,2,legacy,6,1024,2,48000,-16,experiment,1,odd,8,751771,559672,752844,755045,660321,1324,100573,NA,757046,757847,753844,27787,757046,752842,1320,NA,Sternberg Task,43,28610,45,yes,102495.65217391,95.65217391,640.3478261,640.3478261,black,experiment,legacy,legacy,legacy,0,uniform,1,undefined,1,right,45,0,45,45,45,0,0,0,45,45,45,0,45,45,0,NA,Sun Oct 18 19:08:55 2020,The main experiment item,yes,SternbergTask.osexp,C:/Users/JHS6-EAGLE/Desktop/OpenSes Files,no,mono,no,18,no,white,no,no,768,legacy,33,11,C:/Users/JHS6-EAGLE/Desktop/OpenSes Files/JS-subject-1.csv,legacy,4 8 1 2,Lentiform Loewenfeld,3.3.3,0,n,0,right,right,right,left,NA,right,NA,846,3250,26462,459098,NA,846,NA,2,legacy,4,1024,2,48000,-16,experiment,1,odd,7,757859,559672,758954,761164,660321,1324,100573,NA,763165,764012,759959,27787,763165,758950,1320,NA,Sternberg Task,44,29456,46,yes,102495.74468085,95.74468085,638.3829787,638.3829787,black,experiment,legacy,legacy,legacy,0,uniform,1,undefined,1,left,46,0,46,46,46,0,0,0,46,46,46,0,46,46,0,NA,Sun Oct 18 19:08:55 2020,The main experiment item,yes,SternbergTask.osexp,C:/Users/JHS6-EAGLE/Desktop/OpenSes Files,no,mono,no,18,no,white,no,no,768,legacy,34,11,C:/Users/JHS6-EAGLE/Desktop/OpenSes Files/JS-subject-1.csv,legacy,9 5 8 1,Lentiform Loewenfeld,3.3.3,2,y,0,left,right,right,left,NA,left,NA,548,3250,26462,459098,NA,548,NA,2,legacy,4,1024,2,48000,-16,experiment,1,odd,5,764025,559672,765140,767345,660321,1324,100573,NA,769346,769895,766142,27787,769346,765136,1320,NA,Sternberg Task,45,30004,47,yes,102495.83333333,95.83333333,643.1041667,643.1041667,black,experiment,legacy,legacy,legacy,0,uniform,1,undefined,1,right,47,0,47,47,47,0,0,0,47,47,47,0,47,47,0,NA,Sun Oct 18 19:08:55 2020,The main experiment item,yes,SternbergTask.osexp,C:/Users/JHS6-EAGLE/Desktop/OpenSes Files,no,mono,no,18,no,white,no,no,768,legacy,35,11,C:/Users/JHS6-EAGLE/Desktop/OpenSes Files/JS-subject-1.csv,legacy,6 2 9 3 8 4,Lentiform Loewenfeld,3.3.3,0,n,0,right,right,right,left,NA,right,NA,865,3250,26462,459098,NA,865,NA,2,legacy,6,1024,2,48000,-16,experiment,1,odd,1,769903,559672,770979,773185,660321,1324,100573,NA,775190,776055,771983,27787,775190,770978,1320,NA,Sternberg Task,46,30869,48,yes,102495.91836735,95.91836735,646.6326531,646.6326531,black,experiment,legacy,legacy,legacy,0,uniform,1,undefined,1,right,48,0,48,48,48,0,0,0,48,48,48,0,48,48,0,NA,Sun Oct 18 19:08:55 2020,The main experiment item,yes,SternbergTask.osexp,C:/Users/JHS6-EAGLE/Desktop/OpenSes Files,no,mono,no,18,no,white,no,no,768,legacy,36,11,C:/Users/JHS6-EAGLE/Desktop/OpenSes Files/JS-subject-1.csv,legacy,1 7 5 2,Lentiform Loewenfeld,3.3.3,0,n,0,right,right,right,left,NA,right,NA,816,3250,26462,459098,NA,816,NA,2,legacy,4,1024,2,48000,-16,experiment,1,odd,3,776060,559672,777137,779340,660321,1324,100573,NA,781342,782158,778139,27787,781342,777136,1320,NA,Sternberg Task,47,31685,49,yes,102496,96,646.04,646.04,black,experiment,legacy,legacy,legacy,0,uniform,1,undefined,1,right,49,0,49,49,49,0,0,0,49,49,49,0,49,49,0,NA,Sun Oct 18 19:08:55 2020,The main experiment item,yes,SternbergTask.osexp,C:/Users/JHS6-EAGLE/Desktop/OpenSes Files,no,mono,no,18,no,white,no,no,768,legacy,37,11,C:/Users/JHS6-EAGLE/Desktop/OpenSes Files/JS-subject-1.csv,legacy,7 3 2 8,Lentiform Loewenfeld,3.3.3,0,n,0,right,right,right,left,NA,right,NA,617,3250,26462,459098,NA,617,NA,2,legacy,4,1024,2,48000,-16,experiment,1,odd,4,782167,559672,783242,785444,660321,1324,100573,NA,787449,788067,784243,27787,787448,783241,1320,NA,Sternberg Task,48,32302,50,yes,102496.07843137,96.07843137,647.4117647,647.4117647,black,experiment,legacy,legacy,legacy,0,uniform,1,undefined,1,right,50,0,50,50,50,0,0,0,50,50,50,0,50,50,0,NA,Sun Oct 18 19:08:55 2020,The main experiment item,yes,SternbergTask.osexp,C:/Users/JHS6-EAGLE/Desktop/OpenSes Files,no,mono,no,18,no,white,no,no,768,legacy,38,11,C:/Users/JHS6-EAGLE/Desktop/OpenSes Files/JS-subject-1.csv,legacy,1 7 5 2 9,Lentiform Loewenfeld,3.3.3,0,n,0,right,right,right,left,NA,right,NA,716,3250,26462,459098,NA,716,NA,2,legacy,5,1024,2,48000,-16,experiment,1,odd,3,788071,559672,789144,791346,660321,1324,100573,NA,793349,794065,790145,27787,793349,789143,1320,NA,Sternberg Task,49,33018,51,yes,102496.15384615,96.15384615,649.9423077,649.9423077,black,experiment,legacy,legacy,legacy,0,uniform,1,undefined,1,left,51,0,51,51,51,0,0,0,51,51,51,0,51,51,0,NA,Sun Oct 18 19:08:55 2020,The main experiment item,yes,SternbergTask.osexp,C:/Users/JHS6-EAGLE/Desktop/OpenSes Files,no,mono,no,18,no,white,no,no,768,legacy,39,11,C:/Users/JHS6-EAGLE/Desktop/OpenSes Files/JS-subject-1.csv,legacy,9 1 7 2,Lentiform Loewenfeld,3.3.3,2,y,0,left,right,right,left,NA,left,NA,779,3250,26462,459098,NA,779,NA,2,legacy,4,1024,2,48000,-16,experiment,1,odd,1,794070,559672,795147,797349,660321,1324,100573,NA,799350,800130,796148,27787,799350,795145,1320,NA,Sternberg Task,50,33797,52,yes,102496.22641509,96.22641509,653.1886792,653.1886792,black,experiment,legacy,legacy,legacy,0,uniform,1,undefined,1,left,52,0,52,52,52,0,0,0,52,52,52,0,52,52,0,NA,Sun Oct 18 19:08:55 2020,The main experiment item,yes,SternbergTask.osexp,C:/Users/JHS6-EAGLE/Desktop/OpenSes Files,no,mono,no,18,no,white,no,no,768,legacy,40,11,C:/Users/JHS6-EAGLE/Desktop/OpenSes Files/JS-subject-1.csv,legacy,2 8 5 1,Lentiform Loewenfeld,3.3.3,4,y,0,left,right,right,left,NA,left,NA,822,3250,26462,459098,NA,822,NA,2,legacy,4,1024,2,48000,-16,experiment,1,odd,1,800133,559672,801209,803411,660321,1324,100573,NA,805412,806234,802210,27787,805412,801207,1320,NA,Sternberg Task,51,34619,53,yes,102496.2962963,96.2962963,648.6111111,648.6111111,black,experiment,legacy,legacy,legacy,0,uniform,1,undefined,1,right,53,0,53,53,53,0,0,0,53,53,53,0,53,53,0,NA,Sun Oct 18 19:08:55 2020,The main experiment item,yes,SternbergTask.osexp,C:/Users/JHS6-EAGLE/Desktop/OpenSes Files,no,mono,no,18,no,white,no,no,768,legacy,41,11,C:/Users/JHS6-EAGLE/Desktop/OpenSes Files/JS-subject-1.csv,legacy,4 1,Lentiform Loewenfeld,3.3.3,0,n,0,right,right,right,left,NA,right,NA,406,3250,26462,459098,NA,406,NA,2,legacy,2,1024,2,48000,-16,experiment,1,odd,6,806239,559672,807313,809515,660321,1324,100573,NA,811516,811923,808314,27787,811516,807311,1320,NA,Sternberg Task,52,35025,54,yes,102496.36363636,96.36363636,650.4181818,650.4181818,black,experiment,legacy,legacy,legacy,0,uniform,1,undefined,1,left,54,0,54,54,54,0,0,0,54,54,54,0,54,54,0,NA,Sun Oct 18 19:08:55 2020,The main experiment item,yes,SternbergTask.osexp,C:/Users/JHS6-EAGLE/Desktop/OpenSes Files,no,mono,no,18,no,white,no,no,768,legacy,42,11,C:/Users/JHS6-EAGLE/Desktop/OpenSes Files/JS-subject-1.csv,legacy,3 5 9 6 2 4,Lentiform Loewenfeld,3.3.3,1,y,0,left,right,right,left,NA,left,NA,748,3250,26462,459098,NA,748,NA,2,legacy,6,1024,2,48000,-16,experiment,1,odd,3,811933,559672,813007,815209,660321,1324,100573,NA,817210,817959,814008,27787,817210,813006,1320,NA,Sternberg Task,53,35773,55,yes,102496.42857143,96.42857143,651.8035714,651.8035714,black,experiment,legacy,legacy,legacy,0,uniform,1,undefined,1,right,55,0,55,55,55,0,0,0,55,55,55,0,55,55,0,NA,Sun Oct 18 19:08:55 2020,The main experiment item,yes,SternbergTask.osexp,C:/Users/JHS6-EAGLE/Desktop/OpenSes Files,no,mono,no,18,no,white,no,no,768,legacy,43,11,C:/Users/JHS6-EAGLE/Desktop/OpenSes Files/JS-subject-1.csv,legacy,2 8 9 4 1,Lentiform Loewenfeld,3.3.3,0,n,0,right,right,right,left,NA,right,NA,728,3250,26462,459098,NA,728,NA,2,legacy,5,1024,2,48000,-16,experiment,1,odd,5,817964,559672,819039,821245,660321,1324,100573,NA,823246,823974,820044,27787,823246,819036,1320,NA,Sternberg Task,54,36501,56,yes,102496.49122807,96.49122807,650.754386,650.754386,black,experiment,legacy,legacy,legacy,0,uniform,1,undefined,1,right,56,0,56,56,56,0,0,0,56,56,56,0,56,56,0,NA,Sun Oct 18 19:08:55 2020,The main experiment item,yes,SternbergTask.osexp,C:/Users/JHS6-EAGLE/Desktop/OpenSes Files,no,mono,no,18,no,white,no,no,768,legacy,44,11,C:/Users/JHS6-EAGLE/Desktop/OpenSes Files/JS-subject-1.csv,legacy,4 2 6 9,Lentiform Loewenfeld,3.3.3,0,n,0,right,right,right,left,NA,right,NA,592,3250,26462,459098,NA,592,NA,2,legacy,4,1024,2,48000,-16,experiment,1,odd,7,823982,559672,825058,827263,660321,1324,100573,NA,829266,829859,826059,27787,829266,825056,1320,NA,Sternberg Task,55,37093,57,yes,102496.55172414,96.55172414,650.2931034,650.2931034,black,experiment,legacy,legacy,legacy,0,uniform,1,undefined,1,left,57,0,57,57,57,0,0,0,57,57,57,0,57,57,0,NA,Sun Oct 18 19:08:55 2020,The main experiment item,yes,SternbergTask.osexp,C:/Users/JHS6-EAGLE/Desktop/OpenSes Files,no,mono,no,18,no,white,no,no,768,legacy,45,11,C:/Users/JHS6-EAGLE/Desktop/OpenSes Files/JS-subject-1.csv,legacy,6 8 9 3 4 9,Lentiform Loewenfeld,3.3.3,5,y,0,left,right,right,left,NA,left,NA,624,3250,26462,459098,NA,624,NA,2,legacy,6,1024,2,48000,-16,experiment,1,odd,4,829864,559672,830937,833139,660321,1324,100573,NA,835140,835765,831938,27787,835140,830936,1320,NA,Sternberg Task,56,37717,58,yes,102496.61016949,96.61016949,650.8813559,650.8813559,black,experiment,legacy,legacy,legacy,0,uniform,1,undefined,1,left,58,0,58,58,58,0,0,0,58,58,58,0,58,58,0,NA,Sun Oct 18 19:08:55 2020,The main experiment item,yes,SternbergTask.osexp,C:/Users/JHS6-EAGLE/Desktop/OpenSes Files,no,mono,no,18,no,white,no,no,768,legacy,46,11,C:/Users/JHS6-EAGLE/Desktop/OpenSes Files/JS-subject-1.csv,legacy,2 4 8 5 1 3,Lentiform Loewenfeld,3.3.3,1,y,0,left,right,right,left,NA,left,NA,685,3250,26462,459098,NA,685,NA,2,legacy,6,1024,2,48000,-16,experiment,1,odd,2,835776,559672,836859,839065,660321,1324,100573,NA,841067,841753,837860,27787,841067,836857,1320,NA,Sternberg Task,57,38402,59,yes,102496.66666667,96.66666667,656.2,656.2,black,experiment,legacy,legacy,legacy,0,uniform,1,undefined,1,left,59,0,59,59,59,0,0,0,59,59,59,0,59,59,0,NA,Sun Oct 18 19:08:55 2020,The main experiment item,yes,SternbergTask.osexp,C:/Users/JHS6-EAGLE/Desktop/OpenSes Files,no,mono,no,18,no,white,no,no,768,legacy,47,11,C:/Users/JHS6-EAGLE/Desktop/OpenSes Files/JS-subject-1.csv,legacy,5 2 6,Lentiform Loewenfeld,3.3.3,2,y,0,left,right,right,left,NA,left,NA,970,3250,26462,459098,NA,970,NA,2,legacy,3,1024,2,48000,-16,experiment,1,odd,2,841765,559672,842845,845053,660321,1324,100573,NA,847057,848028,843848,27787,847056,842844,1320,NA,Sternberg Task,58,39372,60,yes,102496.72131148,96.72131148,660.1147541,660.1147541,black,experiment,legacy,legacy,legacy,0,uniform,1,undefined,1,right,60,0,60,60,60,0,0,0,60,60,60,0,60,60,0,NA,Sun Oct 18 19:08:55 2020,The main experiment item,yes,SternbergTask.osexp,C:/Users/JHS6-EAGLE/Desktop/OpenSes Files,no,mono,no,18,no,white,no,no,768,legacy,48,11,C:/Users/JHS6-EAGLE/Desktop/OpenSes Files/JS-subject-1.csv,legacy,3 9 8 1 6 4,Lentiform Loewenfeld,3.3.3,0,n,0,right,right,right,left,NA,right,NA,895,3250,26462,459098,NA,895,NA,2,legacy,6,1024,2,48000,-16,experiment,1,odd,7,848041,559672,849127,851331,660321,1324,100573,NA,853333,854229,850128,27787,853333,849124,1320,NA,Sternberg Task,59,40267,61,yes,102496.77419355,96.77419355,660.5322581,660.5322581,black,experiment,legacy,legacy,legacy,0,uniform,1,undefined,1,right,61,0,61,61,61,0,0,0,61,61,61,0,61,61,0,NA,Sun Oct 18 19:08:55 2020,The main experiment item,yes,SternbergTask.osexp,C:/Users/JHS6-EAGLE/Desktop/OpenSes Files,no,mono,no,18,no,white,no,no,768,legacy,49,11,C:/Users/JHS6-EAGLE/Desktop/OpenSes Files/JS-subject-1.csv,legacy,2 3 8 5 6 7,Lentiform Loewenfeld,3.3.3,0,n,0,right,right,right,left,NA,right,NA,686,3250,26462,459098,NA,686,NA,2,legacy,6,1024,2,48000,-16,experiment,1,odd,1,854237,559672,855312,857518,660321,1324,100573,NA,859519,860205,856317,27787,859519,855311,1320,NA,Sternberg Task,60,40953,62,yes,102496.82539683,96.82539683,658.5238095,658.5238095,black,experiment,legacy,legacy,legacy,0,uniform,1,undefined,1,left,62,0,62,62,62,0,0,0,62,62,62,0,62,62,0,NA,Sun Oct 18 19:08:55 2020,The main experiment item,yes,SternbergTask.osexp,C:/Users/JHS6-EAGLE/Desktop/OpenSes Files,no,mono,no,18,no,white,no,no,768,legacy,50,11,C:/Users/JHS6-EAGLE/Desktop/OpenSes Files/JS-subject-1.csv,legacy,8 3,Lentiform Loewenfeld,3.3.3,2,y,0,left,right,right,left,NA,left,NA,534,3250,26462,459098,NA,534,NA,2,legacy,2,1024,2,48000,-16,experiment,1,odd,3,860209,559672,861281,863486,660321,1324,100573,NA,865490,866025,862285,27787,865489,861280,1320,NA,Sternberg Task,61,41487,63,yes,102496.875,96.875,660.234375,660.234375,black,experiment,legacy,legacy,legacy,0,uniform,1,undefined,1,right,63,0,63,63,63,0,0,0,63,63,63,0,63,63,0,NA,Sun Oct 18 19:08:55 2020,The main experiment item,yes,SternbergTask.osexp,C:/Users/JHS6-EAGLE/Desktop/OpenSes Files,no,mono,no,18,no,white,no,no,768,legacy,51,11,C:/Users/JHS6-EAGLE/Desktop/OpenSes Files/JS-subject-1.csv,legacy,8 4 3 9,Lentiform Loewenfeld,3.3.3,0,n,0,right,right,right,left,NA,right,NA,768,3250,26462,459098,NA,768,NA,2,legacy,4,1024,2,48000,-16,experiment,1,odd,5,866031,559672,867104,869306,660321,1324,100573,NA,871307,872076,868105,27787,871307,867103,1320,NA,Sternberg Task,62,42255,64,yes,102496.92307692,96.92307692,655.8153846,655.8153846,black,experiment,legacy,legacy,legacy,0,uniform,1,undefined,1,left,64,0,64,64,64,0,0,0,64,64,64,0,64,64,0,NA,Sun Oct 18 19:08:55 2020,The main experiment item,yes,SternbergTask.osexp,C:/Users/JHS6-EAGLE/Desktop/OpenSes Files,no,mono,no,18,no,white,no,no,768,legacy,52,11,C:/Users/JHS6-EAGLE/Desktop/OpenSes Files/JS-subject-1.csv,legacy,8,Lentiform Loewenfeld,3.3.3,1,y,0,left,right,right,left,NA,left,NA,373,3250,26462,459098,NA,373,NA,2,legacy,1,1024,2,48000,-16,experiment,1,odd,8,872083,559672,873159,875361,660321,1324,100573,NA,877361,877735,874160,27787,877361,873157,1320,NA,Sternberg Task,63,42628,65,yes,102496.96969697,96.96969697,656.469697,656.469697,black,experiment,legacy,legacy,legacy,0,uniform,1,undefined,1,left,65,0,65,65,65,0,0,0,65,65,65,0,65,65,0,NA,Sun Oct 18 19:08:55 2020,The main experiment item,yes,SternbergTask.osexp,C:/Users/JHS6-EAGLE/Desktop/OpenSes Files,no,mono,no,18,no,white,no,no,768,legacy,53,11,C:/Users/JHS6-EAGLE/Desktop/OpenSes Files/JS-subject-1.csv,legacy,8 5 1 3 9,Lentiform Loewenfeld,3.3.3,4,y,0,left,right,right,left,NA,left,NA,699,3250,26462,459098,NA,699,NA,2,legacy,5,1024,2,48000,-16,experiment,1,odd,3,877746,559672,878819,881021,660321,1324,100573,NA,883022,883722,879820,27787,883022,878818,1320,NA,Sternberg Task,64,43327,66,yes,102497.01492537,97.01492537,655.6567164,655.6567164,black,experiment,legacy,legacy,legacy,0,uniform,1,undefined,1,left,66,0,66,66,66,0,0,0,66,66,66,0,66,66,0,NA,Sun Oct 18 19:08:55 2020,The main experiment item,yes,SternbergTask.osexp,C:/Users/JHS6-EAGLE/Desktop/OpenSes Files,no,mono,no,18,no,white,no,no,768,legacy,54,11,C:/Users/JHS6-EAGLE/Desktop/OpenSes Files/JS-subject-1.csv,legacy,2 5 4 8 7,Lentiform Loewenfeld,3.3.3,3,y,0,left,right,right,left,NA,left,NA,602,3250,26462,459098,NA,602,NA,2,legacy,5,1024,2,48000,-16,experiment,1,odd,4,883733,559672,884806,887008,660321,1324,100573,NA,889009,889612,885807,27787,889009,884804,1320,NA,Sternberg Task,65,43929,67,yes,102497.05882353,97.05882353,655.3382353,655.3382353,black,experiment,legacy,legacy,legacy,0,uniform,1,undefined,1,left,67,0,67,67,67,0,0,0,67,67,67,0,67,67,0,NA,Sun Oct 18 19:08:55 2020,The main experiment item,yes,SternbergTask.osexp,C:/Users/JHS6-EAGLE/Desktop/OpenSes Files,no,mono,no,18,no,white,no,no,768,legacy,55,11,C:/Users/JHS6-EAGLE/Desktop/OpenSes Files/JS-subject-1.csv,legacy,5 2 9 6 1 7,Lentiform Loewenfeld,3.3.3,3,y,0,left,right,right,left,NA,left,NA,634,3250,26462,459098,NA,634,NA,2,legacy,6,1024,2,48000,-16,experiment,1,odd,9,889626,559672,890699,892901,660321,1324,100573,NA,894902,895537,891700,27787,894902,890697,1320,NA,Sternberg Task,66,44563,68,yes,102497.10144928,97.10144928,656.3043478,656.3043478,black,experiment,legacy,legacy,legacy,0,uniform,1,undefined,1,left,68,0,68,68,68,0,0,0,68,68,68,0,68,68,0,NA,Sun Oct 18 19:08:55 2020,The main experiment item,yes,SternbergTask.osexp,C:/Users/JHS6-EAGLE/Desktop/OpenSes Files,no,mono,no,18,no,white,no,no,768,legacy,56,11,C:/Users/JHS6-EAGLE/Desktop/OpenSes Files/JS-subject-1.csv,legacy,8 9 5 7 1 6,Lentiform Loewenfeld,3.3.3,4,y,0,left,right,right,left,NA,left,NA,722,3250,26462,459098,NA,722,NA,2,legacy,6,1024,2,48000,-16,experiment,1,odd,7,895543,559672,896616,898818,660321,1324,100573,NA,900819,901542,897617,27787,900819,896614,1320,NA,Sternberg Task,67,45285,69,yes,102497.14285714,97.14285714,657.8428571,657.8428571,black,experiment,legacy,legacy,legacy,0,uniform,1,undefined,1,left,69,0,69,69,69,0,0,0,69,69,69,0,69,69,0,NA,Sun Oct 18 19:08:55 2020,The main experiment item,yes,SternbergTask.osexp,C:/Users/JHS6-EAGLE/Desktop/OpenSes Files,no,mono,no,18,no,white,no,no,768,legacy,57,11,C:/Users/JHS6-EAGLE/Desktop/OpenSes Files/JS-subject-1.csv,legacy,3 4 9 6 2 9,Lentiform Loewenfeld,3.3.3,5,y,0,left,right,right,left,NA,left,NA,764,3250,26462,459098,NA,764,NA,2,legacy,6,1024,2,48000,-16,experiment,1,odd,2,901547,559672,902624,904831,660321,1324,100573,NA,906832,907597,903626,27787,906832,902623,1320,NA,Sternberg Task,68,46049,70,yes,102497.18309859,97.18309859,656.0704225,656.0704225,black,experiment,legacy,legacy,legacy,0,uniform,1,undefined,1,left,70,0,70,70,70,0,0,0,70,70,70,0,70,70,0,NA,Sun Oct 18 19:08:55 2020,The main experiment item,yes,SternbergTask.osexp,C:/Users/JHS6-EAGLE/Desktop/OpenSes Files,no,mono,no,18,no,white,no,no,768,legacy,58,11,C:/Users/JHS6-EAGLE/Desktop/OpenSes Files/JS-subject-1.csv,legacy,8 9 5 6 7,Lentiform Loewenfeld,3.3.3,1,y,0,left,right,right,left,NA,left,NA,532,3250,26462,459098,NA,532,NA,2,legacy,5,1024,2,48000,-16,experiment,1,odd,8,907604,559672,908704,910909,660321,1324,100573,NA,912910,913443,909706,27787,912910,908700,1320,NA,Sternberg Task,69,46581,71,yes,102497.22222222,97.22222222,656.375,656.375,black,experiment,legacy,legacy,legacy,0,uniform,1,undefined,1,right,71,0,71,71,71,0,0,0,71,71,71,0,71,71,0,NA,Sun Oct 18 19:08:55 2020,The main experiment item,yes,SternbergTask.osexp,C:/Users/JHS6-EAGLE/Desktop/OpenSes Files,no,mono,no,18,no,white,no,no,768,legacy,59,11,C:/Users/JHS6-EAGLE/Desktop/OpenSes Files/JS-subject-1.csv,legacy,7 1 8 4 9 3,Lentiform Loewenfeld,3.3.3,0,n,0,right,right,right,left,NA,right,NA,678,3250,26462,459098,NA,678,NA,2,legacy,6,1024,2,48000,-16,experiment,1,odd,6,913448,559672,914522,916724,660321,1324,100573,NA,918725,919405,915523,27787,918725,914520,1320,NA,Sternberg Task,70,47259,72,yes,102497.26027397,97.26027397,655.6849315,655.6849315,black,experiment,legacy,legacy,legacy,0,uniform,1,undefined,1,left,72,0,72,72,72,0,0,0,72,72,72,0,72,72,0,NA,Sun Oct 18 19:08:55 2020,The main experiment item,yes,SternbergTask.osexp,C:/Users/JHS6-EAGLE/Desktop/OpenSes Files,no,mono,no,18,no,white,no,no,768,legacy,60,11,C:/Users/JHS6-EAGLE/Desktop/OpenSes Files/JS-subject-1.csv,legacy,6 9 3 1,Lentiform Loewenfeld,3.3.3,4,y,0,left,right,right,left,NA,left,NA,606,3250,26462,459098,NA,606,NA,2,legacy,4,1024,2,48000,-16,experiment,1,odd,1,919414,559672,920488,922693,660321,1324,100573,NA,924698,925305,921489,27787,924698,920486,1320,NA,Sternberg Task,71,47865,73,yes,102497.2972973,97.2972973,653.5945946,653.5945946,black,experiment,legacy,legacy,legacy,0,uniform,1,undefined,1,left,73,0,73,73,73,0,0,0,73,73,73,0,73,73,0,NA,Sun Oct 18 19:08:55 2020,The main experiment item,yes,SternbergTask.osexp,C:/Users/JHS6-EAGLE/Desktop/OpenSes Files,no,mono,no,18,no,white,no,no,768,legacy,61,11,C:/Users/JHS6-EAGLE/Desktop/OpenSes Files/JS-subject-1.csv,legacy,7 1 3,Lentiform Loewenfeld,3.3.3,2,y,0,left,right,right,left,NA,left,NA,501,3250,26462,459098,NA,501,NA,2,legacy,3,1024,2,48000,-16,experiment,1,odd,1,925310,559672,926383,928585,660321,1324,100573,NA,930586,931088,927384,27787,930586,926381,1320,NA,Sternberg Task,72,48366,74,yes,102497.33333333,97.33333333,653.8666667,653.8666667,black,experiment,legacy,legacy,legacy,0,uniform,1,undefined,1,right,74,0,74,74,74,0,0,0,74,74,74,0,74,74,0,NA,Sun Oct 18 19:08:55 2020,The main experiment item,yes,SternbergTask.osexp,C:/Users/JHS6-EAGLE/Desktop/OpenSes Files,no,mono,no,18,no,white,no,no,768,legacy,62,11,C:/Users/JHS6-EAGLE/Desktop/OpenSes Files/JS-subject-1.csv,legacy,1 7 8 3 9,Lentiform Loewenfeld,3.3.3,0,n,0,right,right,right,left,NA,right,NA,674,3250,26462,459098,NA,674,NA,2,legacy,5,1024,2,48000,-16,experiment,1,odd,2,931092,559672,932167,934369,660321,1324,100573,NA,936372,937047,933168,27787,936372,932165,1320,NA,Sternberg Task,73,49040,75,yes,102497.36842105,97.36842105,652.75,652.75,black,experiment,legacy,legacy,legacy,0,uniform,1,undefined,1,right,75,0,75,75,75,0,0,0,75,75,75,0,75,75,0,NA,Sun Oct 18 19:08:55 2020,The main experiment item,yes,SternbergTask.osexp,C:/Users/JHS6-EAGLE/Desktop/OpenSes Files,no,mono,no,18,no,white,no,no,768,legacy,63,11,C:/Users/JHS6-EAGLE/Desktop/OpenSes Files/JS-subject-1.csv,legacy,5 3 2 6 9 8,Lentiform Loewenfeld,3.3.3,0,n,0,right,right,right,left,NA,right,NA,569,3250,26462,459098,NA,569,NA,2,legacy,6,1024,2,48000,-16,experiment,1,odd,4,937052,559672,938128,940330,660321,1324,100573,NA,942331,942901,939129,27787,942331,938126,1320,NA,Sternberg Task,74,49609,76,yes,102497.4025974,97.4025974,650.1428571,650.1428571,black,experiment,legacy,legacy,legacy,0,uniform,1,undefined,1,left,76,0,76,76,76,0,0,0,76,76,76,0,76,76,0,NA,Sun Oct 18 19:08:55 2020,The main experiment item,yes,SternbergTask.osexp,C:/Users/JHS6-EAGLE/Desktop/OpenSes Files,no,mono,no,18,no,white,no,no,768,legacy,64,11,C:/Users/JHS6-EAGLE/Desktop/OpenSes Files/JS-subject-1.csv,legacy,6 5,Lentiform Loewenfeld,3.3.3,2,y,0,left,right,right,left,NA,left,NA,452,3250,26462,459098,NA,452,NA,2,legacy,2,1024,2,48000,-16,experiment,1,odd,5,942914,559672,943988,946190,660321,1324,100573,NA,948191,948644,944989,27787,948191,943986,1320,NA,Sternberg Task,75,50061,77,yes,102497.43589744,97.43589744,651.1282051,651.1282051,black,experiment,legacy,legacy,legacy,0,uniform,1,undefined,1,left,77,0,77,77,77,0,0,0,77,77,77,0,77,77,0,NA,Sun Oct 18 19:08:55 2020,The main experiment item,yes,SternbergTask.osexp,C:/Users/JHS6-EAGLE/Desktop/OpenSes Files,no,mono,no,18,no,white,no,no,768,legacy,65,11,C:/Users/JHS6-EAGLE/Desktop/OpenSes Files/JS-subject-1.csv,legacy,7 8 4 6 9 5,Lentiform Loewenfeld,3.3.3,4,y,0,left,right,right,left,NA,left,NA,727,3250,26462,459098,NA,727,NA,2,legacy,6,1024,2,48000,-16,experiment,1,odd,6,948650,559672,949736,951940,660321,1324,100573,NA,953941,954669,950739,27787,953941,949734,1320,NA,Sternberg Task,76,50788,78,yes,102497.46835443,97.46835443,650.3924051,650.3924051,black,experiment,legacy,legacy,legacy,0,uniform,1,undefined,1,right,78,0,78,78,78,0,0,0,78,78,78,0,78,78,0,NA,Sun Oct 18 19:08:55 2020,The main experiment item,yes,SternbergTask.osexp,C:/Users/JHS6-EAGLE/Desktop/OpenSes Files,no,mono,no,18,no,white,no,no,768,legacy,66,11,C:/Users/JHS6-EAGLE/Desktop/OpenSes Files/JS-subject-1.csv,legacy,1 4 3 6 5,Lentiform Loewenfeld,3.3.3,0,n,0,right,right,right,left,NA,right,NA,593,3250,26462,459098,NA,593,NA,2,legacy,5,1024,2,48000,-16,experiment,1,odd,8,954675,559672,955748,957951,660321,1324,100573,NA,959952,960546,956750,27787,959952,955747,1320,NA,Sternberg Task,77,51381,79,yes,102497.5,97.5,652.6,652.6,black,experiment,legacy,legacy,legacy,0,uniform,1,undefined,1,right,79,0,79,79,79,0,0,0,79,79,79,0,79,79,0,NA,Sun Oct 18 19:08:55 2020,The main experiment item,yes,SternbergTask.osexp,C:/Users/JHS6-EAGLE/Desktop/OpenSes Files,no,mono,no,18,no,white,no,no,768,legacy,67,11,C:/Users/JHS6-EAGLE/Desktop/OpenSes Files/JS-subject-1.csv,legacy,1 4 9 2 5,Lentiform Loewenfeld,3.3.3,0,n,0,right,right,right,left,NA,right,NA,827,3250,26462,459098,NA,827,NA,2,legacy,5,1024,2,48000,-16,experiment,1,odd,7,960551,559672,961626,963835,660321,1324,100573,NA,965840,966668,962630,27787,965840,961625,1320,NA,Sternberg Task,78,52208,80,yes,102497.5308642,97.5308642,649.962963,649.962963,black,experiment,legacy,legacy,legacy,0,uniform,1,undefined,1,left,80,0,80,80,80,0,0,0,80,80,80,0,80,80,0,NA,Sun Oct 18 19:08:55 2020,The main experiment item,yes,SternbergTask.osexp,C:/Users/JHS6-EAGLE/Desktop/OpenSes Files,no,mono,no,18,no,white,no,no,768,legacy,68,11,C:/Users/JHS6-EAGLE/Desktop/OpenSes Files/JS-subject-1.csv,legacy,9 8 4,Lentiform Loewenfeld,3.3.3,1,y,0,left,right,right,left,NA,left,NA,439,3250,26462,459098,NA,439,NA,2,legacy,3,1024,2,48000,-16,experiment,1,odd,9,966682,559672,967760,969966,660321,1324,100573,NA,971967,972407,968765,27787,971967,967755,1320,NA,Sternberg Task,79,52647,81,yes,102497.56097561,97.56097561,648.5731707,648.5731707,black,experiment,legacy,legacy,legacy,0,uniform,1,undefined,1,right,81,0,81,81,81,0,0,0,81,81,81,0,81,81,0,NA,Sun Oct 18 19:08:55 2020,The main experiment item,yes,SternbergTask.osexp,C:/Users/JHS6-EAGLE/Desktop/OpenSes Files,no,mono,no,18,no,white,no,no,768,legacy,69,11,C:/Users/JHS6-EAGLE/Desktop/OpenSes Files/JS-subject-1.csv,legacy,7 8 6 1,Lentiform Loewenfeld,3.3.3,0,n,0,right,right,right,left,NA,right,NA,536,3250,26462,459098,NA,536,NA,2,legacy,4,1024,2,48000,-16,experiment,1,odd,3,972411,559672,973485,975691,660321,1324,100573,NA,977692,978229,974486,27787,977692,973483,1320,NA,Sternberg Task,80,53183,82,yes,102497.59036145,97.59036145,649.373494,649.373494,black,experiment,legacy,legacy,legacy,0,uniform,1,undefined,1,right,82,0,82,82,82,0,0,0,82,82,82,0,82,82,0,NA,Sun Oct 18 19:08:55 2020,The main experiment item,yes,SternbergTask.osexp,C:/Users/JHS6-EAGLE/Desktop/OpenSes Files,no,mono,no,18,no,white,no,no,768,legacy,70,11,C:/Users/JHS6-EAGLE/Desktop/OpenSes Files/JS-subject-1.csv,legacy,7 9 1 6,Lentiform Loewenfeld,3.3.3,0,n,0,right,right,right,left,NA,right,NA,715,3250,26462,459098,NA,715,NA,2,legacy,4,1024,2,48000,-16,experiment,1,odd,4,978234,559672,979308,981513,660321,1324,100573,NA,983514,984230,980309,27787,983514,979306,1320,NA,Sternberg Task,81,53898,83,yes,102497.61904762,97.61904762,649.6666667,649.6666667,black,experiment,legacy,legacy,legacy,0,uniform,1,undefined,1,right,83,0,83,83,83,0,0,0,83,83,83,0,83,83,0,NA,Sun Oct 18 19:08:55 2020,The main experiment item,yes,SternbergTask.osexp,C:/Users/JHS6-EAGLE/Desktop/OpenSes Files,no,mono,no,18,no,white,no,no,768,legacy,71,11,C:/Users/JHS6-EAGLE/Desktop/OpenSes Files/JS-subject-1.csv,legacy,6 9 5,Lentiform Loewenfeld,3.3.3,0,n,0,right,right,right,left,NA,right,NA,674,3250,26462,459098,NA,674,NA,2,legacy,3,1024,2,48000,-16,experiment,1,odd,8,984239,559672,985315,987518,660321,1324,100573,NA,989519,990194,986317,27787,989519,985314,1320,NA,Sternberg Task,82,54572,84,yes,102497.64705882,97.64705882,649.1647059,649.1647059,black,experiment,legacy,legacy,legacy,0,uniform,1,undefined,1,right,84,0,84,84,84,0,0,0,84,84,84,0,84,84,0,NA,Sun Oct 18 19:08:55 2020,The main experiment item,yes,SternbergTask.osexp,C:/Users/JHS6-EAGLE/Desktop/OpenSes Files,no,mono,no,18,no,white,no,no,768,legacy,72,11,C:/Users/JHS6-EAGLE/Desktop/OpenSes Files/JS-subject-1.csv,legacy,5 3 8 7 2 4,Lentiform Loewenfeld,3.3.3,0,n,0,right,right,right,left,NA,right,NA,607,3250,26462,459098,NA,607,NA,2,legacy,6,1024,2,48000,-16,experiment,1,odd,9,990198,559672,991272,993474,660321,1324,100573,NA,995475,996083,992273,27787,995475,991270,1320,NA,Sternberg Task,83,55179,85,yes,102497.6744186,97.6744186,648.9186047,648.9186047,black,experiment,legacy,legacy,legacy,0,uniform,1,undefined,1,left,85,0,85,85,85,0,0,0,85,85,85,0,85,85,0,NA,Sun Oct 18 19:08:55 2020,The main experiment item,yes,SternbergTask.osexp,C:/Users/JHS6-EAGLE/Desktop/OpenSes Files,no,mono,no,18,no,white,no,no,768,legacy,73,11,C:/Users/JHS6-EAGLE/Desktop/OpenSes Files/JS-subject-1.csv,legacy,2 4 6 9,Lentiform Loewenfeld,3.3.3,3,y,0,left,right,right,left,NA,left,NA,628,3250,26462,459098,NA,628,NA,2,legacy,4,1024,2,48000,-16,experiment,1,odd,6,996088,559672,997161,999367,660321,1324,100573,NA,1001370,1001999,998162,27787,1001370,997160,1320,NA,Sternberg Task,84,55807,86,yes,102497.70114943,97.70114943,647.7931034,647.7931034,black,experiment,legacy,legacy,legacy,0,uniform,1,undefined,1,right,86,0,86,86,86,0,0,0,86,86,86,0,86,86,0,NA,Sun Oct 18 19:08:55 2020,The main experiment item,yes,SternbergTask.osexp,C:/Users/JHS6-EAGLE/Desktop/OpenSes Files,no,mono,no,18,no,white,no,no,768,legacy,74,11,C:/Users/JHS6-EAGLE/Desktop/OpenSes Files/JS-subject-1.csv,legacy,5,Lentiform Loewenfeld,3.3.3,0,n,0,right,right,right,left,NA,right,NA,551,3250,26462,459098,NA,551,NA,2,legacy,1,1024,2,48000,-16,experiment,1,odd,8,1002003,559672,1003076,1005279,660321,1324,100573,NA,1007280,1007832,1004078,27787,1007280,1003075,1320,NA,Sternberg Task,85,56358,87,yes,102497.72727273,97.72727273,647.7613636,647.7613636,black,experiment,legacy,legacy,legacy,0,uniform,1,undefined,1,right,87,0,87,87,87,0,0,0,87,87,87,0,87,87,0,NA,Sun Oct 18 19:08:55 2020,The main experiment item,yes,SternbergTask.osexp,C:/Users/JHS6-EAGLE/Desktop/OpenSes Files,no,mono,no,18,no,white,no,no,768,legacy,75,11,C:/Users/JHS6-EAGLE/Desktop/OpenSes Files/JS-subject-1.csv,legacy,3 4 2,Lentiform Loewenfeld,3.3.3,0,n,0,right,right,right,left,NA,right,NA,645,3250,26462,459098,NA,645,NA,2,legacy,3,1024,2,48000,-16,experiment,1,odd,5,1007837,559672,1008911,1011113,660321,1324,100573,NA,1013114,1013760,1009912,27787,1013114,1008910,1320,NA,Sternberg Task,86,57003,88,yes,102497.75280899,97.75280899,645.7977528,645.7977528,black,experiment,legacy,legacy,legacy,0,uniform,1,undefined,1,right,88,0,88,88,88,0,0,0,88,88,88,0,88,88,0,NA,Sun Oct 18 19:08:55 2020,The main experiment item,yes,SternbergTask.osexp,C:/Users/JHS6-EAGLE/Desktop/OpenSes Files,no,mono,no,18,no,white,no,no,768,legacy,76,11,C:/Users/JHS6-EAGLE/Desktop/OpenSes Files/JS-subject-1.csv,legacy,9,Lentiform Loewenfeld,3.3.3,0,n,0,right,right,right,left,NA,right,NA,473,3250,26462,459098,NA,473,NA,2,legacy,1,1024,2,48000,-16,experiment,1,odd,6,1013774,559672,1014849,1017051,660321,1324,100573,NA,1019053,1019526,1015850,27787,1019053,1014845,1320,NA,Sternberg Task,87,57476,89,yes,102497.77777778,97.77777778,644.8444444,644.8444444,black,experiment,legacy,legacy,legacy,0,uniform,1,undefined,1,left,89,0,89,89,89,0,0,0,89,89,89,0,89,89,0,NA,Sun Oct 18 19:08:55 2020,The main experiment item,yes,SternbergTask.osexp,C:/Users/JHS6-EAGLE/Desktop/OpenSes Files,no,mono,no,18,no,white,no,no,768,legacy,77,11,C:/Users/JHS6-EAGLE/Desktop/OpenSes Files/JS-subject-1.csv,legacy,4 3 2 5 8,Lentiform Loewenfeld,3.3.3,2,y,0,left,right,right,left,NA,left,NA,560,3250,26462,459098,NA,560,NA,2,legacy,5,1024,2,48000,-16,experiment,1,odd,3,1019531,559672,1020603,1022805,660321,1324,100573,NA,1024806,1025367,1021604,27787,1024806,1020602,1320,NA,Sternberg Task,88,58036,90,yes,102497.8021978,97.8021978,642.6153846,642.6153846,black,experiment,legacy,legacy,legacy,0,uniform,1,undefined,1,left,90,0,90,90,90,0,0,0,90,90,90,0,90,90,0,NA,Sun Oct 18 19:08:55 2020,The main experiment item,yes,SternbergTask.osexp,C:/Users/JHS6-EAGLE/Desktop/OpenSes Files,no,mono,no,18,no,white,no,no,768,legacy,78,11,C:/Users/JHS6-EAGLE/Desktop/OpenSes Files/JS-subject-1.csv,legacy,6 7 8 5,Lentiform Loewenfeld,3.3.3,3,y,0,left,right,right,left,NA,left,NA,442,3250,26462,459098,NA,442,NA,2,legacy,4,1024,2,48000,-16,experiment,1,odd,8,1025374,559672,1026447,1028649,660321,1324,100573,NA,1030649,1031096,1027448,27787,1030649,1026446,1320,NA,Sternberg Task,89,58478,91,yes,102497.82608696,97.82608696,642.2065217,642.2065217,black,experiment,legacy,legacy,legacy,0,uniform,1,undefined,1,right,91,0,91,91,91,0,0,0,91,91,91,0,91,91,0,NA,Sun Oct 18 19:08:55 2020,The main experiment item,yes,SternbergTask.osexp,C:/Users/JHS6-EAGLE/Desktop/OpenSes Files,no,mono,no,18,no,white,no,no,768,legacy,79,11,C:/Users/JHS6-EAGLE/Desktop/OpenSes Files/JS-subject-1.csv,legacy,1 5 3 2 8,Lentiform Loewenfeld,3.3.3,0,n,0,right,right,right,left,NA,right,NA,605,3250,26462,459098,NA,605,NA,2,legacy,5,1024,2,48000,-16,experiment,1,odd,4,1031100,559672,1032173,1034375,660321,1324,100573,NA,1036378,1036985,1033174,27787,1036378,1032171,1320,NA,Sternberg Task,90,59083,92,yes,102497.84946237,97.84946237,644.311828,644.311828,black,experiment,legacy,legacy,legacy,0,uniform,1,undefined,1,right,92,0,92,92,92,0,0,0,92,92,92,0,92,92,0,NA,Sun Oct 18 19:08:55 2020,The main experiment item,yes,SternbergTask.osexp,C:/Users/JHS6-EAGLE/Desktop/OpenSes Files,no,mono,no,18,no,white,no,no,768,legacy,80,11,C:/Users/JHS6-EAGLE/Desktop/OpenSes Files/JS-subject-1.csv,legacy,3 4 9 6 7 8,Lentiform Loewenfeld,3.3.3,0,n,0,right,right,right,left,NA,right,NA,838,3250,26462,459098,NA,838,NA,2,legacy,6,1024,2,48000,-16,experiment,1,odd,2,1036991,559672,1038066,1040272,660321,1324,100573,NA,1042273,1043113,1039067,27787,1042273,1038065,1320,NA,Sternberg Task,91,59921,93,yes,102497.87234043,97.87234043,643.2978723,643.2978723,black,experiment,legacy,legacy,legacy,0,uniform,1,undefined,1,right,93,0,93,93,93,0,0,0,93,93,93,0,93,93,0,NA,Sun Oct 18 19:08:55 2020,The main experiment item,yes,SternbergTask.osexp,C:/Users/JHS6-EAGLE/Desktop/OpenSes Files,no,mono,no,18,no,white,no,no,768,legacy,81,11,C:/Users/JHS6-EAGLE/Desktop/OpenSes Files/JS-subject-1.csv,legacy,7 4 2 8 1 9,Lentiform Loewenfeld,3.3.3,0,n,0,right,right,right,left,NA,right,NA,549,3250,26462,459098,NA,549,NA,2,legacy,6,1024,2,48000,-16,experiment,1,odd,5,1043117,559672,1044191,1046393,660321,1324,100573,NA,1048394,1048945,1045192,27787,1048394,1044189,1320,NA,Sternberg Task,92,60470,94,yes,102497.89473684,97.89473684,643.2842105,643.2842105,black,experiment,legacy,legacy,legacy,0,uniform,1,undefined,1,right,94,0,94,94,94,0,0,0,94,94,94,0,94,94,0,NA,Sun Oct 18 19:08:55 2020,The main experiment item,yes,SternbergTask.osexp,C:/Users/JHS6-EAGLE/Desktop/OpenSes Files,no,mono,no,18,no,white,no,no,768,legacy,82,11,C:/Users/JHS6-EAGLE/Desktop/OpenSes Files/JS-subject-1.csv,legacy,7 6 4 8 1 2,Lentiform Loewenfeld,3.3.3,0,n,0,right,right,right,left,NA,right,NA,642,3250,26462,459098,NA,642,NA,2,legacy,6,1024,2,48000,-16,experiment,1,odd,9,1048950,559672,1050025,1052227,660321,1324,100573,NA,1054228,1054871,1051026,27787,1054228,1050024,1320,NA,Sternberg Task,93,61112,95,yes,102497.91666667,97.91666667,641.5208333,641.5208333,black,experiment,legacy,legacy,legacy,0,uniform,1,undefined,1,left,95,0,95,95,95,0,0,0,95,95,95,0,95,95,0,NA,Sun Oct 18 19:08:55 2020,The main experiment item,yes,SternbergTask.osexp,C:/Users/JHS6-EAGLE/Desktop/OpenSes Files,no,mono,no,18,no,white,no,no,768,legacy,83,11,C:/Users/JHS6-EAGLE/Desktop/OpenSes Files/JS-subject-1.csv,legacy,7 6,Lentiform Loewenfeld,3.3.3,2,y,0,left,right,right,left,NA,left,NA,474,3250,26462,459098,NA,474,NA,2,legacy,2,1024,2,48000,-16,experiment,1,odd,6,1054876,559672,1055949,1058151,660321,1324,100573,NA,1060152,1060627,1056950,27787,1060152,1055947,1320,NA,Sternberg Task,94,61586,96,yes,102497.93814433,97.93814433,643.3298969,643.3298969,black,experiment,legacy,legacy,legacy,0,uniform,1,undefined,1,right,96,0,96,96,96,0,0,0,96,96,96,0,96,96,0,NA,Sun Oct 18 19:08:55 2020,The main experiment item,yes,SternbergTask.osexp,C:/Users/JHS6-EAGLE/Desktop/OpenSes Files,no,mono,no,18,no,white,no,no,768,legacy,84,11,C:/Users/JHS6-EAGLE/Desktop/OpenSes Files/JS-subject-1.csv,legacy,2 8 7 9 5 3,Lentiform Loewenfeld,3.3.3,0,n,0,right,right,right,left,NA,right,NA,817,3250,26462,459098,NA,817,NA,2,legacy,6,1024,2,48000,-16,experiment,1,odd,6,1060632,559672,1061706,1063908,660321,1324,100573,NA,1065909,1066727,1062707,27787,1065909,1061705,1320,NA,Sternberg Task,95,62403,97,yes,102497.95918367,97.95918367,643.9387755,643.9387755,black,experiment,legacy,legacy,legacy,0,uniform,1,undefined,1,right,97,0,97,97,97,0,0,0,97,97,97,0,97,97,0,NA,Sun Oct 18 19:08:55 2020,The main experiment item,yes,SternbergTask.osexp,C:/Users/JHS6-EAGLE/Desktop/OpenSes Files,no,mono,no,18,no,white,no,no,768,legacy,85,11,C:/Users/JHS6-EAGLE/Desktop/OpenSes Files/JS-subject-1.csv,legacy,6 3 1 7 9 8,Lentiform Loewenfeld,3.3.3,0,n,0,right,right,right,left,NA,right,NA,703,3250,26462,459098,NA,703,NA,2,legacy,6,1024,2,48000,-16,experiment,1,odd,4,1066732,559672,1067807,1070009,660321,1324,100573,NA,1072010,1072715,1068808,27787,1072010,1067806,1320,NA,Sternberg Task,96,63106,98,yes,102497.97979798,97.97979798,642.5353535,642.5353535,black,experiment,legacy,legacy,legacy,0,uniform,1,undefined,1,left,98,0,98,98,98,0,0,0,98,98,98,0,98,98,0,NA,Sun Oct 18 19:08:55 2020,The main experiment item,yes,SternbergTask.osexp,C:/Users/JHS6-EAGLE/Desktop/OpenSes Files,no,mono,no,18,no,white,no,no,768,legacy,86,11,C:/Users/JHS6-EAGLE/Desktop/OpenSes Files/JS-subject-1.csv,legacy,4 1 5,Lentiform Loewenfeld,3.3.3,2,y,0,left,right,right,left,NA,left,NA,505,3250,26462,459098,NA,505,NA,2,legacy,3,1024,2,48000,-16,experiment,1,odd,1,1072720,559672,1073795,1075997,660321,1324,100573,NA,1077998,1078504,1074796,27787,1077998,1073793,1320,NA,Sternberg Task,97,63611,99,yes,102498,98,644.22,644.22,black,experiment,legacy,legacy,legacy,0,uniform,1,undefined,1,left,99,0,99,99,99,0,0,0,99,99,99,0,99,99,0,NA,Sun Oct 18 19:08:55 2020,The main experiment item,yes,SternbergTask.osexp,C:/Users/JHS6-EAGLE/Desktop/OpenSes Files,no,mono,no,18,no,white,no,no,768,legacy,87,11,C:/Users/JHS6-EAGLE/Desktop/OpenSes Files/JS-subject-1.csv,legacy,3 2 1 4 7,Lentiform Loewenfeld,3.3.3,2,y,0,left,right,right,left,NA,left,NA,811,3250,26462,459098,NA,811,NA,2,legacy,5,1024,2,48000,-16,experiment,1,odd,2,1078511,559672,1079584,1081786,660321,1324,100573,NA,1083787,1084599,1080585,27787,1083787,1079583,1320,NA,Sternberg Task,98,64422,100,yes,102498.01980198,98.01980198,642.9009901,642.9009901,black,experiment,legacy,legacy,legacy,0,uniform,1,undefined,1,right,100,0,100,100,100,0,0,0,100,100,100,0,100,100,0,NA,Sun Oct 18 19:08:55 2020,The main experiment item,yes,SternbergTask.osexp,C:/Users/JHS6-EAGLE/Desktop/OpenSes Files,no,mono,no,18,no,white,no,no,768,legacy,88,11,C:/Users/JHS6-EAGLE/Desktop/OpenSes Files/JS-subject-1.csv,legacy,3 9 1,Lentiform Loewenfeld,3.3.3,0,n,0,right,right,right,left,NA,right,NA,511,3250,26462,459098,NA,511,NA,2,legacy,3,1024,2,48000,-16,experiment,1,odd,7,1084604,559672,1085696,1087900,660321,1324,100573,NA,1089905,1090417,1086698,27787,1089905,1085692,1320,NA,Sternberg Task,99,64933,101,yes,102498.03921569,98.03921569,642.7843137,642.7843137,black,experiment,legacy,legacy,legacy,0,uniform,1,undefined,1,left,101,0,101,101,101,0,0,0,101,101,101,0,101,101,0,NA,Sun Oct 18 19:08:55 2020,The main experiment item,yes,SternbergTask.osexp,C:/Users/JHS6-EAGLE/Desktop/OpenSes Files,no,mono,no,18,no,white,no,no,768,legacy,89,11,C:/Users/JHS6-EAGLE/Desktop/OpenSes Files/JS-subject-1.csv,legacy,9 3 8 2 1 4,Lentiform Loewenfeld,3.3.3,3,y,0,left,right,right,left,NA,left,NA,631,3250,26462,459098,NA,631,NA,2,legacy,6,1024,2,48000,-16,experiment,1,odd,8,1090421,559672,1091503,1093705,660321,1324,100573,NA,1095706,1096338,1092504,27787,1095706,1091502,1320,NA,Sternberg Task,100,65564,102,yes,102498.05825243,98.05825243,641.0194175,641.0194175,black,experiment,legacy,legacy,legacy,0,uniform,1,undefined,1,right,102,0,102,102,102,0,0,0,102,102,102,0,102,102,0,NA,Sun Oct 18 19:08:55 2020,The main experiment item,yes,SternbergTask.osexp,C:/Users/JHS6-EAGLE/Desktop/OpenSes Files,no,mono,no,18,no,white,no,no,768,legacy,90,11,C:/Users/JHS6-EAGLE/Desktop/OpenSes Files/JS-subject-1.csv,legacy,7 1,Lentiform Loewenfeld,3.3.3,0,n,0,right,right,right,left,NA,right,NA,461,3250,26462,459098,NA,461,NA,2,legacy,2,1024,2,48000,-16,experiment,1,odd,8,1096344,559672,1097417,1099619,660321,1324,100573,NA,1101622,1102084,1098418,27787,1101622,1097416,1320,NA,Sternberg Task,101,66025,103,yes,102498.07692308,98.07692308,639.6826923,639.6826923,black,experiment,legacy,legacy,legacy,0,uniform,1,undefined,1,left,103,0,103,103,103,0,0,0,103,103,103,0,103,103,0,NA,Sun Oct 18 19:08:55 2020,The main experiment item,yes,SternbergTask.osexp,C:/Users/JHS6-EAGLE/Desktop/OpenSes Files,no,mono,no,18,no,white,no,no,768,legacy,91,11,C:/Users/JHS6-EAGLE/Desktop/OpenSes Files/JS-subject-1.csv,legacy,2 3 7 4,Lentiform Loewenfeld,3.3.3,1,y,0,left,right,right,left,NA,left,NA,502,3250,26462,459098,NA,502,NA,2,legacy,4,1024,2,48000,-16,experiment,1,odd,2,1102089,559672,1103162,1105364,660321,1324,100573,NA,1107365,1107868,1104163,27787,1107365,1103161,1320,NA,Sternberg Task,102,66527,104,yes,102498.0952381,98.0952381,641.4095238,641.4095238,black,experiment,legacy,legacy,legacy,0,uniform,1,undefined,1,left,104,0,104,104,104,0,0,0,104,104,104,0,104,104,0,NA,Sun Oct 18 19:08:55 2020,The main experiment item,yes,SternbergTask.osexp,C:/Users/JHS6-EAGLE/Desktop/OpenSes Files,no,mono,no,18,no,white,no,no,768,legacy,92,11,C:/Users/JHS6-EAGLE/Desktop/OpenSes Files/JS-subject-1.csv,legacy,4,Lentiform Loewenfeld,3.3.3,1,y,0,left,right,right,left,NA,left,NA,821,3250,26462,459098,NA,821,NA,2,legacy,1,1024,2,48000,-16,experiment,1,odd,4,1107874,559672,1108947,1111152,660321,1324,100573,NA,1113153,1113975,1109950,27787,1113153,1108946,1320,NA,Sternberg Task,103,67348,105,yes,102498.11320755,98.11320755,642.9245283,642.9245283,black,experiment,legacy,legacy,legacy,0,uniform,1,undefined,1,left,105,0,105,105,105,0,0,0,105,105,105,0,105,105,0,NA,Sun Oct 18 19:08:55 2020,The main experiment item,yes,SternbergTask.osexp,C:/Users/JHS6-EAGLE/Desktop/OpenSes Files,no,mono,no,18,no,white,no,no,768,legacy,93,11,C:/Users/JHS6-EAGLE/Desktop/OpenSes Files/JS-subject-1.csv,legacy,4 6 2 5 1,Lentiform Loewenfeld,3.3.3,5,y,0,left,right,right,left,NA,left,NA,802,3250,26462,459098,NA,802,NA,2,legacy,5,1024,2,48000,-16,experiment,1,odd,1,1113980,559672,1115055,1117257,660321,1324,100573,NA,1119258,1120061,1116056,27787,1119258,1115053,1320,NA,Sternberg Task,104,68150,106,yes,102498.13084112,98.13084112,642.8971963,642.8971963,black,experiment,legacy,legacy,legacy,0,uniform,1,undefined,1,left,106,0,106,106,106,0,0,0,106,106,106,0,106,106,0,NA,Sun Oct 18 19:08:55 2020,The main experiment item,yes,SternbergTask.osexp,C:/Users/JHS6-EAGLE/Desktop/OpenSes Files,no,mono,no,18,no,white,no,no,768,legacy,94,11,C:/Users/JHS6-EAGLE/Desktop/OpenSes Files/JS-subject-1.csv,legacy,9 6 2 4 1,Lentiform Loewenfeld,3.3.3,4,y,0,left,right,right,left,NA,left,NA,640,3250,26462,459098,NA,640,NA,2,legacy,5,1024,2,48000,-16,experiment,1,odd,4,1120065,559672,1121165,1123367,660321,1324,100573,NA,1125368,1126010,1122166,27787,1125368,1121163,1320,NA,Sternberg Task,105,68790,107,yes,102498.14814815,98.14814815,640.9444444,640.9444444,black,experiment,legacy,legacy,legacy,0,uniform,1,undefined,1,left,107,0,107,107,107,0,0,0,107,107,107,0,107,107,0,NA,Sun Oct 18 19:08:55 2020,The main experiment item,yes,SternbergTask.osexp,C:/Users/JHS6-EAGLE/Desktop/OpenSes Files,no,mono,no,18,no,white,no,no,768,legacy,95,11,C:/Users/JHS6-EAGLE/Desktop/OpenSes Files/JS-subject-1.csv,legacy,4 9 7 8 5 3,Lentiform Loewenfeld,3.3.3,4,y,0,left,right,right,left,NA,left,NA,432,3250,26462,459098,NA,432,NA,2,legacy,6,1024,2,48000,-16,experiment,1,odd,8,1126019,559672,1127092,1129294,660321,1324,100573,NA,1131295,1131729,1128093,27787,1131295,1127091,1320,NA,Sternberg Task,106,69222,108,yes,102498.16513761,98.16513761,638.7155963,638.7155963,black,experiment,legacy,legacy,legacy,0,uniform,1,undefined,1,left,108,0,108,108,108,0,0,0,108,108,108,0,108,108,0,NA,Sun Oct 18 19:08:55 2020,The main experiment item,yes,SternbergTask.osexp,C:/Users/JHS6-EAGLE/Desktop/OpenSes Files,no,mono,no,18,no,white,no,no,768,legacy,96,11,C:/Users/JHS6-EAGLE/Desktop/OpenSes Files/JS-subject-1.csv,legacy,3 5 7 1,Lentiform Loewenfeld,3.3.3,3,y,0,left,right,right,left,NA,left,NA,398,3250,26462,459098,NA,398,NA,2,legacy,4,1024,2,48000,-16,experiment,1,odd,7,1131742,559672,1132816,1135020,660321,1324,100573,NA,1137021,1137420,1133817,27787,1137021,1132815,1320,NA,Sternberg Task,107,69620,109,yes,102498.18181818,98.18181818,638.8545455,638.8545455,black,experiment,legacy,legacy,legacy,0,uniform,1,undefined,1,left,109,0,109,109,109,0,0,0,109,109,109,0,109,109,0,NA,Sun Oct 18 19:08:55 2020,The main experiment item,yes,SternbergTask.osexp,C:/Users/JHS6-EAGLE/Desktop/OpenSes Files,no,mono,no,18,no,white,no,no,768,legacy,97,11,C:/Users/JHS6-EAGLE/Desktop/OpenSes Files/JS-subject-1.csv,legacy,7 8 6 3 1,Lentiform Loewenfeld,3.3.3,5,y,0,left,right,right,left,NA,left,NA,654,3250,26462,459098,NA,654,NA,2,legacy,5,1024,2,48000,-16,experiment,1,odd,1,1137426,559672,1138499,1140701,660321,1324,100573,NA,1142702,1143358,1139500,27787,1142702,1138497,1320,NA,Sternberg Task,108,70274,110,yes,102498.1981982,98.1981982,638.4594595,638.4594595,black,experiment,legacy,legacy,legacy,0,uniform,1,undefined,1,left,110,0,110,110,110,0,0,0,110,110,110,0,110,110,0,NA,Sun Oct 18 19:08:55 2020,The main experiment item,yes,SternbergTask.osexp,C:/Users/JHS6-EAGLE/Desktop/OpenSes Files,no,mono,no,18,no,white,no,no,768,legacy,98,11,C:/Users/JHS6-EAGLE/Desktop/OpenSes Files/JS-subject-1.csv,legacy,5 7 8 2 3 8,Lentiform Loewenfeld,3.3.3,5,y,0,left,right,right,left,NA,left,NA,595,3250,26462,459098,NA,595,NA,2,legacy,6,1024,2,48000,-16,experiment,1,odd,3,1143372,559672,1144451,1146653,660321,1324,100573,NA,1148654,1149250,1145452,27787,1148654,1144448,1320,NA,Sternberg Task,109,70869,111,yes,102498.21428571,98.21428571,638.4910714,638.4910714,black,experiment,legacy,legacy,legacy,0,uniform,1,undefined,1,left,111,0,111,111,111,0,0,0,111,111,111,0,111,111,0,NA,Sun Oct 18 19:08:55 2020,The main experiment item,yes,SternbergTask.osexp,C:/Users/JHS6-EAGLE/Desktop/OpenSes Files,no,mono,no,18,no,white,no,no,768,legacy,99,11,C:/Users/JHS6-EAGLE/Desktop/OpenSes Files/JS-subject-1.csv,legacy,8 7 3,Lentiform Loewenfeld,3.3.3,1,y,0,left,right,right,left,NA,left,NA,642,3250,26462,459098,NA,642,NA,2,legacy,3,1024,2,48000,-16,experiment,1,odd,8,1149264,559672,1150343,1152545,660321,1324,100573,NA,1154546,1155190,1151344,27787,1154546,1150341,1320,NA,Sternberg Task,110,71511,112,yes,102498.2300885,98.2300885,638.8938053,638.8938053,black,experiment,legacy,legacy,legacy,0,uniform,1,undefined,1,left,112,0,112,112,112,0,0,0,112,112,112,0,112,112,0,NA,Sun Oct 18 19:08:55 2020,The main experiment item,yes,SternbergTask.osexp,C:/Users/JHS6-EAGLE/Desktop/OpenSes Files,no,mono,no,18,no,white,no,no,768,legacy,100,11,C:/Users/JHS6-EAGLE/Desktop/OpenSes Files/JS-subject-1.csv,legacy,9 1 6 7 8,Lentiform Loewenfeld,3.3.3,1,y,0,left,right,right,left,NA,left,NA,684,3250,26462,459098,NA,684,NA,2,legacy,5,1024,2,48000,-16,experiment,1,odd,9,1155196,559672,1156268,1158470,660321,1324,100573,NA,1160471,1161156,1157269,27787,1160471,1156267,1320,NA,Sternberg Task,111,72195,113,yes,102498.24561404,98.24561404,649.5175439,649.5175439,black,experiment,legacy,legacy,legacy,0,uniform,1,undefined,1,left,113,0,113,113,113,0,0,0,113,113,113,0,113,113,0,NA,Sun Oct 18 19:08:55 2020,The main experiment item,yes,SternbergTask.osexp,C:/Users/JHS6-EAGLE/Desktop/OpenSes Files,no,mono,no,18,no,white,no,no,768,legacy,101,11,C:/Users/JHS6-EAGLE/Desktop/OpenSes Files/JS-subject-1.csv,legacy,4 6 5 8,Lentiform Loewenfeld,3.3.3,1,y,0,left,right,right,left,NA,left,NA,1850,3250,26462,459098,NA,1850,NA,2,legacy,4,1024,2,48000,-16,experiment,1,odd,4,1161161,559672,1162261,1164463,660321,1324,100573,NA,1166465,1168317,1163262,27787,1166465,1162258,1320,NA,Sternberg Task,112,74045,114,yes,102498.26086957,98.26086957,650.2434783,650.2434783,black,experiment,legacy,legacy,legacy,0,uniform,1,undefined,1,right,114,0,114,114,114,0,0,0,114,114,114,0,114,114,0,NA,Sun Oct 18 19:08:55 2020,The main experiment item,yes,SternbergTask.osexp,C:/Users/JHS6-EAGLE/Desktop/OpenSes Files,no,mono,no,18,no,white,no,no,768,legacy,102,11,C:/Users/JHS6-EAGLE/Desktop/OpenSes Files/JS-subject-1.csv,legacy,2 8 9,Lentiform Loewenfeld,3.3.3,0,n,0,right,right,right,left,NA,right,NA,733,3250,26462,459098,NA,733,NA,2,legacy,3,1024,2,48000,-16,experiment,1,odd,6,1168322,559672,1169417,1171619,660321,1324,100573,NA,1173619,1174353,1170418,27787,1173619,1169415,1320,NA,Sternberg Task,113,74778,115,yes,102498.27586207,98.27586207,648.8275862,648.8275862,black,experiment,legacy,legacy,legacy,0,uniform,1,undefined,1,left,115,0,115,115,115,0,0,0,115,115,115,0,115,115,0,NA,Sun Oct 18 19:08:55 2020,The main experiment item,yes,SternbergTask.osexp,C:/Users/JHS6-EAGLE/Desktop/OpenSes Files,no,mono,no,18,no,white,no,no,768,legacy,103,11,C:/Users/JHS6-EAGLE/Desktop/OpenSes Files/JS-subject-1.csv,legacy,6 9 7 4 5 1,Lentiform Loewenfeld,3.3.3,2,y,0,left,right,right,left,NA,left,NA,486,3250,26462,459098,NA,486,NA,2,legacy,6,1024,2,48000,-16,experiment,1,odd,9,1174358,559672,1175459,1177669,660321,1324,100573,NA,1179670,1180157,1176464,27787,1179670,1175457,1320,NA,Sternberg Task,114,75264,116,yes,102498.29059829,98.29059829,647.7264957,647.7264957,black,experiment,legacy,legacy,legacy,0,uniform,1,undefined,1,left,116,0,116,116,116,0,0,0,116,116,116,0,116,116,0,NA,Sun Oct 18 19:08:55 2020,The main experiment item,yes,SternbergTask.osexp,C:/Users/JHS6-EAGLE/Desktop/OpenSes Files,no,mono,no,18,no,white,no,no,768,legacy,104,11,C:/Users/JHS6-EAGLE/Desktop/OpenSes Files/JS-subject-1.csv,legacy,1 4 9 3 2 5,Lentiform Loewenfeld,3.3.3,3,y,0,left,right,right,left,NA,left,NA,520,3250,26462,459098,NA,520,NA,2,legacy,6,1024,2,48000,-16,experiment,1,odd,9,1180161,559672,1181234,1183440,660321,1324,100573,NA,1185441,1185963,1182235,27787,1185441,1181233,1320,NA,Sternberg Task,115,75784,117,yes,102497.45762712,97.45762712,646.8728814,646.8728814,black,experiment,legacy,legacy,legacy,0,uniform,0,undefined,0,left,117,0,117,117,117,0,0,0,117,117,117,0,117,117,0,NA,Sun Oct 18 19:08:55 2020,The main experiment item,yes,SternbergTask.osexp,C:/Users/JHS6-EAGLE/Desktop/OpenSes Files,no,mono,no,18,no,white,no,no,768,legacy,105,11,C:/Users/JHS6-EAGLE/Desktop/OpenSes Files/JS-subject-1.csv,legacy,9 3 1 2 5,Lentiform Loewenfeld,3.3.3,4,y,0,right,right,right,left,NA,right,NA,547,3250,26462,459098,NA,547,NA,2,legacy,5,1024,2,48000,-16,experiment,1,odd,2,1185966,559672,1187040,1189242,660321,1324,100573,NA,1191243,1191792,1188041,27787,1191243,1187038,1320,NA,Sternberg Task,115,76331,118,yes,102497.4789916,97.4789916,649.2857143,649.2857143,black,experiment,legacy,legacy,legacy,0,uniform,1,undefined,1,right,118,0,118,118,118,0,0,0,118,118,118,0,118,118,0,NA,Sun Oct 18 19:08:55 2020,The main experiment item,yes,SternbergTask.osexp,C:/Users/JHS6-EAGLE/Desktop/OpenSes Files,no,mono,no,18,no,white,no,no,768,legacy,106,11,C:/Users/JHS6-EAGLE/Desktop/OpenSes Files/JS-subject-1.csv,legacy,6 7 5 9,Lentiform Loewenfeld,3.3.3,0,n,0,right,left,right,left,NA,right,NA,934,3088,26462,459098,NA,934,NA,2,legacy,4,1024,2,48000,-16,experiment,1,odd,2,1185966,559672,1195002,1197204,1191800,1324,100573,NA,1199206,1200141,1196003,27787,1199205,1194998,1320,NA,Sternberg Task,116,77265,119,yes,102497.5,97.5,647.8666667,647.8666667,black,experiment,legacy,legacy,legacy,0,uniform,1,undefined,1,right,119,0,119,119,119,0,0,0,119,119,119,0,119,119,0,NA,Sun Oct 18 19:08:55 2020,The main experiment item,yes,SternbergTask.osexp,C:/Users/JHS6-EAGLE/Desktop/OpenSes Files,no,mono,no,18,no,white,no,no,768,legacy,107,11,C:/Users/JHS6-EAGLE/Desktop/OpenSes Files/JS-subject-1.csv,legacy,7 9,Lentiform Loewenfeld,3.3.3,0,n,0,right,left,right,left,NA,right,NA,479,3088,26462,459098,NA,479,NA,2,legacy,2,1024,2,48000,-16,experiment,1,odd,1,1200150,559672,1201238,1203443,1191800,1324,100573,NA,1205444,1205924,1202238,27787,1205444,1201237,1320,NA,Sternberg Task,117,77744,120,yes,102497.52066116,97.52066116,647.0743802,647.0743802,black,experiment,legacy,legacy,legacy,0,uniform,1,undefined,1,right,120,0,120,120,120,0,0,0,120,120,120,0,120,120,0,NA,Sun Oct 18 19:08:55 2020,The main experiment item,yes,SternbergTask.osexp,C:/Users/JHS6-EAGLE/Desktop/OpenSes Files,no,mono,no,18,no,white,no,no,768,legacy,108,11,C:/Users/JHS6-EAGLE/Desktop/OpenSes Files/JS-subject-1.csv,legacy,2 6 4 3 9,Lentiform Loewenfeld,3.3.3,0,n,0,right,left,right,left,NA,right,NA,552,3088,26462,459098,NA,552,NA,2,legacy,5,1024,2,48000,-16,experiment,1,odd,1,1205929,559672,1207003,1209208,1191800,1324,100573,NA,1211209,1211762,1208007,27787,1211209,1207001,1320,NA,Sternberg Task,118,78296,121,yes,102497.54098361,97.54098361,648.1065574,648.1065574,black,experiment,legacy,legacy,legacy,0,uniform,1,undefined,1,left,121,0,121,121,121,0,0,0,121,121,121,0,121,121,0,NA,Sun Oct 18 19:08:55 2020,The main experiment item,yes,SternbergTask.osexp,C:/Users/JHS6-EAGLE/Desktop/OpenSes Files,no,mono,no,18,no,white,no,no,768,legacy,109,11,C:/Users/JHS6-EAGLE/Desktop/OpenSes Files/JS-subject-1.csv,legacy,4 7 6 8 2 3,Lentiform Loewenfeld,3.3.3,6,y,0,left,left,right,left,NA,left,NA,773,3088,26462,459098,NA,773,NA,2,legacy,6,1024,2,48000,-16,experiment,1,odd,3,1211766,559672,1212848,1215050,1191800,1324,100573,NA,1217051,1217825,1213849,27787,1217051,1212846,1320,NA,Sternberg Task,119,79069,122,yes,102497.56097561,97.56097561,645.9918699,645.9918699,black,experiment,legacy,legacy,legacy,0,uniform,1,undefined,1,left,122,0,122,122,122,0,0,0,122,122,122,0,122,122,0,NA,Sun Oct 18 19:08:55 2020,The main experiment item,yes,SternbergTask.osexp,C:/Users/JHS6-EAGLE/Desktop/OpenSes Files,no,mono,no,18,no,white,no,no,768,legacy,110,11,C:/Users/JHS6-EAGLE/Desktop/OpenSes Files/JS-subject-1.csv,legacy,9 5 3 8 4,Lentiform Loewenfeld,3.3.3,1,y,0,left,left,right,left,NA,left,NA,388,3088,26462,459098,NA,388,NA,2,legacy,5,1024,2,48000,-16,experiment,1,odd,9,1217831,559672,1218906,1221115,1191800,1324,100573,NA,1223116,1223506,1219910,27787,1223116,1218904,1320,NA,Sternberg Task,120,79457,123,yes,102497.58064516,97.58064516,644.9758065,644.9758065,black,experiment,legacy,legacy,legacy,0,uniform,1,undefined,1,right,123,0,123,123,123,0,0,0,123,123,123,0,123,123,0,NA,Sun Oct 18 19:08:55 2020,The main experiment item,yes,SternbergTask.osexp,C:/Users/JHS6-EAGLE/Desktop/OpenSes Files,no,mono,no,18,no,white,no,no,768,legacy,111,11,C:/Users/JHS6-EAGLE/Desktop/OpenSes Files/JS-subject-1.csv,legacy,9 8 2 7 4,Lentiform Loewenfeld,3.3.3,0,n,0,right,left,right,left,NA,right,NA,520,3088,26462,459098,NA,520,NA,2,legacy,5,1024,2,48000,-16,experiment,1,odd,5,1223519,559672,1224595,1226797,1191800,1324,100573,NA,1228798,1229319,1225596,27787,1228798,1224594,1320,NA,Sternberg Task,121,79977,124,yes,102497.6,97.6,646.152,646.152,black,experiment,legacy,legacy,legacy,0,uniform,1,undefined,1,right,124,0,124,124,124,0,0,0,124,124,124,0,124,124,0,NA,Sun Oct 18 19:08:55 2020,The main experiment item,yes,SternbergTask.osexp,C:/Users/JHS6-EAGLE/Desktop/OpenSes Files,no,mono,no,18,no,white,no,no,768,legacy,112,11,C:/Users/JHS6-EAGLE/Desktop/OpenSes Files/JS-subject-1.csv,legacy,9 7 4 5 8,Lentiform Loewenfeld,3.3.3,0,n,0,right,left,right,left,NA,right,NA,792,3088,26462,459098,NA,792,NA,2,legacy,5,1024,2,48000,-16,experiment,1,odd,6,1229324,559672,1230396,1232600,1191800,1324,100573,NA,1234603,1235396,1231398,27787,1234602,1230395,1320,NA,Sternberg Task,122,80769,125,yes,102497.61904762,97.61904762,647.6984127,647.6984127,black,experiment,legacy,legacy,legacy,0,uniform,1,undefined,1,right,125,0,125,125,125,0,0,0,125,125,125,0,125,125,0,NA,Sun Oct 18 19:08:55 2020,The main experiment item,yes,SternbergTask.osexp,C:/Users/JHS6-EAGLE/Desktop/OpenSes Files,no,mono,no,18,no,white,no,no,768,legacy,113,11,C:/Users/JHS6-EAGLE/Desktop/OpenSes Files/JS-subject-1.csv,legacy,8 6 3 4 7,Lentiform Loewenfeld,3.3.3,0,n,0,right,left,right,left,NA,right,NA,841,3088,26462,459098,NA,841,NA,2,legacy,5,1024,2,48000,-16,experiment,1,odd,1,1235402,559672,1236492,1238698,1191800,1324,100573,NA,1240702,1241544,1237493,27787,1240702,1236489,1320,NA,Sternberg Task,123,81610,126,yes,102497.63779528,97.63779528,646.1574803,646.1574803,black,experiment,legacy,legacy,legacy,0,uniform,1,undefined,1,left,126,0,126,126,126,0,0,0,126,126,126,0,126,126,0,NA,Sun Oct 18 19:08:55 2020,The main experiment item,yes,SternbergTask.osexp,C:/Users/JHS6-EAGLE/Desktop/OpenSes Files,no,mono,no,18,no,white,no,no,768,legacy,114,11,C:/Users/JHS6-EAGLE/Desktop/OpenSes Files/JS-subject-1.csv,legacy,2 3,Lentiform Loewenfeld,3.3.3,1,y,0,left,left,right,left,NA,left,NA,452,3088,26462,459098,NA,452,NA,2,legacy,2,1024,2,48000,-16,experiment,1,odd,2,1241549,559672,1242639,1244841,1191800,1324,100573,NA,1246842,1247295,1243640,27787,1246842,1242637,1320,NA,Sternberg Task,124,82062,127,yes,102497.65625,97.65625,646.421875,646.421875,black,experiment,legacy,legacy,legacy,0,uniform,1,undefined,1,left,127,0,127,127,127,0,0,0,127,127,127,0,127,127,0,NA,Sun Oct 18 19:08:55 2020,The main experiment item,yes,SternbergTask.osexp,C:/Users/JHS6-EAGLE/Desktop/OpenSes Files,no,mono,no,18,no,white,no,no,768,legacy,115,11,C:/Users/JHS6-EAGLE/Desktop/OpenSes Files/JS-subject-1.csv,legacy,3 9 6 2,Lentiform Loewenfeld,3.3.3,4,y,0,left,left,right,left,NA,left,NA,680,3088,26462,459098,NA,680,NA,2,legacy,4,1024,2,48000,-16,experiment,1,odd,2,1247301,559672,1248373,1250575,1191800,1324,100573,NA,1252576,1253257,1249374,27787,1252576,1248372,1320,NA,Sternberg Task,125,82742,128,yes,102497.6744186,97.6744186,645.5581395,645.5581395,black,experiment,legacy,legacy,legacy,0,uniform,1,undefined,1,left,128,0,128,128,128,0,0,0,128,128,128,0,128,128,0,NA,Sun Oct 18 19:08:55 2020,The main experiment item,yes,SternbergTask.osexp,C:/Users/JHS6-EAGLE/Desktop/OpenSes Files,no,mono,no,18,no,white,no,no,768,legacy,116,11,C:/Users/JHS6-EAGLE/Desktop/OpenSes Files/JS-subject-1.csv,legacy,7 4 2 6 3 5,Lentiform Loewenfeld,3.3.3,6,y,0,left,left,right,left,NA,left,NA,535,3088,26462,459098,NA,535,NA,2,legacy,6,1024,2,48000,-16,experiment,1,odd,5,1253264,559672,1254340,1256544,1191800,1324,100573,NA,1258544,1259081,1255342,27787,1258544,1254338,1320,NA,Sternberg Task,126,83277,129,yes,102497.69230769,97.69230769,645.5769231,645.5769231,black,experiment,legacy,legacy,legacy,0,uniform,1,undefined,1,right,129,0,129,129,129,0,0,0,129,129,129,0,129,129,0,NA,Sun Oct 18 19:08:55 2020,The main experiment item,yes,SternbergTask.osexp,C:/Users/JHS6-EAGLE/Desktop/OpenSes Files,no,mono,no,18,no,white,no,no,768,legacy,117,11,C:/Users/JHS6-EAGLE/Desktop/OpenSes Files/JS-subject-1.csv,legacy,1 6 4,Lentiform Loewenfeld,3.3.3,0,n,0,right,left,right,left,NA,right,NA,648,3088,26462,459098,NA,648,NA,2,legacy,3,1024,2,48000,-16,experiment,1,odd,7,1259086,559672,1260159,1262361,1191800,1324,100573,NA,1264363,1265013,1261160,27787,1264363,1260158,1320,NA,Sternberg Task,127,83925,130,yes,102497.70992366,97.70992366,646,646,black,experiment,legacy,legacy,legacy,0,uniform,1,undefined,1,right,130,0,130,130,130,0,0,0,130,130,130,0,130,130,0,NA,Sun Oct 18 19:08:55 2020,The main experiment item,yes,SternbergTask.osexp,C:/Users/JHS6-EAGLE/Desktop/OpenSes Files,no,mono,no,18,no,white,no,no,768,legacy,118,11,C:/Users/JHS6-EAGLE/Desktop/OpenSes Files/JS-subject-1.csv,legacy,1 4 9 3,Lentiform Loewenfeld,3.3.3,0,n,0,right,left,right,left,NA,right,NA,701,3088,26462,459098,NA,701,NA,2,legacy,4,1024,2,48000,-16,experiment,1,odd,5,1265027,559672,1266100,1268306,1191800,1324,100573,NA,1270311,1271013,1267105,27787,1270311,1266098,1320,NA,Sternberg Task,128,84626,131,yes,102497.72727273,97.72727273,646.8409091,646.8409091,black,experiment,legacy,legacy,legacy,0,uniform,1,undefined,1,left,131,0,131,131,131,0,0,0,131,131,131,0,131,131,0,NA,Sun Oct 18 19:08:55 2020,The main experiment item,yes,SternbergTask.osexp,C:/Users/JHS6-EAGLE/Desktop/OpenSes Files,no,mono,no,18,no,white,no,no,768,legacy,119,11,C:/Users/JHS6-EAGLE/Desktop/OpenSes Files/JS-subject-1.csv,legacy,8 9 6 1,Lentiform Loewenfeld,3.3.3,2,y,0,left,left,right,left,NA,left,NA,757,3088,26462,459098,NA,757,NA,2,legacy,4,1024,2,48000,-16,experiment,1,odd,9,1271024,559672,1272097,1274300,1191800,1324,100573,NA,1276301,1277059,1273099,27787,1276301,1272096,1320,NA,Sternberg Task,129,85383,132,yes,102497.7443609,97.7443609,647.481203,647.481203,black,experiment,legacy,legacy,legacy,0,uniform,1,undefined,1,right,132,0,132,132,132,0,0,0,132,132,132,0,132,132,0,NA,Sun Oct 18 19:08:55 2020,The main experiment item,yes,SternbergTask.osexp,C:/Users/JHS6-EAGLE/Desktop/OpenSes Files,no,mono,no,18,no,white,no,no,768,legacy,120,11,C:/Users/JHS6-EAGLE/Desktop/OpenSes Files/JS-subject-1.csv,legacy,1 3 2 6 9,Lentiform Loewenfeld,3.3.3,0,n,0,right,left,right,left,NA,right,NA,732,3088,26462,459098,NA,732,NA,2,legacy,5,1024,2,48000,-16,experiment,1,odd,5,1277064,559672,1278166,1280369,1191800,1324,100573,NA,1282370,1283104,1279167,27787,1282370,1278165,1320,NA,Sternberg Task,130,86115,133,yes,102497.76119403,97.76119403,648.119403,648.119403,black,experiment,legacy,legacy,legacy,0,uniform,1,undefined,1,left,133,0,133,133,133,0,0,0,133,133,133,0,133,133,0,NA,Sun Oct 18 19:08:55 2020,The main experiment item,yes,SternbergTask.osexp,C:/Users/JHS6-EAGLE/Desktop/OpenSes Files,no,mono,no,18,no,white,no,no,768,legacy,121,11,C:/Users/JHS6-EAGLE/Desktop/OpenSes Files/JS-subject-1.csv,legacy,8 5 3 7 4 6,Lentiform Loewenfeld,3.3.3,6,y,0,left,left,right,left,NA,left,NA,733,3088,26462,459098,NA,733,NA,2,legacy,6,1024,2,48000,-16,experiment,1,odd,6,1283109,559672,1284184,1286390,1191800,1324,100573,NA,1288391,1289125,1285185,27787,1288391,1284182,1320,NA,Sternberg Task,131,86848,134,yes,102497.77777778,97.77777778,645.8740741,645.8740741,black,experiment,legacy,legacy,legacy,0,uniform,1,undefined,1,left,134,0,134,134,134,0,0,0,134,134,134,0,134,134,0,NA,Sun Oct 18 19:08:55 2020,The main experiment item,yes,SternbergTask.osexp,C:/Users/JHS6-EAGLE/Desktop/OpenSes Files,no,mono,no,18,no,white,no,no,768,legacy,122,11,C:/Users/JHS6-EAGLE/Desktop/OpenSes Files/JS-subject-1.csv,legacy,3 5 4 7,Lentiform Loewenfeld,3.3.3,1,y,0,left,left,right,left,NA,left,NA,345,3088,26462,459098,NA,345,NA,2,legacy,4,1024,2,48000,-16,experiment,1,odd,3,1289130,559672,1290206,1292408,1191800,1324,100573,NA,1294409,1294756,1291207,27787,1294409,1290204,1320,NA,Sternberg Task,132,87193,135,yes,102497.79411765,97.79411765,643.6544118,643.6544118,black,experiment,legacy,legacy,legacy,0,uniform,1,undefined,1,left,135,0,135,135,135,0,0,0,135,135,135,0,135,135,0,NA,Sun Oct 18 19:08:55 2020,The main experiment item,yes,SternbergTask.osexp,C:/Users/JHS6-EAGLE/Desktop/OpenSes Files,no,mono,no,18,no,white,no,no,768,legacy,123,11,C:/Users/JHS6-EAGLE/Desktop/OpenSes Files/JS-subject-1.csv,legacy,6 2,Lentiform Loewenfeld,3.3.3,1,y,0,left,left,right,left,NA,left,NA,344,3088,26462,459098,NA,344,NA,2,legacy,2,1024,2,48000,-16,experiment,1,odd,6,1294761,559672,1295834,1298036,1191800,1324,100573,NA,1300037,1300383,1296835,27787,1300037,1295833,1320,NA,Sternberg Task,133,87537,136,yes,102497.81021898,97.81021898,643.7883212,643.7883212,black,experiment,legacy,legacy,legacy,0,uniform,1,undefined,1,right,136,0,136,136,136,0,0,0,136,136,136,0,136,136,0,NA,Sun Oct 18 19:08:55 2020,The main experiment item,yes,SternbergTask.osexp,C:/Users/JHS6-EAGLE/Desktop/OpenSes Files,no,mono,no,18,no,white,no,no,768,legacy,124,11,C:/Users/JHS6-EAGLE/Desktop/OpenSes Files/JS-subject-1.csv,legacy,2 8 6 3 1,Lentiform Loewenfeld,3.3.3,0,n,0,right,left,right,left,NA,right,NA,662,3088,26462,459098,NA,662,NA,2,legacy,5,1024,2,48000,-16,experiment,1,odd,7,1300393,559672,1301467,1303669,1191800,1324,100573,NA,1305670,1306333,1302468,27787,1305670,1301465,1320,NA,Sternberg Task,134,88199,137,yes,102497.82608696,97.82608696,642.6594203,642.6594203,black,experiment,legacy,legacy,legacy,0,uniform,1,undefined,1,left,137,0,137,137,137,0,0,0,137,137,137,0,137,137,0,NA,Sun Oct 18 19:08:55 2020,The main experiment item,yes,SternbergTask.osexp,C:/Users/JHS6-EAGLE/Desktop/OpenSes Files,no,mono,no,18,no,white,no,no,768,legacy,125,11,C:/Users/JHS6-EAGLE/Desktop/OpenSes Files/JS-subject-1.csv,legacy,4 1 8 7 5,Lentiform Loewenfeld,3.3.3,3,y,0,left,left,right,left,NA,left,NA,488,3088,26462,459098,NA,488,NA,2,legacy,5,1024,2,48000,-16,experiment,1,odd,8,1306344,559672,1307418,1309620,1191800,1324,100573,NA,1311621,1312110,1308419,27787,1311621,1307417,1320,NA,Sternberg Task,135,88687,138,yes,1024