"acc","accuracy","average_response_time","avg_rt","background","block","canvas_backend","clock_backend","color_backend","compensation","coordinates","correct","correct_instruction1","correct_new_keyboard_response","correct_response","count_ISI","count_correctFeedback","count_expSequence","count_experiment","count_experimentLoop","count_fixation","count_incorrectFeedback","count_instruction1","count_instructions2","count_logger","count_memorySet","count_new_keyboard_response","count_practiceLoop","count_probe","count_thankYou","datetime","description","disable_garbage_collection","experiment_file","experiment_path","font_bold","font_family","font_italic","font_size","font_underline","foreground","form_clicks","fullscreen","height","keyboard_backend","live_row","live_row_practiceLoop","logfile","mouse_backend","numberSet","opensesame_codename","opensesame_version","posInSet","present","repeat_cycle","response","response_instruction1","response_instructions2","response_new_keyboard_response","response_thankYou","response_time","response_time_instruction1","response_time_instructions2","response_time_new_keyboard_response","response_time_thankYou","round_decimals","sampler_backend","setSize","sound_buf_size","sound_channels","sound_freq","sound_sample_size","start","subject_nr","subject_parity","target","time_ISI","time_correctFeedback","time_expSequence","time_experiment","time_experimentLoop","time_fixation","time_incorrectFeedback","time_instruction1","time_instructions2","time_logger","time_memorySet","time_new_keyboard_response","time_practiceLoop","time_probe","time_thankYou","title","total_correct","total_response_time","total_responses","uniform_coordinates","width"
"0","0","814","814","black","practice","legacy","legacy","legacy","0","uniform","0","undefined","0","left","0","0","0","0","0","0","0","0","0","0","0","0","0","0","0","Sun Oct 25 16:56:41 2020","The main experiment item","yes","Sternbergtask oct 19.osexp","/Users/shelia/Desktop","no","mono","no","18","no","white","no","yes","768","legacy","0","0","/Users/shelia/Desktop/ST-subject-2 Oct 25.csv","legacy","1 7 9 8 5","Lentiform Loewenfeld","3.3.3","4","y","0","right","return","NA","right","NA","814","8496","NA","814","NA","2","legacy","5","1024","2","48000","-16","experiment","2","even","8","13697","NA","11438","2646","NA","11452","NA","2661","NA","16531","12474","15717","11171","15717","NA","Sternberg task","0","814","1","yes","1024"
"50","50","962.5","962.5","black","practice","legacy","legacy","legacy","0","uniform","1","undefined","1","left","1","1","1","0","0","1","1","0","0","1","1","1","0","1","0","Sun Oct 25 16:56:41 2020","The main experiment item","yes","Sternbergtask oct 19.osexp","/Users/shelia/Desktop","no","mono","no","18","no","white","no","yes","768","legacy","1","1","/Users/shelia/Desktop/ST-subject-2 Oct 25.csv","legacy","4 3 1 7 9 8","Lentiform Loewenfeld","3.3.3","1","y","0","left","return","NA","left","NA","1111","8496","NA","1111","NA","2","legacy","6","1024","2","48000","-16","experiment","2","even","4","19913","NA","17653","2646","NA","17670","16570","2661","NA","23044","18690","21932","11171","21931","NA","Sternberg task","1","1925","2","yes","1024"
"66.66666666666667","66.66666666666667","898.3333333333334","898.3333333333334","black","practice","legacy","legacy","legacy","0","uniform","1","undefined","1","left","2","2","2","0","0","2","2","0","0","2","2","2","0","2","0","Sun Oct 25 16:56:41 2020","The main experiment item","yes","Sternbergtask oct 19.osexp","/Users/shelia/Desktop","no","mono","no","18","no","white","no","yes","768","legacy","2","2","/Users/shelia/Desktop/ST-subject-2 Oct 25.csv","legacy","2 9 4","Lentiform Loewenfeld","3.3.3","3","y","0","left","return","NA","left","NA","770","8496","NA","770","NA","2","legacy","3","1024","2","48000","-16","experiment","2","even","4","26377","23058","24122","2646","NA","24135","16570","2661","NA","29167","25155","28396","11171","28396","NA","Sternberg task","2","2695","3","yes","1024"
"75","75","886.5","886.5","black","practice","legacy","legacy","legacy","0","uniform","1","undefined","1","right","3","3","3","0","0","3","3","0","0","3","3","3","0","3","0","Sun Oct 25 16:56:41 2020","The main experiment item","yes","Sternbergtask oct 19.osexp","/Users/shelia/Desktop","no","mono","no","18","no","white","no","yes","768","legacy","3","3","/Users/shelia/Desktop/ST-subject-2 Oct 25.csv","legacy","9 6 7 4 5","Lentiform Loewenfeld","3.3.3","0","n","0","right","return","NA","right","NA","851","8496","NA","851","NA","2","legacy","5","1024","2","48000","-16","experiment","2","even","3","32502","29182","30244","2646","NA","30256","16570","2661","NA","35374","31278","34523","11171","34523","NA","Sternberg task","3","3546","4","yes","1024"
"80","80","747.6","747.6","black","practice","legacy","legacy","legacy","0","uniform","1","undefined","1","left","4","4","4","0","0","4","4","0","0","4","4","4","0","4","0","Sun Oct 25 16:56:41 2020","The main experiment item","yes","Sternbergtask oct 19.osexp","/Users/shelia/Desktop","no","mono","no","18","no","white","no","yes","768","legacy","4","4","/Users/shelia/Desktop/ST-subject-2 Oct 25.csv","legacy","1 5 2 9","Lentiform Loewenfeld","3.3.3","2","y","0","left","return","NA","left","NA","192","8496","NA","192","NA","2","legacy","4","1024","2","48000","-16","experiment","2","even","5","38707","35390","36451","2646","NA","36465","16570","2661","NA","40918","37484","40726","11171","40726","NA","Sternberg task","4","3738","5","yes","1024"
"83.33333333333333","83.33333333333333","733.5","733.5","black","practice","legacy","legacy","legacy","0","uniform","1","undefined","1","right","5","5","5","0","0","5","5","0","0","5","5","5","0","5","0","Sun Oct 25 16:56:41 2020","The main experiment item","yes","Sternbergtask oct 19.osexp","/Users/shelia/Desktop","no","mono","no","18","no","white","no","yes","768","legacy","5","5","/Users/shelia/Desktop/ST-subject-2 Oct 25.csv","legacy","2 1","Lentiform Loewenfeld","3.3.3","0","n","0","right","return","NA","right","NA","663","8496","NA","663","NA","2","legacy","2","1024","2","48000","-16","experiment","2","even","5","44251","40933","41995","2646","NA","42007","16570","2661","NA","46934","43029","46270","11171","46270","NA","Sternberg task","5","4401","6","yes","1024"
"71.42857142857143","71.42857142857143","696.5714285714286","696.5714285714286","black","practice","legacy","legacy","legacy","0","uniform","0","undefined","0","right","6","6","6","0","0","6","6","0","0","6","6","6","0","6","0","Sun Oct 25 16:56:41 2020","The main experiment item","yes","Sternbergtask oct 19.osexp","/Users/shelia/Desktop","no","mono","no","18","no","white","no","yes","768","legacy","6","6","/Users/shelia/Desktop/ST-subject-2 Oct 25.csv","legacy","3 1 9 4","Lentiform Loewenfeld","3.3.3","0","n","0","left","return","NA","left","NA","475","8496","NA","475","NA","2","legacy","4","1024","2","48000","-16","experiment","2","even","6","50268","46950","48012","2646","NA","48025","16570","2661","NA","52762","49046","52287","11171","52287","NA","Sternberg task","5","4876","7","yes","1024"
"75","75","700.5","700.5","black","practice","legacy","legacy","legacy","0","uniform","1","undefined","1","right","7","7","7","0","0","7","7","0","0","7","7","7","0","7","0","Sun Oct 25 16:56:41 2020","The main experiment item","yes","Sternbergtask oct 19.osexp","/Users/shelia/Desktop","no","mono","no","18","no","white","no","yes","768","legacy","7","7","/Users/shelia/Desktop/ST-subject-2 Oct 25.csv","legacy","5","Lentiform Loewenfeld","3.3.3","0","n","0","right","return","NA","right","NA","728","8496","NA","728","NA","2","legacy","1","1024","2","48000","-16","experiment","2","even","3","56097","46950","53841","2646","NA","53854","52778","2661","NA","58846","54875","58117","11171","58117","NA","Sternberg task","6","5604","8","yes","1024"
"77.77777777777777","77.77777777777777","688.7777777777778","688.7777777777778","black","practice","legacy","legacy","legacy","0","uniform","1","undefined","1","right","8","8","8","0","0","8","8","0","0","8","8","8","0","8","0","Sun Oct 25 16:56:41 2020","The main experiment item","yes","Sternbergtask oct 19.osexp","/Users/shelia/Desktop","no","mono","no","18","no","white","no","yes","768","legacy","8","8","/Users/shelia/Desktop/ST-subject-2 Oct 25.csv","legacy","4 1 5","Lentiform Loewenfeld","3.3.3","0","n","0","right","return","NA","right","NA","595","8496","NA","595","NA","2","legacy","3","1024","2","48000","-16","experiment","2","even","2","62182","58861","59925","2646","NA","59938","52778","2661","NA","64796","60959","64201","11171","64201","NA","Sternberg task","7","6199","9","yes","1024"
"80","80","746.6","746.6","black","practice","legacy","legacy","legacy","0","uniform","1","undefined","1","left","9","9","9","0","0","9","9","0","0","9","9","9","0","9","0","Sun Oct 25 16:56:41 2020","The main experiment item","yes","Sternbergtask oct 19.osexp","/Users/shelia/Desktop","no","mono","no","18","no","white","no","yes","768","legacy","9","9","/Users/shelia/Desktop/ST-subject-2 Oct 25.csv","legacy","6","Lentiform Loewenfeld","3.3.3","1","y","0","left","return","NA","left","NA","1267","8496","NA","1267","NA","2","legacy","1","1024","2","48000","-16","experiment","2","even","6","68131","64811","65875","2646","NA","65888","52778","2661","NA","71419","66909","70151","11171","70151","NA","Sternberg task","8","7466","10","yes","1024"
"72.72727272727273","72.72727272727273","707.9090909090909","707.9090909090909","black","practice","legacy","legacy","legacy","0","uniform","0","undefined","0","left","10","10","10","0","0","10","10","0","0","10","10","10","0","10","0","Sun Oct 25 16:56:41 2020","The main experiment item","yes","Sternbergtask oct 19.osexp","/Users/shelia/Desktop","no","mono","no","18","no","white","no","yes","768","legacy","10","10","/Users/shelia/Desktop/ST-subject-2 Oct 25.csv","legacy","4 8","Lentiform Loewenfeld","3.3.3","1","y","0","right","return","NA","right","NA","321","8496","NA","321","NA","2","legacy","2","1024","2","48000","-16","experiment","2","even","4","74752","71434","72496","2646","NA","72509","52778","2661","NA","77092","73529","76771","11171","76771","NA","Sternberg task","8","7787","11","yes","1024"
"75","75","714.5833333333334","714.5833333333334","black","practice","legacy","legacy","legacy","0","uniform","1","undefined","1","right","11","11","11","0","0","11","11","0","0","11","11","11","0","11","0","Sun Oct 25 16:56:41 2020","The main experiment item","yes","Sternbergtask oct 19.osexp","/Users/shelia/Desktop","no","mono","no","18","no","white","no","yes","768","legacy","11","11","/Users/shelia/Desktop/ST-subject-2 Oct 25.csv","legacy","5 7 8 4 1 2","Lentiform Loewenfeld","3.3.3","0","n","0","right","return","NA","right","NA","788","8496","NA","788","NA","2","legacy","6","1024","2","48000","-16","experiment","2","even","6","80428","71434","78171","2646","NA","78184","77107","2661","NA","83237","79204","82448","11171","82447","NA","Sternberg task","9","8575","12","yes","1024"
"69.23076923076923","69.23076923076923","717.6923076923077","717.6923076923077","black","experiment","legacy","legacy","legacy","0","uniform","0","undefined","0","left","12","12","12","0","0","12","12","0","0","12","12","12","0","12","0","Sun Oct 25 16:56:41 2020","The main experiment item","yes","Sternbergtask oct 19.osexp","/Users/shelia/Desktop","no","mono","no","18","no","white","no","yes","768","legacy","0","11","/Users/shelia/Desktop/ST-subject-2 Oct 25.csv","legacy","7 4 2 6 3 5","Lentiform Loewenfeld","3.3.3","6","y","0","right","return","left","right","NA","755","8496","4846","755","NA","2","legacy","6","1024","2","48000","-16","experiment","2","even","5","91449","83251","89192","2646","89146","89205","77107","2661","84299","94225","90226","93469","11171","93469","NA","Sternberg task","9","9330","13","yes","1024"
"71.42857142857143","71.42857142857143","721.8571428571429","721.8571428571429","black","experiment","legacy","legacy","legacy","0","uniform","1","undefined","1","right","13","13","13","0","0","13","13","0","0","13","13","13","0","13","0","Sun Oct 25 16:56:41 2020","The main experiment item","yes","Sternbergtask oct 19.osexp","/Users/shelia/Desktop","no","mono","no","18","no","white","no","yes","768","legacy","1","11","/Users/shelia/Desktop/ST-subject-2 Oct 25.csv","legacy","6 7 5 9","Lentiform Loewenfeld","3.3.3","0","n","0","right","return","left","right","NA","776","8496","4846","776","NA","2","legacy","4","1024","2","48000","-16","experiment","2","even","2","97560","83251","95303","2646","89146","95316","94239","2661","84299","100356","96337","99579","11171","99579","NA","Sternberg task","10","10106","14","yes","1024"
"73.33333333333333","73.33333333333333","736.1333333333333","736.1333333333333","black","experiment","legacy","legacy","legacy","0","uniform","1","undefined","1","left","14","14","14","0","0","14","14","0","0","14","14","14","0","14","0","Sun Oct 25 16:56:41 2020","The main experiment item","yes","Sternbergtask oct 19.osexp","/Users/shelia/Desktop","no","mono","no","18","no","white","no","yes","768","legacy","2","11","/Users/shelia/Desktop/ST-subject-2 Oct 25.csv","legacy","8 5 3 7 4 6","Lentiform Loewenfeld","3.3.3","6","y","0","left","return","left","left","NA","936","8496","4846","936","NA","2","legacy","6","1024","2","48000","-16","experiment","2","even","6","103687","100371","101429","2646","89146","101443","94239","2661","84299","106644","102465","105707","11171","105707","NA","Sternberg task","11","11042","15","yes","1024"
"75","75","745.9375","745.9375","black","experiment","legacy","legacy","legacy","0","uniform","1","undefined","1","left","15","15","15","0","0","15","15","0","0","15","15","15","0","15","0","Sun Oct 25 16:56:41 2020","The main experiment item","yes","Sternbergtask oct 19.osexp","/Users/shelia/Desktop","no","mono","no","18","no","white","no","yes","768","legacy","3","11","/Users/shelia/Desktop/ST-subject-2 Oct 25.csv","legacy","7 8 6 3 1","Lentiform Loewenfeld","3.3.3","5","y","0","left","return","left","left","NA","893","8496","4846","893","NA","2","legacy","5","1024","2","48000","-16","experiment","2","even","1","109977","106659","107720","2646","89146","107733","94239","2661","84299","112889","108754","111996","11171","111996","NA","Sternberg task","12","11935","16","yes","1024"
"76.47058823529412","76.47058823529412","777.6470588235294","777.6470588235294","black","experiment","legacy","legacy","legacy","0","uniform","1","undefined","1","left","16","16","16","0","0","16","16","0","0","16","16","16","0","16","0","Sun Oct 25 16:56:41 2020","The main experiment item","yes","Sternbergtask oct 19.osexp","/Users/shelia/Desktop","no","mono","no","18","no","white","no","yes","768","legacy","4","11","/Users/shelia/Desktop/ST-subject-2 Oct 25.csv","legacy","6 7 8 5","Lentiform Loewenfeld","3.3.3","3","y","0","left","return","left","left","NA","1285","8496","4846","1285","NA","2","legacy","4","1024","2","48000","-16","experiment","2","even","8","116218","112905","113963","2646","89146","113976","94239","2661","84299","119523","114997","118238","11171","118238","NA","Sternberg task","13","13220","17","yes","1024"
"77.77777777777777","77.77777777777777","781","781","black","experiment","legacy","legacy","legacy","0","uniform","1","undefined","1","right","17","17","17","0","0","17","17","0","0","17","17","17","0","17","0","Sun Oct 25 16:56:41 2020","The main experiment item","yes","Sternbergtask oct 19.osexp","/Users/shelia/Desktop","no","mono","no","18","no","white","no","yes","768","legacy","5","11","/Users/shelia/Desktop/ST-subject-2 Oct 25.csv","legacy","8 9","Lentiform Loewenfeld","3.3.3","0","n","0","right","return","left","right","NA","838","8496","4846","838","NA","2","legacy","2","1024","2","48000","-16","experiment","2","even","5","122857","119539","120602","2646","89146","120615","94239","2661","84299","125715","121637","124877","11171","124876","NA","Sternberg task","14","14058","18","yes","1024"
"78.94736842105263","78.94736842105263","810.7894736842105","810.7894736842105","black","experiment","legacy","legacy","legacy","0","uniform","1","undefined","1","left","18","18","18","0","0","18","18","0","0","18","18","18","0","18","0","Sun Oct 25 16:56:41 2020","The main experiment item","yes","Sternbergtask oct 19.osexp","/Users/shelia/Desktop","no","mono","no","18","no","white","no","yes","768","legacy","6","11","/Users/shelia/Desktop/ST-subject-2 Oct 25.csv","legacy","9 6 2 4 1","Lentiform Loewenfeld","3.3.3","4","y","0","left","return","left","left","NA","1347","8496","4846","1347","NA","2","legacy","5","1024","2","48000","-16","experiment","2","even","4","129047","125730","126791","2646","89146","126804","94239","2661","84299","132414","127825","131066","11171","131066","NA","Sternberg task","15","15405","19","yes","1024"
"80","80","830.9","830.9","black","experiment","legacy","legacy","legacy","0","uniform","1","undefined","1","left","19","19","19","0","0","19","19","0","0","19","19","19","0","19","0","Sun Oct 25 16:56:41 2020","The main experiment item","yes","Sternbergtask oct 19.osexp","/Users/shelia/Desktop","no","mono","no","18","no","white","no","yes","768","legacy","7","11","/Users/shelia/Desktop/ST-subject-2 Oct 25.csv","legacy","4 7 6 8 2 3","Lentiform Loewenfeld","3.3.3","6","y","0","left","return","left","left","NA","1213","8496","4846","1213","NA","2","legacy","6","1024","2","48000","-16","experiment","2","even","3","135747","132429","133491","2646","89146","133504","94239","2661","84299","138981","134525","137767","11171","137767","NA","Sternberg task","16","16618","20","yes","1024"
"80.95238095238095","80.95238095238095","822.6190476190476","822.6190476190476","black","experiment","legacy","legacy","legacy","0","uniform","1","undefined","1","right","20","20","20","0","0","20","20","0","0","20","20","20","0","20","0","Sun Oct 25 16:56:41 2020","The main experiment item","yes","Sternbergtask oct 19.osexp","/Users/shelia/Desktop","no","mono","no","18","no","white","no","yes","768","legacy","8","11","/Users/shelia/Desktop/ST-subject-2 Oct 25.csv","legacy","1 4 9 3","Lentiform Loewenfeld","3.3.3","0","n","0","right","return","left","right","NA","657","8496","4846","657","NA","2","legacy","4","1024","2","48000","-16","experiment","2","even","5","142313","138996","140055","2646","89146","140069","94239","2661","84299","144990","141090","144332","11171","144332","NA","Sternberg task","17","17275","21","yes","1024"
"81.81818181818181","81.81818181818181","814.0454545454545","814.0454545454545","black","experiment","legacy","legacy","legacy","0","uniform","1","undefined","1","left","21","21","21","0","0","21","21","0","0","21","21","21","0","21","0","Sun Oct 25 16:56:41 2020","The main experiment item","yes","Sternbergtask oct 19.osexp","/Users/shelia/Desktop","no","mono","no","18","no","white","no","yes","768","legacy","9","11","/Users/shelia/Desktop/ST-subject-2 Oct 25.csv","legacy","6 2","Lentiform Loewenfeld","3.3.3","1","y","0","left","return","left","left","NA","634","8496","4846","634","NA","2","legacy","2","1024","2","48000","-16","experiment","2","even","6","148322","145004","146065","2646","89146","146078","94239","2661","84299","150975","147099","150341","11171","150341","NA","Sternberg task","18","17909","22","yes","1024"
"78.26086956521739","78.26086956521739","841.4347826086956","841.4347826086956","black","experiment","legacy","legacy","legacy","0","uniform","0","undefined","0","left","22","22","22","0","0","22","22","0","0","22","22","22","0","22","0","Sun Oct 25 16:56:41 2020","The main experiment item","yes","Sternbergtask oct 19.osexp","/Users/shelia/Desktop","no","mono","no","18","no","white","no","yes","768","legacy","10","11","/Users/shelia/Desktop/ST-subject-2 Oct 25.csv","legacy","6 5","Lentiform Loewenfeld","3.3.3","2","y","0","right","return","left","right","NA","1444","8496","4846","1444","NA","2","legacy","2","1024","2","48000","-16","experiment","2","even","5","154311","150991","152054","2646","89146","152067","94239","2661","84299","157775","153088","156330","11171","156330","NA","Sternberg task","18","19353","23","yes","1024"
"79.16666666666667","79.16666666666667","843.5833333333334","843.5833333333334","black","experiment","legacy","legacy","legacy","0","uniform","1","undefined","1","left","23","23","23","0","0","23","23","0","0","23","23","23","0","23","0","Sun Oct 25 16:56:41 2020","The main experiment item","yes","Sternbergtask oct 19.osexp","/Users/shelia/Desktop","no","mono","no","18","no","white","no","yes","768","legacy","11","11","/Users/shelia/Desktop/ST-subject-2 Oct 25.csv","legacy","2 4 8 5 1 3","Lentiform Loewenfeld","3.3.3","1","y","0","left","return","left","left","NA","893","8496","4846","893","NA","2","legacy","6","1024","2","48000","-16","experiment","2","even","2","161109","150991","158852","2646","89146","158866","157789","2661","84299","164022","159887","163128","11171","163128","NA","Sternberg task","19","20246","24","yes","1024"
"80","80","838","838","black","experiment","legacy","legacy","legacy","0","uniform","1","undefined","1","left","24","24","24","0","0","24","24","0","0","24","24","24","0","24","0","Sun Oct 25 16:56:41 2020","The main experiment item","yes","Sternbergtask oct 19.osexp","/Users/shelia/Desktop","no","mono","no","18","no","white","no","yes","768","legacy","12","11","/Users/shelia/Desktop/ST-subject-2 Oct 25.csv","legacy","6 9 3 1","Lentiform Loewenfeld","3.3.3","4","y","0","left","return","left","left","NA","704","8496","4846","704","NA","2","legacy","4","1024","2","48000","-16","experiment","2","even","1","167354","164036","165097","2646","89146","165110","157789","2661","84299","170077","166131","169373","11171","169373","NA","Sternberg task","20","20950","25","yes","1024"
"80.76923076923077","80.76923076923077","837.5384615384615","837.5384615384615","black","experiment","legacy","legacy","legacy","0","uniform","1","undefined","1","right","25","25","25","0","0","25","25","0","0","25","25","25","0","25","0","Sun Oct 25 16:56:41 2020","The main experiment item","yes","Sternbergtask oct 19.osexp","/Users/shelia/Desktop","no","mono","no","18","no","white","no","yes","768","legacy","13","11","/Users/shelia/Desktop/ST-subject-2 Oct 25.csv","legacy","7 9 1 6","Lentiform Loewenfeld","3.3.3","0","n","0","right","return","left","right","NA","826","8496","4846","826","NA","2","legacy","4","1024","2","48000","-16","experiment","2","even","4","173413","170092","171156","2646","89146","171169","157789","2661","84299","176260","172190","175433","11171","175433","NA","Sternberg task","21","21776","26","yes","1024"
"81.48148148148148","81.48148148148148","835.2962962962963","835.2962962962963","black","experiment","legacy","legacy","legacy","0","uniform","1","undefined","1","right","26","26","26","0","0","26","26","0","0","26","26","26","0","26","0","Sun Oct 25 16:56:41 2020","The main experiment item","yes","Sternbergtask oct 19.osexp","/Users/shelia/Desktop","no","mono","no","18","no","white","no","yes","768","legacy","14","11","/Users/shelia/Desktop/ST-subject-2 Oct 25.csv","legacy","4 1","Lentiform Loewenfeld","3.3.3","0","n","0","right","return","left","right","NA","777","8496","4846","777","NA","2","legacy","2","1024","2","48000","-16","experiment","2","even","6","179594","176274","177337","2646","89146","177350","157789","2661","84299","182391","178371","181613","11171","181613","NA","Sternberg task","22","22553","27","yes","1024"
"82.14285714285714","82.14285714285714","838.6428571428571","838.6428571428571","black","experiment","legacy","legacy","legacy","0","uniform","1","undefined","1","left","27","27","27","0","0","27","27","0","0","27","27","27","0","27","0","Sun Oct 25 16:56:41 2020","The main experiment item","yes","Sternbergtask oct 19.osexp","/Users/shelia/Desktop","no","mono","no","18","no","white","no","yes","768","legacy","15","11","/Users/shelia/Desktop/ST-subject-2 Oct 25.csv","legacy","8 9 5 7 1 6","Lentiform Loewenfeld","3.3.3","4","y","0","left","return","left","left","NA","929","8496","4846","929","NA","2","legacy","6","1024","2","48000","-16","experiment","2","even","7","185725","182406","183468","2646","89146","183481","157789","2661","84299","188675","184502","187745","11171","187745","NA","Sternberg task","23","23482","28","yes","1024"
"82.75862068965517","82.75862068965517","833.2758620689655","833.2758620689655","black","experiment","legacy","legacy","legacy","0","uniform","1","undefined","1","left","28","28","28","0","0","28","28","0","0","28","28","28","0","28","0","Sun Oct 25 16:56:41 2020","The main experiment item","yes","Sternbergtask oct 19.osexp","/Users/shelia/Desktop","no","mono","no","18","no","white","no","yes","768","legacy","16","11","/Users/shelia/Desktop/ST-subject-2 Oct 25.csv","legacy","4 3 2 5 8","Lentiform Loewenfeld","3.3.3","2","y","0","left","return","left","left","NA","683","8496","4846","683","NA","2","legacy","5","1024","2","48000","-16","experiment","2","even","3","192007","188689","189751","2646","89146","189764","157789","2661","84299","194710","190785","194026","11171","194026","NA","Sternberg task","24","24165","29","yes","1024"
"83.33333333333333","83.33333333333333","827.9666666666667","827.9666666666667","black","experiment","legacy","legacy","legacy","0","uniform","1","undefined","1","right","29","29","29","0","0","29","29","0","0","29","29","29","0","29","0","Sun Oct 25 16:56:41 2020","The main experiment item","yes","Sternbergtask oct 19.osexp","/Users/shelia/Desktop","no","mono","no","18","no","white","no","yes","768","legacy","17","11","/Users/shelia/Desktop/ST-subject-2 Oct 25.csv","legacy","2 8 6 3 1","Lentiform Loewenfeld","3.3.3","0","n","0","right","return","left","right","NA","674","8496","4846","674","NA","2","legacy","5","1024","2","48000","-16","experiment","2","even","7","198045","194725","195788","2646","89146","195802","157789","2661","84299","200739","196822","200064","11171","200064","NA","Sternberg task","25","24839","30","yes","1024"
"83.87096774193549","83.87096774193549","828.741935483871","828.741935483871","black","experiment","legacy","legacy","legacy","0","uniform","1","undefined","1","left","30","30","30","0","0","30","30","0","0","30","30","30","0","30","0","Sun Oct 25 16:56:41 2020","The main experiment item","yes","Sternbergtask oct 19.osexp","/Users/shelia/Desktop","no","mono","no","18","no","white","no","yes","768","legacy","18","11","/Users/shelia/Desktop/ST-subject-2 Oct 25.csv","legacy","4 9 7 8 5 3","Lentiform Loewenfeld","3.3.3","4","y","0","left","return","left","left","NA","852","8496","4846","852","NA","2","legacy","6","1024","2","48000","-16","experiment","2","even","8","204072","200755","201816","2646","89146","201829","157789","2661","84299","206944","202850","206092","11171","206091","NA","Sternberg task","26","25691","31","yes","1024"
"84.375","84.375","826.78125","826.78125","black","experiment","legacy","legacy","legacy","0","uniform","1","undefined","1","right","31","31","31","0","0","31","31","0","0","31","31","31","0","31","0","Sun Oct 25 16:56:41 2020","The main experiment item","yes","Sternbergtask oct 19.osexp","/Users/shelia/Desktop","no","mono","no","18","no","white","no","yes","768","legacy","19","11","/Users/shelia/Desktop/ST-subject-2 Oct 25.csv","legacy","6 8","Lentiform Loewenfeld","3.3.3","0","n","0","right","return","left","right","NA","766","8496","4846","766","NA","2","legacy","2","1024","2","48000","-16","experiment","2","even","9","210277","206959","208021","2646","89146","208034","157789","2661","84299","213064","209055","212297","11171","212297","NA","Sternberg task","27","26457","32","yes","1024"
"84.84848484848484","84.84848484848484","837.5151515151515","837.5151515151515","black","experiment","legacy","legacy","legacy","0","uniform","1","undefined","1","left","32","32","32","0","0","32","32","0","0","32","32","32","0","32","0","Sun Oct 25 16:56:41 2020","The main experiment item","yes","Sternbergtask oct 19.osexp","/Users/shelia/Desktop","no","mono","no","18","no","white","no","yes","768","legacy","20","11","/Users/shelia/Desktop/ST-subject-2 Oct 25.csv","legacy","4 1 8 7 5","Lentiform Loewenfeld","3.3.3","3","y","0","left","return","left","left","NA","1181","8496","4846","1181","NA","2","legacy","5","1024","2","48000","-16","experiment","2","even","8","216401","213080","214144","2646","89146","214157","157789","2661","84299","219602","215178","218420","11171","218420","NA","Sternberg task","28","27638","33","yes","1024"
"82.3529411764706","82.3529411764706","822.3529411764706","822.3529411764706","black","experiment","legacy","legacy","legacy","0","uniform","0","undefined","0","left","33","33","33","0","0","33","33","0","0","33","33","33","0","33","0","Sun Oct 25 16:56:41 2020","The main experiment item","yes","Sternbergtask oct 19.osexp","/Users/shelia/Desktop","no","mono","no","18","no","white","no","yes","768","legacy","21","11","/Users/shelia/Desktop/ST-subject-2 Oct 25.csv","legacy","2 6 1 7 4","Lentiform Loewenfeld","3.3.3","2","y","0","right","return","left","right","NA","322","8496","4846","322","NA","2","legacy","5","1024","2","48000","-16","experiment","2","even","6","222934","219617","220677","2646","89146","220690","157789","2661","84299","225275","221711","224953","11171","224953","NA","Sternberg task","28","27960","34","yes","1024"
"82.85714285714286","82.85714285714286","824.5142857142857","824.5142857142857","black","experiment","legacy","legacy","legacy","0","uniform","1","undefined","1","left","34","34","34","0","0","34","34","0","0","34","34","34","0","34","0","Sun Oct 25 16:56:41 2020","The main experiment item","yes","Sternbergtask oct 19.osexp","/Users/shelia/Desktop","no","mono","no","18","no","white","no","yes","768","legacy","22","11","/Users/shelia/Desktop/ST-subject-2 Oct 25.csv","legacy","3 2 1 4 7","Lentiform Loewenfeld","3.3.3","2","y","0","left","return","left","left","NA","898","8496","4846","898","NA","2","legacy","5","1024","2","48000","-16","experiment","2","even","2","228609","219617","226351","2646","89146","226364","225290","2661","84299","231527","227385","230628","11171","230628","NA","Sternberg task","29","28858","35","yes","1024"
"80.55555555555556","80.55555555555556","809.3611111111111","809.3611111111111","black","experiment","legacy","legacy","legacy","0","uniform","0","undefined","0","left","35","35","35","0","0","35","35","0","0","35","35","35","0","35","0","Sun Oct 25 16:56:41 2020","The main experiment item","yes","Sternbergtask oct 19.osexp","/Users/shelia/Desktop","no","mono","no","18","no","white","no","yes","768","legacy","23","11","/Users/shelia/Desktop/ST-subject-2 Oct 25.csv","legacy","2 3","Lentiform Loewenfeld","3.3.3","1","y","0","right","return","left","right","NA","279","8496","4846","279","NA","2","legacy","2","1024","2","48000","-16","experiment","2","even","2","234861","231542","232605","2646","89146","232618","225290","2661","84299","237161","233638","236881","11171","236881","NA","Sternberg task","29","29137","36","yes","1024"
"81.08108108108108","81.08108108108108","796.3243243243244","796.3243243243244","black","experiment","legacy","legacy","legacy","0","uniform","1","undefined","1","left","36","36","36","0","0","36","36","0","0","36","36","36","0","36","0","Sun Oct 25 16:56:41 2020","The main experiment item","yes","Sternbergtask oct 19.osexp","/Users/shelia/Desktop","no","mono","no","18","no","white","no","yes","768","legacy","24","11","/Users/shelia/Desktop/ST-subject-2 Oct 25.csv","legacy","2 5 4 8 7","Lentiform Loewenfeld","3.3.3","3","y","0","left","return","left","left","NA","327","8496","4846","327","NA","2","legacy","5","1024","2","48000","-16","experiment","2","even","4","240493","231542","238236","2646","89146","238249","237176","2661","84299","242840","239270","242512","11171","242512","NA","Sternberg task","30","29464","37","yes","1024"
"81.57894736842105","81.57894736842105","781.421052631579","781.421052631579","black","experiment","legacy","legacy","legacy","0","uniform","1","undefined","1","right","37","37","37","0","0","37","37","0","0","37","37","37","0","37","0","Sun Oct 25 16:56:41 2020","The main experiment item","yes","Sternbergtask oct 19.osexp","/Users/shelia/Desktop","no","mono","no","18","no","white","no","yes","768","legacy","25","11","/Users/shelia/Desktop/ST-subject-2 Oct 25.csv","legacy","1 4 3 6 5","Lentiform Loewenfeld","3.3.3","0","n","0","right","return","left","right","NA","230","8496","4846","230","NA","2","legacy","5","1024","2","48000","-16","experiment","2","even","8","246174","242855","243918","2646","89146","243931","237176","2661","84299","248425","244952","248194","11171","248194","NA","Sternberg task","31","29694","38","yes","1024"
"82.05128205128206","82.05128205128206","785.6153846153846","785.6153846153846","black","experiment","legacy","legacy","legacy","0","uniform","1","undefined","1","right","38","38","38","0","0","38","38","0","0","38","38","38","0","38","0","Sun Oct 25 16:56:41 2020","The main experiment item","yes","Sternbergtask oct 19.osexp","/Users/shelia/Desktop","no","mono","no","18","no","white","no","yes","768","legacy","26","11","/Users/shelia/Desktop/ST-subject-2 Oct 25.csv","legacy","9 8 2 7 4","Lentiform Loewenfeld","3.3.3","0","n","0","right","return","left","right","NA","945","8496","4846","945","NA","2","legacy","5","1024","2","48000","-16","experiment","2","even","5","251759","248440","249502","2646","89146","249515","237176","2661","84299","254724","250536","253778","11171","253778","NA","Sternberg task","32","30639","39","yes","1024"
"82.5","82.5","788.625","788.625","black","experiment","legacy","legacy","legacy","0","uniform","1","undefined","1","left","39","39","39","0","0","39","39","0","0","39","39","39","0","39","0","Sun Oct 25 16:56:41 2020","The main experiment item","yes","Sternbergtask oct 19.osexp","/Users/shelia/Desktop","no","mono","no","18","no","white","no","yes","768","legacy","27","11","/Users/shelia/Desktop/ST-subject-2 Oct 25.csv","legacy","8 7 3","Lentiform Loewenfeld","3.3.3","1","y","0","left","return","left","left","NA","906","8496","4846","906","NA","2","legacy","3","1024","2","48000","-16","experiment","2","even","8","258058","254739","255802","2646","89146","255815","237176","2661","84299","260983","256836","260077","11171","260077","NA","Sternberg task","33","31545","40","yes","1024"
"82.92682926829268","82.92682926829268","797.7560975609756","797.7560975609756","black","experiment","legacy","legacy","legacy","0","uniform","1","undefined","1","left","40","40","40","0","0","40","40","0","0","40","40","40","0","40","0","Sun Oct 25 16:56:41 2020","The main experiment item","yes","Sternbergtask oct 19.osexp","/Users/shelia/Desktop","no","mono","no","18","no","white","no","yes","768","legacy","28","11","/Users/shelia/Desktop/ST-subject-2 Oct 25.csv","legacy","9 8 4","Lentiform Loewenfeld","3.3.3","1","y","0","left","return","left","left","NA","1163","8496","4846","1163","NA","2","legacy","3","1024","2","48000","-16","experiment","2","even","9","264316","260998","262060","2646","89146","262073","237176","2661","84299","267498","263093","266335","11171","266335","NA","Sternberg task","34","32708","41","yes","1024"
"83.33333333333333","83.33333333333333","803.952380952381","803.952380952381","black","experiment","legacy","legacy","legacy","0","uniform","1","undefined","1","left","41","41","41","0","0","41","41","0","0","41","41","41","0","41","0","Sun Oct 25 16:56:41 2020","The main experiment item","yes","Sternbergtask oct 19.osexp","/Users/shelia/Desktop","no","mono","no","18","no","white","no","yes","768","legacy","29","11","/Users/shelia/Desktop/ST-subject-2 Oct 25.csv","legacy","9 3 8 2 1 4","Lentiform Loewenfeld","3.3.3","3","y","0","left","return","left","left","NA","1058","8496","4846","1058","NA","2","legacy","6","1024","2","48000","-16","experiment","2","even","8","270834","267513","268577","2646","89146","268590","237176","2661","84299","273912","269611","272853","11171","272853","NA","Sternberg task","35","33766","42","yes","1024"
"83.72093023255815","83.72093023255815","806.5581395348837","806.5581395348837","black","experiment","legacy","legacy","legacy","0","uniform","1","undefined","1","left","42","42","42","0","0","42","42","0","0","42","42","42","0","42","0","Sun Oct 25 16:56:41 2020","The main experiment item","yes","Sternbergtask oct 19.osexp","/Users/shelia/Desktop","no","mono","no","18","no","white","no","yes","768","legacy","30","11","/Users/shelia/Desktop/ST-subject-2 Oct 25.csv","legacy","7 1 3","Lentiform Loewenfeld","3.3.3","2","y","0","left","return","left","left","NA","916","8496","4846","916","NA","2","legacy","3","1024","2","48000","-16","experiment","2","even","1","277243","273926","274988","2646","89146","275000","237176","2661","84299","280179","276020","279262","11171","279262","NA","Sternberg task","36","34682","43","yes","1024"
"84.0909090909091","84.0909090909091","815.9545454545455","815.9545454545455","black","experiment","legacy","legacy","legacy","0","uniform","1","undefined","1","left","43","43","43","0","0","43","43","0","0","43","43","43","0","43","0","Sun Oct 25 16:56:41 2020","The main experiment item","yes","Sternbergtask oct 19.osexp","/Users/shelia/Desktop","no","mono","no","18","no","white","no","yes","768","legacy","31","11","/Users/shelia/Desktop/ST-subject-2 Oct 25.csv","legacy","3 5 7 1","Lentiform Loewenfeld","3.3.3","3","y","0","left","return","left","left","NA","1220","8496","4846","1220","NA","2","legacy","4","1024","2","48000","-16","experiment","2","even","7","283514","280194","281257","2646","89146","281270","237176","2661","84299","286754","282291","285533","11171","285533","NA","Sternberg task","37","35902","44","yes","1024"
"82.22222222222223","82.22222222222223","842.2666666666667","842.2666666666667","black","experiment","legacy","legacy","legacy","0","uniform","0","undefined","0","right","44","44","44","0","0","44","44","0","0","44","44","44","0","44","0","Sun Oct 25 16:56:41 2020","The main experiment item","yes","Sternbergtask oct 19.osexp","/Users/shelia/Desktop","no","mono","no","18","no","white","no","yes","768","legacy","32","11","/Users/shelia/Desktop/ST-subject-2 Oct 25.csv","legacy","5 2","Lentiform Loewenfeld","3.3.3","0","n","0","None","return","left","None","NA","2000","8496","4846","2000","NA","2","legacy","2","1024","2","48000","-16","experiment","2","even","7","290089","286770","287833","2646","89146","287846","237176","2661","84299","294109","288867","292109","11171","292109","NA","Sternberg task","37","37902","45","yes","1024"
"80.43478260869566","80.43478260869566","867.4347826086956","867.4347826086956","black","experiment","legacy","legacy","legacy","0","uniform","0","undefined","0","left","45","45","45","0","0","45","45","0","0","45","45","45","0","45","0","Sun Oct 25 16:56:41 2020","The main experiment item","yes","Sternbergtask oct 19.osexp","/Users/shelia/Desktop","no","mono","no","18","no","white","no","yes","768","legacy","33","11","/Users/shelia/Desktop/ST-subject-2 Oct 25.csv","legacy","2 3 7 4","Lentiform Loewenfeld","3.3.3","1","y","0","None","return","left","None","NA","2000","8496","4846","2000","NA","2","legacy","4","1024","2","48000","-16","experiment","2","even","2","297445","286770","295188","2646","89146","295201","294125","2661","84299","301465","296222","299465","11171","299465","NA","Sternberg task","37","39902","46","yes","1024"
"78.72340425531915","78.72340425531915","891.531914893617","891.531914893617","black","experiment","legacy","legacy","legacy","0","uniform","0","undefined","0","right","46","46","46","0","0","46","46","0","0","46","46","46","0","46","0","Sun Oct 25 16:56:41 2020","The main experiment item","yes","Sternbergtask oct 19.osexp","/Users/shelia/Desktop","no","mono","no","18","no","white","no","yes","768","legacy","34","11","/Users/shelia/Desktop/ST-subject-2 Oct 25.csv","legacy","7 8 6 1","Lentiform Loewenfeld","3.3.3","0","n","0","None","return","left","None","NA","2000","8496","4846","2000","NA","2","legacy","4","1024","2","48000","-16","experiment","2","even","3","304798","286770","302542","2646","89146","302555","301479","2661","84299","308817","303575","306817","11171","306817","NA","Sternberg task","37","41902","47","yes","1024"
"77.08333333333333","77.08333333333333","881.625","881.625","black","experiment","legacy","legacy","legacy","0","uniform","0","undefined","0","left","47","47","47","0","0","47","47","0","0","47","47","47","0","47","0","Sun Oct 25 16:56:41 2020","The main experiment item","yes","Sternbergtask oct 19.osexp","/Users/shelia/Desktop","no","mono","no","18","no","white","no","yes","768","legacy","35","11","/Users/shelia/Desktop/ST-subject-2 Oct 25.csv","legacy","5 7 8 2 3 8","Lentiform Loewenfeld","3.3.3","5","y","0","right","return","left","right","NA","416","8496","4846","416","NA","2","legacy","6","1024","2","48000","-16","experiment","2","even","3","312150","286770","309893","2646","89146","309906","308832","2661","84299","314585","310927","314169","11171","314169","NA","Sternberg task","37","42318","48","yes","1024"
"77.55102040816327","77.55102040816327","888.3265306122449","888.3265306122449","black","experiment","legacy","legacy","legacy","0","uniform","1","undefined","1","left","48","48","48","0","0","48","48","0","0","48","48","48","0","48","0","Sun Oct 25 16:56:41 2020","The main experiment item","yes","Sternbergtask oct 19.osexp","/Users/shelia/Desktop","no","mono","no","18","no","white","no","yes","768","legacy","36","11","/Users/shelia/Desktop/ST-subject-2 Oct 25.csv","legacy","2 8 5 1","Lentiform Loewenfeld","3.3.3","4","y","0","left","return","left","left","NA","1210","8496","4846","1210","NA","2","legacy","4","1024","2","48000","-16","experiment","2","even","1","317918","286770","315661","2646","89146","315674","314601","2661","84299","321148","316695","319937","11171","319937","NA","Sternberg task","38","43528","49","yes","1024"
"78","78","887.74","887.74","black","experiment","legacy","legacy","legacy","0","uniform","1","undefined","1","left","49","49","49","0","0","49","49","0","0","49","49","49","0","49","0","Sun Oct 25 16:56:41 2020","The main experiment item","yes","Sternbergtask oct 19.osexp","/Users/shelia/Desktop","no","mono","no","18","no","white","no","yes","768","legacy","37","11","/Users/shelia/Desktop/ST-subject-2 Oct 25.csv","legacy","3 4","Lentiform Loewenfeld","3.3.3","1","y","0","left","return","left","left","NA","859","8496","4846","859","NA","2","legacy","2","1024","2","48000","-16","experiment","2","even","3","324483","321163","322226","2646","89146","322239","314601","2661","84299","327362","323260","326502","11171","326502","NA","Sternberg task","39","44387","50","yes","1024"
"78.43137254901961","78.43137254901961","884.0980392156863","884.0980392156863","black","experiment","legacy","legacy","legacy","0","uniform","1","undefined","1","left","50","50","50","0","0","50","50","0","0","50","50","50","0","50","0","Sun Oct 25 16:56:41 2020","The main experiment item","yes","Sternbergtask oct 19.osexp","/Users/shelia/Desktop","no","mono","no","18","no","white","no","yes","768","legacy","38","11","/Users/shelia/Desktop/ST-subject-2 Oct 25.csv","legacy","6 9 7 4 5 1","Lentiform Loewenfeld","3.3.3","2","y","0","left","return","left","left","NA","702","8496","4846","702","NA","2","legacy","6","1024","2","48000","-16","experiment","2","even","9","330699","327377","328440","2646","89146","328454","314601","2661","84299","333420","329476","332718","11171","332718","NA","Sternberg task","40","45089","51","yes","1024"
"78.84615384615384","78.84615384615384","878.9038461538462","878.9038461538462","black","experiment","legacy","legacy","legacy","0","uniform","1","undefined","1","right","51","51","51","0","0","51","51","0","0","51","51","51","0","51","0","Sun Oct 25 16:56:41 2020","The main experiment item","yes","Sternbergtask oct 19.osexp","/Users/shelia/Desktop","no","mono","no","18","no","white","no","yes","768","legacy","39","11","/Users/shelia/Desktop/ST-subject-2 Oct 25.csv","legacy","2 8 9","Lentiform Loewenfeld","3.3.3","0","n","0","right","return","left","right","NA","614","8496","4846","614","NA","2","legacy","3","1024","2","48000","-16","experiment","2","even","6","336757","333436","334500","2646","89146","334513","314601","2661","84299","339391","335534","338776","11171","338776","NA","Sternberg task","41","45703","52","yes","1024"
"79.24528301886792","79.24528301886792","879.1698113207547","879.1698113207547","black","experiment","legacy","legacy","legacy","0","uniform","1","undefined","1","right","52","52","52","0","0","52","52","0","0","52","52","52","0","52","0","Sun Oct 25 16:56:41 2020","The main experiment item","yes","Sternbergtask oct 19.osexp","/Users/shelia/Desktop","no","mono","no","18","no","white","no","yes","768","legacy","40","11","/Users/shelia/Desktop/ST-subject-2 Oct 25.csv","legacy","7 9","Lentiform Loewenfeld","3.3.3","0","n","0","right","return","left","right","NA","893","8496","4846","893","NA","2","legacy","2","1024","2","48000","-16","experiment","2","even","1","342729","339407","340471","2646","89146","340485","314601","2661","84299","345643","341506","344749","11171","344748","NA","Sternberg task","42","46596","53","yes","1024"
"79.62962962962963","79.62962962962963","877.7962962962963","877.7962962962963","black","experiment","legacy","legacy","legacy","0","uniform","1","undefined","1","left","53","53","53","0","0","53","53","0","0","53","53","53","0","53","0","Sun Oct 25 16:56:41 2020","The main experiment item","yes","Sternbergtask oct 19.osexp","/Users/shelia/Desktop","no","mono","no","18","no","white","no","yes","768","legacy","41","11","/Users/shelia/Desktop/ST-subject-2 Oct 25.csv","legacy","1 4 9 3 2 5","Lentiform Loewenfeld","3.3.3","3","y","0","left","return","left","left","NA","805","8496","4846","805","NA","2","legacy","6","1024","2","48000","-16","experiment","2","even","9","348976","345658","346720","2646","89146","346733","314601","2661","84299","351801","347754","350996","11171","350996","NA","Sternberg task","43","47401","54","yes","1024"
"80","80","875.5818181818182","875.5818181818182","black","experiment","legacy","legacy","legacy","0","uniform","1","undefined","1","left","54","54","54","0","0","54","54","0","0","54","54","54","0","54","0","Sun Oct 25 16:56:41 2020","The main experiment item","yes","Sternbergtask oct 19.osexp","/Users/shelia/Desktop","no","mono","no","18","no","white","no","yes","768","legacy","42","11","/Users/shelia/Desktop/ST-subject-2 Oct 25.csv","legacy","5 2 6","Lentiform Loewenfeld","3.3.3","2","y","0","left","return","left","left","NA","756","8496","4846","756","NA","2","legacy","3","1024","2","48000","-16","experiment","2","even","2","355132","351816","352876","2646","89146","352889","314601","2661","84299","357909","353910","357152","11171","357152","NA","Sternberg task","44","48157","55","yes","1024"
"80.35714285714286","80.35714285714286","871.6428571428571","871.6428571428571","black","experiment","legacy","legacy","legacy","0","uniform","1","undefined","1","left","55","55","55","0","0","55","55","0","0","55","55","55","0","55","0","Sun Oct 25 16:56:41 2020","The main experiment item","yes","Sternbergtask oct 19.osexp","/Users/shelia/Desktop","no","mono","no","18","no","white","no","yes","768","legacy","43","11","/Users/shelia/Desktop/ST-subject-2 Oct 25.csv","legacy","9 1 7 2","Lentiform Loewenfeld","3.3.3","2","y","0","left","return","left","left","NA","655","8496","4846","655","NA","2","legacy","4","1024","2","48000","-16","experiment","2","even","1","361233","357924","358983","2646","89146","358996","314601","2661","84299","363908","360010","363252","11171","363252","NA","Sternberg task","45","48812","56","yes","1024"
"80.70175438596492","80.70175438596492","869.3333333333334","869.3333333333334","black","experiment","legacy","legacy","legacy","0","uniform","1","undefined","1","right","56","56","56","0","0","56","56","0","0","56","56","56","0","56","0","Sun Oct 25 16:56:41 2020","The main experiment item","yes","Sternbergtask oct 19.osexp","/Users/shelia/Desktop","no","mono","no","18","no","white","no","yes","768","legacy","44","11","/Users/shelia/Desktop/ST-subject-2 Oct 25.csv","legacy","2 8 7 9 5 3","Lentiform Loewenfeld","3.3.3","0","n","0","right","return","left","right","NA","740","8496","4846","740","NA","2","legacy","6","1024","2","48000","-16","experiment","2","even","6","367239","363923","364984","2646","89146","364997","314601","2661","84299","370000","366017","369259","11171","369259","NA","Sternberg task","46","49552","57","yes","1024"
"81.03448275862068","81.03448275862068","868.6896551724138","868.6896551724138","black","experiment","legacy","legacy","legacy","0","uniform","1","undefined","1","left","57","57","57","0","0","57","57","0","0","57","57","57","0","57","0","Sun Oct 25 16:56:41 2020","The main experiment item","yes","Sternbergtask oct 19.osexp","/Users/shelia/Desktop","no","mono","no","18","no","white","no","yes","768","legacy","45","11","/Users/shelia/Desktop/ST-subject-2 Oct 25.csv","legacy","8 5 4 7 3 1","Lentiform Loewenfeld","3.3.3","2","y","0","left","return","left","left","NA","832","8496","4846","832","NA","2","legacy","6","1024","2","48000","-16","experiment","2","even","5","373322","370014","371066","2646","89146","371079","314601","2661","84299","376175","372100","375342","11171","375342","NA","Sternberg task","47","50384","58","yes","1024"
"81.35593220338983","81.35593220338983","864.4067796610169","864.4067796610169","black","experiment","legacy","legacy","legacy","0","uniform","1","undefined","1","right","58","58","58","0","0","58","58","0","0","58","58","58","0","58","0","Sun Oct 25 16:56:41 2020","The main experiment item","yes","Sternbergtask oct 19.osexp","/Users/shelia/Desktop","no","mono","no","18","no","white","no","yes","768","legacy","46","11","/Users/shelia/Desktop/ST-subject-2 Oct 25.csv","legacy","6 9 5","Lentiform Loewenfeld","3.3.3","0","n","0","right","return","left","right","NA","616","8496","4846","616","NA","2","legacy","3","1024","2","48000","-16","experiment","2","even","8","379509","376191","377252","2646","89146","377265","314601","2661","84299","382144","378286","381527","11171","381526","NA","Sternberg task","48","51000","59","yes","1024"
"81.66666666666667","81.66666666666667","858.75","858.75","black","experiment","legacy","legacy","legacy","0","uniform","1","undefined","1","left","59","59","59","0","0","59","59","0","0","59","59","59","0","59","0","Sun Oct 25 16:56:41 2020","The main experiment item","yes","Sternbergtask oct 19.osexp","/Users/shelia/Desktop","no","mono","no","18","no","white","no","yes","768","legacy","47","11","/Users/shelia/Desktop/ST-subject-2 Oct 25.csv","legacy","7 1 8 5 6 2","Lentiform Loewenfeld","3.3.3","2","y","0","left","return","left","left","NA","525","8496","4846","525","NA","2","legacy","6","1024","2","48000","-16","experiment","2","even","1","385478","382160","383224","2646","89146","383237","314601","2661","84299","388021","384255","387495","11171","387495","NA","Sternberg task","49","51525","60","yes","1024"
"81.9672131147541","81.9672131147541","860.3934426229508","860.3934426229508","black","experiment","legacy","legacy","legacy","0","uniform","1","undefined","1","left","60","60","60","0","0","60","60","0","0","60","60","60","0","60","0","Sun Oct 25 16:56:41 2020","The main experiment item","yes","Sternbergtask oct 19.osexp","/Users/shelia/Desktop","no","mono","no","18","no","white","no","yes","768","legacy","48","11","/Users/shelia/Desktop/ST-subject-2 Oct 25.csv","legacy","3 9 7 6 4","Lentiform Loewenfeld","3.3.3","3","y","0","left","return","left","left","NA","959","8496","4846","959","NA","2","legacy","5","1024","2","48000","-16","experiment","2","even","7","391352","388036","389095","2646","89146","389108","314601","2661","84299","394331","390129","393371","11171","393371","NA","Sternberg task","50","52484","61","yes","1024"
"80.64516129032258","80.64516129032258","878.7741935483871","878.7741935483871","black","experiment","legacy","legacy","legacy","0","uniform","0","undefined","0","right","61","61","61","0","0","61","61","0","0","61","61","61","0","61","0","Sun Oct 25 16:56:41 2020","The main experiment item","yes","Sternbergtask oct 19.osexp","/Users/shelia/Desktop","no","mono","no","18","no","white","no","yes","768","legacy","49","11","/Users/shelia/Desktop/ST-subject-2 Oct 25.csv","legacy","7 6 4 8 1 2","Lentiform Loewenfeld","3.3.3","0","n","0","None","return","left","None","NA","2000","8496","4846","2000","NA","2","legacy","6","1024","2","48000","-16","experiment","2","even","9","397664","394346","395410","2646","89146","395423","314601","2661","84299","401678","396443","399678","11171","399678","NA","Sternberg task","50","54484","62","yes","1024"
"79.36507936507937","79.36507936507937","896.5714285714286","896.5714285714286","black","experiment","legacy","legacy","legacy","0","uniform","0","undefined","0","right","62","62","62","0","0","62","62","0","0","62","62","62","0","62","0","Sun Oct 25 16:56:41 2020","The main experiment item","yes","Sternbergtask oct 19.osexp","/Users/shelia/Desktop","no","mono","no","18","no","white","no","yes","768","legacy","50","11","/Users/shelia/Desktop/ST-subject-2 Oct 25.csv","legacy","4 8 1 2","Lentiform Loewenfeld","3.3.3","0","n","0","None","return","left","None","NA","2000","8496","4846","2000","NA","2","legacy","4","1024","2","48000","-16","experiment","2","even","7","405014","394346","402756","2646","89146","402770","401693","2661","84299","409033","403791","407033","11171","407033","NA","Sternberg task","50","56484","63","yes","1024"
"78.125","78.125","913.8125","913.8125","black","experiment","legacy","legacy","legacy","0","uniform","0","undefined","0","left","63","63","63","0","0","63","63","0","0","63","63","63","0","63","0","Sun Oct 25 16:56:41 2020","The main experiment item","yes","Sternbergtask oct 19.osexp","/Users/shelia/Desktop","no","mono","no","18","no","white","no","yes","768","legacy","51","11","/Users/shelia/Desktop/ST-subject-2 Oct 25.csv","legacy","9 5 8 1","Lentiform Loewenfeld","3.3.3","2","y","0","None","return","left","None","NA","2000","8496","4846","2000","NA","2","legacy","4","1024","2","48000","-16","experiment","2","even","5","412368","394346","410111","2646","89146","410124","409047","2661","84299","416388","411145","414388","11171","414387","NA","Sternberg task","50","58484","64","yes","1024"
"76.92307692307692","76.92307692307692","925.4153846153846","925.4153846153846","black","experiment","legacy","legacy","legacy","0","uniform","0","undefined","0","left","64","64","64","0","0","64","64","0","0","64","64","64","0","64","0","Sun Oct 25 16:56:41 2020","The main experiment item","yes","Sternbergtask oct 19.osexp","/Users/shelia/Desktop","no","mono","no","18","no","white","no","yes","768","legacy","52","11","/Users/shelia/Desktop/ST-subject-2 Oct 25.csv","legacy","8 1 6","Lentiform Loewenfeld","3.3.3","3","y","0","right","return","left","right","NA","1668","8496","4846","1668","NA","2","legacy","3","1024","2","48000","-16","experiment","2","even","6","419724","394346","417466","2646","89146","417480","416403","2661","84299","423412","418501","421743","11171","421743","NA","Sternberg task","50","60152","65","yes","1024"
"75.75757575757575","75.75757575757575","941.6969696969697","941.6969696969697","black","experiment","legacy","legacy","legacy","0","uniform","0","undefined","0","left","65","65","65","0","0","65","65","0","0","65","65","65","0","65","0","Sun Oct 25 16:56:41 2020","The main experiment item","yes","Sternbergtask oct 19.osexp","/Users/shelia/Desktop","no","mono","no","18","no","white","no","yes","768","legacy","53","11","/Users/shelia/Desktop/ST-subject-2 Oct 25.csv","legacy","6 8 9 3 4 9","Lentiform Loewenfeld","3.3.3","5","y","0","None","return","left","None","NA","2000","8496","4846","2000","NA","2","legacy","6","1024","2","48000","-16","experiment","2","even","4","426743","394346","424488","2646","89146","424501","423426","2661","84299","430763","425521","428763","11171","428762","NA","Sternberg task","50","62152","66","yes","1024"
"74.6268656716418","74.6268656716418","932.9253731343283","932.9253731343283","black","experiment","legacy","legacy","legacy","0","uniform","0","undefined","0","right","66","66","66","0","0","66","66","0","0","66","66","66","0","66","0","Sun Oct 25 16:56:41 2020","The main experiment item","yes","Sternbergtask oct 19.osexp","/Users/shelia/Desktop","no","mono","no","18","no","white","no","yes","768","legacy","54","11","/Users/shelia/Desktop/ST-subject-2 Oct 25.csv","legacy","1 5 3 2 8","Lentiform Loewenfeld","3.3.3","0","n","0","left","return","left","left","NA","354","8496","4846","354","NA","2","legacy","5","1024","2","48000","-16","experiment","2","even","4","434092","394346","431836","2646","89146","431849","430778","2661","84299","436466","432870","436111","11171","436111","NA","Sternberg task","50","62506","67","yes","1024"
"73.52941176470588","73.52941176470588","938.9558823529412","938.9558823529412","black","experiment","legacy","legacy","legacy","0","uniform","0","undefined","0","right","67","67","67","0","0","67","67","0","0","67","67","67","0","67","0","Sun Oct 25 16:56:41 2020","The main experiment item","yes","Sternbergtask oct 19.osexp","/Users/shelia/Desktop","no","mono","no","18","no","white","no","yes","768","legacy","55","11","/Users/shelia/Desktop/ST-subject-2 Oct 25.csv","legacy","1 4 9 2 5","Lentiform Loewenfeld","3.3.3","0","n","0","left","return","left","left","NA","1343","8496","4846","1343","NA","2","legacy","5","1024","2","48000","-16","experiment","2","even","7","439798","394346","437542","2646","89146","437555","436480","2661","84299","443161","438575","441817","11171","441817","NA","Sternberg task","50","63849","68","yes","1024"
"73.91304347826087","73.91304347826087","948.1159420289855","948.1159420289855","black","experiment","legacy","legacy","legacy","0","uniform","1","undefined","1","left","68","68","68","0","0","68","68","0","0","68","68","68","0","68","0","Sun Oct 25 16:56:41 2020","The main experiment item","yes","Sternbergtask oct 19.osexp","/Users/shelia/Desktop","no","mono","no","18","no","white","no","yes","768","legacy","56","11","/Users/shelia/Desktop/ST-subject-2 Oct 25.csv","legacy","3 4 9 6 2 9","Lentiform Loewenfeld","3.3.3","5","y","0","left","return","left","left","NA","1571","8496","4846","1571","NA","2","legacy","6","1024","2","48000","-16","experiment","2","even","2","446496","394346","444239","2646","89146","444252","443176","2661","84299","450087","445273","448515","11171","448515","NA","Sternberg task","51","65420","69","yes","1024"
"74.28571428571429","74.28571428571429","943.8714285714286","943.8714285714286","black","experiment","legacy","legacy","legacy","0","uniform","1","undefined","1","left","69","69","69","0","0","69","69","0","0","69","69","69","0","69","0","Sun Oct 25 16:56:41 2020","The main experiment item","yes","Sternbergtask oct 19.osexp","/Users/shelia/Desktop","no","mono","no","18","no","white","no","yes","768","legacy","57","11","/Users/shelia/Desktop/ST-subject-2 Oct 25.csv","legacy","3 5 9 6 2 4","Lentiform Loewenfeld","3.3.3","1","y","0","left","return","left","left","NA","651","8496","4846","651","NA","2","legacy","6","1024","2","48000","-16","experiment","2","even","3","453419","450101","451162","2646","89146","451175","443176","2661","84299","456090","452196","455438","11171","455438","NA","Sternberg task","52","66071","70","yes","1024"
"74.64788732394366","74.64788732394366","945.5915492957746","945.5915492957746","black","experiment","legacy","legacy","legacy","0","uniform","1","undefined","1","right","70","70","70","0","0","70","70","0","0","70","70","70","0","70","0","Sun Oct 25 16:56:41 2020","The main experiment item","yes","Sternbergtask oct 19.osexp","/Users/shelia/Desktop","no","mono","no","18","no","white","no","yes","768","legacy","58","11","/Users/shelia/Desktop/ST-subject-2 Oct 25.csv","legacy","4 2 6 9","Lentiform Loewenfeld","3.3.3","0","n","0","right","return","left","right","NA","1066","8496","4846","1066","NA","2","legacy","4","1024","2","48000","-16","experiment","2","even","7","459423","456105","457166","2646","89146","457179","443176","2661","84299","462509","458200","461442","11171","461442","NA","Sternberg task","53","67137","71","yes","1024"
"73.61111111111111","73.61111111111111","960.2361111111111","960.2361111111111","black","experiment","legacy","legacy","legacy","0","uniform","0","undefined","0","left","71","71","71","0","0","71","71","0","0","71","71","71","0","71","0","Sun Oct 25 16:56:41 2020","The main experiment item","yes","Sternbergtask oct 19.osexp","/Users/shelia/Desktop","no","mono","no","18","no","white","no","yes","768","legacy","59","11","/Users/shelia/Desktop/ST-subject-2 Oct 25.csv","legacy","5 2 9 6 1 7","Lentiform Loewenfeld","3.3.3","3","y","0","None","return","left","None","NA","2000","8496","4846","2000","NA","2","legacy","6","1024","2","48000","-16","experiment","2","even","9","465841","462523","463584","2646","89146","463597","443176","2661","84299","469860","464618","467860","11171","467860","NA","Sternberg task","53","69137","72","yes","1024"
"73.97260273972603","73.97260273972603","959.2465753424658","959.2465753424658","black","experiment","legacy","legacy","legacy","0","uniform","1","undefined","1","right","72","72","72","0","0","72","72","0","0","72","72","72","0","72","0","Sun Oct 25 16:56:41 2020","The main experiment item","yes","Sternbergtask oct 19.osexp","/Users/shelia/Desktop","no","mono","no","18","no","white","no","yes","768","legacy","60","11","/Users/shelia/Desktop/ST-subject-2 Oct 25.csv","legacy","6 9 4 5 3 2","Lentiform Loewenfeld","3.3.3","0","n","0","right","return","left","right","NA","888","8496","4846","888","NA","2","legacy","6","1024","2","48000","-16","experiment","2","even","8","473192","462523","470936","2646","89146","470949","469875","2661","84299","476102","471970","475213","11171","475213","NA","Sternberg task","54","70025","73","yes","1024"
"72.97297297297297","72.97297297297297","959.2567567567568","959.2567567567568","black","experiment","legacy","legacy","legacy","0","uniform","0","undefined","0","left","73","73","73","0","0","73","73","0","0","73","73","73","0","73","0","Sun Oct 25 16:56:41 2020","The main experiment item","yes","Sternbergtask oct 19.osexp","/Users/shelia/Desktop","no","mono","no","18","no","white","no","yes","768","legacy","61","11","/Users/shelia/Desktop/ST-subject-2 Oct 25.csv","legacy","6 7 9 3 1 2","Lentiform Loewenfeld","3.3.3","1","y","0","right","return","left","right","NA","960","8496","4846","960","NA","2","legacy","6","1024","2","48000","-16","experiment","2","even","6","479438","476116","477180","2646","89146","477194","469875","2661","84299","482418","478214","481457","11171","481457","NA","Sternberg task","54","70985","74","yes","1024"
"73.33333333333333","73.33333333333333","956.12","956.12","black","experiment","legacy","legacy","legacy","0","uniform","1","undefined","1","left","74","74","74","0","0","74","74","0","0","74","74","74","0","74","0","Sun Oct 25 16:56:41 2020","The main experiment item","yes","Sternbergtask oct 19.osexp","/Users/shelia/Desktop","no","mono","no","18","no","white","no","yes","768","legacy","62","11","/Users/shelia/Desktop/ST-subject-2 Oct 25.csv","legacy","8 3","Lentiform Loewenfeld","3.3.3","2","y","0","left","return","left","left","NA","724","8496","4846","724","NA","2","legacy","2","1024","2","48000","-16","experiment","2","even","3","485754","476116","483496","2646","89146","483510","482433","2661","84299","488498","484530","487773","11171","487773","NA","Sternberg task","55","71709","75","yes","1024"
"73.6842105263158","73.6842105263158","951.7763157894736","951.7763157894736","black","experiment","legacy","legacy","legacy","0","uniform","1","undefined","1","right","75","75","75","0","0","75","75","0","0","75","75","75","0","75","0","Sun Oct 25 16:56:41 2020","The main experiment item","yes","Sternbergtask oct 19.osexp","/Users/shelia/Desktop","no","mono","no","18","no","white","no","yes","768","legacy","63","11","/Users/shelia/Desktop/ST-subject-2 Oct 25.csv","legacy","6 9 7 3 8 2","Lentiform Loewenfeld","3.3.3","0","n","0","right","return","left","right","NA","626","8496","4846","626","NA","2","legacy","6","1024","2","48000","-16","experiment","2","even","5","491833","488513","489577","2646","89146","489590","482433","2661","84299","494480","490611","493853","11171","493853","NA","Sternberg task","56","72335","76","yes","1024"
"74.02597402597402","74.02597402597402","946.8311688311688","946.8311688311688","black","experiment","legacy","legacy","legacy","0","uniform","1","undefined","1","left","76","76","76","0","0","76","76","0","0","76","76","76","0","76","0","Sun Oct 25 16:56:41 2020","The main experiment item","yes","Sternbergtask oct 19.osexp","/Users/shelia/Desktop","no","mono","no","18","no","white","no","yes","768","legacy","64","11","/Users/shelia/Desktop/ST-subject-2 Oct 25.csv","legacy","6 1 2","Lentiform Loewenfeld","3.3.3","3","y","0","left","return","left","left","NA","571","8496","4846","571","NA","2","legacy","3","1024","2","48000","-16","experiment","2","even","2","497814","494496","495558","2646","89146","495571","482433","2661","84299","500405","496592","499833","11171","499833","NA","Sternberg task","57","72906","77","yes","1024"
"74.35897435897436","74.35897435897436","944.025641025641","944.025641025641","black","experiment","legacy","legacy","legacy","0","uniform","1","undefined","1","left","77","77","77","0","0","77","77","0","0","77","77","77","0","77","0","Sun Oct 25 16:56:41 2020","The main experiment item","yes","Sternbergtask oct 19.osexp","/Users/shelia/Desktop","no","mono","no","18","no","white","no","yes","768","legacy","65","11","/Users/shelia/Desktop/ST-subject-2 Oct 25.csv","legacy","7 6","Lentiform Loewenfeld","3.3.3","2","y","0","left","return","left","left","NA","728","8496","4846","728","NA","2","legacy","2","1024","2","48000","-16","experiment","2","even","6","503741","500419","501484","2646","89146","501497","482433","2661","84299","506489","502518","505761","11171","505761","NA","Sternberg task","58","73634","78","yes","1024"
"73.41772151898734","73.41772151898734","933.3164556962025","933.3164556962025","black","experiment","legacy","legacy","legacy","0","uniform","0","undefined","0","left","78","78","78","0","0","78","78","0","0","78","78","78","0","78","0","Sun Oct 25 16:56:41 2020","The main experiment item","yes","Sternbergtask oct 19.osexp","/Users/shelia/Desktop","no","mono","no","18","no","white","no","yes","768","legacy","66","11","/Users/shelia/Desktop/ST-subject-2 Oct 25.csv","legacy","4","Lentiform Loewenfeld","3.3.3","1","y","0","right","return","left","right","NA","98","8496","4846","98","NA","2","legacy","1","1024","2","48000","-16","experiment","2","even","4","509823","506504","507566","2646","89146","507580","482433","2661","84299","511941","508601","511842","11171","511842","NA","Sternberg task","58","73732","79","yes","1024"
"73.75","73.75","928.7375","928.7375","black","experiment","legacy","legacy","legacy","0","uniform","1","undefined","1","right","79","79","79","0","0","79","79","0","0","79","79","79","0","79","0","Sun Oct 25 16:56:41 2020","The main experiment item","yes","Sternbergtask oct 19.osexp","/Users/shelia/Desktop","no","mono","no","18","no","white","no","yes","768","legacy","67","11","/Users/shelia/Desktop/ST-subject-2 Oct 25.csv","legacy","1 6 4","Lentiform Loewenfeld","3.3.3","0","n","0","right","return","left","right","NA","567","8496","4846","567","NA","2","legacy","3","1024","2","48000","-16","experiment","2","even","7","515273","506504","513018","2646","89146","513031","511956","2661","84299","517862","514052","517294","11171","517294","NA","Sternberg task","59","74299","80","yes","1024"
"72.8395061728395","72.8395061728395","941.9629629629629","941.9629629629629","black","experiment","legacy","legacy","legacy","0","uniform","0","undefined","0","left","80","80","80","0","0","80","80","0","0","80","80","80","0","80","0","Sun Oct 25 16:56:41 2020","The main experiment item","yes","Sternbergtask oct 19.osexp","/Users/shelia/Desktop","no","mono","no","18","no","white","no","yes","768","legacy","68","11","/Users/shelia/Desktop/ST-subject-2 Oct 25.csv","legacy","2 4 6 9","Lentiform Loewenfeld","3.3.3","3","y","0","None","return","left","None","NA","2000","8496","4846","2000","NA","2","legacy","4","1024","2","48000","-16","experiment","2","even","6","521186","517877","518930","2646","89146","518944","511956","2661","84299","525205","519964","523205","11171","523205","NA","Sternberg task","59","76299","81","yes","1024"
"73.17073170731707","73.17073170731707","938.890243902439","938.890243902439","black","experiment","legacy","legacy","legacy","0","uniform","1","undefined","1","right","81","81","81","0","0","81","81","0","0","81","81","81","0","81","0","Sun Oct 25 16:56:41 2020","The main experiment item","yes","Sternbergtask oct 19.osexp","/Users/shelia/Desktop","no","mono","no","18","no","white","no","yes","768","legacy","69","11","/Users/shelia/Desktop/ST-subject-2 Oct 25.csv","legacy","6 2 9 3 8 4","Lentiform Loewenfeld","3.3.3","0","n","0","right","return","left","right","NA","690","8496","4846","690","NA","2","legacy","6","1024","2","48000","-16","experiment","2","even","1","528537","517877","526280","2646","89146","526293","525220","2661","84299","531248","527314","530557","11171","530557","NA","Sternberg task","60","76989","82","yes","1024"
"73.49397590361446","73.49397590361446","933.6385542168674","933.6385542168674","black","experiment","legacy","legacy","legacy","0","uniform","1","undefined","1","right","82","82","82","0","0","82","82","0","0","82","82","82","0","82","0","Sun Oct 25 16:56:41 2020","The main experiment item","yes","Sternbergtask oct 19.osexp","/Users/shelia/Desktop","no","mono","no","18","no","white","no","yes","768","legacy","70","11","/Users/shelia/Desktop/ST-subject-2 Oct 25.csv","legacy","1 3 2 6 9","Lentiform Loewenfeld","3.3.3","0","n","0","right","return","left","right","NA","503","8496","4846","503","NA","2","legacy","5","1024","2","48000","-16","experiment","2","even","5","534584","531263","532326","2646","89146","532338","525220","2661","84299","537107","533359","536603","11171","536603","NA","Sternberg task","61","77492","83","yes","1024"
"73.80952380952381","73.80952380952381","925.3809523809524","925.3809523809524","black","experiment","legacy","legacy","legacy","0","uniform","1","undefined","1","right","83","83","83","0","0","83","83","0","0","83","83","83","0","83","0","Sun Oct 25 16:56:41 2020","The main experiment item","yes","Sternbergtask oct 19.osexp","/Users/shelia/Desktop","no","mono","no","18","no","white","no","yes","768","legacy","71","11","/Users/shelia/Desktop/ST-subject-2 Oct 25.csv","legacy","1 7 5 2","Lentiform Loewenfeld","3.3.3","0","n","0","right","return","left","right","NA","240","8496","4846","240","NA","2","legacy","4","1024","2","48000","-16","experiment","2","even","3","540440","537123","538183","2646","89146","538196","525220","2661","84299","542700","539217","542459","11171","542459","NA","Sternberg task","62","77732","84","yes","1024"
"74.11764705882354","74.11764705882354","919.9764705882353","919.9764705882353","black","experiment","legacy","legacy","legacy","0","uniform","1","undefined","1","left","84","84","84","0","0","84","84","0","0","84","84","84","0","84","0","Sun Oct 25 16:56:41 2020","The main experiment item","yes","Sternbergtask oct 19.osexp","/Users/shelia/Desktop","no","mono","no","18","no","white","no","yes","768","legacy","72","11","/Users/shelia/Desktop/ST-subject-2 Oct 25.csv","legacy","9 3 1 2 5","Lentiform Loewenfeld","3.3.3","4","y","0","left","return","left","left","NA","466","8496","4846","466","NA","2","legacy","5","1024","2","48000","-16","experiment","2","even","2","546036","542716","543780","2646","89146","543793","525220","2661","84299","548523","544813","548056","11171","548056","NA","Sternberg task","63","78198","85","yes","1024"
"74.4186046511628","74.4186046511628","915.6976744186046","915.6976744186046","black","experiment","legacy","legacy","legacy","0","uniform","1","undefined","1","right","85","85","85","0","0","85","85","0","0","85","85","85","0","85","0","Sun Oct 25 16:56:41 2020","The main experiment item","yes","Sternbergtask oct 19.osexp","/Users/shelia/Desktop","no","mono","no","18","no","white","no","yes","768","legacy","73","11","/Users/shelia/Desktop/ST-subject-2 Oct 25.csv","legacy","5 7 3","Lentiform Loewenfeld","3.3.3","0","n","0","right","return","left","right","NA","552","8496","4846","552","NA","2","legacy","3","1024","2","48000","-16","experiment","2","even","9","551856","548539","549599","2646","89146","549613","525220","2661","84299","554428","550633","553875","11171","553875","NA","Sternberg task","64","78750","86","yes","1024"
"74.71264367816092","74.71264367816092","911.2413793103449","911.2413793103449","black","experiment","legacy","legacy","legacy","0","uniform","1","undefined","1","right","86","86","86","0","0","86","86","0","0","86","86","86","0","86","0","Sun Oct 25 16:56:41 2020","The main experiment item","yes","Sternbergtask oct 19.osexp","/Users/shelia/Desktop","no","mono","no","18","no","white","no","yes","768","legacy","74","11","/Users/shelia/Desktop/ST-subject-2 Oct 25.csv","legacy","7 1 8 4 9 3","Lentiform Loewenfeld","3.3.3","0","n","0","right","return","left","right","NA","528","8496","4846","528","NA","2","legacy","6","1024","2","48000","-16","experiment","2","even","6","557762","554443","555506","2646","89146","555519","525220","2661","84299","560312","556540","559782","11171","559782","NA","Sternberg task","65","79278","87","yes","1024"
"75","75","907.7840909090909","907.7840909090909","black","experiment","legacy","legacy","legacy","0","uniform","1","undefined","1","left","87","87","87","0","0","87","87","0","0","87","87","87","0","87","0","Sun Oct 25 16:56:41 2020","The main experiment item","yes","Sternbergtask oct 19.osexp","/Users/shelia/Desktop","no","mono","no","18","no","white","no","yes","768","legacy","75","11","/Users/shelia/Desktop/ST-subject-2 Oct 25.csv","legacy","7 2 3","Lentiform Loewenfeld","3.3.3","3","y","0","left","return","left","left","NA","607","8496","4846","607","NA","2","legacy","3","1024","2","48000","-16","experiment","2","even","3","563647","560327","561390","2646","89146","561403","525220","2661","84299","566274","562424","565666","11171","565666","NA","Sternberg task","66","79885","88","yes","1024"
"75.28089887640449","75.28089887640449","914.2808988764045","914.2808988764045","black","experiment","legacy","legacy","legacy","0","uniform","1","undefined","1","right","88","88","88","0","0","88","88","0","0","88","88","88","0","88","0","Sun Oct 25 16:56:41 2020","The main experiment item","yes","Sternbergtask oct 19.osexp","/Users/shelia/Desktop","no","mono","no","18","no","white","no","yes","768","legacy","76","11","/Users/shelia/Desktop/ST-subject-2 Oct 25.csv","legacy","3 9 8 1 6 4","Lentiform Loewenfeld","3.3.3","0","n","0","right","return","left","right","NA","1486","8496","4846","1486","NA","2","legacy","6","1024","2","48000","-16","experiment","2","even","7","569609","566289","567352","2646","89146","567365","525220","2661","84299","573116","568385","571629","11171","571628","NA","Sternberg task","67","81371","89","yes","1024"
"75.55555555555556","75.55555555555556","913.4","913.4","black","experiment","legacy","legacy","legacy","0","uniform","1","undefined","1","right","89","89","89","0","0","89","89","0","0","89","89","89","0","89","0","Sun Oct 25 16:56:41 2020","The main experiment item","yes","Sternbergtask oct 19.osexp","/Users/shelia/Desktop","no","mono","no","18","no","white","no","yes","768","legacy","77","11","/Users/shelia/Desktop/ST-subject-2 Oct 25.csv","legacy","8 4 3 9","Lentiform Loewenfeld","3.3.3","0","n","0","right","return","left","right","NA","835","8496","4846","835","NA","2","legacy","4","1024","2","48000","-16","experiment","2","even","5","576449","573130","574192","2646","89146","574205","525220","2661","84299","579305","575226","578469","11171","578469","NA","Sternberg task","68","82206","90","yes","1024"
"75.82417582417582","75.82417582417582","911.6703296703297","911.6703296703297","black","experiment","legacy","legacy","legacy","0","uniform","1","undefined","1","right","90","90","90","0","0","90","90","0","0","90","90","90","0","90","0","Sun Oct 25 16:56:41 2020","The main experiment item","yes","Sternbergtask oct 19.osexp","/Users/shelia/Desktop","no","mono","no","18","no","white","no","yes","768","legacy","78","11","/Users/shelia/Desktop/ST-subject-2 Oct 25.csv","legacy","1 6 4 3 9 7","Lentiform Loewenfeld","3.3.3","0","n","0","right","return","left","right","NA","756","8496","4846","756","NA","2","legacy","6","1024","2","48000","-16","experiment","2","even","8","582636","579321","580381","2646","89146","580394","525220","2661","84299","585412","581416","584655","11171","584655","NA","Sternberg task","69","82962","91","yes","1024"
"76.08695652173913","76.08695652173913","904.9347826086956","904.9347826086956","black","experiment","legacy","legacy","legacy","0","uniform","1","undefined","1","right","91","91","91","0","0","91","91","0","0","91","91","91","0","91","0","Sun Oct 25 16:56:41 2020","The main experiment item","yes","Sternbergtask oct 19.osexp","/Users/shelia/Desktop","no","mono","no","18","no","white","no","yes","768","legacy","79","11","/Users/shelia/Desktop/ST-subject-2 Oct 25.csv","legacy","2 3 8 5 6 7","Lentiform Loewenfeld","3.3.3","0","n","0","right","return","left","right","NA","292","8496","4846","292","NA","2","legacy","6","1024","2","48000","-16","experiment","2","even","1","588747","585427","586492","2646","89146","586505","525220","2661","84299","591060","587525","590767","11171","590767","NA","Sternberg task","70","83254","92","yes","1024"
"76.34408602150538","76.34408602150538","900.3870967741935","900.3870967741935","black","experiment","legacy","legacy","legacy","0","uniform","1","undefined","1","right","92","92","92","0","0","92","92","0","0","92","92","92","0","92","0","Sun Oct 25 16:56:41 2020","The main experiment item","yes","Sternbergtask oct 19.osexp","/Users/shelia/Desktop","no","mono","no","18","no","white","no","yes","768","legacy","80","11","/Users/shelia/Desktop/ST-subject-2 Oct 25.csv","legacy","2 6 4 3 9","Lentiform Loewenfeld","3.3.3","0","n","0","right","return","left","right","NA","482","8496","4846","482","NA","2","legacy","5","1024","2","48000","-16","experiment","2","even","1","594397","591076","592140","2646","89146","592153","525220","2661","84299","596899","593174","596416","11171","596416","NA","Sternberg task","71","83736","93","yes","1024"
"76.59574468085107","76.59574468085107","899.4787234042553","899.4787234042553","black","experiment","legacy","legacy","legacy","0","uniform","1","undefined","1","left","93","93","93","0","0","93","93","0","0","93","93","93","0","93","0","Sun Oct 25 16:56:41 2020","The main experiment item","yes","Sternbergtask oct 19.osexp","/Users/shelia/Desktop","no","mono","no","18","no","white","no","yes","768","legacy","81","11","/Users/shelia/Desktop/ST-subject-2 Oct 25.csv","legacy","7 8 4 6 9 5","Lentiform Loewenfeld","3.3.3","4","y","0","left","return","left","left","NA","815","8496","4846","815","NA","2","legacy","6","1024","2","48000","-16","experiment","2","even","6","600234","596914","597978","2646","89146","597991","525220","2661","84299","603069","599011","602253","11171","602253","NA","Sternberg task","72","84551","94","yes","1024"
"76.84210526315789","76.84210526315789","900.8105263157895","900.8105263157895","black","experiment","legacy","legacy","legacy","0","uniform","1","undefined","1","left","94","94","94","0","0","94","94","0","0","94","94","94","0","94","0","Sun Oct 25 16:56:41 2020","The main experiment item","yes","Sternbergtask oct 19.osexp","/Users/shelia/Desktop","no","mono","no","18","no","white","no","yes","768","legacy","82","11","/Users/shelia/Desktop/ST-subject-2 Oct 25.csv","legacy","7","Lentiform Loewenfeld","3.3.3","1","y","0","left","return","left","left","NA","1026","8496","4846","1026","NA","2","legacy","1","1024","2","48000","-16","experiment","2","even","7","606401","603084","604144","2646","89146","604157","525220","2661","84299","609448","605178","608421","11171","608420","NA","Sternberg task","73","85577","95","yes","1024"
"77.08333333333333","77.08333333333333","898.4583333333334","898.4583333333334","black","experiment","legacy","legacy","legacy","0","uniform","1","undefined","1","left","95","95","95","0","0","95","95","0","0","95","95","95","0","95","0","Sun Oct 25 16:56:41 2020","The main experiment item","yes","Sternbergtask oct 19.osexp","/Users/shelia/Desktop","no","mono","no","18","no","white","no","yes","768","legacy","83","11","/Users/shelia/Desktop/ST-subject-2 Oct 25.csv","legacy","8 9 6 1","Lentiform Loewenfeld","3.3.3","2","y","0","left","return","left","left","NA","675","8496","4846","675","NA","2","legacy","4","1024","2","48000","-16","experiment","2","even","9","612786","609465","610528","2646","89146","610542","525220","2661","84299","615481","611563","614805","11171","614805","NA","Sternberg task","74","86252","96","yes","1024"
"77.31958762886597","77.31958762886597","908.7010309278351","908.7010309278351","black","experiment","legacy","legacy","legacy","0","uniform","1","undefined","1","left","96","96","96","0","0","96","96","0","0","96","96","96","0","96","0","Sun Oct 25 16:56:41 2020","The main experiment item","yes","Sternbergtask oct 19.osexp","/Users/shelia/Desktop","no","mono","no","18","no","white","no","yes","768","legacy","84","11","/Users/shelia/Desktop/ST-subject-2 Oct 25.csv","legacy","8","Lentiform Loewenfeld","3.3.3","1","y","0","left","return","left","left","NA","1892","8496","4846","1892","NA","2","legacy","1","1024","2","48000","-16","experiment","2","even","8","618816","615497","616560","2646","89146","616573","525220","2661","84299","622728","617593","620835","11171","620835","NA","Sternberg task","75","88144","97","yes","1024"
"77.55102040816327","77.55102040816327","909.5102040816327","909.5102040816327","black","experiment","legacy","legacy","legacy","0","uniform","1","undefined","1","right","97","97","97","0","0","97","97","0","0","97","97","97","0","97","0","Sun Oct 25 16:56:41 2020","The main experiment item","yes","Sternbergtask oct 19.osexp","/Users/shelia/Desktop","no","mono","no","18","no","white","no","yes","768","legacy","85","11","/Users/shelia/Desktop/ST-subject-2 Oct 25.csv","legacy","9 5 3 2 8 6","Lentiform Loewenfeld","3.3.3","0","n","0","right","return","left","right","NA","988","8496","4846","988","NA","2","legacy","6","1024","2","48000","-16","experiment","2","even","7","626059","622742","623803","2646","89146","623816","525220","2661","84299","629067","624836","628078","11171","628078","NA","Sternberg task","76","89132","98","yes","1024"
"76.76767676767676","76.76767676767676","920.5252525252525","920.5252525252525","black","experiment","legacy","legacy","legacy","0","uniform","0","undefined","0","right","98","98","98","0","0","98","98","0","0","98","98","98","0","98","0","Sun Oct 25 16:56:41 2020","The main experiment item","yes","Sternbergtask oct 19.osexp","/Users/shelia/Desktop","no","mono","no","18","no","white","no","yes","768","legacy","86","11","/Users/shelia/Desktop/ST-subject-2 Oct 25.csv","legacy","7 1","Lentiform Loewenfeld","3.3.3","0","n","0","None","return","left","None","NA","2000","8496","4846","2000","NA","2","legacy","2","1024","2","48000","-16","experiment","2","even","8","632402","629082","630145","2646","89146","630158","525220","2661","84299","636421","631179","634421","11171","634421","NA","Sternberg task","76","91132","99","yes","1024"
"77","77","928.44","928.44","black","experiment","legacy","legacy","legacy","0","uniform","1","undefined","1","right","99","99","99","0","0","99","99","0","0","99","99","99","0","99","0","Sun Oct 25 16:56:41 2020","The main experiment item","yes","Sternbergtask oct 19.osexp","/Users/shelia/Desktop","no","mono","no","18","no","white","no","yes","768","legacy","87","11","/Users/shelia/Desktop/ST-subject-2 Oct 25.csv","legacy","8 5 4 2 9 6","Lentiform Loewenfeld","3.3.3","0","n","0","right","return","left","right","NA","1712","8496","4846","1712","NA","2","legacy","6","1024","2","48000","-16","experiment","2","even","3","639756","629082","637499","2646","89146","637512","636436","2661","84299","643488","638532","641775","11171","641775","NA","Sternberg task","77","92844","100","yes","1024"
"77.22772277227723","77.22772277227723","924.6633663366337","924.6633663366337","black","experiment","legacy","legacy","legacy","0","uniform","1","undefined","1","right","100","100","100","0","0","100","100","0","0","100","100","100","0","100","0","Sun Oct 25 16:56:41 2020","The main experiment item","yes","Sternbergtask oct 19.osexp","/Users/shelia/Desktop","no","mono","no","18","no","white","no","yes","768","legacy","88","11","/Users/shelia/Desktop/ST-subject-2 Oct 25.csv","legacy","8 4 3 5","Lentiform Loewenfeld","3.3.3","0","n","0","right","return","left","right","NA","547","8496","4846","547","NA","2","legacy","4","1024","2","48000","-16","experiment","2","even","6","646824","643503","644567","2646","89146","644580","636436","2661","84299","649391","645601","648843","11171","648843","NA","Sternberg task","78","93391","101","yes","1024"
"76.47058823529412","76.47058823529412","935.2058823529412","935.2058823529412","black","experiment","legacy","legacy","legacy","0","uniform","0","undefined","0","left","101","101","101","0","0","101","101","0","0","101","101","101","0","101","0","Sun Oct 25 16:56:41 2020","The main experiment item","yes","Sternbergtask oct 19.osexp","/Users/shelia/Desktop","no","mono","no","18","no","white","no","yes","768","legacy","89","11","/Users/shelia/Desktop/ST-subject-2 Oct 25.csv","legacy","4 6 2 5 1","Lentiform Loewenfeld","3.3.3","5","y","0","None","return","left","None","NA","2000","8496","4846","2000","NA","2","legacy","5","1024","2","48000","-16","experiment","2","even","1","652728","649406","650471","2646","89146","650484","636436","2661","84299","656747","651505","654747","11171","654747","NA","Sternberg task","78","95391","102","yes","1024"
"76.69902912621359","76.69902912621359","931.1650485436893","931.1650485436893","black","experiment","legacy","legacy","legacy","0","uniform","1","undefined","1","left","102","102","102","0","0","102","102","0","0","102","102","102","0","102","0","Sun Oct 25 16:56:41 2020","The main experiment item","yes","Sternbergtask oct 19.osexp","/Users/shelia/Desktop","no","mono","no","18","no","white","no","yes","768","legacy","90","11","/Users/shelia/Desktop/ST-subject-2 Oct 25.csv","legacy","4 6 5 8","Lentiform Loewenfeld","3.3.3","1","y","0","left","return","left","left","NA","519","8496","4846","519","NA","2","legacy","4","1024","2","48000","-16","experiment","2","even","4","660082","649406","657827","2646","89146","657839","656763","2661","84299","662621","658860","662101","11171","662101","NA","Sternberg task","79","95910","103","yes","1024"
"76.92307692307692","76.92307692307692","935.0576923076923","935.0576923076923","black","experiment","legacy","legacy","legacy","0","uniform","1","undefined","1","right","103","103","103","0","0","103","103","0","0","103","103","103","0","103","0","Sun Oct 25 16:56:41 2020","The main experiment item","yes","Sternbergtask oct 19.osexp","/Users/shelia/Desktop","no","mono","no","18","no","white","no","yes","768","legacy","91","11","/Users/shelia/Desktop/ST-subject-2 Oct 25.csv","legacy","8 2 1 4 5 9","Lentiform Loewenfeld","3.3.3","0","n","0","right","return","left","right","NA","1336","8496","4846","1336","NA","2","legacy","6","1024","2","48000","-16","experiment","2","even","7","665956","662636","663698","2646","89146","663712","656763","2661","84299","669312","664732","667975","11171","667975","NA","Sternberg task","80","97246","104","yes","1024"
"77.14285714285714","77.14285714285714","935.9047619047619","935.9047619047619","black","experiment","legacy","legacy","legacy","0","uniform","1","undefined","1","right","104","104","104","0","0","104","104","0","0","104","104","104","0","104","0","Sun Oct 25 16:56:41 2020","The main experiment item","yes","Sternbergtask oct 19.osexp","/Users/shelia/Desktop","no","mono","no","18","no","white","no","yes","768","legacy","92","11","/Users/shelia/Desktop/ST-subject-2 Oct 25.csv","legacy","3 4 2","Lentiform Loewenfeld","3.3.3","0","n","0","right","return","left","right","NA","1024","8496","4846","1024","NA","2","legacy","3","1024","2","48000","-16","experiment","2","even","5","672646","669327","670389","2646","89146","670402","656763","2661","84299","675690","671423","674665","11171","674665","NA","Sternberg task","81","98270","105","yes","1024"
"76.41509433962264","76.41509433962264","945.9433962264151","945.9433962264151","black","experiment","legacy","legacy","legacy","0","uniform","0","undefined","0","left","105","105","105","0","0","105","105","0","0","105","105","105","0","105","0","Sun Oct 25 16:56:41 2020","The main experiment item","yes","Sternbergtask oct 19.osexp","/Users/shelia/Desktop","no","mono","no","18","no","white","no","yes","768","legacy","93","11","/Users/shelia/Desktop/ST-subject-2 Oct 25.csv","legacy","4 1 5","Lentiform Loewenfeld","3.3.3","2","y","0","None","return","left","None","NA","2000","8496","4846","2000","NA","2","legacy","3","1024","2","48000","-16","experiment","2","even","1","679021","675705","676766","2646","89146","676779","656763","2661","84299","683041","677800","681041","11171","681041","NA","Sternberg task","81","100270","106","yes","1024"
"76.6355140186916","76.6355140186916","945.8130841121496","945.8130841121496","black","experiment","legacy","legacy","legacy","0","uniform","1","undefined","1","right","106","106","106","0","0","106","106","0","0","106","106","106","0","106","0","Sun Oct 25 16:56:41 2020","The main experiment item","yes","Sternbergtask oct 19.osexp","/Users/shelia/Desktop","no","mono","no","18","no","white","no","yes","768","legacy","94","11","/Users/shelia/Desktop/ST-subject-2 Oct 25.csv","legacy","6 9 4 5 2","Lentiform Loewenfeld","3.3.3","0","n","0","right","return","left","right","NA","932","8496","4846","932","NA","2","legacy","5","1024","2","48000","-16","experiment","2","even","1","686373","675705","684116","2646","89146","684129","683056","2661","84299","689325","685149","688392","11171","688392","NA","Sternberg task","82","101202","107","yes","1024"
"76.85185185185185","76.85185185185185","937.6203703703703","937.6203703703703","black","experiment","legacy","legacy","legacy","0","uniform","1","undefined","1","left","107","107","107","0","0","107","107","0","0","107","107","107","0","107","0","Sun Oct 25 16:56:41 2020","The main experiment item","yes","Sternbergtask oct 19.osexp","/Users/shelia/Desktop","no","mono","no","18","no","white","no","yes","768","legacy","95","11","/Users/shelia/Desktop/ST-subject-2 Oct 25.csv","legacy","3 9 6 2","Lentiform Loewenfeld","3.3.3","4","y","0","left","return","left","left","NA","61","8496","4846","61","NA","2","legacy","4","1024","2","48000","-16","experiment","2","even","2","692658","689340","690401","2646","89146","690414","683056","2661","84299","694739","691435","694677","11171","694677","NA","Sternberg task","83","101263","108","yes","1024"
"77.06422018348624","77.06422018348624","930.5412844036697","930.5412844036697","black","experiment","legacy","legacy","legacy","0","uniform","1","undefined","1","right","108","108","108","0","0","108","108","0","0","108","108","108","0","108","0","Sun Oct 25 16:56:41 2020","The main experiment item","yes","Sternbergtask oct 19.osexp","/Users/shelia/Desktop","no","mono","no","18","no","white","no","yes","768","legacy","96","11","/Users/shelia/Desktop/ST-subject-2 Oct 25.csv","legacy","9 7 4 5 8","Lentiform Loewenfeld","3.3.3","0","n","0","right","return","left","right","NA","166","8496","4846","166","NA","2","legacy","5","1024","2","48000","-16","experiment","2","even","6","698067","694754","695812","2646","89146","695824","683056","2661","84299","700253","696845","700086","11171","700086","NA","Sternberg task","84","101429","109","yes","1024"
"77.27272727272727","77.27272727272727","927.5909090909091","927.5909090909091","black","experiment","legacy","legacy","legacy","0","uniform","1","undefined","1","left","109","109","109","0","0","109","109","0","0","109","109","109","0","109","0","Sun Oct 25 16:56:41 2020","The main experiment item","yes","Sternbergtask oct 19.osexp","/Users/shelia/Desktop","no","mono","no","18","no","white","no","yes","768","legacy","97","11","/Users/shelia/Desktop/ST-subject-2 Oct 25.csv","legacy","8 5 1 3 9","Lentiform Loewenfeld","3.3.3","4","y","0","left","return","left","left","NA","606","8496","4846","606","NA","2","legacy","5","1024","2","48000","-16","experiment","2","even","3","703587","700269","701330","2646","89146","701343","683056","2661","84299","706213","702364","705606","11171","705606","NA","Sternberg task","85","102035","110","yes","1024"
"77.47747747747748","77.47747747747748","924.6306306306307","924.6306306306307","black","experiment","legacy","legacy","legacy","0","uniform","1","undefined","1","left","110","110","110","0","0","110","110","0","0","110","110","110","0","110","0","Sun Oct 25 16:56:41 2020","The main experiment item","yes","Sternbergtask oct 19.osexp","/Users/shelia/Desktop","no","mono","no","18","no","white","no","yes","768","legacy","98","11","/Users/shelia/Desktop/ST-subject-2 Oct 25.csv","legacy","9 5 3 8 4","Lentiform Loewenfeld","3.3.3","1","y","0","left","return","left","left","NA","599","8496","4846","599","NA","2","legacy","5","1024","2","48000","-16","experiment","2","even","9","709547","706227","707289","2646","89146","707302","683056","2661","84299","712166","708323","711566","11171","711566","NA","Sternberg task","86","102634","111","yes","1024"
"77.67857142857143","77.67857142857143","921.3482142857143","921.3482142857143","black","experiment","legacy","legacy","legacy","0","uniform","1","undefined","1","left","111","111","111","0","0","111","111","0","0","111","111","111","0","111","0","Sun Oct 25 16:56:41 2020","The main experiment item","yes","Sternbergtask oct 19.osexp","/Users/shelia/Desktop","no","mono","no","18","no","white","no","yes","768","legacy","99","11","/Users/shelia/Desktop/ST-subject-2 Oct 25.csv","legacy","9 4 2","Lentiform Loewenfeld","3.3.3","1","y","0","left","return","left","left","NA","557","8496","4846","557","NA","2","legacy","3","1024","2","48000","-16","experiment","2","even","9","715499","712182","713242","2646","89146","713255","683056","2661","84299","718076","714276","717518","11171","717518","NA","Sternberg task","87","103191","112","yes","1024"
"77.87610619469027","77.87610619469027","920.6283185840708","920.6283185840708","black","experiment","legacy","legacy","legacy","0","uniform","1","undefined","1","right","112","112","112","0","0","112","112","0","0","112","112","112","0","112","0","Sun Oct 25 16:56:41 2020","The main experiment item","yes","Sternbergtask oct 19.osexp","/Users/shelia/Desktop","no","mono","no","18","no","white","no","yes","768","legacy","100","11","/Users/shelia/Desktop/ST-subject-2 Oct 25.csv","legacy","7 1 5 6 3","Lentiform Loewenfeld","3.3.3","0","n","0","right","return","left","right","NA","840","8496","4846","840","NA","2","legacy","5","1024","2","48000","-16","experiment","2","even","8","721412","718091","719155","2646","89146","719168","683056","2661","84299","724272","720189","723431","11171","723431","NA","Sternberg task","88","104031","113","yes","1024"
"78.0701754385965","78.0701754385965","923.421052631579","923.421052631579","black","experiment","legacy","legacy","legacy","0","uniform","1","undefined","1","right","113","113","113","0","0","113","113","0","0","113","113","113","0","113","0","Sun Oct 25 16:56:41 2020","The main experiment item","yes","Sternbergtask oct 19.osexp","/Users/shelia/Desktop","no","mono","no","18","no","white","no","yes","768","legacy","101","11","/Users/shelia/Desktop/ST-subject-2 Oct 25.csv","legacy","1","Lentiform Loewenfeld","3.3.3","0","n","0","right","return","left","right","NA","1239","8496","4846","1239","NA","2","legacy","1","1024","2","48000","-16","experiment","2","even","7","727605","724287","725348","2646","89146","725361","683056","2661","84299","730864","726382","729624","11171","729624","NA","Sternberg task","89","105270","114","yes","1024"
"78.26086956521739","78.26086956521739","921.4782608695652","921.4782608695652","black","experiment","legacy","legacy","legacy","0","uniform","1","undefined","1","right","114","114","114","0","0","114","114","0","0","114","114","114","0","114","0","Sun Oct 25 16:56:41 2020","The main experiment item","yes","Sternbergtask oct 19.osexp","/Users/shelia/Desktop","no","mono","no","18","no","white","no","yes","768","legacy","102","11","/Users/shelia/Desktop/ST-subject-2 Oct 25.csv","legacy","5 9 2 3","Lentiform Loewenfeld","3.3.3","0","n","0","right","return","left","right","NA","700","8496","4846","700","NA","2","legacy","4","1024","2","48000","-16","experiment","2","even","8","734197","730880","731941","2646","89146","731954","683056","2661","84299","736917","732975","736216","11171","736216","NA","Sternberg task","90","105970","115","yes","1024"
"78.44827586206897","78.44827586206897","918.7068965517242","918.7068965517242","black","experiment","legacy","legacy","legacy","0","uniform","1","undefined","1","left","115","115","115","0","0","115","115","0","0","115","115","115","0","115","0","Sun Oct 25 16:56:41 2020","The main experiment item","yes","Sternbergtask oct 19.osexp","/Users/shelia/Desktop","no","mono","no","18","no","white","no","yes","768","legacy","103","11","/Users/shelia/Desktop/ST-subject-2 Oct 25.csv","legacy","9 1 6 7 8","Lentiform Loewenfeld","3.3.3","1","y","0","left","return","left","left","NA","600","8496","4846","600","NA","2","legacy","5","1024","2","48000","-16","experiment","2","even","9","740250","736932","737994","2646","89146","738006","683056","2661","84299","742870","739027","742269","11171","742269","NA","Sternberg task","91","106570","116","yes","1024"
"78.63247863247864","78.63247863247864","918.1196581196581","918.1196581196581","black","experiment","legacy","legacy","legacy","0","uniform","1","undefined","1","right","116","116","116","0","0","116","116","0","0","116","116","116","0","116","0","Sun Oct 25 16:56:41 2020","The main experiment item","yes","Sternbergtask oct 19.osexp","/Users/shelia/Desktop","no","mono","no","18","no","white","no","yes","768","legacy","104","11","/Users/shelia/Desktop/ST-subject-2 Oct 25.csv","legacy","7 3 2 8","Lentiform Loewenfeld","3.3.3","0","n","0","right","return","left","right","NA","850","8496","4846","850","NA","2","legacy","4","1024","2","48000","-16","experiment","2","even","4","746206","742885","743949","2646","89146","743963","683056","2661","84299","749076","744984","748225","11171","748225","NA","Sternberg task","92","107420","117","yes","1024"
"78.8135593220339","78.8135593220339","916.7457627118644","916.7457627118644","black","experiment","legacy","legacy","legacy","0","uniform","1","undefined","1","right","117","117","117","0","0","117","117","0","0","117","117","117","0","117","0","Sun Oct 25 16:56:41 2020","The main experiment item","yes","Sternbergtask oct 19.osexp","/Users/shelia/Desktop","no","mono","no","18","no","white","no","yes","768","legacy","105","11","/Users/shelia/Desktop/ST-subject-2 Oct 25.csv","legacy","2 5 1 4","Lentiform Loewenfeld","3.3.3","0","n","0","right","return","left","right","NA","756","8496","4846","756","NA","2","legacy","4","1024","2","48000","-16","experiment","2","even","6","752413","749092","750156","2646","89146","750169","683056","2661","84299","755189","751190","754432","11171","754432","NA","Sternberg task","93","108176","118","yes","1024"
