"acc","accuracy","average_response_time","avg_rt","background","block","canvas_backend","clock_backend","color_backend","compensation","coordinates","correct","correct_instructions1","correct_new_keyboard_response","correct_response","count_ISI","count_MemorySet","count_PracticeLoop","count_correctFeedback","count_expSequence","count_experiment","count_experimentLoop","count_fixation","count_incorrectFeedback","count_instructions1","count_instructions2","count_logger","count_new_keyboard_response","count_probe","count_thankYou","datetime","description","disable_garbage_collection","experiment_file","experiment_path","font_bold","font_family","font_italic","font_size","font_underline","foreground","form_clicks","fullscreen","height","keyboard_backend","live_row","live_row_PracticeLoop","logfile","mouse_backend","numberSet","opensesame_codename","opensesame_version","posInSet","present","repeat_cycle","response","response_instructions1","response_instructions2","response_new_keyboard_response","response_thankYou","response_time","response_time_instructions1","response_time_instructions2","response_time_new_keyboard_response","response_time_thankYou","round_decimals","sampler_backend","setSize","sound_buf_size","sound_channels","sound_freq","sound_sample_size","start","subject_nr","subject_parity","target","time_ISI","time_MemorySet","time_PracticeLoop","time_correctFeedback","time_expSequence","time_experiment","time_experimentLoop","time_fixation","time_incorrectFeedback","time_instructions1","time_instructions2","time_logger","time_new_keyboard_response","time_probe","time_thankYou","title","total_correct","total_response_time","total_responses","uniform_coordinates","width"
"0","0","2000","2000","black","practice","legacy","legacy","legacy","0","uniform","0","undefined","0","left","0","0","0","0","0","0","0","0","0","0","0","0","0","0","0","Sun Oct 25 18:40:38 2020","The main experiment item","yes","HoughSternbergTask.osexp","/Users/tionnahough/Desktop/Fall 2020","no","mono","no","18","no","white","no","yes","768","legacy","0","0","/Users/tionnahough/Desktop/th-subject-2.csv","legacy","6","Lentiform Loewenfeld","3.3.3","1","y","0","None","right","NA","None","NA","2000","46242","NA","2000","NA","2","legacy","1","1024","2","48000","-16","experiment","2","even","6","52135","50920","49498","NA","49896","3199","NA","49908","NA","3234","NA","56147","54147","54147","NA","Sternberg Task","0","2000","1","yes","1024"
"0","0","1330.5","1330.5","black","practice","legacy","legacy","legacy","0","uniform","0","undefined","0","right","1","1","0","1","1","0","0","1","1","0","0","1","1","1","0","Sun Oct 25 18:40:38 2020","The main experiment item","yes","HoughSternbergTask.osexp","/Users/tionnahough/Desktop/Fall 2020","no","mono","no","18","no","white","no","yes","768","legacy","1","1","/Users/tionnahough/Desktop/th-subject-2.csv","legacy","5 7 8 4 1 2","Lentiform Loewenfeld","3.3.3","0","n","0","left","right","NA","left","NA","661","46242","NA","661","NA","2","legacy","6","1024","2","48000","-16","experiment","2","even","6","59545","58331","49498","NA","57307","3199","NA","57319","56201","3234","NA","62219","61557","61557","NA","Sternberg Task","0","2661","2","yes","1024"
"0","0","1553.6666666666667","1553.6666666666667","black","practice","legacy","legacy","legacy","0","uniform","0","undefined","0","right","2","2","0","2","2","0","0","2","2","0","0","2","2","2","0","Sun Oct 25 18:40:38 2020","The main experiment item","yes","HoughSternbergTask.osexp","/Users/tionnahough/Desktop/Fall 2020","no","mono","no","18","no","white","no","yes","768","legacy","2","2","/Users/tionnahough/Desktop/th-subject-2.csv","legacy","5","Lentiform Loewenfeld","3.3.3","0","n","0","None","right","NA","None","NA","2000","46242","NA","2000","NA","2","legacy","1","1024","2","48000","-16","experiment","2","even","3","65567","64356","49498","NA","63332","3199","NA","63345","62240","3234","NA","69578","67578","67578","NA","Sternberg Task","0","4661","3","yes","1024"
"25","25","1443.5","1443.5","black","practice","legacy","legacy","legacy","0","uniform","1","undefined","1","left","3","3","0","3","3","0","0","3","3","0","0","3","3","3","0","Sun Oct 25 18:40:38 2020","The main experiment item","yes","HoughSternbergTask.osexp","/Users/tionnahough/Desktop/Fall 2020","no","mono","no","18","no","white","no","yes","768","legacy","3","3","/Users/tionnahough/Desktop/th-subject-2.csv","legacy","1 5 2 9","Lentiform Loewenfeld","3.3.3","2","y","0","left","right","NA","left","NA","1113","46242","NA","1113","NA","2","legacy","4","1024","2","48000","-16","experiment","2","even","5","72906","71694","49498","NA","70671","3199","NA","70682","69598","3234","NA","76044","74918","74918","NA","Sternberg Task","1","5774","4","yes","1024"
"20","20","1290.4","1290.4","black","practice","legacy","legacy","legacy","0","uniform","0","undefined","0","left","4","4","0","4","4","0","0","4","4","0","0","4","4","4","0","Sun Oct 25 18:40:38 2020","The main experiment item","yes","HoughSternbergTask.osexp","/Users/tionnahough/Desktop/Fall 2020","no","mono","no","18","no","white","no","yes","768","legacy","4","4","/Users/tionnahough/Desktop/th-subject-2.csv","legacy","4 3 1 7 9 8","Lentiform Loewenfeld","3.3.3","1","y","0","right","right","NA","right","NA","678","46242","NA","678","NA","2","legacy","6","1024","2","48000","-16","experiment","2","even","4","79369","78155","49498","76057","77131","3199","NA","77142","69598","3234","NA","82059","81380","81380","NA","Sternberg Task","1","6452","5","yes","1024"
"33.333333333333336","33.333333333333336","1215.1666666666667","1215.1666666666667","black","practice","legacy","legacy","legacy","0","uniform","1","undefined","1","right","5","5","0","5","5","0","0","5","5","0","0","5","5","5","0","Sun Oct 25 18:40:38 2020","The main experiment item","yes","HoughSternbergTask.osexp","/Users/tionnahough/Desktop/Fall 2020","no","mono","no","18","no","white","no","yes","768","legacy","5","5","/Users/tionnahough/Desktop/th-subject-2.csv","legacy","9 6 7 4 5","Lentiform Loewenfeld","3.3.3","0","n","0","right","right","NA","right","NA","839","46242","NA","839","NA","2","legacy","5","1024","2","48000","-16","experiment","2","even","3","85394","84181","49498","76057","83156","3199","NA","83168","82081","3234","NA","88246","87406","87406","NA","Sternberg Task","2","7291","6","yes","1024"
"42.857142857142854","42.857142857142854","1142.4285714285713","1142.4285714285713","black","practice","legacy","legacy","legacy","0","uniform","1","undefined","1","left","6","6","0","6","6","0","0","6","6","0","0","6","6","6","0","Sun Oct 25 18:40:38 2020","The main experiment item","yes","HoughSternbergTask.osexp","/Users/tionnahough/Desktop/Fall 2020","no","mono","no","18","no","white","no","yes","768","legacy","6","6","/Users/tionnahough/Desktop/th-subject-2.csv","legacy","1 7 9 8 5","Lentiform Loewenfeld","3.3.3","4","y","0","left","right","NA","left","NA","706","46242","NA","706","NA","2","legacy","5","1024","2","48000","-16","experiment","2","even","8","91580","90365","49498","88268","89342","3199","NA","89353","82081","3234","NA","94299","93592","93592","NA","Sternberg Task","3","7997","7","yes","1024"
"50","50","1073.625","1073.625","black","practice","legacy","legacy","legacy","0","uniform","1","undefined","1","right","7","7","0","7","7","0","0","7","7","0","0","7","7","7","0","Sun Oct 25 18:40:38 2020","The main experiment item","yes","HoughSternbergTask.osexp","/Users/tionnahough/Desktop/Fall 2020","no","mono","no","18","no","white","no","yes","768","legacy","7","7","/Users/tionnahough/Desktop/th-subject-2.csv","legacy","4 1 5","Lentiform Loewenfeld","3.3.3","0","n","0","right","right","NA","right","NA","592","46242","NA","592","NA","2","legacy","3","1024","2","48000","-16","experiment","2","even","2","97631","96418","49498","94319","95395","3199","NA","95406","82081","3234","NA","100240","99647","99646","NA","Sternberg Task","4","8589","8","yes","1024"
"55.55555555555556","55.55555555555556","1006.1111111111111","1006.1111111111111","black","practice","legacy","legacy","legacy","0","uniform","1","undefined","1","right","8","8","0","8","8","0","0","8","8","0","0","8","8","8","0","Sun Oct 25 18:40:38 2020","The main experiment item","yes","HoughSternbergTask.osexp","/Users/tionnahough/Desktop/Fall 2020","no","mono","no","18","no","white","no","yes","768","legacy","8","8","/Users/tionnahough/Desktop/th-subject-2.csv","legacy","2 1","Lentiform Loewenfeld","3.3.3","0","n","0","right","right","NA","right","NA","466","46242","NA","466","NA","2","legacy","2","1024","2","48000","-16","experiment","2","even","5","103580","102364","49498","100262","101337","3199","NA","101352","82081","3234","NA","106058","105591","105591","NA","Sternberg Task","5","9055","9","yes","1024"
"60","60","947.8","947.8","black","practice","legacy","legacy","legacy","0","uniform","1","undefined","1","left","9","9","0","9","9","0","0","9","9","0","0","9","9","9","0","Sun Oct 25 18:40:38 2020","The main experiment item","yes","HoughSternbergTask.osexp","/Users/tionnahough/Desktop/Fall 2020","no","mono","no","18","no","white","no","yes","768","legacy","9","9","/Users/tionnahough/Desktop/th-subject-2.csv","legacy","4 8","Lentiform Loewenfeld","3.3.3","1","y","0","left","right","NA","left","NA","423","46242","NA","423","NA","2","legacy","2","1024","2","48000","-16","experiment","2","even","4","109393","108180","49498","106083","107156","3199","NA","107167","82081","3234","NA","111829","111405","111405","NA","Sternberg Task","6","9478","10","yes","1024"
"63.63636363636363","63.63636363636363","918.5454545454545","918.5454545454545","black","practice","legacy","legacy","legacy","0","uniform","1","undefined","1","left","10","10","0","10","10","0","0","10","10","0","0","10","10","10","0","Sun Oct 25 18:40:38 2020","The main experiment item","yes","HoughSternbergTask.osexp","/Users/tionnahough/Desktop/Fall 2020","no","mono","no","18","no","white","no","yes","768","legacy","10","10","/Users/tionnahough/Desktop/th-subject-2.csv","legacy","2 9 4","Lentiform Loewenfeld","3.3.3","3","y","0","left","right","NA","left","NA","626","46242","NA","626","NA","2","legacy","3","1024","2","48000","-16","experiment","2","even","4","115161","113948","49498","111852","112925","3199","NA","112936","82081","3234","NA","117800","117173","117173","NA","Sternberg Task","7","10104","11","yes","1024"
"66.66666666666667","66.66666666666667","896.6666666666666","896.6666666666666","black","practice","legacy","legacy","legacy","0","uniform","1","undefined","1","right","11","11","0","11","11","0","0","11","11","0","0","11","11","11","0","Sun Oct 25 18:40:38 2020","The main experiment item","yes","HoughSternbergTask.osexp","/Users/tionnahough/Desktop/Fall 2020","no","mono","no","18","no","white","no","yes","768","legacy","11","11","/Users/tionnahough/Desktop/th-subject-2.csv","legacy","3 1 9 4","Lentiform Loewenfeld","3.3.3","0","n","0","right","right","NA","right","NA","656","46242","NA","656","NA","2","legacy","4","1024","2","48000","-16","experiment","2","even","6","121130","119917","49498","117821","118894","3199","NA","118905","82081","3234","NA","123800","123143","123143","NA","Sternberg Task","8","10760","12","yes","1024"
"69.23076923076923","69.23076923076923","870","870","black","experiment","legacy","legacy","legacy","0","uniform","1","undefined","1","right","12","12","0","12","12","0","0","12","12","0","0","12","12","12","0","Sun Oct 25 18:40:38 2020","The main experiment item","yes","HoughSternbergTask.osexp","/Users/tionnahough/Desktop/Fall 2020","no","mono","no","18","no","white","no","yes","768","legacy","0","11","/Users/tionnahough/Desktop/th-subject-2.csv","legacy","1 4 9 3","Lentiform Loewenfeld","3.3.3","0","n","0","right","right","right","right","NA","550","46242","9600","550","NA","2","legacy","4","1024","2","48000","-16","experiment","2","even","5","136777","135564","49498","123822","134540","3199","134467","134551","82081","3234","124866","139340","138789","138789","NA","Sternberg Task","9","11310","13","yes","1024"
"71.42857142857143","71.42857142857143","853.5","853.5","black","experiment","legacy","legacy","legacy","0","uniform","1","undefined","1","right","13","13","0","13","13","0","0","13","13","0","0","13","13","13","0","Sun Oct 25 18:40:38 2020","The main experiment item","yes","HoughSternbergTask.osexp","/Users/tionnahough/Desktop/Fall 2020","no","mono","no","18","no","white","no","yes","768","legacy","1","11","/Users/tionnahough/Desktop/th-subject-2.csv","legacy","7 1 5 6 3","Lentiform Loewenfeld","3.3.3","0","n","0","right","right","right","right","NA","639","46242","9600","639","NA","2","legacy","5","1024","2","48000","-16","experiment","2","even","8","142676","141462","49498","139361","140438","3199","134467","140450","82081","3234","124866","145331","144690","144689","NA","Sternberg Task","10","11949","14","yes","1024"
"73.33333333333333","73.33333333333333","825.6666666666666","825.6666666666666","black","experiment","legacy","legacy","legacy","0","uniform","1","undefined","1","right","14","14","0","14","14","0","0","14","14","0","0","14","14","14","0","Sun Oct 25 18:40:38 2020","The main experiment item","yes","HoughSternbergTask.osexp","/Users/tionnahough/Desktop/Fall 2020","no","mono","no","18","no","white","no","yes","768","legacy","2","11","/Users/tionnahough/Desktop/th-subject-2.csv","legacy","5","Lentiform Loewenfeld","3.3.3","0","n","0","right","right","right","right","NA","436","46242","9600","436","NA","2","legacy","1","1024","2","48000","-16","experiment","2","even","8","148661","147448","49498","145352","146425","3199","134467","146436","82081","3234","124866","151110","150672","150672","NA","Sternberg Task","11","12385","15","yes","1024"
"68.75","68.75","799.5","799.5","black","experiment","legacy","legacy","legacy","0","uniform","0","undefined","0","left","15","15","0","15","15","0","0","15","15","0","0","15","15","15","0","Sun Oct 25 18:40:38 2020","The main experiment item","yes","HoughSternbergTask.osexp","/Users/tionnahough/Desktop/Fall 2020","no","mono","no","18","no","white","no","yes","768","legacy","3","11","/Users/tionnahough/Desktop/th-subject-2.csv","legacy","6 5","Lentiform Loewenfeld","3.3.3","2","y","0","right","right","right","right","NA","407","46242","9600","407","NA","2","legacy","2","1024","2","48000","-16","experiment","2","even","5","154445","153231","49498","151132","152207","3199","134467","152219","82081","3234","124866","156866","156457","156457","NA","Sternberg Task","11","12792","16","yes","1024"
"64.70588235294117","64.70588235294117","793.1176470588235","793.1176470588235","black","experiment","legacy","legacy","legacy","0","uniform","0","undefined","0","left","16","16","0","16","16","0","0","16","16","0","0","16","16","16","0","Sun Oct 25 18:40:38 2020","The main experiment item","yes","HoughSternbergTask.osexp","/Users/tionnahough/Desktop/Fall 2020","no","mono","no","18","no","white","no","yes","768","legacy","4","11","/Users/tionnahough/Desktop/th-subject-2.csv","legacy","8 1 6","Lentiform Loewenfeld","3.3.3","3","y","0","right","right","right","right","NA","691","46242","9600","691","NA","2","legacy","3","1024","2","48000","-16","experiment","2","even","6","160199","158986","49498","151132","157962","3199","134467","157973","156887","3234","124866","162903","162211","162211","NA","Sternberg Task","11","13483","17","yes","1024"
"66.66666666666667","66.66666666666667","784.0555555555555","784.0555555555555","black","experiment","legacy","legacy","legacy","0","uniform","1","undefined","1","right","17","17","0","17","17","0","0","17","17","0","0","17","17","17","0","Sun Oct 25 18:40:38 2020","The main experiment item","yes","HoughSternbergTask.osexp","/Users/tionnahough/Desktop/Fall 2020","no","mono","no","18","no","white","no","yes","768","legacy","5","11","/Users/tionnahough/Desktop/th-subject-2.csv","legacy","2 3 8 5 6 7","Lentiform Loewenfeld","3.3.3","0","n","0","right","right","right","right","NA","630","46242","9600","630","NA","2","legacy","6","1024","2","48000","-16","experiment","2","even","1","166237","165024","49498","151132","164000","3199","134467","164011","162925","3234","124866","168881","168249","168249","NA","Sternberg Task","12","14113","18","yes","1024"
"63.1578947368421","63.1578947368421","778.8947368421053","778.8947368421053","black","experiment","legacy","legacy","legacy","0","uniform","0","undefined","0","left","18","18","0","18","18","0","0","18","18","0","0","18","18","18","0","Sun Oct 25 18:40:38 2020","The main experiment item","yes","HoughSternbergTask.osexp","/Users/tionnahough/Desktop/Fall 2020","no","mono","no","18","no","white","no","yes","768","legacy","6","11","/Users/tionnahough/Desktop/th-subject-2.csv","legacy","3 5 9 6 2 4","Lentiform Loewenfeld","3.3.3","1","y","0","right","right","right","right","NA","686","46242","9600","686","NA","2","legacy","6","1024","2","48000","-16","experiment","2","even","3","172214","171000","49498","168902","169975","3199","134467","169988","162925","3234","124866","174912","174225","174225","NA","Sternberg Task","12","14799","19","yes","1024"
"65","65","771.6","771.6","black","experiment","legacy","legacy","legacy","0","uniform","1","undefined","1","left","19","19","0","19","19","0","0","19","19","0","0","19","19","19","0","Sun Oct 25 18:40:38 2020","The main experiment item","yes","HoughSternbergTask.osexp","/Users/tionnahough/Desktop/Fall 2020","no","mono","no","18","no","white","no","yes","768","legacy","7","11","/Users/tionnahough/Desktop/th-subject-2.csv","legacy","8 5 3 7 4 6","Lentiform Loewenfeld","3.3.3","6","y","0","left","right","right","left","NA","633","46242","9600","633","NA","2","legacy","6","1024","2","48000","-16","experiment","2","even","6","178249","177036","49498","168902","176012","3199","134467","176024","174933","3234","124866","180896","180262","180262","NA","Sternberg Task","13","15432","20","yes","1024"
"66.66666666666667","66.66666666666667","761.0952380952381","761.0952380952381","black","experiment","legacy","legacy","legacy","0","uniform","1","undefined","1","right","20","20","0","20","20","0","0","20","20","0","0","20","20","20","0","Sun Oct 25 18:40:38 2020","The main experiment item","yes","HoughSternbergTask.osexp","/Users/tionnahough/Desktop/Fall 2020","no","mono","no","18","no","white","no","yes","768","legacy","8","11","/Users/tionnahough/Desktop/th-subject-2.csv","legacy","1 7 8 3 9","Lentiform Loewenfeld","3.3.3","0","n","0","right","right","right","right","NA","551","46242","9600","551","NA","2","legacy","5","1024","2","48000","-16","experiment","2","even","2","184230","183017","49498","180918","181992","3199","134467","182004","174933","3234","124866","186795","186242","186242","NA","Sternberg Task","14","15983","21","yes","1024"
"68.18181818181819","68.18181818181819","757.7727272727273","757.7727272727273","black","experiment","legacy","legacy","legacy","0","uniform","1","undefined","1","left","21","21","0","21","21","0","0","21","21","0","0","21","21","21","0","Sun Oct 25 18:40:38 2020","The main experiment item","yes","HoughSternbergTask.osexp","/Users/tionnahough/Desktop/Fall 2020","no","mono","no","18","no","white","no","yes","768","legacy","9","11","/Users/tionnahough/Desktop/th-subject-2.csv","legacy","4 6 2 5 1","Lentiform Loewenfeld","3.3.3","5","y","0","left","right","right","left","NA","688","46242","9600","688","NA","2","legacy","5","1024","2","48000","-16","experiment","2","even","1","190126","188913","49498","186815","187890","3199","134467","187901","174933","3234","124866","192828","192138","192138","NA","Sternberg Task","15","16671","22","yes","1024"
"69.56521739130434","69.56521739130434","762.2173913043479","762.2173913043479","black","experiment","legacy","legacy","legacy","0","uniform","1","undefined","1","left","22","22","0","22","22","0","0","22","22","0","0","22","22","22","0","Sun Oct 25 18:40:38 2020","The main experiment item","yes","HoughSternbergTask.osexp","/Users/tionnahough/Desktop/Fall 2020","no","mono","no","18","no","white","no","yes","768","legacy","10","11","/Users/tionnahough/Desktop/th-subject-2.csv","legacy","2 4 6 9","Lentiform Loewenfeld","3.3.3","3","y","0","left","right","right","left","NA","860","46242","9600","860","NA","2","legacy","4","1024","2","48000","-16","experiment","2","even","6","196162","194948","49498","192849","193924","3199","134467","193936","174933","3234","124866","199034","198173","198173","NA","Sternberg Task","16","17531","23","yes","1024"
"70.83333333333333","70.83333333333333","763.5416666666666","763.5416666666666","black","experiment","legacy","legacy","legacy","0","uniform","1","undefined","1","right","23","23","0","23","23","0","0","23","23","0","0","23","23","23","0","Sun Oct 25 18:40:38 2020","The main experiment item","yes","HoughSternbergTask.osexp","/Users/tionnahough/Desktop/Fall 2020","no","mono","no","18","no","white","no","yes","768","legacy","11","11","/Users/tionnahough/Desktop/th-subject-2.csv","legacy","2 7 5","Lentiform Loewenfeld","3.3.3","0","n","0","right","right","right","right","NA","794","46242","9600","794","NA","2","legacy","3","1024","2","48000","-16","experiment","2","even","8","202370","201156","49498","199057","200132","3199","134467","200144","174933","3234","124866","205177","204382","204382","NA","Sternberg Task","17","18325","24","yes","1024"
"72","72","764.84","764.84","black","experiment","legacy","legacy","legacy","0","uniform","1","undefined","1","left","24","24","0","24","24","0","0","24","24","0","0","24","24","24","0","Sun Oct 25 18:40:38 2020","The main experiment item","yes","HoughSternbergTask.osexp","/Users/tionnahough/Desktop/Fall 2020","no","mono","no","18","no","white","no","yes","768","legacy","12","11","/Users/tionnahough/Desktop/th-subject-2.csv","legacy","3 9 6 2","Lentiform Loewenfeld","3.3.3","4","y","0","left","right","right","left","NA","796","46242","9600","796","NA","2","legacy","4","1024","2","48000","-16","experiment","2","even","2","208513","207300","49498","205199","206276","3199","134467","206288","174933","3234","124866","211323","210525","210524","NA","Sternberg Task","18","19121","25","yes","1024"
"73.07692307692308","73.07692307692308","760.6153846153846","760.6153846153846","black","experiment","legacy","legacy","legacy","0","uniform","1","undefined","1","left","25","25","0","25","25","0","0","25","25","0","0","25","25","25","0","Sun Oct 25 18:40:38 2020","The main experiment item","yes","HoughSternbergTask.osexp","/Users/tionnahough/Desktop/Fall 2020","no","mono","no","18","no","white","no","yes","768","legacy","13","11","/Users/tionnahough/Desktop/th-subject-2.csv","legacy","9 6 2 4 1","Lentiform Loewenfeld","3.3.3","4","y","0","left","right","right","left","NA","655","46242","9600","655","NA","2","legacy","5","1024","2","48000","-16","experiment","2","even","4","214659","213443","49498","211344","212419","3199","134467","212430","174933","3234","124866","217327","216671","216670","NA","Sternberg Task","19","19776","26","yes","1024"
"74.07407407407408","74.07407407407408","748.1851851851852","748.1851851851852","black","experiment","legacy","legacy","legacy","0","uniform","1","undefined","1","left","26","26","0","26","26","0","0","26","26","0","0","26","26","26","0","Sun Oct 25 18:40:38 2020","The main experiment item","yes","HoughSternbergTask.osexp","/Users/tionnahough/Desktop/Fall 2020","no","mono","no","18","no","white","no","yes","768","legacy","14","11","/Users/tionnahough/Desktop/th-subject-2.csv","legacy","4","Lentiform Loewenfeld","3.3.3","1","y","0","left","right","right","left","NA","425","46242","9600","425","NA","2","legacy","1","1024","2","48000","-16","experiment","2","even","4","220660","219446","49498","217349","218423","3199","134467","218434","174933","3234","124866","223098","222672","222672","NA","Sternberg Task","20","20201","27","yes","1024"
"75","75","759.8214285714286","759.8214285714286","black","experiment","legacy","legacy","legacy","0","uniform","1","undefined","1","left","27","27","0","27","27","0","0","27","27","0","0","27","27","27","0","Sun Oct 25 18:40:38 2020","The main experiment item","yes","HoughSternbergTask.osexp","/Users/tionnahough/Desktop/Fall 2020","no","mono","no","18","no","white","no","yes","768","legacy","15","11","/Users/tionnahough/Desktop/th-subject-2.csv","legacy","9 3 1 2 5","Lentiform Loewenfeld","3.3.3","4","y","0","left","right","right","left","NA","1074","46242","9600","1074","NA","2","legacy","5","1024","2","48000","-16","experiment","2","even","2","226431","225218","49498","223119","224195","3199","134467","224206","174933","3234","124866","229519","228443","228443","NA","Sternberg Task","21","21275","28","yes","1024"
"75.86206896551724","75.86206896551724","757.9310344827586","757.9310344827586","black","experiment","legacy","legacy","legacy","0","uniform","1","undefined","1","left","28","28","0","28","28","0","0","28","28","0","0","28","28","28","0","Sun Oct 25 18:40:38 2020","The main experiment item","yes","HoughSternbergTask.osexp","/Users/tionnahough/Desktop/Fall 2020","no","mono","no","18","no","white","no","yes","768","legacy","16","11","/Users/tionnahough/Desktop/th-subject-2.csv","legacy","3 9 7 6 4","Lentiform Loewenfeld","3.3.3","3","y","0","left","right","right","left","NA","705","46242","9600","705","NA","2","legacy","5","1024","2","48000","-16","experiment","2","even","7","232851","231637","49498","229540","230613","3199","134467","230625","174933","3234","124866","235570","234864","234864","NA","Sternberg Task","22","21980","29","yes","1024"
"76.66666666666667","76.66666666666667","753.7333333333333","753.7333333333333","black","experiment","legacy","legacy","legacy","0","uniform","1","undefined","1","left","29","29","0","29","29","0","0","29","29","0","0","29","29","29","0","Sun Oct 25 18:40:38 2020","The main experiment item","yes","HoughSternbergTask.osexp","/Users/tionnahough/Desktop/Fall 2020","no","mono","no","18","no","white","no","yes","768","legacy","17","11","/Users/tionnahough/Desktop/th-subject-2.csv","legacy","6 7 8 5","Lentiform Loewenfeld","3.3.3","3","y","0","left","right","right","left","NA","632","46242","9600","632","NA","2","legacy","4","1024","2","48000","-16","experiment","2","even","8","238894","237680","49498","235583","236656","3199","134467","236667","174933","3234","124866","241539","240906","240906","NA","Sternberg Task","23","22612","30","yes","1024"
"77.41935483870968","77.41935483870968","750.1935483870968","750.1935483870968","black","experiment","legacy","legacy","legacy","0","uniform","1","undefined","1","left","30","30","0","30","30","0","0","30","30","0","0","30","30","30","0","Sun Oct 25 18:40:38 2020","The main experiment item","yes","HoughSternbergTask.osexp","/Users/tionnahough/Desktop/Fall 2020","no","mono","no","18","no","white","no","yes","768","legacy","18","11","/Users/tionnahough/Desktop/th-subject-2.csv","legacy","3 2 1 4 7","Lentiform Loewenfeld","3.3.3","2","y","0","left","right","right","left","NA","644","46242","9600","644","NA","2","legacy","5","1024","2","48000","-16","experiment","2","even","2","244871","243658","49498","241561","242635","3199","134467","242646","174933","3234","124866","247528","246883","246883","NA","Sternberg Task","24","23256","31","yes","1024"
"78.125","78.125","751.9375","751.9375","black","experiment","legacy","legacy","legacy","0","uniform","1","undefined","1","right","31","31","0","31","31","0","0","31","31","0","0","31","31","31","0","Sun Oct 25 18:40:38 2020","The main experiment item","yes","HoughSternbergTask.osexp","/Users/tionnahough/Desktop/Fall 2020","no","mono","no","18","no","white","no","yes","768","legacy","19","11","/Users/tionnahough/Desktop/th-subject-2.csv","legacy","6 3 1 7 9 8","Lentiform Loewenfeld","3.3.3","0","n","0","right","right","right","right","NA","806","46242","9600","806","NA","2","legacy","6","1024","2","48000","-16","experiment","2","even","4","250862","249648","49498","247549","248624","3199","134467","248636","174933","3234","124866","253681","252874","252874","NA","Sternberg Task","25","24062","32","yes","1024"
"78.78787878787878","78.78787878787878","748.3939393939394","748.3939393939394","black","experiment","legacy","legacy","legacy","0","uniform","1","undefined","1","left","32","32","0","32","32","0","0","32","32","0","0","32","32","32","0","Sun Oct 25 18:40:38 2020","The main experiment item","yes","HoughSternbergTask.osexp","/Users/tionnahough/Desktop/Fall 2020","no","mono","no","18","no","white","no","yes","768","legacy","20","11","/Users/tionnahough/Desktop/th-subject-2.csv","legacy","2 4 8 5 1 3","Lentiform Loewenfeld","3.3.3","1","y","0","left","right","right","left","NA","635","46242","9600","635","NA","2","legacy","6","1024","2","48000","-16","experiment","2","even","2","257016","255801","49498","253704","254778","3199","134467","254789","174933","3234","124866","259664","259028","259028","NA","Sternberg Task","26","24697","33","yes","1024"
"79.41176470588235","79.41176470588235","746.1470588235294","746.1470588235294","black","experiment","legacy","legacy","legacy","0","uniform","1","undefined","1","right","33","33","0","33","33","0","0","33","33","0","0","33","33","33","0","Sun Oct 25 18:40:38 2020","The main experiment item","yes","HoughSternbergTask.osexp","/Users/tionnahough/Desktop/Fall 2020","no","mono","no","18","no","white","no","yes","768","legacy","21","11","/Users/tionnahough/Desktop/th-subject-2.csv","legacy","7 9 1 6","Lentiform Loewenfeld","3.3.3","0","n","0","right","right","right","right","NA","672","46242","9600","672","NA","2","legacy","4","1024","2","48000","-16","experiment","2","even","4","262997","261782","49498","259685","260758","3199","134467","260769","174933","3234","124866","265682","265009","265009","NA","Sternberg Task","27","25369","34","yes","1024"
"80","80","744.4571428571429","744.4571428571429","black","experiment","legacy","legacy","legacy","0","uniform","1","undefined","1","right","34","34","0","34","34","0","0","34","34","0","0","34","34","34","0","Sun Oct 25 18:40:38 2020","The main experiment item","yes","HoughSternbergTask.osexp","/Users/tionnahough/Desktop/Fall 2020","no","mono","no","18","no","white","no","yes","768","legacy","22","11","/Users/tionnahough/Desktop/th-subject-2.csv","legacy","7 4 2 8 1 9","Lentiform Loewenfeld","3.3.3","0","n","0","right","right","right","right","NA","687","46242","9600","687","NA","2","legacy","6","1024","2","48000","-16","experiment","2","even","5","269019","267804","49498","265704","266780","3199","134467","266791","174933","3234","124866","271719","271031","271031","NA","Sternberg Task","28","26056","35","yes","1024"
"80.55555555555556","80.55555555555556","745.1388888888889","745.1388888888889","black","experiment","legacy","legacy","legacy","0","uniform","1","undefined","1","right","35","35","0","35","35","0","0","35","35","0","0","35","35","35","0","Sun Oct 25 18:40:38 2020","The main experiment item","yes","HoughSternbergTask.osexp","/Users/tionnahough/Desktop/Fall 2020","no","mono","no","18","no","white","no","yes","768","legacy","23","11","/Users/tionnahough/Desktop/th-subject-2.csv","legacy","3 9 8 1 6 4","Lentiform Loewenfeld","3.3.3","0","n","0","right","right","right","right","NA","769","46242","9600","769","NA","2","legacy","6","1024","2","48000","-16","experiment","2","even","7","275053","273840","49498","271741","272816","3199","134467","272828","174933","3234","124866","277836","277065","277065","NA","Sternberg Task","29","26825","36","yes","1024"
"81.08108108108108","81.08108108108108","741.3783783783783","741.3783783783783","black","experiment","legacy","legacy","legacy","0","uniform","1","undefined","1","right","36","36","0","36","36","0","0","36","36","0","0","36","36","36","0","Sun Oct 25 18:40:38 2020","The main experiment item","yes","HoughSternbergTask.osexp","/Users/tionnahough/Desktop/Fall 2020","no","mono","no","18","no","white","no","yes","768","legacy","24","11","/Users/tionnahough/Desktop/th-subject-2.csv","legacy","9","Lentiform Loewenfeld","3.3.3","0","n","0","right","right","right","right","NA","606","46242","9600","606","NA","2","legacy","1","1024","2","48000","-16","experiment","2","even","6","281160","279947","49498","277848","278923","3199","134467","278934","174933","3234","124866","283780","283173","283173","NA","Sternberg Task","30","27431","37","yes","1024"
"78.94736842105263","78.94736842105263","737.4473684210526","737.4473684210526","black","experiment","legacy","legacy","legacy","0","uniform","0","undefined","0","left","37","37","0","37","37","0","0","37","37","0","0","37","37","37","0","Sun Oct 25 18:40:38 2020","The main experiment item","yes","HoughSternbergTask.osexp","/Users/tionnahough/Desktop/Fall 2020","no","mono","no","18","no","white","no","yes","768","legacy","25","11","/Users/tionnahough/Desktop/th-subject-2.csv","legacy","9 1 6 7 8","Lentiform Loewenfeld","3.3.3","1","y","0","right","right","right","right","NA","592","46242","9600","592","NA","2","legacy","5","1024","2","48000","-16","experiment","2","even","9","287115","285901","49498","283802","284877","3199","134467","284889","174933","3234","124866","289721","289127","289127","NA","Sternberg Task","30","28023","38","yes","1024"
"79.48717948717949","79.48717948717949","738.5384615384615","738.5384615384615","black","experiment","legacy","legacy","legacy","0","uniform","1","undefined","1","left","38","38","0","38","38","0","0","38","38","0","0","38","38","38","0","Sun Oct 25 18:40:38 2020","The main experiment item","yes","HoughSternbergTask.osexp","/Users/tionnahough/Desktop/Fall 2020","no","mono","no","18","no","white","no","yes","768","legacy","26","11","/Users/tionnahough/Desktop/th-subject-2.csv","legacy","2 3 7 4","Lentiform Loewenfeld","3.3.3","1","y","0","left","right","right","left","NA","780","46242","9600","780","NA","2","legacy","4","1024","2","48000","-16","experiment","2","even","2","293053","291840","49498","283802","290816","3199","134467","290828","289743","3234","124866","295847","295066","295066","NA","Sternberg Task","31","28803","39","yes","1024"
"77.5","77.5","736.525","736.525","black","experiment","legacy","legacy","legacy","0","uniform","0","undefined","0","left","39","39","0","39","39","0","0","39","39","0","0","39","39","39","0","Sun Oct 25 18:40:38 2020","The main experiment item","yes","HoughSternbergTask.osexp","/Users/tionnahough/Desktop/Fall 2020","no","mono","no","18","no","white","no","yes","768","legacy","27","11","/Users/tionnahough/Desktop/th-subject-2.csv","legacy","3 4 9 6 2 9","Lentiform Loewenfeld","3.3.3","5","y","0","right","right","right","right","NA","658","46242","9600","658","NA","2","legacy","6","1024","2","48000","-16","experiment","2","even","2","299180","297966","49498","295868","296942","3199","134467","296953","289743","3234","124866","301851","301192","301192","NA","Sternberg Task","31","29461","40","yes","1024"
"78.04878048780488","78.04878048780488","747.439024390244","747.439024390244","black","experiment","legacy","legacy","legacy","0","uniform","1","undefined","1","left","40","40","0","40","40","0","0","40","40","0","0","40","40","40","0","Sun Oct 25 18:40:38 2020","The main experiment item","yes","HoughSternbergTask.osexp","/Users/tionnahough/Desktop/Fall 2020","no","mono","no","18","no","white","no","yes","768","legacy","28","11","/Users/tionnahough/Desktop/th-subject-2.csv","legacy","4 7 6 8 2 3","Lentiform Loewenfeld","3.3.3","6","y","0","left","right","right","left","NA","1184","46242","9600","1184","NA","2","legacy","6","1024","2","48000","-16","experiment","2","even","3","305187","303974","49498","295868","302950","3199","134467","302962","301873","3234","124866","308385","307199","307199","NA","Sternberg Task","32","30645","41","yes","1024"
"76.19047619047619","76.19047619047619","747.8095238095239","747.8095238095239","black","experiment","legacy","legacy","legacy","0","uniform","0","undefined","0","left","41","41","0","41","41","0","0","41","41","0","0","41","41","41","0","Sun Oct 25 18:40:38 2020","The main experiment item","yes","HoughSternbergTask.osexp","/Users/tionnahough/Desktop/Fall 2020","no","mono","no","18","no","white","no","yes","768","legacy","29","11","/Users/tionnahough/Desktop/th-subject-2.csv","legacy","7 8 6 3 1","Lentiform Loewenfeld","3.3.3","5","y","0","right","right","right","right","NA","763","46242","9600","763","NA","2","legacy","5","1024","2","48000","-16","experiment","2","even","1","311722","310509","49498","308407","309485","3199","134467","309497","301873","3234","124866","314499","313735","313735","NA","Sternberg Task","32","31408","42","yes","1024"
"76.74418604651163","76.74418604651163","749.9069767441861","749.9069767441861","black","experiment","legacy","legacy","legacy","0","uniform","1","undefined","1","right","42","42","0","42","42","0","0","42","42","0","0","42","42","42","0","Sun Oct 25 18:40:38 2020","The main experiment item","yes","HoughSternbergTask.osexp","/Users/tionnahough/Desktop/Fall 2020","no","mono","no","18","no","white","no","yes","768","legacy","30","11","/Users/tionnahough/Desktop/th-subject-2.csv","legacy","6 7 5 9","Lentiform Loewenfeld","3.3.3","0","n","0","right","right","right","right","NA","838","46242","9600","838","NA","2","legacy","4","1024","2","48000","-16","experiment","2","even","2","317832","316618","49498","308407","315595","3199","134467","315606","314521","3234","124866","320682","319843","319843","NA","Sternberg Task","33","32246","43","yes","1024"
"77.27272727272727","77.27272727272727","751.5","751.5","black","experiment","legacy","legacy","legacy","0","uniform","1","undefined","1","left","43","43","0","43","43","0","0","43","43","0","0","43","43","43","0","Sun Oct 25 18:40:38 2020","The main experiment item","yes","HoughSternbergTask.osexp","/Users/tionnahough/Desktop/Fall 2020","no","mono","no","18","no","white","no","yes","768","legacy","31","11","/Users/tionnahough/Desktop/th-subject-2.csv","legacy","7 4 2 6 3 5","Lentiform Loewenfeld","3.3.3","6","y","0","left","right","right","left","NA","820","46242","9600","820","NA","2","legacy","6","1024","2","48000","-16","experiment","2","even","5","324016","322802","49498","320704","321778","3199","134467","321789","314521","3234","124866","326849","326028","326028","NA","Sternberg Task","34","33066","44","yes","1024"
"77.77777777777777","77.77777777777777","759.9333333333333","759.9333333333333","black","experiment","legacy","legacy","legacy","0","uniform","1","undefined","1","left","44","44","0","44","44","0","0","44","44","0","0","44","44","44","0","Sun Oct 25 18:40:38 2020","The main experiment item","yes","HoughSternbergTask.osexp","/Users/tionnahough/Desktop/Fall 2020","no","mono","no","18","no","white","no","yes","768","legacy","32","11","/Users/tionnahough/Desktop/th-subject-2.csv","legacy","7 6","Lentiform Loewenfeld","3.3.3","2","y","0","left","right","right","left","NA","1131","46242","9600","1131","NA","2","legacy","2","1024","2","48000","-16","experiment","2","even","6","330183","328969","49498","326872","327946","3199","134467","327957","314521","3234","124866","333327","332194","332194","NA","Sternberg Task","35","34197","45","yes","1024"
"78.26086956521739","78.26086956521739","760.1521739130435","760.1521739130435","black","experiment","legacy","legacy","legacy","0","uniform","1","undefined","1","right","45","45","0","45","45","0","0","45","45","0","0","45","45","45","0","Sun Oct 25 18:40:38 2020","The main experiment item","yes","HoughSternbergTask.osexp","/Users/tionnahough/Desktop/Fall 2020","no","mono","no","18","no","white","no","yes","768","legacy","33","11","/Users/tionnahough/Desktop/th-subject-2.csv","legacy","4 8 1 2","Lentiform Loewenfeld","3.3.3","0","n","0","right","right","right","right","NA","770","46242","9600","770","NA","2","legacy","4","1024","2","48000","-16","experiment","2","even","7","336660","335447","49498","333349","334423","3199","134467","334435","314521","3234","124866","339446","338675","338675","NA","Sternberg Task","36","34967","46","yes","1024"
"78.72340425531915","78.72340425531915","766.9787234042553","766.9787234042553","black","experiment","legacy","legacy","legacy","0","uniform","1","undefined","1","right","46","46","0","46","46","0","0","46","46","0","0","46","46","46","0","Sun Oct 25 18:40:38 2020","The main experiment item","yes","HoughSternbergTask.osexp","/Users/tionnahough/Desktop/Fall 2020","no","mono","no","18","no","white","no","yes","768","legacy","34","11","/Users/tionnahough/Desktop/th-subject-2.csv","legacy","8 4 3 9","Lentiform Loewenfeld","3.3.3","0","n","0","right","right","right","right","NA","1081","46242","9600","1081","NA","2","legacy","4","1024","2","48000","-16","experiment","2","even","5","342780","341566","49498","339469","340543","3199","134467","340554","314521","3234","124866","345875","344792","344792","NA","Sternberg Task","37","36048","47","yes","1024"
"77.08333333333333","77.08333333333333","767.5208333333334","767.5208333333334","black","experiment","legacy","legacy","legacy","0","uniform","0","undefined","0","right","47","47","0","47","47","0","0","47","47","0","0","47","47","47","0","Sun Oct 25 18:40:38 2020","The main experiment item","yes","HoughSternbergTask.osexp","/Users/tionnahough/Desktop/Fall 2020","no","mono","no","18","no","white","no","yes","768","legacy","35","11","/Users/tionnahough/Desktop/th-subject-2.csv","legacy","2 8 9","Lentiform Loewenfeld","3.3.3","0","n","0","left","right","right","left","NA","793","46242","9600","793","NA","2","legacy","3","1024","2","48000","-16","experiment","2","even","6","349204","347991","49498","345889","346966","3199","134467","346978","314521","3234","124866","352010","351216","351216","NA","Sternberg Task","37","36841","48","yes","1024"
"77.55102040816327","77.55102040816327","768.0204081632653","768.0204081632653","black","experiment","legacy","legacy","legacy","0","uniform","1","undefined","1","left","48","48","0","48","48","0","0","48","48","0","0","48","48","48","0","Sun Oct 25 18:40:38 2020","The main experiment item","yes","HoughSternbergTask.osexp","/Users/tionnahough/Desktop/Fall 2020","no","mono","no","18","no","white","no","yes","768","legacy","36","11","/Users/tionnahough/Desktop/th-subject-2.csv","legacy","8 9 5 6 7","Lentiform Loewenfeld","3.3.3","1","y","0","left","right","right","left","NA","792","46242","9600","792","NA","2","legacy","5","1024","2","48000","-16","experiment","2","even","8","355336","354123","49498","345889","353098","3199","134467","353110","352025","3234","124866","358142","357348","357348","NA","Sternberg Task","38","37633","49","yes","1024"
"78","78","773.52","773.52","black","experiment","legacy","legacy","legacy","0","uniform","1","undefined","1","right","49","49","0","49","49","0","0","49","49","0","0","49","49","49","0","Sun Oct 25 18:40:38 2020","The main experiment item","yes","HoughSternbergTask.osexp","/Users/tionnahough/Desktop/Fall 2020","no","mono","no","18","no","white","no","yes","768","legacy","37","11","/Users/tionnahough/Desktop/th-subject-2.csv","legacy","7 1 8 4 9 3","Lentiform Loewenfeld","3.3.3","0","n","0","right","right","right","right","NA","1043","46242","9600","1043","NA","2","legacy","6","1024","2","48000","-16","experiment","2","even","6","361475","360261","49498","358163","359237","3199","134467","359249","352025","3234","124866","364531","363487","363487","NA","Sternberg Task","39","38676","50","yes","1024"
"78.43137254901961","78.43137254901961","773.1960784313726","773.1960784313726","black","experiment","legacy","legacy","legacy","0","uniform","1","undefined","1","right","50","50","0","50","50","0","0","50","50","0","0","50","50","50","0","Sun Oct 25 18:40:38 2020","The main experiment item","yes","HoughSternbergTask.osexp","/Users/tionnahough/Desktop/Fall 2020","no","mono","no","18","no","white","no","yes","768","legacy","38","11","/Users/tionnahough/Desktop/th-subject-2.csv","legacy","1 4 3 6 5","Lentiform Loewenfeld","3.3.3","0","n","0","right","right","right","right","NA","757","46242","9600","757","NA","2","legacy","5","1024","2","48000","-16","experiment","2","even","8","367865","366651","49498","364553","365627","3199","134467","365638","352025","3234","124866","370636","369877","369877","NA","Sternberg Task","40","39433","51","yes","1024"
"76.92307692307692","76.92307692307692","778.7692307692307","778.7692307692307","black","experiment","legacy","legacy","legacy","0","uniform","0","undefined","0","left","51","51","0","51","51","0","0","51","51","0","0","51","51","51","0","Sun Oct 25 18:40:38 2020","The main experiment item","yes","HoughSternbergTask.osexp","/Users/tionnahough/Desktop/Fall 2020","no","mono","no","18","no","white","no","yes","768","legacy","39","11","/Users/tionnahough/Desktop/th-subject-2.csv","legacy","6 9 7 4 5 1","Lentiform Loewenfeld","3.3.3","2","y","0","right","right","right","right","NA","1063","46242","9600","1063","NA","2","legacy","6","1024","2","48000","-16","experiment","2","even","9","373970","372756","49498","370658","371732","3199","134467","371744","352025","3234","124866","377047","375983","375982","NA","Sternberg Task","40","40496","52","yes","1024"
"77.35849056603773","77.35849056603773","777.2830188679245","777.2830188679245","black","experiment","legacy","legacy","legacy","0","uniform","1","undefined","1","right","52","52","0","52","52","0","0","52","52","0","0","52","52","52","0","Sun Oct 25 18:40:38 2020","The main experiment item","yes","HoughSternbergTask.osexp","/Users/tionnahough/Desktop/Fall 2020","no","mono","no","18","no","white","no","yes","768","legacy","40","11","/Users/tionnahough/Desktop/th-subject-2.csv","legacy","2 8 9 4 1","Lentiform Loewenfeld","3.3.3","0","n","0","right","right","right","right","NA","700","46242","9600","700","NA","2","legacy","5","1024","2","48000","-16","experiment","2","even","5","380382","379168","49498","370658","378144","3199","134467","378156","377070","3234","124866","383095","382394","382394","NA","Sternberg Task","41","41196","53","yes","1024"
"77.77777777777777","77.77777777777777","771.7777777777778","771.7777777777778","black","experiment","legacy","legacy","legacy","0","uniform","1","undefined","1","left","53","53","0","53","53","0","0","53","53","0","0","53","53","53","0","Sun Oct 25 18:40:38 2020","The main experiment item","yes","HoughSternbergTask.osexp","/Users/tionnahough/Desktop/Fall 2020","no","mono","no","18","no","white","no","yes","768","legacy","41","11","/Users/tionnahough/Desktop/th-subject-2.csv","legacy","8","Lentiform Loewenfeld","3.3.3","1","y","0","left","right","right","left","NA","480","46242","9600","480","NA","2","legacy","1","1024","2","48000","-16","experiment","2","even","8","386431","385216","49498","383119","384193","3199","134467","384204","377070","3234","124866","388924","388443","388443","NA","Sternberg Task","42","41676","54","yes","1024"
"78.18181818181819","78.18181818181819","771.8","771.8","black","experiment","legacy","legacy","legacy","0","uniform","1","undefined","1","left","54","54","0","54","54","0","0","54","54","0","0","54","54","54","0","Sun Oct 25 18:40:38 2020","The main experiment item","yes","HoughSternbergTask.osexp","/Users/tionnahough/Desktop/Fall 2020","no","mono","no","18","no","white","no","yes","768","legacy","42","11","/Users/tionnahough/Desktop/th-subject-2.csv","legacy","8 9 6 1","Lentiform Loewenfeld","3.3.3","2","y","0","left","right","right","left","NA","773","46242","9600","773","NA","2","legacy","4","1024","2","48000","-16","experiment","2","even","9","392259","391045","49498","388946","390021","3199","134467","390032","377070","3234","124866","395046","394271","394271","NA","Sternberg Task","43","42449","55","yes","1024"
"78.57142857142857","78.57142857142857","772.4107142857143","772.4107142857143","black","experiment","legacy","legacy","legacy","0","uniform","1","undefined","1","right","55","55","0","55","55","0","0","55","55","0","0","55","55","55","0","Sun Oct 25 18:40:38 2020","The main experiment item","yes","HoughSternbergTask.osexp","/Users/tionnahough/Desktop/Fall 2020","no","mono","no","18","no","white","no","yes","768","legacy","43","11","/Users/tionnahough/Desktop/th-subject-2.csv","legacy","5 2","Lentiform Loewenfeld","3.3.3","0","n","0","right","right","right","right","NA","806","46242","9600","806","NA","2","legacy","2","1024","2","48000","-16","experiment","2","even","7","398379","397166","49498","395068","396141","3199","134467","396153","377070","3234","124866","401198","400391","400391","NA","Sternberg Task","44","43255","56","yes","1024"
"78.94736842105263","78.94736842105263","772.2105263157895","772.2105263157895","black","experiment","legacy","legacy","legacy","0","uniform","1","undefined","1","right","56","56","0","56","56","0","0","56","56","0","0","56","56","56","0","Sun Oct 25 18:40:38 2020","The main experiment item","yes","HoughSternbergTask.osexp","/Users/tionnahough/Desktop/Fall 2020","no","mono","no","18","no","white","no","yes","768","legacy","44","11","/Users/tionnahough/Desktop/th-subject-2.csv","legacy","5 9 2 3","Lentiform Loewenfeld","3.3.3","0","n","0","right","right","right","right","NA","761","46242","9600","761","NA","2","legacy","4","1024","2","48000","-16","experiment","2","even","8","404533","403320","49498","401220","402296","3199","134467","402307","377070","3234","124866","407308","406545","406545","NA","Sternberg Task","45","44016","57","yes","1024"
"79.3103448275862","79.3103448275862","771.551724137931","771.551724137931","black","experiment","legacy","legacy","legacy","0","uniform","1","undefined","1","left","57","57","0","57","57","0","0","57","57","0","0","57","57","57","0","Sun Oct 25 18:40:38 2020","The main experiment item","yes","HoughSternbergTask.osexp","/Users/tionnahough/Desktop/Fall 2020","no","mono","no","18","no","white","no","yes","768","legacy","45","11","/Users/tionnahough/Desktop/th-subject-2.csv","legacy","9 5 8 1","Lentiform Loewenfeld","3.3.3","2","y","0","left","right","right","left","NA","734","46242","9600","734","NA","2","legacy","4","1024","2","48000","-16","experiment","2","even","5","410639","409426","49498","407329","408403","3199","134467","408414","377070","3234","124866","413387","412652","412651","NA","Sternberg Task","46","44750","58","yes","1024"
"79.66101694915254","79.66101694915254","771.8983050847457","771.8983050847457","black","experiment","legacy","legacy","legacy","0","uniform","1","undefined","1","right","58","58","0","58","58","0","0","58","58","0","0","58","58","58","0","Sun Oct 25 18:40:38 2020","The main experiment item","yes","HoughSternbergTask.osexp","/Users/tionnahough/Desktop/Fall 2020","no","mono","no","18","no","white","no","yes","768","legacy","46","11","/Users/tionnahough/Desktop/th-subject-2.csv","legacy","5 3 2 6 9 8","Lentiform Loewenfeld","3.3.3","0","n","0","right","right","right","right","NA","792","46242","9600","792","NA","2","legacy","6","1024","2","48000","-16","experiment","2","even","4","416723","415510","49498","413409","414486","3199","134467","414498","377070","3234","124866","419531","418737","418736","NA","Sternberg Task","47","45542","59","yes","1024"
"80","80","770.6833333333333","770.6833333333333","black","experiment","legacy","legacy","legacy","0","uniform","1","undefined","1","left","59","59","0","59","59","0","0","59","59","0","0","59","59","59","0","Sun Oct 25 18:40:38 2020","The main experiment item","yes","HoughSternbergTask.osexp","/Users/tionnahough/Desktop/Fall 2020","no","mono","no","18","no","white","no","yes","768","legacy","47","11","/Users/tionnahough/Desktop/th-subject-2.csv","legacy","4 3 2 5 8","Lentiform Loewenfeld","3.3.3","2","y","0","left","right","right","left","NA","699","46242","9600","699","NA","2","legacy","5","1024","2","48000","-16","experiment","2","even","3","422869","421655","49498","419552","420630","3199","134467","420643","377070","3234","124866","425582","424881","424881","NA","Sternberg Task","48","46241","60","yes","1024"
"80.32786885245902","80.32786885245902","772.9180327868852","772.9180327868852","black","experiment","legacy","legacy","legacy","0","uniform","1","undefined","1","right","60","60","0","60","60","0","0","60","60","0","0","60","60","60","0","Sun Oct 25 18:40:38 2020","The main experiment item","yes","HoughSternbergTask.osexp","/Users/tionnahough/Desktop/Fall 2020","no","mono","no","18","no","white","no","yes","768","legacy","48","11","/Users/tionnahough/Desktop/th-subject-2.csv","legacy","9 8 2 7 4","Lentiform Loewenfeld","3.3.3","0","n","0","right","right","right","right","NA","907","46242","9600","907","NA","2","legacy","5","1024","2","48000","-16","experiment","2","even","5","428917","427704","49498","425604","426680","3199","134467","426692","377070","3234","124866","431838","430929","430929","NA","Sternberg Task","49","47148","61","yes","1024"
"80.64516129032258","80.64516129032258","773.9354838709677","773.9354838709677","black","experiment","legacy","legacy","legacy","0","uniform","1","undefined","1","left","61","61","0","61","61","0","0","61","61","0","0","61","61","61","0","Sun Oct 25 18:40:38 2020","The main experiment item","yes","HoughSternbergTask.osexp","/Users/tionnahough/Desktop/Fall 2020","no","mono","no","18","no","white","no","yes","768","legacy","49","11","/Users/tionnahough/Desktop/th-subject-2.csv","legacy","9 4 2","Lentiform Loewenfeld","3.3.3","1","y","0","left","right","right","left","NA","836","46242","9600","836","NA","2","legacy","3","1024","2","48000","-16","experiment","2","even","9","435175","433961","49498","431860","432937","3199","134467","432948","377070","3234","124866","438026","437188","437188","NA","Sternberg Task","50","47984","62","yes","1024"
"80.95238095238095","80.95238095238095","781.3015873015873","781.3015873015873","black","experiment","legacy","legacy","legacy","0","uniform","1","undefined","1","right","62","62","0","62","62","0","0","62","62","0","0","62","62","62","0","Sun Oct 25 18:40:38 2020","The main experiment item","yes","HoughSternbergTask.osexp","/Users/tionnahough/Desktop/Fall 2020","no","mono","no","18","no","white","no","yes","768","legacy","50","11","/Users/tionnahough/Desktop/th-subject-2.csv","legacy","1 6 4 3 9 7","Lentiform Loewenfeld","3.3.3","0","n","0","right","right","right","right","NA","1238","46242","9600","1238","NA","2","legacy","6","1024","2","48000","-16","experiment","2","even","8","441360","440147","49498","438047","439123","3199","134467","439135","377070","3234","124866","444612","443372","443372","NA","Sternberg Task","51","49222","63","yes","1024"
"81.25","81.25","786.875","786.875","black","experiment","legacy","legacy","legacy","0","uniform","1","undefined","1","left","63","63","0","63","63","0","0","63","63","0","0","63","63","63","0","Sun Oct 25 18:40:38 2020","The main experiment item","yes","HoughSternbergTask.osexp","/Users/tionnahough/Desktop/Fall 2020","no","mono","no","18","no","white","no","yes","768","legacy","51","11","/Users/tionnahough/Desktop/th-subject-2.csv","legacy","6 8 9 3 4 9","Lentiform Loewenfeld","3.3.3","5","y","0","left","right","right","left","NA","1138","46242","9600","1138","NA","2","legacy","6","1024","2","48000","-16","experiment","2","even","4","447948","446734","49498","444633","445710","3199","134467","445722","377070","3234","124866","451099","449960","449960","NA","Sternberg Task","52","50360","64","yes","1024"
"81.53846153846153","81.53846153846153","785.3538461538461","785.3538461538461","black","experiment","legacy","legacy","legacy","0","uniform","1","undefined","1","right","64","64","0","64","64","0","0","64","64","0","0","64","64","64","0","Sun Oct 25 18:40:38 2020","The main experiment item","yes","HoughSternbergTask.osexp","/Users/tionnahough/Desktop/Fall 2020","no","mono","no","18","no","white","no","yes","768","legacy","52","11","/Users/tionnahough/Desktop/th-subject-2.csv","legacy","2 8 6 3 1","Lentiform Loewenfeld","3.3.3","0","n","0","right","right","right","right","NA","688","46242","9600","688","NA","2","legacy","5","1024","2","48000","-16","experiment","2","even","7","454438","453224","49498","451123","452200","3199","134467","452211","377070","3234","124866","457140","456450","456450","NA","Sternberg Task","53","51048","65","yes","1024"
"81.81818181818181","81.81818181818181","785.6666666666666","785.6666666666666","black","experiment","legacy","legacy","legacy","0","uniform","1","undefined","1","right","65","65","0","65","65","0","0","65","65","0","0","65","65","65","0","Sun Oct 25 18:40:38 2020","The main experiment item","yes","HoughSternbergTask.osexp","/Users/tionnahough/Desktop/Fall 2020","no","mono","no","18","no","white","no","yes","768","legacy","53","11","/Users/tionnahough/Desktop/th-subject-2.csv","legacy","2 6 4 3 9","Lentiform Loewenfeld","3.3.3","0","n","0","right","right","right","right","NA","806","46242","9600","806","NA","2","legacy","5","1024","2","48000","-16","experiment","2","even","1","460475","459261","49498","457161","458237","3199","134467","458249","377070","3234","124866","463296","462488","462488","NA","Sternberg Task","54","51854","66","yes","1024"
"82.08955223880596","82.08955223880596","785.4477611940298","785.4477611940298","black","experiment","legacy","legacy","legacy","0","uniform","1","undefined","1","left","66","66","0","66","66","0","0","66","66","0","0","66","66","66","0","Sun Oct 25 18:40:38 2020","The main experiment item","yes","HoughSternbergTask.osexp","/Users/tionnahough/Desktop/Fall 2020","no","mono","no","18","no","white","no","yes","768","legacy","54","11","/Users/tionnahough/Desktop/th-subject-2.csv","legacy","1 4 9 3 2 5","Lentiform Loewenfeld","3.3.3","3","y","0","left","right","right","left","NA","771","46242","9600","771","NA","2","legacy","6","1024","2","48000","-16","experiment","2","even","9","466630","465416","49498","463316","464393","3199","134467","464404","377070","3234","124866","469415","468643","468643","NA","Sternberg Task","55","52625","67","yes","1024"
"82.3529411764706","82.3529411764706","785.3235294117648","785.3235294117648","black","experiment","legacy","legacy","legacy","0","uniform","1","undefined","1","right","67","67","0","67","67","0","0","67","67","0","0","67","67","67","0","Sun Oct 25 18:40:38 2020","The main experiment item","yes","HoughSternbergTask.osexp","/Users/tionnahough/Desktop/Fall 2020","no","mono","no","18","no","white","no","yes","768","legacy","55","11","/Users/tionnahough/Desktop/th-subject-2.csv","legacy","6 8","Lentiform Loewenfeld","3.3.3","0","n","0","right","right","right","right","NA","777","46242","9600","777","NA","2","legacy","2","1024","2","48000","-16","experiment","2","even","9","472748","471534","49498","469435","470511","3199","134467","470522","377070","3234","124866","475537","474759","474759","NA","Sternberg Task","56","53402","68","yes","1024"
"82.6086956521739","82.6086956521739","784.5217391304348","784.5217391304348","black","experiment","legacy","legacy","legacy","0","uniform","1","undefined","1","right","68","68","0","68","68","0","0","68","68","0","0","68","68","68","0","Sun Oct 25 18:40:38 2020","The main experiment item","yes","HoughSternbergTask.osexp","/Users/tionnahough/Desktop/Fall 2020","no","mono","no","18","no","white","no","yes","768","legacy","56","11","/Users/tionnahough/Desktop/th-subject-2.csv","legacy","4 2 6 9","Lentiform Loewenfeld","3.3.3","0","n","0","right","right","right","right","NA","730","46242","9600","730","NA","2","legacy","4","1024","2","48000","-16","experiment","2","even","7","478871","477657","49498","475560","476633","3199","134467","476645","377070","3234","124866","481614","480883","480883","NA","Sternberg Task","57","54132","69","yes","1024"
"82.85714285714286","82.85714285714286","785.6","785.6","black","experiment","legacy","legacy","legacy","0","uniform","1","undefined","1","right","69","69","0","69","69","0","0","69","69","0","0","69","69","69","0","Sun Oct 25 18:40:38 2020","The main experiment item","yes","HoughSternbergTask.osexp","/Users/tionnahough/Desktop/Fall 2020","no","mono","no","18","no","white","no","yes","768","legacy","57","11","/Users/tionnahough/Desktop/th-subject-2.csv","legacy","2 5 1 4","Lentiform Loewenfeld","3.3.3","0","n","0","right","right","right","right","NA","860","46242","9600","860","NA","2","legacy","4","1024","2","48000","-16","experiment","2","even","6","484948","483735","49498","481636","482711","3199","134467","482722","377070","3234","124866","487825","486964","486963","NA","Sternberg Task","58","54992","70","yes","1024"
"83.09859154929578","83.09859154929578","785.4225352112676","785.4225352112676","black","experiment","legacy","legacy","legacy","0","uniform","1","undefined","1","right","70","70","0","70","70","0","0","70","70","0","0","70","70","70","0","Sun Oct 25 18:40:38 2020","The main experiment item","yes","HoughSternbergTask.osexp","/Users/tionnahough/Desktop/Fall 2020","no","mono","no","18","no","white","no","yes","768","legacy","58","11","/Users/tionnahough/Desktop/th-subject-2.csv","legacy","1 6 4","Lentiform Loewenfeld","3.3.3","0","n","0","right","right","right","right","NA","773","46242","9600","773","NA","2","legacy","3","1024","2","48000","-16","experiment","2","even","7","491162","489948","49498","487847","488924","3199","134467","488936","377070","3234","124866","493949","493175","493175","NA","Sternberg Task","59","55765","71","yes","1024"
"83.33333333333333","83.33333333333333","787.6805555555555","787.6805555555555","black","experiment","legacy","legacy","legacy","0","uniform","1","undefined","1","right","71","71","0","71","71","0","0","71","71","0","0","71","71","71","0","Sun Oct 25 18:40:38 2020","The main experiment item","yes","HoughSternbergTask.osexp","/Users/tionnahough/Desktop/Fall 2020","no","mono","no","18","no","white","no","yes","768","legacy","59","11","/Users/tionnahough/Desktop/th-subject-2.csv","legacy","8 4 3 5","Lentiform Loewenfeld","3.3.3","0","n","0","right","right","right","right","NA","948","46242","9600","948","NA","2","legacy","4","1024","2","48000","-16","experiment","2","even","6","497281","496068","49498","493971","495045","3199","134467","495056","377070","3234","124866","500242","499293","499293","NA","Sternberg Task","60","56713","72","yes","1024"
"83.56164383561644","83.56164383561644","791.2876712328767","791.2876712328767","black","experiment","legacy","legacy","legacy","0","uniform","1","undefined","1","left","72","72","0","72","72","0","0","72","72","0","0","72","72","72","0","Sun Oct 25 18:40:38 2020","The main experiment item","yes","HoughSternbergTask.osexp","/Users/tionnahough/Desktop/Fall 2020","no","mono","no","18","no","white","no","yes","768","legacy","60","11","/Users/tionnahough/Desktop/th-subject-2.csv","legacy","8 5 4 7 3 1","Lentiform Loewenfeld","3.3.3","2","y","0","left","right","right","left","NA","1051","46242","9600","1051","NA","2","legacy","6","1024","2","48000","-16","experiment","2","even","5","503580","502366","49498","500264","501341","3199","134467","501353","377070","3234","124866","506644","505591","505591","NA","Sternberg Task","61","57764","73","yes","1024"
"83.78378378378379","83.78378378378379","788.5540540540541","788.5540540540541","black","experiment","legacy","legacy","legacy","0","uniform","1","undefined","1","right","73","73","0","73","73","0","0","73","73","0","0","73","73","73","0","Sun Oct 25 18:40:38 2020","The main experiment item","yes","HoughSternbergTask.osexp","/Users/tionnahough/Desktop/Fall 2020","no","mono","no","18","no","white","no","yes","768","legacy","61","11","/Users/tionnahough/Desktop/th-subject-2.csv","legacy","7 9","Lentiform Loewenfeld","3.3.3","0","n","0","right","right","right","right","NA","589","46242","9600","589","NA","2","legacy","2","1024","2","48000","-16","experiment","2","even","1","509977","508764","49498","506664","507740","3199","134467","507752","377070","3234","124866","512580","511990","511990","NA","Sternberg Task","62","58353","74","yes","1024"
"84","84","789.32","789.32","black","experiment","legacy","legacy","legacy","0","uniform","1","undefined","1","right","74","74","0","74","74","0","0","74","74","0","0","74","74","74","0","Sun Oct 25 18:40:38 2020","The main experiment item","yes","HoughSternbergTask.osexp","/Users/tionnahough/Desktop/Fall 2020","no","mono","no","18","no","white","no","yes","768","legacy","62","11","/Users/tionnahough/Desktop/th-subject-2.csv","legacy","8 5 7 3 6","Lentiform Loewenfeld","3.3.3","0","n","0","right","right","right","right","NA","846","46242","9600","846","NA","2","legacy","5","1024","2","48000","-16","experiment","2","even","9","515916","514702","49498","512603","513679","3199","134467","513690","377070","3234","124866","518776","517928","517928","NA","Sternberg Task","63","59199","75","yes","1024"
"84.21052631578948","84.21052631578948","787.4868421052631","787.4868421052631","black","experiment","legacy","legacy","legacy","0","uniform","1","undefined","1","right","75","75","0","75","75","0","0","75","75","0","0","75","75","75","0","Sun Oct 25 18:40:38 2020","The main experiment item","yes","HoughSternbergTask.osexp","/Users/tionnahough/Desktop/Fall 2020","no","mono","no","18","no","white","no","yes","768","legacy","63","11","/Users/tionnahough/Desktop/th-subject-2.csv","legacy","8 6 3 4 7","Lentiform Loewenfeld","3.3.3","0","n","0","right","right","right","right","NA","650","46242","9600","650","NA","2","legacy","5","1024","2","48000","-16","experiment","2","even","1","522111","520897","49498","518797","519874","3199","134467","519885","377070","3234","124866","524774","524123","524123","NA","Sternberg Task","64","59849","76","yes","1024"
"84.41558441558442","84.41558441558442","790.2467532467532","790.2467532467532","black","experiment","legacy","legacy","legacy","0","uniform","1","undefined","1","right","76","76","0","76","76","0","0","76","76","0","0","76","76","76","0","Sun Oct 25 18:40:38 2020","The main experiment item","yes","HoughSternbergTask.osexp","/Users/tionnahough/Desktop/Fall 2020","no","mono","no","18","no","white","no","yes","768","legacy","64","11","/Users/tionnahough/Desktop/th-subject-2.csv","legacy","7 6 4 8 1 2","Lentiform Loewenfeld","3.3.3","0","n","0","right","right","right","right","NA","1000","46242","9600","1000","NA","2","legacy","6","1024","2","48000","-16","experiment","2","even","9","528106","526893","49498","524795","525869","3199","134467","525880","377070","3234","124866","531119","530118","530117","NA","Sternberg Task","65","60849","77","yes","1024"
"84.61538461538461","84.61538461538461","789.1666666666666","789.1666666666666","black","experiment","legacy","legacy","legacy","0","uniform","1","undefined","1","left","77","77","0","77","77","0","0","77","77","0","0","77","77","77","0","Sun Oct 25 18:40:38 2020","The main experiment item","yes","HoughSternbergTask.osexp","/Users/tionnahough/Desktop/Fall 2020","no","mono","no","18","no","white","no","yes","768","legacy","65","11","/Users/tionnahough/Desktop/th-subject-2.csv","legacy","7 8 4 6 9 5","Lentiform Loewenfeld","3.3.3","4","y","0","left","right","right","left","NA","706","46242","9600","706","NA","2","legacy","6","1024","2","48000","-16","experiment","2","even","6","534455","533241","49498","531141","532216","3199","134467","532228","377070","3234","124866","537175","536467","536467","NA","Sternberg Task","66","61555","78","yes","1024"
"84.81012658227849","84.81012658227849","787.7341772151899","787.7341772151899","black","experiment","legacy","legacy","legacy","0","uniform","1","undefined","1","left","78","78","0","78","78","0","0","78","78","0","0","78","78","78","0","Sun Oct 25 18:40:38 2020","The main experiment item","yes","HoughSternbergTask.osexp","/Users/tionnahough/Desktop/Fall 2020","no","mono","no","18","no","white","no","yes","768","legacy","66","11","/Users/tionnahough/Desktop/th-subject-2.csv","legacy","4 9 7 8 5 3","Lentiform Loewenfeld","3.3.3","4","y","0","left","right","right","left","NA","676","46242","9600","676","NA","2","legacy","6","1024","2","48000","-16","experiment","2","even","8","540507","539293","49498","537196","538269","3199","134467","538281","377070","3234","124866","543196","542519","542518","NA","Sternberg Task","67","62231","79","yes","1024"
"85","85","788.1375","788.1375","black","experiment","legacy","legacy","legacy","0","uniform","1","undefined","1","right","79","79","0","79","79","0","0","79","79","0","0","79","79","79","0","Sun Oct 25 18:40:38 2020","The main experiment item","yes","HoughSternbergTask.osexp","/Users/tionnahough/Desktop/Fall 2020","no","mono","no","18","no","white","no","yes","768","legacy","67","11","/Users/tionnahough/Desktop/th-subject-2.csv","legacy","1 7 5 2","Lentiform Loewenfeld","3.3.3","0","n","0","right","right","right","right","NA","820","46242","9600","820","NA","2","legacy","4","1024","2","48000","-16","experiment","2","even","3","546526","545314","49498","543218","544291","3199","134467","544302","377070","3234","124866","549360","548539","548539","NA","Sternberg Task","68","63051","80","yes","1024"
"85.18518518518519","85.18518518518519","788.0987654320987","788.0987654320987","black","experiment","legacy","legacy","legacy","0","uniform","1","undefined","1","right","80","80","0","80","80","0","0","80","80","0","0","80","80","80","0","Sun Oct 25 18:40:38 2020","The main experiment item","yes","HoughSternbergTask.osexp","/Users/tionnahough/Desktop/Fall 2020","no","mono","no","18","no","white","no","yes","768","legacy","68","11","/Users/tionnahough/Desktop/th-subject-2.csv","legacy","2 8 7 9 5 3","Lentiform Loewenfeld","3.3.3","0","n","0","right","right","right","right","NA","785","46242","9600","785","NA","2","legacy","6","1024","2","48000","-16","experiment","2","even","6","552695","551483","49498","549383","550460","3199","134467","550471","377070","3234","124866","555495","554708","554708","NA","Sternberg Task","69","63836","81","yes","1024"
"85.36585365853658","85.36585365853658","784.560975609756","784.560975609756","black","experiment","legacy","legacy","legacy","0","uniform","1","undefined","1","right","81","81","0","81","81","0","0","81","81","0","0","81","81","81","0","Sun Oct 25 18:40:38 2020","The main experiment item","yes","HoughSternbergTask.osexp","/Users/tionnahough/Desktop/Fall 2020","no","mono","no","18","no","white","no","yes","768","legacy","69","11","/Users/tionnahough/Desktop/th-subject-2.csv","legacy","1","Lentiform Loewenfeld","3.3.3","0","n","0","right","right","right","right","NA","498","46242","9600","498","NA","2","legacy","1","1024","2","48000","-16","experiment","2","even","7","558828","557614","49498","555516","556591","3199","134467","556602","377070","3234","124866","561340","560840","560840","NA","Sternberg Task","70","64334","82","yes","1024"
"85.5421686746988","85.5421686746988","782.9156626506024","782.9156626506024","black","experiment","legacy","legacy","legacy","0","uniform","1","undefined","1","right","82","82","0","82","82","0","0","82","82","0","0","82","82","82","0","Sun Oct 25 18:40:38 2020","The main experiment item","yes","HoughSternbergTask.osexp","/Users/tionnahough/Desktop/Fall 2020","no","mono","no","18","no","white","no","yes","768","legacy","70","11","/Users/tionnahough/Desktop/th-subject-2.csv","legacy","1 7 5 2 9","Lentiform Loewenfeld","3.3.3","0","n","0","right","right","right","right","NA","648","46242","9600","648","NA","2","legacy","5","1024","2","48000","-16","experiment","2","even","3","564673","563460","49498","561362","562437","3199","134467","562448","377070","3234","124866","567334","566684","566684","NA","Sternberg Task","71","64982","83","yes","1024"
"85.71428571428571","85.71428571428571","780.7857142857143","780.7857142857143","black","experiment","legacy","legacy","legacy","0","uniform","1","undefined","1","right","83","83","0","83","83","0","0","83","83","0","0","83","83","83","0","Sun Oct 25 18:40:38 2020","The main experiment item","yes","HoughSternbergTask.osexp","/Users/tionnahough/Desktop/Fall 2020","no","mono","no","18","no","white","no","yes","768","legacy","71","11","/Users/tionnahough/Desktop/th-subject-2.csv","legacy","1 5 3 2 8","Lentiform Loewenfeld","3.3.3","0","n","0","right","right","right","right","NA","604","46242","9600","604","NA","2","legacy","5","1024","2","48000","-16","experiment","2","even","4","570667","569455","49498","567355","568430","3199","134467","568442","377070","3234","124866","573285","572679","572679","NA","Sternberg Task","72","65586","84","yes","1024"
"85.88235294117646","85.88235294117646","779.2117647058824","779.2117647058824","black","experiment","legacy","legacy","legacy","0","uniform","1","undefined","1","left","84","84","0","84","84","0","0","84","84","0","0","84","84","84","0","Sun Oct 25 18:40:38 2020","The main experiment item","yes","HoughSternbergTask.osexp","/Users/tionnahough/Desktop/Fall 2020","no","mono","no","18","no","white","no","yes","768","legacy","72","11","/Users/tionnahough/Desktop/th-subject-2.csv","legacy","5 7 8 2 3 8","Lentiform Loewenfeld","3.3.3","5","y","0","left","right","right","left","NA","647","46242","9600","647","NA","2","legacy","6","1024","2","48000","-16","experiment","2","even","3","576615","575404","49498","573306","574381","3199","134467","574392","377070","3234","124866","579275","578627","578627","NA","Sternberg Task","73","66233","85","yes","1024"
"86.04651162790698","86.04651162790698","780.0348837209302","780.0348837209302","black","experiment","legacy","legacy","legacy","0","uniform","1","undefined","1","left","85","85","0","85","85","0","0","85","85","0","0","85","85","85","0","Sun Oct 25 18:40:38 2020","The main experiment item","yes","HoughSternbergTask.osexp","/Users/tionnahough/Desktop/Fall 2020","no","mono","no","18","no","white","no","yes","768","legacy","73","11","/Users/tionnahough/Desktop/th-subject-2.csv","legacy","4 1 8 7 5","Lentiform Loewenfeld","3.3.3","3","y","0","left","right","right","left","NA","850","46242","9600","850","NA","2","legacy","5","1024","2","48000","-16","experiment","2","even","8","582610","581396","49498","579298","580373","3199","134467","580384","377070","3234","124866","585473","584622","584622","NA","Sternberg Task","74","67083","86","yes","1024"
"86.20689655172414","86.20689655172414","780.183908045977","780.183908045977","black","experiment","legacy","legacy","legacy","0","uniform","1","undefined","1","right","86","86","0","86","86","0","0","86","86","0","0","86","86","86","0","Sun Oct 25 18:40:38 2020","The main experiment item","yes","HoughSternbergTask.osexp","/Users/tionnahough/Desktop/Fall 2020","no","mono","no","18","no","white","no","yes","768","legacy","74","11","/Users/tionnahough/Desktop/th-subject-2.csv","legacy","4 2 7 6 1 3","Lentiform Loewenfeld","3.3.3","0","n","0","right","right","right","right","NA","793","46242","9600","793","NA","2","legacy","6","1024","2","48000","-16","experiment","2","even","8","588808","587594","49498","585495","586571","3199","134467","586582","377070","3234","124866","591614","590820","590820","NA","Sternberg Task","75","67876","87","yes","1024"
"86.36363636363636","86.36363636363636","777.9886363636364","777.9886363636364","black","experiment","legacy","legacy","legacy","0","uniform","1","undefined","1","left","87","87","0","87","87","0","0","87","87","0","0","87","87","87","0","Sun Oct 25 18:40:38 2020","The main experiment item","yes","HoughSternbergTask.osexp","/Users/tionnahough/Desktop/Fall 2020","no","mono","no","18","no","white","no","yes","768","legacy","75","11","/Users/tionnahough/Desktop/th-subject-2.csv","legacy","7","Lentiform Loewenfeld","3.3.3","1","y","0","left","right","right","left","NA","587","46242","9600","587","NA","2","legacy","1","1024","2","48000","-16","experiment","2","even","7","594949","593735","49498","591637","592712","3199","134467","592723","377070","3234","124866","597550","596962","596961","NA","Sternberg Task","76","68463","88","yes","1024"
"86.51685393258427","86.51685393258427","776.2359550561798","776.2359550561798","black","experiment","legacy","legacy","legacy","0","uniform","1","undefined","1","left","88","88","0","88","88","0","0","88","88","0","0","88","88","88","0","Sun Oct 25 18:40:38 2020","The main experiment item","yes","HoughSternbergTask.osexp","/Users/tionnahough/Desktop/Fall 2020","no","mono","no","18","no","white","no","yes","768","legacy","76","11","/Users/tionnahough/Desktop/th-subject-2.csv","legacy","9 3 8 2 1 4","Lentiform Loewenfeld","3.3.3","3","y","0","left","right","right","left","NA","622","46242","9600","622","NA","2","legacy","6","1024","2","48000","-16","experiment","2","even","8","600885","599672","49498","597572","598647","3199","134467","598660","377070","3234","124866","603520","602897","602897","NA","Sternberg Task","77","69085","89","yes","1024"
"86.66666666666667","86.66666666666667","774.4333333333333","774.4333333333333","black","experiment","legacy","legacy","legacy","0","uniform","1","undefined","1","left","89","89","0","89","89","0","0","89","89","0","0","89","89","89","0","Sun Oct 25 18:40:38 2020","The main experiment item","yes","HoughSternbergTask.osexp","/Users/tionnahough/Desktop/Fall 2020","no","mono","no","18","no","white","no","yes","768","legacy","77","11","/Users/tionnahough/Desktop/th-subject-2.csv","legacy","8 5 1 3 9","Lentiform Loewenfeld","3.3.3","4","y","0","left","right","right","left","NA","614","46242","9600","614","NA","2","legacy","5","1024","2","48000","-16","experiment","2","even","3","606856","605642","49498","603542","604618","3199","134467","604630","377070","3234","124866","609484","608868","608868","NA","Sternberg Task","78","69699","90","yes","1024"
"86.81318681318682","86.81318681318682","771.989010989011","771.989010989011","black","experiment","legacy","legacy","legacy","0","uniform","1","undefined","1","left","90","90","0","90","90","0","0","90","90","0","0","90","90","90","0","Sun Oct 25 18:40:38 2020","The main experiment item","yes","HoughSternbergTask.osexp","/Users/tionnahough/Desktop/Fall 2020","no","mono","no","18","no","white","no","yes","768","legacy","78","11","/Users/tionnahough/Desktop/th-subject-2.csv","legacy","3 5 7 1","Lentiform Loewenfeld","3.3.3","3","y","0","left","right","right","left","NA","552","46242","9600","552","NA","2","legacy","4","1024","2","48000","-16","experiment","2","even","7","612818","611604","49498","609506","610580","3199","134467","610592","377070","3234","124866","615383","614830","614830","NA","Sternberg Task","79","70251","91","yes","1024"
"86.95652173913044","86.95652173913044","769.0869565217391","769.0869565217391","black","experiment","legacy","legacy","legacy","0","uniform","1","undefined","1","left","91","91","0","91","91","0","0","91","91","0","0","91","91","91","0","Sun Oct 25 18:40:38 2020","The main experiment item","yes","HoughSternbergTask.osexp","/Users/tionnahough/Desktop/Fall 2020","no","mono","no","18","no","white","no","yes","768","legacy","79","11","/Users/tionnahough/Desktop/th-subject-2.csv","legacy","4 6 5 8","Lentiform Loewenfeld","3.3.3","1","y","0","left","right","right","left","NA","505","46242","9600","505","NA","2","legacy","4","1024","2","48000","-16","experiment","2","even","4","618716","617503","49498","615405","616480","3199","134467","616491","377070","3234","124866","621234","620728","620728","NA","Sternberg Task","80","70756","92","yes","1024"
"87.09677419354838","87.09677419354838","768.3870967741935","768.3870967741935","black","experiment","legacy","legacy","legacy","0","uniform","1","undefined","1","left","92","92","0","92","92","0","0","92","92","0","0","92","92","92","0","Sun Oct 25 18:40:38 2020","The main experiment item","yes","HoughSternbergTask.osexp","/Users/tionnahough/Desktop/Fall 2020","no","mono","no","18","no","white","no","yes","768","legacy","80","11","/Users/tionnahough/Desktop/th-subject-2.csv","legacy","9 5 3 8 4","Lentiform Loewenfeld","3.3.3","1","y","0","left","right","right","left","NA","704","46242","9600","704","NA","2","legacy","5","1024","2","48000","-16","experiment","2","even","9","624567","623354","49498","621256","622330","3199","134467","622342","377070","3234","124866","627284","626579","626579","NA","Sternberg Task","81","71460","93","yes","1024"
"87.23404255319149","87.23404255319149","766.1170212765958","766.1170212765958","black","experiment","legacy","legacy","legacy","0","uniform","1","undefined","1","left","93","93","0","93","93","0","0","93","93","0","0","93","93","93","0","Sun Oct 25 18:40:38 2020","The main experiment item","yes","HoughSternbergTask.osexp","/Users/tionnahough/Desktop/Fall 2020","no","mono","no","18","no","white","no","yes","768","legacy","81","11","/Users/tionnahough/Desktop/th-subject-2.csv","legacy","2 5 4 8 7","Lentiform Loewenfeld","3.3.3","3","y","0","left","right","right","left","NA","555","46242","9600","555","NA","2","legacy","5","1024","2","48000","-16","experiment","2","even","4","630615","629402","49498","627305","628378","3199","134467","628390","377070","3234","124866","633183","632627","632627","NA","Sternberg Task","82","72015","94","yes","1024"
"87.36842105263158","87.36842105263158","766.3894736842105","766.3894736842105","black","experiment","legacy","legacy","legacy","0","uniform","1","undefined","1","right","94","94","0","94","94","0","0","94","94","0","0","94","94","94","0","Sun Oct 25 18:40:38 2020","The main experiment item","yes","HoughSternbergTask.osexp","/Users/tionnahough/Desktop/Fall 2020","no","mono","no","18","no","white","no","yes","768","legacy","82","11","/Users/tionnahough/Desktop/th-subject-2.csv","legacy","5 7 3","Lentiform Loewenfeld","3.3.3","0","n","0","right","right","right","right","NA","792","46242","9600","792","NA","2","legacy","3","1024","2","48000","-16","experiment","2","even","9","636516","635302","49498","633205","634278","3199","134467","634289","377070","3234","124866","639321","638528","638527","NA","Sternberg Task","83","72807","95","yes","1024"
"87.5","87.5","767.0729166666666","767.0729166666666","black","experiment","legacy","legacy","legacy","0","uniform","1","undefined","1","right","95","95","0","95","95","0","0","95","95","0","0","95","95","95","0","Sun Oct 25 18:40:38 2020","The main experiment item","yes","HoughSternbergTask.osexp","/Users/tionnahough/Desktop/Fall 2020","no","mono","no","18","no","white","no","yes","768","legacy","83","11","/Users/tionnahough/Desktop/th-subject-2.csv","legacy","6 8 4","Lentiform Loewenfeld","3.3.3","0","n","0","right","right","right","right","NA","832","46242","9600","832","NA","2","legacy","3","1024","2","48000","-16","experiment","2","even","1","642657","641444","49498","639344","640420","3199","134467","640432","377070","3234","124866","645502","644668","644668","NA","Sternberg Task","84","73639","96","yes","1024"
"87.62886597938144","87.62886597938144","767.2164948453608","767.2164948453608","black","experiment","legacy","legacy","legacy","0","uniform","1","undefined","1","right","96","96","0","96","96","0","0","96","96","0","0","96","96","96","0","Sun Oct 25 18:40:38 2020","The main experiment item","yes","HoughSternbergTask.osexp","/Users/tionnahough/Desktop/Fall 2020","no","mono","no","18","no","white","no","yes","768","legacy","84","11","/Users/tionnahough/Desktop/th-subject-2.csv","legacy","8 5 4 2 9 6","Lentiform Loewenfeld","3.3.3","0","n","0","right","right","right","right","NA","781","46242","9600","781","NA","2","legacy","6","1024","2","48000","-16","experiment","2","even","3","648836","647622","49498","645523","646599","3199","134467","646610","377070","3234","124866","651629","650847","650847","NA","Sternberg Task","85","74420","97","yes","1024"
"87.75510204081633","87.75510204081633","765.8163265306123","765.8163265306123","black","experiment","legacy","legacy","legacy","0","uniform","1","undefined","1","right","97","97","0","97","97","0","0","97","97","0","0","97","97","97","0","Sun Oct 25 18:40:38 2020","The main experiment item","yes","HoughSternbergTask.osexp","/Users/tionnahough/Desktop/Fall 2020","no","mono","no","18","no","white","no","yes","768","legacy","85","11","/Users/tionnahough/Desktop/th-subject-2.csv","legacy","6 9 5","Lentiform Loewenfeld","3.3.3","0","n","0","right","right","right","right","NA","630","46242","9600","630","NA","2","legacy","3","1024","2","48000","-16","experiment","2","even","8","654960","653746","49498","651650","652723","3199","134467","652734","377070","3234","124866","657603","656972","656971","NA","Sternberg Task","86","75050","98","yes","1024"
"87.87878787878788","87.87878787878788","764.89898989899","764.89898989899","black","experiment","legacy","legacy","legacy","0","uniform","1","undefined","1","right","98","98","0","98","98","0","0","98","98","0","0","98","98","98","0","Sun Oct 25 18:40:38 2020","The main experiment item","yes","HoughSternbergTask.osexp","/Users/tionnahough/Desktop/Fall 2020","no","mono","no","18","no","white","no","yes","768","legacy","86","11","/Users/tionnahough/Desktop/th-subject-2.csv","legacy","8 2 1 4 5 9","Lentiform Loewenfeld","3.3.3","0","n","0","right","right","right","right","NA","675","46242","9600","675","NA","2","legacy","6","1024","2","48000","-16","experiment","2","even","7","660942","659728","49498","657623","658702","3199","134467","658715","377070","3234","124866","663648","662962","662962","NA","Sternberg Task","87","75725","99","yes","1024"
"88","88","767.81","767.81","black","experiment","legacy","legacy","legacy","0","uniform","1","undefined","1","left","99","99","0","99","99","0","0","99","99","0","0","99","99","99","0","Sun Oct 25 18:40:38 2020","The main experiment item","yes","HoughSternbergTask.osexp","/Users/tionnahough/Desktop/Fall 2020","no","mono","no","18","no","white","no","yes","768","legacy","87","11","/Users/tionnahough/Desktop/th-subject-2.csv","legacy","7 2 3","Lentiform Loewenfeld","3.3.3","3","y","0","left","right","right","left","NA","1056","46242","9600","1056","NA","2","legacy","3","1024","2","48000","-16","experiment","2","even","3","666970","665758","49498","663661","664734","3199","134467","664746","377070","3234","124866","670048","668991","668991","NA","Sternberg Task","88","76781","100","yes","1024"
"88.11881188118812","88.11881188118812","766.5940594059406","766.5940594059406","black","experiment","legacy","legacy","legacy","0","uniform","1","undefined","1","right","100","100","0","100","100","0","0","100","100","0","0","100","100","100","0","Sun Oct 25 18:40:38 2020","The main experiment item","yes","HoughSternbergTask.osexp","/Users/tionnahough/Desktop/Fall 2020","no","mono","no","18","no","white","no","yes","768","legacy","88","11","/Users/tionnahough/Desktop/th-subject-2.csv","legacy","6 2 9 3 8 4","Lentiform Loewenfeld","3.3.3","0","n","0","right","right","right","right","NA","645","46242","9600","645","NA","2","legacy","6","1024","2","48000","-16","experiment","2","even","1","673384","672171","49498","670071","671148","3199","134467","671159","377070","3234","124866","676043","675397","675397","NA","Sternberg Task","89","77426","101","yes","1024"
"88.23529411764706","88.23529411764706","765.4117647058823","765.4117647058823","black","experiment","legacy","legacy","legacy","0","uniform","1","undefined","1","right","101","101","0","101","101","0","0","101","101","0","0","101","101","101","0","Sun Oct 25 18:40:38 2020","The main experiment item","yes","HoughSternbergTask.osexp","/Users/tionnahough/Desktop/Fall 2020","no","mono","no","18","no","white","no","yes","768","legacy","89","11","/Users/tionnahough/Desktop/th-subject-2.csv","legacy","1 8 7","Lentiform Loewenfeld","3.3.3","0","n","0","right","right","right","right","NA","646","46242","9600","646","NA","2","legacy","3","1024","2","48000","-16","experiment","2","even","4","679375","678162","49498","676065","677138","3199","134467","677149","377070","3234","124866","682036","681388","681388","NA","Sternberg Task","90","78072","102","yes","1024"
"88.3495145631068","88.3495145631068","764.7281553398059","764.7281553398059","black","experiment","legacy","legacy","legacy","0","uniform","1","undefined","1","right","102","102","0","102","102","0","0","102","102","0","0","102","102","102","0","Sun Oct 25 18:40:38 2020","The main experiment item","yes","HoughSternbergTask.osexp","/Users/tionnahough/Desktop/Fall 2020","no","mono","no","18","no","white","no","yes","768","legacy","90","11","/Users/tionnahough/Desktop/th-subject-2.csv","legacy","3 4 9 6 7 8","Lentiform Loewenfeld","3.3.3","0","n","0","right","right","right","right","NA","695","46242","9600","695","NA","2","legacy","6","1024","2","48000","-16","experiment","2","even","2","685459","684245","49498","682059","683222","3199","134467","683233","377070","3234","124866","688169","687472","687472","NA","Sternberg Task","91","78767","103","yes","1024"
"88.46153846153847","88.46153846153847","763.1730769230769","763.1730769230769","black","experiment","legacy","legacy","legacy","0","uniform","1","undefined","1","left","103","103","0","103","103","0","0","103","103","0","0","103","103","103","0","Sun Oct 25 18:40:38 2020","The main experiment item","yes","HoughSternbergTask.osexp","/Users/tionnahough/Desktop/Fall 2020","no","mono","no","18","no","white","no","yes","768","legacy","91","11","/Users/tionnahough/Desktop/th-subject-2.csv","legacy","2 3","Lentiform Loewenfeld","3.3.3","1","y","0","left","right","right","left","NA","603","46242","9600","603","NA","2","legacy","2","1024","2","48000","-16","experiment","2","even","2","691500","690287","49498","688191","689264","3199","134467","689275","377070","3234","124866","694117","693512","693512","NA","Sternberg Task","92","79370","104","yes","1024"
"88.57142857142857","88.57142857142857","765.0095238095238","765.0095238095238","black","experiment","legacy","legacy","legacy","0","uniform","1","undefined","1","left","104","104","0","104","104","0","0","104","104","0","0","104","104","104","0","Sun Oct 25 18:40:38 2020","The main experiment item","yes","HoughSternbergTask.osexp","/Users/tionnahough/Desktop/Fall 2020","no","mono","no","18","no","white","no","yes","768","legacy","92","11","/Users/tionnahough/Desktop/th-subject-2.csv","legacy","8 9 5 7 1 6","Lentiform Loewenfeld","3.3.3","4","y","0","left","right","right","left","NA","956","46242","9600","956","NA","2","legacy","6","1024","2","48000","-16","experiment","2","even","7","697448","696235","49498","694138","695211","3199","134467","695222","377070","3234","124866","700417","699460","699460","NA","Sternberg Task","93","80326","105","yes","1024"
"88.67924528301887","88.67924528301887","764.7452830188679","764.7452830188679","black","experiment","legacy","legacy","legacy","0","uniform","1","undefined","1","right","105","105","0","105","105","0","0","105","105","0","0","105","105","105","0","Sun Oct 25 18:40:38 2020","The main experiment item","yes","HoughSternbergTask.osexp","/Users/tionnahough/Desktop/Fall 2020","no","mono","no","18","no","white","no","yes","768","legacy","93","11","/Users/tionnahough/Desktop/th-subject-2.csv","legacy","1 3 2 6 9","Lentiform Loewenfeld","3.3.3","0","n","0","right","right","right","right","NA","737","46242","9600","737","NA","2","legacy","5","1024","2","48000","-16","experiment","2","even","5","703752","702539","49498","700439","701515","3199","134467","701526","377070","3234","124866","706504","705765","705765","NA","Sternberg Task","94","81063","106","yes","1024"
"88.78504672897196","88.78504672897196","766.2897196261682","766.2897196261682","black","experiment","legacy","legacy","legacy","0","uniform","1","undefined","1","right","106","106","0","106","106","0","0","106","106","0","0","106","106","106","0","Sun Oct 25 18:40:38 2020","The main experiment item","yes","HoughSternbergTask.osexp","/Users/tionnahough/Desktop/Fall 2020","no","mono","no","18","no","white","no","yes","768","legacy","94","11","/Users/tionnahough/Desktop/th-subject-2.csv","legacy","5 3 8 7 2 4","Lentiform Loewenfeld","3.3.3","0","n","0","right","right","right","right","NA","930","46242","9600","930","NA","2","legacy","6","1024","2","48000","-16","experiment","2","even","9","709840","708626","49498","706526","707602","3199","134467","707613","377070","3234","124866","712783","711852","711852","NA","Sternberg Task","95","81993","107","yes","1024"
"88.88888888888889","88.88888888888889","765.1203703703703","765.1203703703703","black","experiment","legacy","legacy","legacy","0","uniform","1","undefined","1","left","107","107","0","107","107","0","0","107","107","0","0","107","107","107","0","Sun Oct 25 18:40:38 2020","The main experiment item","yes","HoughSternbergTask.osexp","/Users/tionnahough/Desktop/Fall 2020","no","mono","no","18","no","white","no","yes","768","legacy","95","11","/Users/tionnahough/Desktop/th-subject-2.csv","legacy","9 1 7 2","Lentiform Loewenfeld","3.3.3","2","y","0","left","right","right","left","NA","640","46242","9600","640","NA","2","legacy","4","1024","2","48000","-16","experiment","2","even","1","716118","714904","49498","712805","713880","3199","134467","713891","377070","3234","124866","718772","718130","718130","NA","Sternberg Task","96","82633","108","yes","1024"
"88.9908256880734","88.9908256880734","765.4678899082569","765.4678899082569","black","experiment","legacy","legacy","legacy","0","uniform","1","undefined","1","right","108","108","0","108","108","0","0","108","108","0","0","108","108","108","0","Sun Oct 25 18:40:38 2020","The main experiment item","yes","HoughSternbergTask.osexp","/Users/tionnahough/Desktop/Fall 2020","no","mono","no","18","no","white","no","yes","768","legacy","96","11","/Users/tionnahough/Desktop/th-subject-2.csv","legacy","6 9 4 5 2","Lentiform Loewenfeld","3.3.3","0","n","0","right","right","right","right","NA","803","46242","9600","803","NA","2","legacy","5","1024","2","48000","-16","experiment","2","even","1","722106","720892","49498","718793","719868","3199","134467","719879","377070","3234","124866","724921","724117","724117","NA","Sternberg Task","97","83436","109","yes","1024"
"89.0909090909091","89.0909090909091","764.6","764.6","black","experiment","legacy","legacy","legacy","0","uniform","1","undefined","1","left","109","109","0","109","109","0","0","109","109","0","0","109","109","109","0","Sun Oct 25 18:40:38 2020","The main experiment item","yes","HoughSternbergTask.osexp","/Users/tionnahough/Desktop/Fall 2020","no","mono","no","18","no","white","no","yes","768","legacy","97","11","/Users/tionnahough/Desktop/th-subject-2.csv","legacy","6 7 9 3 1 2","Lentiform Loewenfeld","3.3.3","1","y","0","left","right","right","left","NA","670","46242","9600","670","NA","2","legacy","6","1024","2","48000","-16","experiment","2","even","6","728261","727047","49498","724943","726020","3199","134467","726032","377070","3234","124866","730945","730273","730273","NA","Sternberg Task","98","84106","110","yes","1024"
"89.1891891891892","89.1891891891892","763.990990990991","763.990990990991","black","experiment","legacy","legacy","legacy","0","uniform","1","undefined","1","left","110","110","0","110","110","0","0","110","110","0","0","110","110","110","0","Sun Oct 25 18:40:38 2020","The main experiment item","yes","HoughSternbergTask.osexp","/Users/tionnahough/Desktop/Fall 2020","no","mono","no","18","no","white","no","yes","768","legacy","98","11","/Users/tionnahough/Desktop/th-subject-2.csv","legacy","8 7 3","Lentiform Loewenfeld","3.3.3","1","y","0","left","right","right","left","NA","697","46242","9600","697","NA","2","legacy","3","1024","2","48000","-16","experiment","2","even","8","734280","733067","49498","730966","732043","3199","134467","732055","377070","3234","124866","736992","736293","736293","NA","Sternberg Task","99","84803","111","yes","1024"
"89.28571428571429","89.28571428571429","764.4285714285714","764.4285714285714","black","experiment","legacy","legacy","legacy","0","uniform","1","undefined","1","right","111","111","0","111","111","0","0","111","111","0","0","111","111","111","0","Sun Oct 25 18:40:38 2020","The main experiment item","yes","HoughSternbergTask.osexp","/Users/tionnahough/Desktop/Fall 2020","no","mono","no","18","no","white","no","yes","768","legacy","99","11","/Users/tionnahough/Desktop/th-subject-2.csv","legacy","7 8 6 1","Lentiform Loewenfeld","3.3.3","0","n","0","right","right","right","right","NA","813","46242","9600","813","NA","2","legacy","4","1024","2","48000","-16","experiment","2","even","3","740326","739113","49498","737013","738089","3199","134467","738101","377070","3234","124866","743153","742339","742339","NA","Sternberg Task","100","85616","112","yes","1024"
"89.38053097345133","89.38053097345133","763.2389380530974","763.2389380530974","black","experiment","legacy","legacy","legacy","0","uniform","1","undefined","1","right","112","112","0","112","112","0","0","112","112","0","0","112","112","112","0","Sun Oct 25 18:40:38 2020","The main experiment item","yes","HoughSternbergTask.osexp","/Users/tionnahough/Desktop/Fall 2020","no","mono","no","18","no","white","no","yes","768","legacy","100","11","/Users/tionnahough/Desktop/th-subject-2.csv","legacy","6 9 7 3 8 2","Lentiform Loewenfeld","3.3.3","0","n","0","right","right","right","right","NA","630","46242","9600","630","NA","2","legacy","6","1024","2","48000","-16","experiment","2","even","5","746491","745276","49498","743175","744253","3199","134467","744264","377070","3234","124866","749134","748502","748502","NA","Sternberg Task","101","86246","113","yes","1024"
"89.47368421052632","89.47368421052632","763.0877192982456","763.0877192982456","black","experiment","legacy","legacy","legacy","0","uniform","1","undefined","1","left","113","113","0","113","113","0","0","113","113","0","0","113","113","113","0","Sun Oct 25 18:40:38 2020","The main experiment item","yes","HoughSternbergTask.osexp","/Users/tionnahough/Desktop/Fall 2020","no","mono","no","18","no","white","no","yes","768","legacy","101","11","/Users/tionnahough/Desktop/th-subject-2.csv","legacy","3 4","Lentiform Loewenfeld","3.3.3","1","y","0","left","right","right","left","NA","746","46242","9600","746","NA","2","legacy","2","1024","2","48000","-16","experiment","2","even","3","752468","751254","49498","749156","750230","3199","134467","750242","377070","3234","124866","755228","754480","754480","NA","Sternberg Task","102","86992","114","yes","1024"
"89.56521739130434","89.56521739130434","762.9130434782609","762.9130434782609","black","experiment","legacy","legacy","legacy","0","uniform","1","undefined","1","right","114","114","0","114","114","0","0","114","114","0","0","114","114","114","0","Sun Oct 25 18:40:38 2020","The main experiment item","yes","HoughSternbergTask.osexp","/Users/tionnahough/Desktop/Fall 2020","no","mono","no","18","no","white","no","yes","768","legacy","102","11","/Users/tionnahough/Desktop/th-subject-2.csv","legacy","9 5 3 2 8 6","Lentiform Loewenfeld","3.3.3","0","n","0","right","right","right","right","NA","743","46242","9600","743","NA","2","legacy","6","1024","2","48000","-16","experiment","2","even","7","758561","757348","49498","755250","756324","3199","134467","756336","377070","3234","124866","761318","760573","760573","NA","Sternberg Task","103","87735","115","yes","1024"
"89.65517241379311","89.65517241379311","761.25","761.25","black","experiment","legacy","legacy","legacy","0","uniform","1","undefined","1","left","115","115","0","115","115","0","0","115","115","0","0","115","115","115","0","Sun Oct 25 18:40:38 2020","The main experiment item","yes","HoughSternbergTask.osexp","/Users/tionnahough/Desktop/Fall 2020","no","mono","no","18","no","white","no","yes","768","legacy","103","11","/Users/tionnahough/Desktop/th-subject-2.csv","legacy","7 1 8 5 6 2","Lentiform Loewenfeld","3.3.3","2","y","0","left","right","right","left","NA","570","46242","9600","570","NA","2","legacy","6","1024","2","48000","-16","experiment","2","even","1","764650","763437","49498","761340","762413","3199","134467","762425","377070","3234","124866","767235","766663","766662","NA","Sternberg Task","104","88305","116","yes","1024"
