"acc","accuracy","average_response_time","avg_rt","background","block","canvas_backend","clock_backend","color_backend","compensation","coordinates","correct","correct_instruction1","correct_keyboard_response","correct_response","count_ISI","count_correctFeedback","count_expSequence","count_experiment","count_experimentLoop","count_fixation","count_incorrectFeedback","count_instruction1","count_instructions2","count_keyboard_response","count_logger","count_memorySet","count_practiceLoop","count_probe","count_thankYou","datetime","description","disable_garbage_collection","experiment_file","experiment_path","font_bold","font_family","font_italic","font_size","font_underline","foreground","form_clicks","fullscreen","height","keyboard_backend","live_row","live_row_practiceLoop","logfile","mouse_backend","numberSet","opensesame_codename","opensesame_version","posInSet","present","repeat_cycle","response","response_instruction1","response_instructions2","response_keyboard_response","response_thankYou","response_time","response_time_instruction1","response_time_instructions2","response_time_keyboard_response","response_time_thankYou","round_decimals","sampler_backend","setSize","sound_buf_size","sound_channels","sound_freq","sound_sample_size","start","subject_nr","subject_parity","target","time_ISI","time_correctFeedback","time_expSequence","time_experiment","time_experimentLoop","time_fixation","time_incorrectFeedback","time_instruction1","time_instructions2","time_keyboard_response","time_logger","time_memorySet","time_practiceLoop","time_probe","time_thankYou","title","total_correct","total_response_time","total_responses","uniform_coordinates","width"
"0","0","1010","1010","black","practice","legacy","legacy","legacy","0","uniform","0","undefined","0","left","0","0","0","0","0","0","0","0","0","0","0","0","0","0","0","Sun Oct 18 10:40:27 2020","The main experiment item","yes","Sternberg task.osexp","/Users/alisonbeason/Desktop/PSYC 5316","no","mono","no","18","no","white","no","yes","768","legacy","0","0","/Users/alisonbeason/Desktop/PSYC 5316/AB-subject-1.csv","legacy","4 3 1 7 9 8","Lentiform Loewenfeld","3.3.3","1","y","0","right","left","NA","right","NA","1010","33305","NA","1010","NA","2","legacy","6","1024","2","48000","-16","experiment","1","odd","4","39853","NA","37610","3969","NA","37623","NA","3987","NA","41867","42879","38638","37321","41867","NA","Sternberg task","0","1010","1","yes","1024"
"50","50","906.5","906.5","black","practice","legacy","legacy","legacy","0","uniform","1","undefined","1","right","1","1","1","0","0","1","1","0","0","1","1","1","0","1","0","Sun Oct 18 10:40:27 2020","The main experiment item","yes","Sternberg task.osexp","/Users/alisonbeason/Desktop/PSYC 5316","no","mono","no","18","no","white","no","yes","768","legacy","1","1","/Users/alisonbeason/Desktop/PSYC 5316/AB-subject-1.csv","legacy","2 1","Lentiform Loewenfeld","3.3.3","0","n","0","right","left","NA","right","NA","803","33305","NA","803","NA","2","legacy","2","1024","2","48000","-16","experiment","1","odd","5","46247","NA","44000","3969","NA","44014","42920","3987","NA","48262","49066","45029","37321","48262","NA","Sternberg task","1","1813","2","yes","1024"
"66.66666666666667","66.66666666666667","929","929","black","practice","legacy","legacy","legacy","0","uniform","1","undefined","1","right","2","2","2","0","0","2","2","0","0","2","2","2","0","2","0","Sun Oct 18 10:40:27 2020","The main experiment item","yes","Sternberg task.osexp","/Users/alisonbeason/Desktop/PSYC 5316","no","mono","no","18","no","white","no","yes","768","legacy","2","2","/Users/alisonbeason/Desktop/PSYC 5316/AB-subject-1.csv","legacy","4 1 5","Lentiform Loewenfeld","3.3.3","0","n","0","right","left","NA","right","NA","974","33305","NA","974","NA","2","legacy","3","1024","2","48000","-16","experiment","1","odd","2","52388","49082","50142","3969","NA","50155","42920","3987","NA","54402","55376","51171","37321","54402","NA","Sternberg task","2","2787","3","yes","1024"
"50","50","1064","1064","black","practice","legacy","legacy","legacy","0","uniform","0","undefined","0","left","3","3","3","0","0","3","3","0","0","3","3","3","0","3","0","Sun Oct 18 10:40:27 2020","The main experiment item","yes","Sternberg task.osexp","/Users/alisonbeason/Desktop/PSYC 5316","no","mono","no","18","no","white","no","yes","768","legacy","3","3","/Users/alisonbeason/Desktop/PSYC 5316/AB-subject-1.csv","legacy","2 9 4","Lentiform Loewenfeld","3.3.3","3","y","0","right","left","NA","right","NA","1469","33305","NA","1469","NA","2","legacy","3","1024","2","48000","-16","experiment","1","odd","4","58699","55392","56453","3969","NA","56467","42920","3987","NA","60713","62183","57482","37321","60713","NA","Sternberg task","2","4256","4","yes","1024"
"60","60","985.6","985.6","black","practice","legacy","legacy","legacy","0","uniform","1","undefined","1","left","4","4","4","0","0","4","4","0","0","4","4","4","0","4","0","Sun Oct 18 10:40:27 2020","The main experiment item","yes","Sternberg task.osexp","/Users/alisonbeason/Desktop/PSYC 5316","no","mono","no","18","no","white","no","yes","768","legacy","4","4","/Users/alisonbeason/Desktop/PSYC 5316/AB-subject-1.csv","legacy","4 8","Lentiform Loewenfeld","3.3.3","1","y","0","left","left","NA","left","NA","672","33305","NA","672","NA","2","legacy","2","1024","2","48000","-16","experiment","1","odd","4","65504","55392","63257","3969","NA","63271","62198","3987","NA","67518","68190","64286","37321","67518","NA","Sternberg task","3","4928","5","yes","1024"
"66.66666666666667","66.66666666666667","1014","1014","black","practice","legacy","legacy","legacy","0","uniform","1","undefined","1","left","5","5","5","0","0","5","5","0","0","5","5","5","0","5","0","Sun Oct 18 10:40:27 2020","The main experiment item","yes","Sternberg task.osexp","/Users/alisonbeason/Desktop/PSYC 5316","no","mono","no","18","no","white","no","yes","768","legacy","5","5","/Users/alisonbeason/Desktop/PSYC 5316/AB-subject-1.csv","legacy","6","Lentiform Loewenfeld","3.3.3","1","y","0","left","left","NA","left","NA","1156","33305","NA","1156","NA","2","legacy","1","1024","2","48000","-16","experiment","1","odd","6","71511","68206","69265","3969","NA","69279","62198","3987","NA","73525","74682","70294","37321","73525","NA","Sternberg task","4","6084","6","yes","1024"
"71.42857142857143","71.42857142857143","961.8571428571429","961.8571428571429","black","practice","legacy","legacy","legacy","0","uniform","1","undefined","1","right","6","6","6","0","0","6","6","0","0","6","6","6","0","6","0","Sun Oct 18 10:40:27 2020","The main experiment item","yes","Sternberg task.osexp","/Users/alisonbeason/Desktop/PSYC 5316","no","mono","no","18","no","white","no","yes","768","legacy","6","6","/Users/alisonbeason/Desktop/PSYC 5316/AB-subject-1.csv","legacy","5 7 8 4 1 2","Lentiform Loewenfeld","3.3.3","0","n","0","right","left","NA","right","NA","649","33305","NA","649","NA","2","legacy","6","1024","2","48000","-16","experiment","1","odd","6","78003","74697","75756","3969","NA","75770","62198","3987","NA","80017","80667","76786","37321","80017","NA","Sternberg task","5","6733","7","yes","1024"
"75","75","1005.25","1005.25","black","practice","legacy","legacy","legacy","0","uniform","1","undefined","1","right","7","7","7","0","0","7","7","0","0","7","7","7","0","7","0","Sun Oct 18 10:40:27 2020","The main experiment item","yes","Sternberg task.osexp","/Users/alisonbeason/Desktop/PSYC 5316","no","mono","no","18","no","white","no","yes","768","legacy","7","7","/Users/alisonbeason/Desktop/PSYC 5316/AB-subject-1.csv","legacy","3 1 9 4","Lentiform Loewenfeld","3.3.3","0","n","0","right","left","NA","right","NA","1309","33305","NA","1309","NA","2","legacy","4","1024","2","48000","-16","experiment","1","odd","6","83992","80684","81744","3969","NA","81758","62198","3987","NA","86006","87316","82773","37321","86006","NA","Sternberg task","6","8042","8","yes","1024"
"77.77777777777777","77.77777777777777","1008","1008","black","practice","legacy","legacy","legacy","0","uniform","1","undefined","1","right","8","8","8","0","0","8","8","0","0","8","8","8","0","8","0","Sun Oct 18 10:40:27 2020","The main experiment item","yes","Sternberg task.osexp","/Users/alisonbeason/Desktop/PSYC 5316","no","mono","no","18","no","white","no","yes","768","legacy","8","8","/Users/alisonbeason/Desktop/PSYC 5316/AB-subject-1.csv","legacy","5","Lentiform Loewenfeld","3.3.3","0","n","0","right","left","NA","right","NA","1030","33305","NA","1030","NA","2","legacy","1","1024","2","48000","-16","experiment","1","odd","3","90638","87332","88390","3969","NA","88404","62198","3987","NA","92653","93683","89420","37321","92653","NA","Sternberg task","7","9072","9","yes","1024"
"80","80","1057.6","1057.6","black","practice","legacy","legacy","legacy","0","uniform","1","undefined","1","left","9","9","9","0","0","9","9","0","0","9","9","9","0","9","0","Sun Oct 18 10:40:27 2020","The main experiment item","yes","Sternberg task.osexp","/Users/alisonbeason/Desktop/PSYC 5316","no","mono","no","18","no","white","no","yes","768","legacy","9","9","/Users/alisonbeason/Desktop/PSYC 5316/AB-subject-1.csv","legacy","1 7 9 8 5","Lentiform Loewenfeld","3.3.3","4","y","0","left","left","NA","left","NA","1504","33305","NA","1504","NA","2","legacy","5","1024","2","48000","-16","experiment","1","odd","8","97004","93698","94758","3969","NA","94772","62198","3987","NA","99019","100523","95787","37321","99019","NA","Sternberg task","8","10576","10","yes","1024"
"72.72727272727273","72.72727272727273","1041.5454545454545","1041.5454545454545","black","practice","legacy","legacy","legacy","0","uniform","0","undefined","0","left","10","10","10","0","0","10","10","0","0","10","10","10","0","10","0","Sun Oct 18 10:40:27 2020","The main experiment item","yes","Sternberg task.osexp","/Users/alisonbeason/Desktop/PSYC 5316","no","mono","no","18","no","white","no","yes","768","legacy","10","10","/Users/alisonbeason/Desktop/PSYC 5316/AB-subject-1.csv","legacy","1 5 2 9","Lentiform Loewenfeld","3.3.3","2","y","0","right","left","NA","right","NA","881","33305","NA","881","NA","2","legacy","4","1024","2","48000","-16","experiment","1","odd","5","103848","100540","101600","3969","NA","101614","62198","3987","NA","105863","106745","102630","37321","105863","NA","Sternberg task","8","11457","11","yes","1024"
"66.66666666666667","66.66666666666667","1121.4166666666667","1121.4166666666667","black","practice","legacy","legacy","legacy","0","uniform","0","undefined","0","right","11","11","11","0","0","11","11","0","0","11","11","11","0","11","0","Sun Oct 18 10:40:27 2020","The main experiment item","yes","Sternberg task.osexp","/Users/alisonbeason/Desktop/PSYC 5316","no","mono","no","18","no","white","no","yes","768","legacy","11","11","/Users/alisonbeason/Desktop/PSYC 5316/AB-subject-1.csv","legacy","9 6 7 4 5","Lentiform Loewenfeld","3.3.3","0","n","0","None","left","NA","None","NA","2000","33305","NA","2000","NA","2","legacy","5","1024","2","48000","-16","experiment","1","odd","3","110065","100540","107821","3969","NA","107835","106761","3987","NA","112080","114080","108849","37321","112080","NA","Sternberg task","8","13457","12","yes","1024"
"69.23076923076923","69.23076923076923","1121.5384615384614","1121.5384615384614","black","experiment","legacy","legacy","legacy","0","uniform","1","undefined","1","left","12","12","12","0","0","12","12","0","0","12","12","12","0","12","0","Sun Oct 18 10:40:27 2020","The main experiment item","yes","Sternberg task.osexp","/Users/alisonbeason/Desktop/PSYC 5316","no","mono","no","18","no","white","no","yes","768","legacy","0","11","/Users/alisonbeason/Desktop/PSYC 5316/AB-subject-1.csv","legacy","8 9 5 6 7","Lentiform Loewenfeld","3.3.3","1","y","0","left","left","right","left","NA","1123","33305","6005","1123","NA","2","legacy","5","1024","2","48000","-16","experiment","1","odd","8","123440","100540","121193","3969","121145","121206","114096","3987","115139","125455","126579","122222","37321","125455","NA","Sternberg task","9","14580","13","yes","1024"
"64.28571428571429","64.28571428571429","1114.0714285714287","1114.0714285714287","black","experiment","legacy","legacy","legacy","0","uniform","0","undefined","0","left","13","13","13","0","0","13","13","0","0","13","13","13","0","13","0","Sun Oct 18 10:40:27 2020","The main experiment item","yes","Sternberg task.osexp","/Users/alisonbeason/Desktop/PSYC 5316","no","mono","no","18","no","white","no","yes","768","legacy","1","11","/Users/alisonbeason/Desktop/PSYC 5316/AB-subject-1.csv","legacy","3 4 9 6 2 9","Lentiform Loewenfeld","3.3.3","5","y","0","right","left","right","right","NA","1017","33305","6005","1017","NA","2","legacy","6","1024","2","48000","-16","experiment","1","odd","2","129902","126595","127654","3969","121145","127669","114096","3987","115139","131917","132935","128684","37321","131916","NA","Sternberg task","9","15597","14","yes","1024"
"66.66666666666667","66.66666666666667","1123.3333333333333","1123.3333333333333","black","experiment","legacy","legacy","legacy","0","uniform","1","undefined","1","right","14","14","14","0","0","14","14","0","0","14","14","14","0","14","0","Sun Oct 18 10:40:27 2020","The main experiment item","yes","Sternberg task.osexp","/Users/alisonbeason/Desktop/PSYC 5316","no","mono","no","18","no","white","no","yes","768","legacy","2","11","/Users/alisonbeason/Desktop/PSYC 5316/AB-subject-1.csv","legacy","7 1 5 6 3","Lentiform Loewenfeld","3.3.3","0","n","0","right","left","right","right","NA","1253","33305","6005","1253","NA","2","legacy","5","1024","2","48000","-16","experiment","1","odd","8","136259","126595","134011","3969","121145","134025","132951","3987","115139","138274","139527","135040","37321","138273","NA","Sternberg task","10","16850","15","yes","1024"
"62.5","62.5","1121.125","1121.125","black","experiment","legacy","legacy","legacy","0","uniform","0","undefined","0","right","15","15","15","0","0","15","15","0","0","15","15","15","0","15","0","Sun Oct 18 10:40:27 2020","The main experiment item","yes","Sternberg task.osexp","/Users/alisonbeason/Desktop/PSYC 5316","no","mono","no","18","no","white","no","yes","768","legacy","3","11","/Users/alisonbeason/Desktop/PSYC 5316/AB-subject-1.csv","legacy","1 7 5 2 9","Lentiform Loewenfeld","3.3.3","0","n","0","left","left","right","left","NA","1088","33305","6005","1088","NA","2","legacy","5","1024","2","48000","-16","experiment","1","odd","3","142848","139543","140601","3969","121145","140616","132951","3987","115139","144863","145951","141631","37321","144863","NA","Sternberg task","10","17938","16","yes","1024"
"58.8235294117647","58.8235294117647","1111.7058823529412","1111.7058823529412","black","experiment","legacy","legacy","legacy","0","uniform","0","undefined","0","left","16","16","16","0","0","16","16","0","0","16","16","16","0","16","0","Sun Oct 18 10:40:27 2020","The main experiment item","yes","Sternberg task.osexp","/Users/alisonbeason/Desktop/PSYC 5316","no","mono","no","18","no","white","no","yes","768","legacy","4","11","/Users/alisonbeason/Desktop/PSYC 5316/AB-subject-1.csv","legacy","9 1 6 7 8","Lentiform Loewenfeld","3.3.3","1","y","0","right","left","right","right","NA","961","33305","6005","961","NA","2","legacy","5","1024","2","48000","-16","experiment","1","odd","9","149275","139543","147027","3969","121145","147041","145969","3987","115139","151290","152251","148057","37321","151289","NA","Sternberg task","10","18899","17","yes","1024"
"61.111111111111114","61.111111111111114","1102","1102","black","experiment","legacy","legacy","legacy","0","uniform","1","undefined","1","right","17","17","17","0","0","17","17","0","0","17","17","17","0","17","0","Sun Oct 18 10:40:27 2020","The main experiment item","yes","Sternberg task.osexp","/Users/alisonbeason/Desktop/PSYC 5316","no","mono","no","18","no","white","no","yes","768","legacy","5","11","/Users/alisonbeason/Desktop/PSYC 5316/AB-subject-1.csv","legacy","2 8 9","Lentiform Loewenfeld","3.3.3","0","n","0","right","left","right","right","NA","937","33305","6005","937","NA","2","legacy","3","1024","2","48000","-16","experiment","1","odd","6","155576","139543","153327","3969","121145","153342","152268","3987","115139","157591","158529","154358","37321","157591","NA","Sternberg task","11","19836","18","yes","1024"
"63.1578947368421","63.1578947368421","1094.578947368421","1094.578947368421","black","experiment","legacy","legacy","legacy","0","uniform","1","undefined","1","right","18","18","18","0","0","18","18","0","0","18","18","18","0","18","0","Sun Oct 18 10:40:27 2020","The main experiment item","yes","Sternberg task.osexp","/Users/alisonbeason/Desktop/PSYC 5316","no","mono","no","18","no","white","no","yes","768","legacy","6","11","/Users/alisonbeason/Desktop/PSYC 5316/AB-subject-1.csv","legacy","1 7 5 2","Lentiform Loewenfeld","3.3.3","0","n","0","right","left","right","right","NA","961","33305","6005","961","NA","2","legacy","4","1024","2","48000","-16","experiment","1","odd","3","161853","158546","159605","3969","121145","159619","152268","3987","115139","163868","164829","160635","37321","163868","NA","Sternberg task","12","20797","19","yes","1024"
"65","65","1088.65","1088.65","black","experiment","legacy","legacy","legacy","0","uniform","1","undefined","1","left","19","19","19","0","0","19","19","0","0","19","19","19","0","19","0","Sun Oct 18 10:40:27 2020","The main experiment item","yes","Sternberg task.osexp","/Users/alisonbeason/Desktop/PSYC 5316","no","mono","no","18","no","white","no","yes","768","legacy","7","11","/Users/alisonbeason/Desktop/PSYC 5316/AB-subject-1.csv","legacy","2 4 6 9","Lentiform Loewenfeld","3.3.3","3","y","0","left","left","right","left","NA","976","33305","6005","976","NA","2","legacy","4","1024","2","48000","-16","experiment","1","odd","6","168149","164846","165903","3969","121145","165917","152268","3987","115139","170164","171141","166932","37321","170164","NA","Sternberg task","13","21773","20","yes","1024"
"66.66666666666667","66.66666666666667","1086.904761904762","1086.904761904762","black","experiment","legacy","legacy","legacy","0","uniform","1","undefined","1","left","20","20","20","0","0","20","20","0","0","20","20","20","0","20","0","Sun Oct 18 10:40:27 2020","The main experiment item","yes","Sternberg task.osexp","/Users/alisonbeason/Desktop/PSYC 5316","no","mono","no","18","no","white","no","yes","768","legacy","8","11","/Users/alisonbeason/Desktop/PSYC 5316/AB-subject-1.csv","legacy","8","Lentiform Loewenfeld","3.3.3","1","y","0","left","left","right","left","NA","1052","33305","6005","1052","NA","2","legacy","1","1024","2","48000","-16","experiment","1","odd","8","174463","171157","172215","3969","121145","172229","152268","3987","115139","176478","177531","173245","37321","176478","NA","Sternberg task","14","22825","21","yes","1024"
"68.18181818181819","68.18181818181819","1070.4545454545455","1070.4545454545455","black","experiment","legacy","legacy","legacy","0","uniform","1","undefined","1","right","21","21","21","0","0","21","21","0","0","21","21","21","0","21","0","Sun Oct 18 10:40:27 2020","The main experiment item","yes","Sternberg task.osexp","/Users/alisonbeason/Desktop/PSYC 5316","no","mono","no","18","no","white","no","yes","768","legacy","9","11","/Users/alisonbeason/Desktop/PSYC 5316/AB-subject-1.csv","legacy","2 6 4 3 9","Lentiform Loewenfeld","3.3.3","0","n","0","right","left","right","right","NA","725","33305","6005","725","NA","2","legacy","5","1024","2","48000","-16","experiment","1","odd","1","180854","177547","178606","3969","121145","178620","152268","3987","115139","182869","183594","179636","37321","182869","NA","Sternberg task","15","23550","22","yes","1024"
"69.56521739130434","69.56521739130434","1053.6521739130435","1053.6521739130435","black","experiment","legacy","legacy","legacy","0","uniform","1","undefined","1","left","22","22","22","0","0","22","22","0","0","22","22","22","0","22","0","Sun Oct 18 10:40:27 2020","The main experiment item","yes","Sternberg task.osexp","/Users/alisonbeason/Desktop/PSYC 5316","no","mono","no","18","no","white","no","yes","768","legacy","10","11","/Users/alisonbeason/Desktop/PSYC 5316/AB-subject-1.csv","legacy","8 3","Lentiform Loewenfeld","3.3.3","2","y","0","left","left","right","left","NA","684","33305","6005","684","NA","2","legacy","2","1024","2","48000","-16","experiment","1","odd","3","186915","183611","184669","3969","121145","184683","152268","3987","115139","188929","189613","185697","37321","188929","NA","Sternberg task","16","24234","23","yes","1024"
"70.83333333333333","70.83333333333333","1056.4166666666667","1056.4166666666667","black","experiment","legacy","legacy","legacy","0","uniform","1","undefined","1","left","23","23","23","0","0","23","23","0","0","23","23","23","0","23","0","Sun Oct 18 10:40:27 2020","The main experiment item","yes","Sternberg task.osexp","/Users/alisonbeason/Desktop/PSYC 5316","no","mono","no","18","no","white","no","yes","768","legacy","11","11","/Users/alisonbeason/Desktop/PSYC 5316/AB-subject-1.csv","legacy","6 7 8 5","Lentiform Loewenfeld","3.3.3","3","y","0","left","left","right","left","NA","1120","33305","6005","1120","NA","2","legacy","4","1024","2","48000","-16","experiment","1","odd","8","192935","189630","190689","3969","121145","190703","152268","3987","115139","194950","196071","191717","37321","194950","NA","Sternberg task","17","25354","24","yes","1024"
"72","72","1054.52","1054.52","black","experiment","legacy","legacy","legacy","0","uniform","1","undefined","1","left","24","24","24","0","0","24","24","0","0","24","24","24","0","24","0","Sun Oct 18 10:40:27 2020","The main experiment item","yes","Sternberg task.osexp","/Users/alisonbeason/Desktop/PSYC 5316","no","mono","no","18","no","white","no","yes","768","legacy","12","11","/Users/alisonbeason/Desktop/PSYC 5316/AB-subject-1.csv","legacy","7 4 2 6 3 5","Lentiform Loewenfeld","3.3.3","6","y","0","left","left","right","left","NA","1009","33305","6005","1009","NA","2","legacy","6","1024","2","48000","-16","experiment","1","odd","5","199395","196087","197148","3969","121145","197162","152268","3987","115139","201410","202420","198177","37321","201409","NA","Sternberg task","18","26363","25","yes","1024"
"73.07692307692308","73.07692307692308","1044.3846153846155","1044.3846153846155","black","experiment","legacy","legacy","legacy","0","uniform","1","undefined","1","left","25","25","25","0","0","25","25","0","0","25","25","25","0","25","0","Sun Oct 18 10:40:27 2020","The main experiment item","yes","Sternberg task.osexp","/Users/alisonbeason/Desktop/PSYC 5316","no","mono","no","18","no","white","no","yes","768","legacy","13","11","/Users/alisonbeason/Desktop/PSYC 5316/AB-subject-1.csv","legacy","7","Lentiform Loewenfeld","3.3.3","1","y","0","left","left","right","left","NA","791","33305","6005","791","NA","2","legacy","1","1024","2","48000","-16","experiment","1","odd","7","205741","202436","203494","3969","121145","203508","152268","3987","115139","207756","208547","204523","37321","207756","NA","Sternberg task","19","27154","26","yes","1024"
"74.07407407407408","74.07407407407408","1049.037037037037","1049.037037037037","black","experiment","legacy","legacy","legacy","0","uniform","1","undefined","1","right","26","26","26","0","0","26","26","0","0","26","26","26","0","26","0","Sun Oct 18 10:40:27 2020","The main experiment item","yes","Sternberg task.osexp","/Users/alisonbeason/Desktop/PSYC 5316","no","mono","no","18","no","white","no","yes","768","legacy","14","11","/Users/alisonbeason/Desktop/PSYC 5316/AB-subject-1.csv","legacy","8 9","Lentiform Loewenfeld","3.3.3","0","n","0","right","left","right","right","NA","1170","33305","6005","1170","NA","2","legacy","2","1024","2","48000","-16","experiment","1","odd","5","211864","208563","209621","3969","121145","209636","152268","3987","115139","213879","215050","210651","37321","213879","NA","Sternberg task","20","28324","27","yes","1024"
"75","75","1043.7857142857142","1043.7857142857142","black","experiment","legacy","legacy","legacy","0","uniform","1","undefined","1","right","27","27","27","0","0","27","27","0","0","27","27","27","0","27","0","Sun Oct 18 10:40:27 2020","The main experiment item","yes","Sternberg task.osexp","/Users/alisonbeason/Desktop/PSYC 5316","no","mono","no","18","no","white","no","yes","768","legacy","15","11","/Users/alisonbeason/Desktop/PSYC 5316/AB-subject-1.csv","legacy","3 9 8 1 6 4","Lentiform Loewenfeld","3.3.3","0","n","0","right","left","right","right","NA","902","33305","6005","902","NA","2","legacy","6","1024","2","48000","-16","experiment","1","odd","7","218366","215066","216120","3969","121145","216133","152268","3987","115139","220380","221283","217148","37321","220380","NA","Sternberg task","21","29226","28","yes","1024"
"75.86206896551724","75.86206896551724","1049.103448275862","1049.103448275862","black","experiment","legacy","legacy","legacy","0","uniform","1","undefined","1","left","28","28","28","0","0","28","28","0","0","28","28","28","0","28","0","Sun Oct 18 10:40:27 2020","The main experiment item","yes","Sternberg task.osexp","/Users/alisonbeason/Desktop/PSYC 5316","no","mono","no","18","no","white","no","yes","768","legacy","16","11","/Users/alisonbeason/Desktop/PSYC 5316/AB-subject-1.csv","legacy","6 9 7 4 5 1","Lentiform Loewenfeld","3.3.3","2","y","0","left","left","right","left","NA","1198","33305","6005","1198","NA","2","legacy","6","1024","2","48000","-16","experiment","1","odd","9","224606","221298","222360","3969","121145","222374","152268","3987","115139","226620","227819","223389","37321","226620","NA","Sternberg task","22","30424","29","yes","1024"
"76.66666666666667","76.66666666666667","1044.7","1044.7","black","experiment","legacy","legacy","legacy","0","uniform","1","undefined","1","left","29","29","29","0","0","29","29","0","0","29","29","29","0","29","0","Sun Oct 18 10:40:27 2020","The main experiment item","yes","Sternberg task.osexp","/Users/alisonbeason/Desktop/PSYC 5316","no","mono","no","18","no","white","no","yes","768","legacy","17","11","/Users/alisonbeason/Desktop/PSYC 5316/AB-subject-1.csv","legacy","5 2 9 6 1 7","Lentiform Loewenfeld","3.3.3","3","y","0","left","left","right","left","NA","917","33305","6005","917","NA","2","legacy","6","1024","2","48000","-16","experiment","1","odd","9","231141","227835","228894","3969","121145","228908","152268","3987","115139","233156","234074","229923","37321","233155","NA","Sternberg task","23","31341","30","yes","1024"
"77.41935483870968","77.41935483870968","1036.2903225806451","1036.2903225806451","black","experiment","legacy","legacy","legacy","0","uniform","1","undefined","1","right","30","30","30","0","0","30","30","0","0","30","30","30","0","30","0","Sun Oct 18 10:40:27 2020","The main experiment item","yes","Sternberg task.osexp","/Users/alisonbeason/Desktop/PSYC 5316","no","mono","no","18","no","white","no","yes","768","legacy","18","11","/Users/alisonbeason/Desktop/PSYC 5316/AB-subject-1.csv","legacy","1 8 7","Lentiform Loewenfeld","3.3.3","0","n","0","right","left","right","right","NA","784","33305","6005","784","NA","2","legacy","3","1024","2","48000","-16","experiment","1","odd","4","237395","234090","235148","3969","121145","235162","152268","3987","115139","239409","240194","236177","37321","239409","NA","Sternberg task","24","32125","31","yes","1024"
"78.125","78.125","1031.9375","1031.9375","black","experiment","legacy","legacy","legacy","0","uniform","1","undefined","1","right","31","31","31","0","0","31","31","0","0","31","31","31","0","31","0","Sun Oct 18 10:40:27 2020","The main experiment item","yes","Sternberg task.osexp","/Users/alisonbeason/Desktop/PSYC 5316","no","mono","no","18","no","white","no","yes","768","legacy","19","11","/Users/alisonbeason/Desktop/PSYC 5316/AB-subject-1.csv","legacy","4 2 6 9","Lentiform Loewenfeld","3.3.3","0","n","0","right","left","right","right","NA","897","33305","6005","897","NA","2","legacy","4","1024","2","48000","-16","experiment","1","odd","7","243515","240210","241268","3969","121145","241282","152268","3987","115139","245529","246426","242298","37321","245529","NA","Sternberg task","25","33022","32","yes","1024"
"78.78787878787878","78.78787878787878","1024.6666666666667","1024.6666666666667","black","experiment","legacy","legacy","legacy","0","uniform","1","undefined","1","right","32","32","32","0","0","32","32","0","0","32","32","32","0","32","0","Sun Oct 18 10:40:27 2020","The main experiment item","yes","Sternberg task.osexp","/Users/alisonbeason/Desktop/PSYC 5316","no","mono","no","18","no","white","no","yes","768","legacy","20","11","/Users/alisonbeason/Desktop/PSYC 5316/AB-subject-1.csv","legacy","5 7 3","Lentiform Loewenfeld","3.3.3","0","n","0","right","left","right","right","NA","792","33305","6005","792","NA","2","legacy","3","1024","2","48000","-16","experiment","1","odd","9","249740","246442","247498","3969","121145","247511","152268","3987","115139","251754","252547","248526","37321","251754","NA","Sternberg task","26","33814","33","yes","1024"
"79.41176470588235","79.41176470588235","1027.2058823529412","1027.2058823529412","black","experiment","legacy","legacy","legacy","0","uniform","1","undefined","1","right","33","33","33","0","0","33","33","0","0","33","33","33","0","33","0","Sun Oct 18 10:40:27 2020","The main experiment item","yes","Sternberg task.osexp","/Users/alisonbeason/Desktop/PSYC 5316","no","mono","no","18","no","white","no","yes","768","legacy","21","11","/Users/alisonbeason/Desktop/PSYC 5316/AB-subject-1.csv","legacy","7 4 2 8 1 9","Lentiform Loewenfeld","3.3.3","0","n","0","right","left","right","right","NA","1111","33305","6005","1111","NA","2","legacy","6","1024","2","48000","-16","experiment","1","odd","5","255868","252563","253622","3969","121145","253635","152268","3987","115139","257882","258994","254650","37321","257882","NA","Sternberg task","27","34925","34","yes","1024"
"80","80","1036.6571428571428","1036.6571428571428","black","experiment","legacy","legacy","legacy","0","uniform","1","undefined","1","left","34","34","34","0","0","34","34","0","0","34","34","34","0","34","0","Sun Oct 18 10:40:27 2020","The main experiment item","yes","Sternberg task.osexp","/Users/alisonbeason/Desktop/PSYC 5316","no","mono","no","18","no","white","no","yes","768","legacy","22","11","/Users/alisonbeason/Desktop/PSYC 5316/AB-subject-1.csv","legacy","9 5 3 8 4","Lentiform Loewenfeld","3.3.3","1","y","0","left","left","right","left","NA","1358","33305","6005","1358","NA","2","legacy","5","1024","2","48000","-16","experiment","1","odd","9","262314","259009","260068","3969","121145","260082","152268","3987","115139","264328","265687","261097","37321","264328","NA","Sternberg task","28","36283","35","yes","1024"
"77.77777777777777","77.77777777777777","1044.3055555555557","1044.3055555555557","black","experiment","legacy","legacy","legacy","0","uniform","0","undefined","0","left","35","35","35","0","0","35","35","0","0","35","35","35","0","35","0","Sun Oct 18 10:40:27 2020","The main experiment item","yes","Sternberg task.osexp","/Users/alisonbeason/Desktop/PSYC 5316","no","mono","no","18","no","white","no","yes","768","legacy","23","11","/Users/alisonbeason/Desktop/PSYC 5316/AB-subject-1.csv","legacy","8 5 4 7 3 1","Lentiform Loewenfeld","3.3.3","2","y","0","right","left","right","right","NA","1312","33305","6005","1312","NA","2","legacy","6","1024","2","48000","-16","experiment","1","odd","5","269026","265703","266776","3969","121145","266793","152268","3987","115139","271041","272354","267808","37321","271041","NA","Sternberg task","28","37595","36","yes","1024"
"78.37837837837837","78.37837837837837","1035.2972972972973","1035.2972972972973","black","experiment","legacy","legacy","legacy","0","uniform","1","undefined","1","left","36","36","36","0","0","36","36","0","0","36","36","36","0","36","0","Sun Oct 18 10:40:27 2020","The main experiment item","yes","Sternberg task.osexp","/Users/alisonbeason/Desktop/PSYC 5316","no","mono","no","18","no","white","no","yes","768","legacy","24","11","/Users/alisonbeason/Desktop/PSYC 5316/AB-subject-1.csv","legacy","4","Lentiform Loewenfeld","3.3.3","1","y","0","left","left","right","left","NA","711","33305","6005","711","NA","2","legacy","1","1024","2","48000","-16","experiment","1","odd","4","275685","265703","273436","3969","121145","273452","272376","3987","115139","277699","278411","274468","37321","277699","NA","Sternberg task","29","38306","37","yes","1024"
"78.94736842105263","78.94736842105263","1030.7368421052631","1030.7368421052631","black","experiment","legacy","legacy","legacy","0","uniform","1","undefined","1","left","37","37","37","0","0","37","37","0","0","37","37","37","0","37","0","Sun Oct 18 10:40:27 2020","The main experiment item","yes","Sternberg task.osexp","/Users/alisonbeason/Desktop/PSYC 5316","no","mono","no","18","no","white","no","yes","768","legacy","25","11","/Users/alisonbeason/Desktop/PSYC 5316/AB-subject-1.csv","legacy","3 5 7 1","Lentiform Loewenfeld","3.3.3","3","y","0","left","left","right","left","NA","862","33305","6005","862","NA","2","legacy","4","1024","2","48000","-16","experiment","1","odd","7","281733","278426","279487","3969","121145","279500","272376","3987","115139","283747","284610","280516","37321","283747","NA","Sternberg task","30","39168","38","yes","1024"
"79.48717948717949","79.48717948717949","1020.0769230769231","1020.0769230769231","black","experiment","legacy","legacy","legacy","0","uniform","1","undefined","1","right","38","38","38","0","0","38","38","0","0","38","38","38","0","38","0","Sun Oct 18 10:40:27 2020","The main experiment item","yes","Sternberg task.osexp","/Users/alisonbeason/Desktop/PSYC 5316","no","mono","no","18","no","white","no","yes","768","legacy","26","11","/Users/alisonbeason/Desktop/PSYC 5316/AB-subject-1.csv","legacy","3 9 1","Lentiform Loewenfeld","3.3.3","0","n","0","right","left","right","right","NA","615","33305","6005","615","NA","2","legacy","3","1024","2","48000","-16","experiment","1","odd","7","287931","284625","285684","3969","121145","285698","272376","3987","115139","289945","290561","286713","37321","289945","NA","Sternberg task","31","39783","39","yes","1024"
"77.5","77.5","1044.575","1044.575","black","experiment","legacy","legacy","legacy","0","uniform","0","undefined","0","left","39","39","39","0","0","39","39","0","0","39","39","39","0","39","0","Sun Oct 18 10:40:27 2020","The main experiment item","yes","Sternberg task.osexp","/Users/alisonbeason/Desktop/PSYC 5316","no","mono","no","18","no","white","no","yes","768","legacy","27","11","/Users/alisonbeason/Desktop/PSYC 5316/AB-subject-1.csv","legacy","7 2 3","Lentiform Loewenfeld","3.3.3","3","y","0","None","left","right","None","NA","2000","33305","6005","2000","NA","2","legacy","3","1024","2","48000","-16","experiment","1","odd","3","293881","290575","291634","3969","121145","291648","272376","3987","115139","295895","297895","292663","37321","295895","NA","Sternberg task","31","41783","40","yes","1024"
"78.04878048780488","78.04878048780488","1036","1036","black","experiment","legacy","legacy","legacy","0","uniform","1","undefined","1","right","40","40","40","0","0","40","40","0","0","40","40","40","0","40","0","Sun Oct 18 10:40:27 2020","The main experiment item","yes","Sternberg task.osexp","/Users/alisonbeason/Desktop/PSYC 5316","no","mono","no","18","no","white","no","yes","768","legacy","28","11","/Users/alisonbeason/Desktop/PSYC 5316/AB-subject-1.csv","legacy","9 5 3 2 8 6","Lentiform Loewenfeld","3.3.3","0","n","0","right","left","right","right","NA","693","33305","6005","693","NA","2","legacy","6","1024","2","48000","-16","experiment","1","odd","7","301217","290575","298971","3969","121145","298985","297911","3987","115139","303232","303926","300000","37321","303232","NA","Sternberg task","32","42476","41","yes","1024"
"78.57142857142857","78.57142857142857","1024.142857142857","1024.142857142857","black","experiment","legacy","legacy","legacy","0","uniform","1","undefined","1","right","41","41","41","0","0","41","41","0","0","41","41","41","0","41","0","Sun Oct 18 10:40:27 2020","The main experiment item","yes","Sternberg task.osexp","/Users/alisonbeason/Desktop/PSYC 5316","no","mono","no","18","no","white","no","yes","768","legacy","29","11","/Users/alisonbeason/Desktop/PSYC 5316/AB-subject-1.csv","legacy","5 2","Lentiform Loewenfeld","3.3.3","0","n","0","right","left","right","right","NA","538","33305","6005","538","NA","2","legacy","2","1024","2","48000","-16","experiment","1","odd","7","307247","303942","305002","3969","121145","305015","297911","3987","115139","309260","309799","306029","37321","309260","NA","Sternberg task","33","43014","42","yes","1024"
"79.06976744186046","79.06976744186046","1020.1627906976744","1020.1627906976744","black","experiment","legacy","legacy","legacy","0","uniform","1","undefined","1","left","42","42","42","0","0","42","42","0","0","42","42","42","0","42","0","Sun Oct 18 10:40:27 2020","The main experiment item","yes","Sternberg task.osexp","/Users/alisonbeason/Desktop/PSYC 5316","no","mono","no","18","no","white","no","yes","768","legacy","30","11","/Users/alisonbeason/Desktop/PSYC 5316/AB-subject-1.csv","legacy","9 5 8 1","Lentiform Loewenfeld","3.3.3","2","y","0","left","left","right","left","NA","853","33305","6005","853","NA","2","legacy","4","1024","2","48000","-16","experiment","1","odd","5","313120","309814","310875","3969","121145","310888","297911","3987","115139","315134","315987","311903","37321","315134","NA","Sternberg task","34","43867","43","yes","1024"
"79.54545454545455","79.54545454545455","1016.2045454545455","1016.2045454545455","black","experiment","legacy","legacy","legacy","0","uniform","1","undefined","1","left","43","43","43","0","0","43","43","0","0","43","43","43","0","43","0","Sun Oct 18 10:40:27 2020","The main experiment item","yes","Sternberg task.osexp","/Users/alisonbeason/Desktop/PSYC 5316","no","mono","no","18","no","white","no","yes","768","legacy","31","11","/Users/alisonbeason/Desktop/PSYC 5316/AB-subject-1.csv","legacy","5 7 8 2 3 8","Lentiform Loewenfeld","3.3.3","5","y","0","left","left","right","left","NA","846","33305","6005","846","NA","2","legacy","6","1024","2","48000","-16","experiment","1","odd","3","319302","316002","317056","3969","121145","317069","297911","3987","115139","321316","322163","318084","37321","321316","NA","Sternberg task","35","44713","44","yes","1024"
"80","80","1009.0666666666667","1009.0666666666667","black","experiment","legacy","legacy","legacy","0","uniform","1","undefined","1","right","44","44","44","0","0","44","44","0","0","44","44","44","0","44","0","Sun Oct 18 10:40:27 2020","The main experiment item","yes","Sternberg task.osexp","/Users/alisonbeason/Desktop/PSYC 5316","no","mono","no","18","no","white","no","yes","768","legacy","32","11","/Users/alisonbeason/Desktop/PSYC 5316/AB-subject-1.csv","legacy","4 8 1 2","Lentiform Loewenfeld","3.3.3","0","n","0","right","left","right","right","NA","695","33305","6005","695","NA","2","legacy","4","1024","2","48000","-16","experiment","1","odd","7","325483","322179","323237","3969","121145","323251","297911","3987","115139","327497","328192","324266","37321","327497","NA","Sternberg task","36","45408","45","yes","1024"
"80.43478260869566","80.43478260869566","1010.0652173913044","1010.0652173913044","black","experiment","legacy","legacy","legacy","0","uniform","1","undefined","1","right","45","45","45","0","0","45","45","0","0","45","45","45","0","45","0","Sun Oct 18 10:40:27 2020","The main experiment item","yes","Sternberg task.osexp","/Users/alisonbeason/Desktop/PSYC 5316","no","mono","no","18","no","white","no","yes","768","legacy","33","11","/Users/alisonbeason/Desktop/PSYC 5316/AB-subject-1.csv","legacy","8 2 1 4 5 9","Lentiform Loewenfeld","3.3.3","0","n","0","right","left","right","right","NA","1055","33305","6005","1055","NA","2","legacy","6","1024","2","48000","-16","experiment","1","odd","7","331513","328208","329267","3969","121145","329281","297911","3987","115139","333527","334583","330295","37321","333527","NA","Sternberg task","37","46463","46","yes","1024"
"80.85106382978724","80.85106382978724","1001.1914893617021","1001.1914893617021","black","experiment","legacy","legacy","legacy","0","uniform","1","undefined","1","left","46","46","46","0","0","46","46","0","0","46","46","46","0","46","0","Sun Oct 18 10:40:27 2020","The main experiment item","yes","Sternberg task.osexp","/Users/alisonbeason/Desktop/PSYC 5316","no","mono","no","18","no","white","no","yes","768","legacy","34","11","/Users/alisonbeason/Desktop/PSYC 5316/AB-subject-1.csv","legacy","4 6 5 8","Lentiform Loewenfeld","3.3.3","1","y","0","left","left","right","left","NA","593","33305","6005","593","NA","2","legacy","4","1024","2","48000","-16","experiment","1","odd","4","337904","334598","335658","3969","121145","335671","297911","3987","115139","339918","340512","336686","37321","339918","NA","Sternberg task","38","47056","47","yes","1024"
"81.25","81.25","998.9583333333334","998.9583333333334","black","experiment","legacy","legacy","legacy","0","uniform","1","undefined","1","left","47","47","47","0","0","47","47","0","0","47","47","47","0","47","0","Sun Oct 18 10:40:27 2020","The main experiment item","yes","Sternberg task.osexp","/Users/alisonbeason/Desktop/PSYC 5316","no","mono","no","18","no","white","no","yes","768","legacy","35","11","/Users/alisonbeason/Desktop/PSYC 5316/AB-subject-1.csv","legacy","9 6 2 4 1","Lentiform Loewenfeld","3.3.3","4","y","0","left","left","right","left","NA","894","33305","6005","894","NA","2","legacy","5","1024","2","48000","-16","experiment","1","odd","4","343835","340528","341588","3969","121145","341602","297911","3987","115139","345849","346744","342617","37321","345849","NA","Sternberg task","39","47950","48","yes","1024"
"81.63265306122449","81.63265306122449","992.7755102040817","992.7755102040817","black","experiment","legacy","legacy","legacy","0","uniform","1","undefined","1","left","48","48","48","0","0","48","48","0","0","48","48","48","0","48","0","Sun Oct 18 10:40:27 2020","The main experiment item","yes","Sternberg task.osexp","/Users/alisonbeason/Desktop/PSYC 5316","no","mono","no","18","no","white","no","yes","768","legacy","36","11","/Users/alisonbeason/Desktop/PSYC 5316/AB-subject-1.csv","legacy","6 9 3 1","Lentiform Loewenfeld","3.3.3","4","y","0","left","left","right","left","NA","696","33305","6005","696","NA","2","legacy","4","1024","2","48000","-16","experiment","1","odd","1","350063","346759","347818","3969","121145","347831","297911","3987","115139","352078","352774","348846","37321","352078","NA","Sternberg task","40","48646","49","yes","1024"
"82","82","990.6","990.6","black","experiment","legacy","legacy","legacy","0","uniform","1","undefined","1","left","49","49","49","0","0","49","49","0","0","49","49","49","0","49","0","Sun Oct 18 10:40:27 2020","The main experiment item","yes","Sternberg task.osexp","/Users/alisonbeason/Desktop/PSYC 5316","no","mono","no","18","no","white","no","yes","768","legacy","37","11","/Users/alisonbeason/Desktop/PSYC 5316/AB-subject-1.csv","legacy","8 1 6","Lentiform Loewenfeld","3.3.3","3","y","0","left","left","right","left","NA","884","33305","6005","884","NA","2","legacy","3","1024","2","48000","-16","experiment","1","odd","6","356098","352792","353851","3969","121145","353865","297911","3987","115139","358112","358997","354880","37321","358112","NA","Sternberg task","41","49530","50","yes","1024"
"82.3529411764706","82.3529411764706","990.9607843137255","990.9607843137255","black","experiment","legacy","legacy","legacy","0","uniform","1","undefined","1","right","50","50","50","0","0","50","50","0","0","50","50","50","0","50","0","Sun Oct 18 10:40:27 2020","The main experiment item","yes","Sternberg task.osexp","/Users/alisonbeason/Desktop/PSYC 5316","no","mono","no","18","no","white","no","yes","768","legacy","38","11","/Users/alisonbeason/Desktop/PSYC 5316/AB-subject-1.csv","legacy","6 3 1 7 9 8","Lentiform Loewenfeld","3.3.3","0","n","0","right","left","right","right","NA","1009","33305","6005","1009","NA","2","legacy","6","1024","2","48000","-16","experiment","1","odd","4","362316","359011","360070","3969","121145","360084","297911","3987","115139","364331","365341","361099","37321","364331","NA","Sternberg task","42","50539","51","yes","1024"
"82.6923076923077","82.6923076923077","990.8653846153846","990.8653846153846","black","experiment","legacy","legacy","legacy","0","uniform","1","undefined","1","right","51","51","51","0","0","51","51","0","0","51","51","51","0","51","0","Sun Oct 18 10:40:27 2020","The main experiment item","yes","Sternberg task.osexp","/Users/alisonbeason/Desktop/PSYC 5316","no","mono","no","18","no","white","no","yes","768","legacy","39","11","/Users/alisonbeason/Desktop/PSYC 5316/AB-subject-1.csv","legacy","6 2 9 3 8 4","Lentiform Loewenfeld","3.3.3","0","n","0","right","left","right","right","NA","986","33305","6005","986","NA","2","legacy","6","1024","2","48000","-16","experiment","1","odd","1","368663","365357","366416","3969","121145","366430","297911","3987","115139","370677","371663","367445","37321","370677","NA","Sternberg task","43","51525","52","yes","1024"
"83.01886792452831","83.01886792452831","986.5094339622641","986.5094339622641","black","experiment","legacy","legacy","legacy","0","uniform","1","undefined","1","left","52","52","52","0","0","52","52","0","0","52","52","52","0","52","0","Sun Oct 18 10:40:27 2020","The main experiment item","yes","Sternberg task.osexp","/Users/alisonbeason/Desktop/PSYC 5316","no","mono","no","18","no","white","no","yes","768","legacy","40","11","/Users/alisonbeason/Desktop/PSYC 5316/AB-subject-1.csv","legacy","4 3 2 5 8","Lentiform Loewenfeld","3.3.3","2","y","0","left","left","right","left","NA","760","33305","6005","760","NA","2","legacy","5","1024","2","48000","-16","experiment","1","odd","3","374987","371679","372739","3969","121145","372753","297911","3987","115139","377000","377761","373768","37321","377000","NA","Sternberg task","44","52285","53","yes","1024"
"83.33333333333333","83.33333333333333","985.4444444444445","985.4444444444445","black","experiment","legacy","legacy","legacy","0","uniform","1","undefined","1","left","53","53","53","0","0","53","53","0","0","53","53","53","0","53","0","Sun Oct 18 10:40:27 2020","The main experiment item","yes","Sternberg task.osexp","/Users/alisonbeason/Desktop/PSYC 5316","no","mono","no","18","no","white","no","yes","768","legacy","41","11","/Users/alisonbeason/Desktop/PSYC 5316/AB-subject-1.csv","legacy","3 2 1 4 7","Lentiform Loewenfeld","3.3.3","2","y","0","left","left","right","left","NA","929","33305","6005","929","NA","2","legacy","5","1024","2","48000","-16","experiment","1","odd","2","381084","377777","378837","3969","121145","378851","297911","3987","115139","383098","384027","379866","37321","383098","NA","Sternberg task","45","53214","54","yes","1024"
"83.63636363636364","83.63636363636364","981.9818181818182","981.9818181818182","black","experiment","legacy","legacy","legacy","0","uniform","1","undefined","1","right","54","54","54","0","0","54","54","0","0","54","54","54","0","54","0","Sun Oct 18 10:40:27 2020","The main experiment item","yes","Sternberg task.osexp","/Users/alisonbeason/Desktop/PSYC 5316","no","mono","no","18","no","white","no","yes","768","legacy","42","11","/Users/alisonbeason/Desktop/PSYC 5316/AB-subject-1.csv","legacy","1 6 4","Lentiform Loewenfeld","3.3.3","0","n","0","right","left","right","right","NA","795","33305","6005","795","NA","2","legacy","3","1024","2","48000","-16","experiment","1","odd","7","387349","384043","385102","3969","121145","385116","297911","3987","115139","389363","390159","386131","37321","389363","NA","Sternberg task","46","54009","55","yes","1024"
"83.92857142857143","83.92857142857143","981.6607142857143","981.6607142857143","black","experiment","legacy","legacy","legacy","0","uniform","1","undefined","1","left","55","55","55","0","0","55","55","0","0","55","55","55","0","55","0","Sun Oct 18 10:40:27 2020","The main experiment item","yes","Sternberg task.osexp","/Users/alisonbeason/Desktop/PSYC 5316","no","mono","no","18","no","white","no","yes","768","legacy","43","11","/Users/alisonbeason/Desktop/PSYC 5316/AB-subject-1.csv","legacy","2 4 8 5 1 3","Lentiform Loewenfeld","3.3.3","1","y","0","left","left","right","left","NA","964","33305","6005","964","NA","2","legacy","6","1024","2","48000","-16","experiment","1","odd","2","393480","390174","391234","3969","121145","391247","297911","3987","115139","395494","396459","392263","37321","395494","NA","Sternberg task","47","54973","56","yes","1024"
"84.21052631578948","84.21052631578948","978.5438596491229","978.5438596491229","black","experiment","legacy","legacy","legacy","0","uniform","1","undefined","1","right","56","56","56","0","0","56","56","0","0","56","56","56","0","56","0","Sun Oct 18 10:40:27 2020","The main experiment item","yes","Sternberg task.osexp","/Users/alisonbeason/Desktop/PSYC 5316","no","mono","no","18","no","white","no","yes","768","legacy","44","11","/Users/alisonbeason/Desktop/PSYC 5316/AB-subject-1.csv","legacy","2 7 5","Lentiform Loewenfeld","3.3.3","0","n","0","right","left","right","right","NA","804","33305","6005","804","NA","2","legacy","3","1024","2","48000","-16","experiment","1","odd","8","399782","396475","397533","3969","121145","397549","297911","3987","115139","401796","402601","398564","37321","401796","NA","Sternberg task","48","55777","57","yes","1024"
"84.48275862068965","84.48275862068965","976.7068965517242","976.7068965517242","black","experiment","legacy","legacy","legacy","0","uniform","1","undefined","1","left","57","57","57","0","0","57","57","0","0","57","57","57","0","57","0","Sun Oct 18 10:40:27 2020","The main experiment item","yes","Sternberg task.osexp","/Users/alisonbeason/Desktop/PSYC 5316","no","mono","no","18","no","white","no","yes","768","legacy","45","11","/Users/alisonbeason/Desktop/PSYC 5316/AB-subject-1.csv","legacy","3 9 6 2","Lentiform Loewenfeld","3.3.3","4","y","0","left","left","right","left","NA","872","33305","6005","872","NA","2","legacy","4","1024","2","48000","-16","experiment","1","odd","2","405925","402617","403678","3969","121145","403692","297911","3987","115139","407939","408811","404707","37321","407939","NA","Sternberg task","49","56649","58","yes","1024"
"84.7457627118644","84.7457627118644","977.457627118644","977.457627118644","black","experiment","legacy","legacy","legacy","0","uniform","1","undefined","1","right","58","58","58","0","0","58","58","0","0","58","58","58","0","58","0","Sun Oct 18 10:40:27 2020","The main experiment item","yes","Sternberg task.osexp","/Users/alisonbeason/Desktop/PSYC 5316","no","mono","no","18","no","white","no","yes","768","legacy","46","11","/Users/alisonbeason/Desktop/PSYC 5316/AB-subject-1.csv","legacy","2 8 7 9 5 3","Lentiform Loewenfeld","3.3.3","0","n","0","right","left","right","right","NA","1021","33305","6005","1021","NA","2","legacy","6","1024","2","48000","-16","experiment","1","odd","6","412132","408827","409886","3969","121145","409899","297911","3987","115139","414146","415168","410914","37321","414146","NA","Sternberg task","50","57670","59","yes","1024"
"85","85","974.25","974.25","black","experiment","legacy","legacy","legacy","0","uniform","1","undefined","1","left","59","59","59","0","0","59","59","0","0","59","59","59","0","59","0","Sun Oct 18 10:40:27 2020","The main experiment item","yes","Sternberg task.osexp","/Users/alisonbeason/Desktop/PSYC 5316","no","mono","no","18","no","white","no","yes","768","legacy","47","11","/Users/alisonbeason/Desktop/PSYC 5316/AB-subject-1.csv","legacy","5 7 3 6 2","Lentiform Loewenfeld","3.3.3","5","y","0","left","left","right","left","NA","785","33305","6005","785","NA","2","legacy","5","1024","2","48000","-16","experiment","1","odd","2","418488","415184","416243","3969","121145","416256","297911","3987","115139","420502","421288","417271","37321","420502","NA","Sternberg task","51","58455","60","yes","1024"
"85.24590163934427","85.24590163934427","971.8524590163935","971.8524590163935","black","experiment","legacy","legacy","legacy","0","uniform","1","undefined","1","right","60","60","60","0","0","60","60","0","0","60","60","60","0","60","0","Sun Oct 18 10:40:27 2020","The main experiment item","yes","Sternberg task.osexp","/Users/alisonbeason/Desktop/PSYC 5316","no","mono","no","18","no","white","no","yes","768","legacy","48","11","/Users/alisonbeason/Desktop/PSYC 5316/AB-subject-1.csv","legacy","1 7 8 3 9","Lentiform Loewenfeld","3.3.3","0","n","0","right","left","right","right","NA","828","33305","6005","828","NA","2","legacy","5","1024","2","48000","-16","experiment","1","odd","2","424610","421303","422364","3969","121145","422377","297911","3987","115139","426624","427453","423392","37321","426624","NA","Sternberg task","52","59283","61","yes","1024"
"85.48387096774194","85.48387096774194","968.6612903225806","968.6612903225806","black","experiment","legacy","legacy","legacy","0","uniform","1","undefined","1","right","61","61","61","0","0","61","61","0","0","61","61","61","0","61","0","Sun Oct 18 10:40:27 2020","The main experiment item","yes","Sternberg task.osexp","/Users/alisonbeason/Desktop/PSYC 5316","no","mono","no","18","no","white","no","yes","768","legacy","49","11","/Users/alisonbeason/Desktop/PSYC 5316/AB-subject-1.csv","legacy","2 3 8 5 6 7","Lentiform Loewenfeld","3.3.3","0","n","0","right","left","right","right","NA","774","33305","6005","774","NA","2","legacy","6","1024","2","48000","-16","experiment","1","odd","1","430773","427468","428527","3969","121145","428541","297911","3987","115139","432787","433562","429556","37321","432787","NA","Sternberg task","53","60057","62","yes","1024"
"85.71428571428571","85.71428571428571","968.2857142857143","968.2857142857143","black","experiment","legacy","legacy","legacy","0","uniform","1","undefined","1","right","62","62","62","0","0","62","62","0","0","62","62","62","0","62","0","Sun Oct 18 10:40:27 2020","The main experiment item","yes","Sternberg task.osexp","/Users/alisonbeason/Desktop/PSYC 5316","no","mono","no","18","no","white","no","yes","768","legacy","50","11","/Users/alisonbeason/Desktop/PSYC 5316/AB-subject-1.csv","legacy","5","Lentiform Loewenfeld","3.3.3","0","n","0","right","left","right","right","NA","945","33305","6005","945","NA","2","legacy","1","1024","2","48000","-16","experiment","1","odd","8","436879","433577","434634","3969","121145","434647","297911","3987","115139","438893","439839","435662","37321","438893","NA","Sternberg task","54","61002","63","yes","1024"
"85.9375","85.9375","964.671875","964.671875","black","experiment","legacy","legacy","legacy","0","uniform","1","undefined","1","right","63","63","63","0","0","63","63","0","0","63","63","63","0","63","0","Sun Oct 18 10:40:27 2020","The main experiment item","yes","Sternberg task.osexp","/Users/alisonbeason/Desktop/PSYC 5316","no","mono","no","18","no","white","no","yes","768","legacy","51","11","/Users/alisonbeason/Desktop/PSYC 5316/AB-subject-1.csv","legacy","1","Lentiform Loewenfeld","3.3.3","0","n","0","right","left","right","right","NA","737","33305","6005","737","NA","2","legacy","1","1024","2","48000","-16","experiment","1","odd","7","443163","439855","440916","3969","121145","440929","297911","3987","115139","445177","445915","441945","37321","445177","NA","Sternberg task","55","61739","64","yes","1024"
"86.15384615384616","86.15384615384616","969.3230769230769","969.3230769230769","black","experiment","legacy","legacy","legacy","0","uniform","1","undefined","1","right","64","64","64","0","0","64","64","0","0","64","64","64","0","64","0","Sun Oct 18 10:40:27 2020","The main experiment item","yes","Sternberg task.osexp","/Users/alisonbeason/Desktop/PSYC 5316","no","mono","no","18","no","white","no","yes","768","legacy","52","11","/Users/alisonbeason/Desktop/PSYC 5316/AB-subject-1.csv","legacy","7 9 1 6","Lentiform Loewenfeld","3.3.3","0","n","0","right","left","right","right","NA","1267","33305","6005","1267","NA","2","legacy","4","1024","2","48000","-16","experiment","1","odd","4","449236","445930","446991","3969","121145","447003","297911","3987","115139","451250","452518","448019","37321","451250","NA","Sternberg task","56","63006","65","yes","1024"
"86.36363636363636","86.36363636363636","974.8787878787879","974.8787878787879","black","experiment","legacy","legacy","legacy","0","uniform","1","undefined","1","left","65","65","65","0","0","65","65","0","0","65","65","65","0","65","0","Sun Oct 18 10:40:27 2020","The main experiment item","yes","Sternberg task.osexp","/Users/alisonbeason/Desktop/PSYC 5316","no","mono","no","18","no","white","no","yes","768","legacy","53","11","/Users/alisonbeason/Desktop/PSYC 5316/AB-subject-1.csv","legacy","3 5 9 6 2 4","Lentiform Loewenfeld","3.3.3","1","y","0","left","left","right","left","NA","1336","33305","6005","1336","NA","2","legacy","6","1024","2","48000","-16","experiment","1","odd","3","455839","452534","453594","3969","121145","453607","297911","3987","115139","457853","459190","454622","37321","457853","NA","Sternberg task","57","64342","66","yes","1024"
"86.56716417910448","86.56716417910448","978.2388059701492","978.2388059701492","black","experiment","legacy","legacy","legacy","0","uniform","1","undefined","1","right","66","66","66","0","0","66","66","0","0","66","66","66","0","66","0","Sun Oct 18 10:40:27 2020","The main experiment item","yes","Sternberg task.osexp","/Users/alisonbeason/Desktop/PSYC 5316","no","mono","no","18","no","white","no","yes","768","legacy","54","11","/Users/alisonbeason/Desktop/PSYC 5316/AB-subject-1.csv","legacy","7 6 4 8 1 2","Lentiform Loewenfeld","3.3.3","0","n","0","right","left","right","right","NA","1200","33305","6005","1200","NA","2","legacy","6","1024","2","48000","-16","experiment","1","odd","9","462511","459206","460265","3969","121145","460279","297911","3987","115139","464525","465726","461294","37321","464525","NA","Sternberg task","58","65542","67","yes","1024"
"86.76470588235294","86.76470588235294","979.3676470588235","979.3676470588235","black","experiment","legacy","legacy","legacy","0","uniform","1","undefined","1","right","67","67","67","0","0","67","67","0","0","67","67","67","0","67","0","Sun Oct 18 10:40:27 2020","The main experiment item","yes","Sternberg task.osexp","/Users/alisonbeason/Desktop/PSYC 5316","no","mono","no","18","no","white","no","yes","768","legacy","55","11","/Users/alisonbeason/Desktop/PSYC 5316/AB-subject-1.csv","legacy","2 8 6 3 1","Lentiform Loewenfeld","3.3.3","0","n","0","right","left","right","right","NA","1055","33305","6005","1055","NA","2","legacy","5","1024","2","48000","-16","experiment","1","odd","7","469046","465742","466800","3969","121145","466813","297911","3987","115139","471060","472116","467829","37321","471060","NA","Sternberg task","59","66597","68","yes","1024"
"86.95652173913044","86.95652173913044","977.3333333333334","977.3333333333334","black","experiment","legacy","legacy","legacy","0","uniform","1","undefined","1","left","68","68","68","0","0","68","68","0","0","68","68","68","0","68","0","Sun Oct 18 10:40:27 2020","The main experiment item","yes","Sternberg task.osexp","/Users/alisonbeason/Desktop/PSYC 5316","no","mono","no","18","no","white","no","yes","768","legacy","56","11","/Users/alisonbeason/Desktop/PSYC 5316/AB-subject-1.csv","legacy","9 8 4","Lentiform Loewenfeld","3.3.3","1","y","0","left","left","right","left","NA","839","33305","6005","839","NA","2","legacy","3","1024","2","48000","-16","experiment","1","odd","9","475438","472132","473191","3969","121145","473205","297911","3987","115139","477452","478292","474220","37321","477452","NA","Sternberg task","60","67436","69","yes","1024"
"87.14285714285714","87.14285714285714","976.8285714285714","976.8285714285714","black","experiment","legacy","legacy","legacy","0","uniform","1","undefined","1","right","69","69","69","0","0","69","69","0","0","69","69","69","0","69","0","Sun Oct 18 10:40:27 2020","The main experiment item","yes","Sternberg task.osexp","/Users/alisonbeason/Desktop/PSYC 5316","no","mono","no","18","no","white","no","yes","768","legacy","57","11","/Users/alisonbeason/Desktop/PSYC 5316/AB-subject-1.csv","legacy","4 2 7 6 1 3","Lentiform Loewenfeld","3.3.3","0","n","0","right","left","right","right","NA","942","33305","6005","942","NA","2","legacy","6","1024","2","48000","-16","experiment","1","odd","8","481613","478308","479367","3969","121145","479381","297911","3987","115139","483627","484570","480396","37321","483627","NA","Sternberg task","61","68378","70","yes","1024"
"87.32394366197182","87.32394366197182","976.5070422535211","976.5070422535211","black","experiment","legacy","legacy","legacy","0","uniform","1","undefined","1","right","70","70","70","0","0","70","70","0","0","70","70","70","0","70","0","Sun Oct 18 10:40:27 2020","The main experiment item","yes","Sternberg task.osexp","/Users/alisonbeason/Desktop/PSYC 5316","no","mono","no","18","no","white","no","yes","768","legacy","58","11","/Users/alisonbeason/Desktop/PSYC 5316/AB-subject-1.csv","legacy","7 8 6 1","Lentiform Loewenfeld","3.3.3","0","n","0","right","left","right","right","NA","954","33305","6005","954","NA","2","legacy","4","1024","2","48000","-16","experiment","1","odd","3","487890","484586","485643","3969","121145","485657","297911","3987","115139","489904","490859","486672","37321","489904","NA","Sternberg task","62","69332","71","yes","1024"
"87.5","87.5","988.1944444444445","988.1944444444445","black","experiment","legacy","legacy","legacy","0","uniform","1","undefined","1","right","71","71","71","0","0","71","71","0","0","71","71","71","0","71","0","Sun Oct 18 10:40:27 2020","The main experiment item","yes","Sternberg task.osexp","/Users/alisonbeason/Desktop/PSYC 5316","no","mono","no","18","no","white","no","yes","768","legacy","59","11","/Users/alisonbeason/Desktop/PSYC 5316/AB-subject-1.csv","legacy","7 9","Lentiform Loewenfeld","3.3.3","0","n","0","right","left","right","right","NA","1818","33305","6005","1818","NA","2","legacy","2","1024","2","48000","-16","experiment","1","odd","1","494181","490874","491932","3969","121145","491946","297911","3987","115139","496195","498014","492962","37321","496195","NA","Sternberg task","63","71150","72","yes","1024"
"87.67123287671232","87.67123287671232","1000.2739726027397","1000.2739726027397","black","experiment","legacy","legacy","legacy","0","uniform","1","undefined","1","right","72","72","72","0","0","72","72","0","0","72","72","72","0","72","0","Sun Oct 18 10:40:27 2020","The main experiment item","yes","Sternberg task.osexp","/Users/alisonbeason/Desktop/PSYC 5316","no","mono","no","18","no","white","no","yes","768","legacy","60","11","/Users/alisonbeason/Desktop/PSYC 5316/AB-subject-1.csv","legacy","9 7 4 5 8","Lentiform Loewenfeld","3.3.3","0","n","0","right","left","right","right","NA","1870","33305","6005","1870","NA","2","legacy","5","1024","2","48000","-16","experiment","1","odd","6","501336","498029","499089","3969","121145","499103","297911","3987","115139","503354","505225","500118","37321","503354","NA","Sternberg task","64","73020","73","yes","1024"
"87.83783783783784","87.83783783783784","1002.9054054054054","1002.9054054054054","black","experiment","legacy","legacy","legacy","0","uniform","1","undefined","1","left","73","73","73","0","0","73","73","0","0","73","73","73","0","73","0","Sun Oct 18 10:40:27 2020","The main experiment item","yes","Sternberg task.osexp","/Users/alisonbeason/Desktop/PSYC 5316","no","mono","no","18","no","white","no","yes","768","legacy","61","11","/Users/alisonbeason/Desktop/PSYC 5316/AB-subject-1.csv","legacy","6 2","Lentiform Loewenfeld","3.3.3","1","y","0","left","left","right","left","NA","1195","33305","6005","1195","NA","2","legacy","2","1024","2","48000","-16","experiment","1","odd","6","508541","505241","506295","3969","121145","506308","297911","3987","115139","510555","511751","507323","37321","510555","NA","Sternberg task","65","74215","74","yes","1024"
"88","88","1003","1003","black","experiment","legacy","legacy","legacy","0","uniform","1","undefined","1","right","74","74","74","0","0","74","74","0","0","74","74","74","0","74","0","Sun Oct 18 10:40:27 2020","The main experiment item","yes","Sternberg task.osexp","/Users/alisonbeason/Desktop/PSYC 5316","no","mono","no","18","no","white","no","yes","768","legacy","62","11","/Users/alisonbeason/Desktop/PSYC 5316/AB-subject-1.csv","legacy","6 8 4","Lentiform Loewenfeld","3.3.3","0","n","0","right","left","right","right","NA","1010","33305","6005","1010","NA","2","legacy","3","1024","2","48000","-16","experiment","1","odd","1","515071","511766","512824","3969","121145","512838","297911","3987","115139","517085","518096","513853","37321","517085","NA","Sternberg task","66","75225","75","yes","1024"
"86.84210526315789","86.84210526315789","1002.3421052631579","1002.3421052631579","black","experiment","legacy","legacy","legacy","0","uniform","0","undefined","0","right","75","75","75","0","0","75","75","0","0","75","75","75","0","75","0","Sun Oct 18 10:40:27 2020","The main experiment item","yes","Sternberg task.osexp","/Users/alisonbeason/Desktop/PSYC 5316","no","mono","no","18","no","white","no","yes","768","legacy","63","11","/Users/alisonbeason/Desktop/PSYC 5316/AB-subject-1.csv","legacy","3 4 9 6 7 8","Lentiform Loewenfeld","3.3.3","0","n","0","left","left","right","left","NA","953","33305","6005","953","NA","2","legacy","6","1024","2","48000","-16","experiment","1","odd","2","521416","518112","519171","3969","121145","519184","297911","3987","115139","523430","524384","520199","37321","523430","NA","Sternberg task","66","76178","76","yes","1024"
"85.71428571428571","85.71428571428571","1007.4025974025974","1007.4025974025974","black","experiment","legacy","legacy","legacy","0","uniform","0","undefined","0","left","76","76","76","0","0","76","76","0","0","76","76","76","0","76","0","Sun Oct 18 10:40:27 2020","The main experiment item","yes","Sternberg task.osexp","/Users/alisonbeason/Desktop/PSYC 5316","no","mono","no","18","no","white","no","yes","768","legacy","64","11","/Users/alisonbeason/Desktop/PSYC 5316/AB-subject-1.csv","legacy","9 1 7 2","Lentiform Loewenfeld","3.3.3","2","y","0","right","left","right","right","NA","1392","33305","6005","1392","NA","2","legacy","4","1024","2","48000","-16","experiment","1","odd","1","527704","518112","525458","3969","121145","525472","524400","3987","115139","529719","531112","526487","37321","529719","NA","Sternberg task","66","77570","77","yes","1024"
"85.8974358974359","85.8974358974359","1008.0128205128206","1008.0128205128206","black","experiment","legacy","legacy","legacy","0","uniform","1","undefined","1","left","77","77","77","0","0","77","77","0","0","77","77","77","0","77","0","Sun Oct 18 10:40:27 2020","The main experiment item","yes","Sternberg task.osexp","/Users/alisonbeason/Desktop/PSYC 5316","no","mono","no","18","no","white","no","yes","768","legacy","65","11","/Users/alisonbeason/Desktop/PSYC 5316/AB-subject-1.csv","legacy","6 7 9 3 1 2","Lentiform Loewenfeld","3.3.3","1","y","0","left","left","right","left","NA","1055","33305","6005","1055","NA","2","legacy","6","1024","2","48000","-16","experiment","1","odd","6","534432","518112","532186","3969","121145","532200","531127","3987","115139","536446","537502","533215","37321","536446","NA","Sternberg task","67","78625","78","yes","1024"
"86.07594936708861","86.07594936708861","1005.746835443038","1005.746835443038","black","experiment","legacy","legacy","legacy","0","uniform","1","undefined","1","left","78","78","78","0","0","78","78","0","0","78","78","78","0","78","0","Sun Oct 18 10:40:27 2020","The main experiment item","yes","Sternberg task.osexp","/Users/alisonbeason/Desktop/PSYC 5316","no","mono","no","18","no","white","no","yes","768","legacy","66","11","/Users/alisonbeason/Desktop/PSYC 5316/AB-subject-1.csv","legacy","3 4","Lentiform Loewenfeld","3.3.3","1","y","0","left","left","right","left","NA","829","33305","6005","829","NA","2","legacy","2","1024","2","48000","-16","experiment","1","odd","3","540823","537518","538576","3969","121145","538590","531127","3987","115139","542837","543667","539605","37321","542837","NA","Sternberg task","68","79454","79","yes","1024"
"86.25","86.25","1006.6375","1006.6375","black","experiment","legacy","legacy","legacy","0","uniform","1","undefined","1","left","79","79","79","0","0","79","79","0","0","79","79","79","0","79","0","Sun Oct 18 10:40:27 2020","The main experiment item","yes","Sternberg task.osexp","/Users/alisonbeason/Desktop/PSYC 5316","no","mono","no","18","no","white","no","yes","768","legacy","67","11","/Users/alisonbeason/Desktop/PSYC 5316/AB-subject-1.csv","legacy","8 9 6 1","Lentiform Loewenfeld","3.3.3","2","y","0","left","left","right","left","NA","1077","33305","6005","1077","NA","2","legacy","4","1024","2","48000","-16","experiment","1","odd","9","546989","543682","544743","3969","121145","544756","531127","3987","115139","549002","550080","545772","37321","549002","NA","Sternberg task","69","80531","80","yes","1024"
"86.41975308641975","86.41975308641975","1004.716049382716","1004.716049382716","black","experiment","legacy","legacy","legacy","0","uniform","1","undefined","1","right","80","80","80","0","0","80","80","0","0","80","80","80","0","80","0","Sun Oct 18 10:40:27 2020","The main experiment item","yes","Sternberg task.osexp","/Users/alisonbeason/Desktop/PSYC 5316","no","mono","no","18","no","white","no","yes","768","legacy","68","11","/Users/alisonbeason/Desktop/PSYC 5316/AB-subject-1.csv","legacy","7 3 2 8","Lentiform Loewenfeld","3.3.3","0","n","0","right","left","right","right","NA","851","33305","6005","851","NA","2","legacy","4","1024","2","48000","-16","experiment","1","odd","4","553401","550096","551152","3969","121145","551166","531127","3987","115139","555415","556267","552182","37321","555415","NA","Sternberg task","70","81382","81","yes","1024"
"86.58536585365853","86.58536585365853","1004.5243902439024","1004.5243902439024","black","experiment","legacy","legacy","legacy","0","uniform","1","undefined","1","left","81","81","81","0","0","81","81","0","0","81","81","81","0","81","0","Sun Oct 18 10:40:27 2020","The main experiment item","yes","Sternberg task.osexp","/Users/alisonbeason/Desktop/PSYC 5316","no","mono","no","18","no","white","no","yes","768","legacy","69","11","/Users/alisonbeason/Desktop/PSYC 5316/AB-subject-1.csv","legacy","7 6","Lentiform Loewenfeld","3.3.3","2","y","0","left","left","right","left","NA","989","33305","6005","989","NA","2","legacy","2","1024","2","48000","-16","experiment","1","odd","6","559585","556283","557339","3969","121145","557353","531127","3987","115139","561600","562590","558368","37321","561599","NA","Sternberg task","71","82371","82","yes","1024"
"85.5421686746988","85.5421686746988","1014.5903614457832","1014.5903614457832","black","experiment","legacy","legacy","legacy","0","uniform","0","undefined","0","right","82","82","82","0","0","82","82","0","0","82","82","82","0","82","0","Sun Oct 18 10:40:27 2020","The main experiment item","yes","Sternberg task.osexp","/Users/alisonbeason/Desktop/PSYC 5316","no","mono","no","18","no","white","no","yes","768","legacy","70","11","/Users/alisonbeason/Desktop/PSYC 5316/AB-subject-1.csv","legacy","1 5 3 2 8","Lentiform Loewenfeld","3.3.3","0","n","0","left","left","right","left","NA","1840","33305","6005","1840","NA","2","legacy","5","1024","2","48000","-16","experiment","1","odd","4","565912","562606","563665","3969","121145","563679","531127","3987","115139","567926","569767","564694","37321","567926","NA","Sternberg task","71","84211","83","yes","1024"
"85.71428571428571","85.71428571428571","1014.9404761904761","1014.9404761904761","black","experiment","legacy","legacy","legacy","0","uniform","1","undefined","1","left","83","83","83","0","0","83","83","0","0","83","83","83","0","83","0","Sun Oct 18 10:40:27 2020","The main experiment item","yes","Sternberg task.osexp","/Users/alisonbeason/Desktop/PSYC 5316","no","mono","no","18","no","white","no","yes","768","legacy","71","11","/Users/alisonbeason/Desktop/PSYC 5316/AB-subject-1.csv","legacy","7 8 4 6 9 5","Lentiform Loewenfeld","3.3.3","4","y","0","left","left","right","left","NA","1044","33305","6005","1044","NA","2","legacy","6","1024","2","48000","-16","experiment","1","odd","6","573088","562606","570841","3969","121145","570855","569784","3987","115139","575102","576147","571870","37321","575102","NA","Sternberg task","72","85255","84","yes","1024"
"85.88235294117646","85.88235294117646","1021.4470588235295","1021.4470588235295","black","experiment","legacy","legacy","legacy","0","uniform","1","undefined","1","left","84","84","84","0","0","84","84","0","0","84","84","84","0","84","0","Sun Oct 18 10:40:27 2020","The main experiment item","yes","Sternberg task.osexp","/Users/alisonbeason/Desktop/PSYC 5316","no","mono","no","18","no","white","no","yes","768","legacy","72","11","/Users/alisonbeason/Desktop/PSYC 5316/AB-subject-1.csv","legacy","7 1 8 5 6 2","Lentiform Loewenfeld","3.3.3","2","y","0","left","left","right","left","NA","1568","33305","6005","1568","NA","2","legacy","6","1024","2","48000","-16","experiment","1","odd","1","579470","576163","577223","3969","121145","577237","569784","3987","115139","581485","583054","578252","37321","581485","NA","Sternberg task","73","86823","85","yes","1024"
"86.04651162790698","86.04651162790698","1018.5813953488372","1018.5813953488372","black","experiment","legacy","legacy","legacy","0","uniform","1","undefined","1","left","85","85","85","0","0","85","85","0","0","85","85","85","0","85","0","Sun Oct 18 10:40:27 2020","The main experiment item","yes","Sternberg task.osexp","/Users/alisonbeason/Desktop/PSYC 5316","no","mono","no","18","no","white","no","yes","768","legacy","73","11","/Users/alisonbeason/Desktop/PSYC 5316/AB-subject-1.csv","legacy","2 5 4 8 7","Lentiform Loewenfeld","3.3.3","3","y","0","left","left","right","left","NA","775","33305","6005","775","NA","2","legacy","5","1024","2","48000","-16","experiment","1","odd","4","586371","583070","584128","3969","121145","584143","569784","3987","115139","588387","589163","585157","37321","588386","NA","Sternberg task","74","87598","86","yes","1024"
"86.20689655172414","86.20689655172414","1016.0919540229885","1016.0919540229885","black","experiment","legacy","legacy","legacy","0","uniform","1","undefined","1","left","86","86","86","0","0","86","86","0","0","86","86","86","0","86","0","Sun Oct 18 10:40:27 2020","The main experiment item","yes","Sternberg task.osexp","/Users/alisonbeason/Desktop/PSYC 5316","no","mono","no","18","no","white","no","yes","768","legacy","74","11","/Users/alisonbeason/Desktop/PSYC 5316/AB-subject-1.csv","legacy","7 8 6 3 1","Lentiform Loewenfeld","3.3.3","5","y","0","left","left","right","left","NA","802","33305","6005","802","NA","2","legacy","5","1024","2","48000","-16","experiment","1","odd","1","592478","589179","590233","3969","121145","590246","569784","3987","115139","594492","595295","591262","37321","594492","NA","Sternberg task","75","88400","87","yes","1024"
"86.36363636363636","86.36363636363636","1015.75","1015.75","black","experiment","legacy","legacy","legacy","0","uniform","1","undefined","1","right","87","87","87","0","0","87","87","0","0","87","87","87","0","87","0","Sun Oct 18 10:40:27 2020","The main experiment item","yes","Sternberg task.osexp","/Users/alisonbeason/Desktop/PSYC 5316","no","mono","no","18","no","white","no","yes","768","legacy","75","11","/Users/alisonbeason/Desktop/PSYC 5316/AB-subject-1.csv","legacy","8 4 3 5","Lentiform Loewenfeld","3.3.3","0","n","0","right","left","right","right","NA","986","33305","6005","986","NA","2","legacy","4","1024","2","48000","-16","experiment","1","odd","6","598616","595310","596369","3969","121145","596383","569784","3987","115139","600631","601618","597398","37321","600630","NA","Sternberg task","76","89386","88","yes","1024"
"86.51685393258427","86.51685393258427","1013.7303370786517","1013.7303370786517","black","experiment","legacy","legacy","legacy","0","uniform","1","undefined","1","right","88","88","88","0","0","88","88","0","0","88","88","88","0","88","0","Sun Oct 18 10:40:27 2020","The main experiment item","yes","Sternberg task.osexp","/Users/alisonbeason/Desktop/PSYC 5316","no","mono","no","18","no","white","no","yes","768","legacy","76","11","/Users/alisonbeason/Desktop/PSYC 5316/AB-subject-1.csv","legacy","8 5 7 3 6","Lentiform Loewenfeld","3.3.3","0","n","0","right","left","right","right","NA","836","33305","6005","836","NA","2","legacy","5","1024","2","48000","-16","experiment","1","odd","9","604932","601633","602687","3969","121145","602700","569784","3987","115139","606946","607783","603715","37321","606946","NA","Sternberg task","77","90222","89","yes","1024"
"86.66666666666667","86.66666666666667","1015.5777777777778","1015.5777777777778","black","experiment","legacy","legacy","legacy","0","uniform","1","undefined","1","right","89","89","89","0","0","89","89","0","0","89","89","89","0","89","0","Sun Oct 18 10:40:27 2020","The main experiment item","yes","Sternberg task.osexp","/Users/alisonbeason/Desktop/PSYC 5316","no","mono","no","18","no","white","no","yes","768","legacy","77","11","/Users/alisonbeason/Desktop/PSYC 5316/AB-subject-1.csv","legacy","1 4 9 2 5","Lentiform Loewenfeld","3.3.3","0","n","0","right","left","right","right","NA","1180","33305","6005","1180","NA","2","legacy","5","1024","2","48000","-16","experiment","1","odd","7","611102","607797","608855","3969","121145","608869","569784","3987","115139","613116","614296","609884","37321","613116","NA","Sternberg task","78","91402","90","yes","1024"
"86.81318681318682","86.81318681318682","1017.7252747252747","1017.7252747252747","black","experiment","legacy","legacy","legacy","0","uniform","1","undefined","1","right","90","90","90","0","0","90","90","0","0","90","90","90","0","90","0","Sun Oct 18 10:40:27 2020","The main experiment item","yes","Sternberg task.osexp","/Users/alisonbeason/Desktop/PSYC 5316","no","mono","no","18","no","white","no","yes","768","legacy","78","11","/Users/alisonbeason/Desktop/PSYC 5316/AB-subject-1.csv","legacy","6 7 5 9","Lentiform Loewenfeld","3.3.3","0","n","0","right","left","right","right","NA","1211","33305","6005","1211","NA","2","legacy","4","1024","2","48000","-16","experiment","1","odd","2","617618","614313","615371","3969","121145","615385","569784","3987","115139","619632","620844","616400","37321","619632","NA","Sternberg task","79","92613","91","yes","1024"
"86.95652173913044","86.95652173913044","1016.7717391304348","1016.7717391304348","black","experiment","legacy","legacy","legacy","0","uniform","1","undefined","1","right","91","91","91","0","0","91","91","0","0","91","91","91","0","91","0","Sun Oct 18 10:40:27 2020","The main experiment item","yes","Sternberg task.osexp","/Users/alisonbeason/Desktop/PSYC 5316","no","mono","no","18","no","white","no","yes","768","legacy","79","11","/Users/alisonbeason/Desktop/PSYC 5316/AB-subject-1.csv","legacy","1 4 9 3","Lentiform Loewenfeld","3.3.3","0","n","0","right","left","right","right","NA","930","33305","6005","930","NA","2","legacy","4","1024","2","48000","-16","experiment","1","odd","5","624166","620860","621920","3969","121145","621934","569784","3987","115139","626180","627111","622949","37321","626180","NA","Sternberg task","80","93543","92","yes","1024"
"87.09677419354838","87.09677419354838","1014.516129032258","1014.516129032258","black","experiment","legacy","legacy","legacy","0","uniform","1","undefined","1","left","92","92","92","0","0","92","92","0","0","92","92","92","0","92","0","Sun Oct 18 10:40:27 2020","The main experiment item","yes","Sternberg task.osexp","/Users/alisonbeason/Desktop/PSYC 5316","no","mono","no","18","no","white","no","yes","768","legacy","80","11","/Users/alisonbeason/Desktop/PSYC 5316/AB-subject-1.csv","legacy","4 1 5","Lentiform Loewenfeld","3.3.3","2","y","0","left","left","right","left","NA","807","33305","6005","807","NA","2","legacy","3","1024","2","48000","-16","experiment","1","odd","1","630431","627127","628185","3969","121145","628199","569784","3987","115139","632445","633253","629214","37321","632445","NA","Sternberg task","81","94350","93","yes","1024"
"86.17021276595744","86.17021276595744","1012.8936170212766","1012.8936170212766","black","experiment","legacy","legacy","legacy","0","uniform","0","undefined","0","left","93","93","93","0","0","93","93","0","0","93","93","93","0","93","0","Sun Oct 18 10:40:27 2020","The main experiment item","yes","Sternberg task.osexp","/Users/alisonbeason/Desktop/PSYC 5316","no","mono","no","18","no","white","no","yes","768","legacy","81","11","/Users/alisonbeason/Desktop/PSYC 5316/AB-subject-1.csv","legacy","8 9 5 7 1 6","Lentiform Loewenfeld","3.3.3","4","y","0","right","left","right","right","NA","862","33305","6005","862","NA","2","legacy","6","1024","2","48000","-16","experiment","1","odd","7","636575","633269","634328","3969","121145","634342","569784","3987","115139","638589","639452","635357","37321","638589","NA","Sternberg task","81","95212","94","yes","1024"
"86.3157894736842","86.3157894736842","1013.6526315789474","1013.6526315789474","black","experiment","legacy","legacy","legacy","0","uniform","1","undefined","1","right","94","94","94","0","0","94","94","0","0","94","94","94","0","94","0","Sun Oct 18 10:40:27 2020","The main experiment item","yes","Sternberg task.osexp","/Users/alisonbeason/Desktop/PSYC 5316","no","mono","no","18","no","white","no","yes","768","legacy","82","11","/Users/alisonbeason/Desktop/PSYC 5316/AB-subject-1.csv","legacy","7 1","Lentiform Loewenfeld","3.3.3","0","n","0","right","left","right","right","NA","1085","33305","6005","1085","NA","2","legacy","2","1024","2","48000","-16","experiment","1","odd","8","642775","633269","640528","3969","121145","640541","639468","3987","115139","644790","645876","641557","37321","644789","NA","Sternberg task","82","96297","95","yes","1024"
"86.45833333333333","86.45833333333333","1013.4791666666666","1013.4791666666666","black","experiment","legacy","legacy","legacy","0","uniform","1","undefined","1","right","95","95","95","0","0","95","95","0","0","95","95","95","0","95","0","Sun Oct 18 10:40:27 2020","The main experiment item","yes","Sternberg task.osexp","/Users/alisonbeason/Desktop/PSYC 5316","no","mono","no","18","no","white","no","yes","768","legacy","83","11","/Users/alisonbeason/Desktop/PSYC 5316/AB-subject-1.csv","legacy","6 9 4 5 3 2","Lentiform Loewenfeld","3.3.3","0","n","0","right","left","right","right","NA","997","33305","6005","997","NA","2","legacy","6","1024","2","48000","-16","experiment","1","odd","8","649198","645892","646951","3969","121145","646966","639468","3987","115139","651212","652210","647981","37321","651212","NA","Sternberg task","83","97294","96","yes","1024"
"86.5979381443299","86.5979381443299","1014.1237113402062","1014.1237113402062","black","experiment","legacy","legacy","legacy","0","uniform","1","undefined","1","right","96","96","96","0","0","96","96","0","0","96","96","96","0","96","0","Sun Oct 18 10:40:27 2020","The main experiment item","yes","Sternberg task.osexp","/Users/alisonbeason/Desktop/PSYC 5316","no","mono","no","18","no","white","no","yes","768","legacy","84","11","/Users/alisonbeason/Desktop/PSYC 5316/AB-subject-1.csv","legacy","6 9 5","Lentiform Loewenfeld","3.3.3","0","n","0","right","left","right","right","NA","1076","33305","6005","1076","NA","2","legacy","3","1024","2","48000","-16","experiment","1","odd","8","655531","652226","653285","3969","121145","653299","639468","3987","115139","657546","658623","654314","37321","657546","NA","Sternberg task","84","98370","97","yes","1024"
"86.73469387755102","86.73469387755102","1012.7857142857143","1012.7857142857143","black","experiment","legacy","legacy","legacy","0","uniform","1","undefined","1","left","97","97","97","0","0","97","97","0","0","97","97","97","0","97","0","Sun Oct 18 10:40:27 2020","The main experiment item","yes","Sternberg task.osexp","/Users/alisonbeason/Desktop/PSYC 5316","no","mono","no","18","no","white","no","yes","768","legacy","85","11","/Users/alisonbeason/Desktop/PSYC 5316/AB-subject-1.csv","legacy","9 3 1 2 5","Lentiform Loewenfeld","3.3.3","4","y","0","left","left","right","left","NA","883","33305","6005","883","NA","2","legacy","5","1024","2","48000","-16","experiment","1","odd","2","661945","658639","659699","3969","121145","659713","639468","3987","115139","663960","664844","660728","37321","663960","NA","Sternberg task","85","99253","98","yes","1024"
"86.86868686868686","86.86868686868686","1011.929292929293","1011.929292929293","black","experiment","legacy","legacy","legacy","0","uniform","1","undefined","1","right","98","98","98","0","0","98","98","0","0","98","98","98","0","98","0","Sun Oct 18 10:40:27 2020","The main experiment item","yes","Sternberg task.osexp","/Users/alisonbeason/Desktop/PSYC 5316","no","mono","no","18","no","white","no","yes","768","legacy","86","11","/Users/alisonbeason/Desktop/PSYC 5316/AB-subject-1.csv","legacy","8 5 4 2 9 6","Lentiform Loewenfeld","3.3.3","0","n","0","right","left","right","right","NA","928","33305","6005","928","NA","2","legacy","6","1024","2","48000","-16","experiment","1","odd","3","668167","664860","665919","3969","121145","665933","639468","3987","115139","670181","671110","666948","37321","670181","NA","Sternberg task","86","100181","99","yes","1024"
"87","87","1009.68","1009.68","black","experiment","legacy","legacy","legacy","0","uniform","1","undefined","1","left","99","99","99","0","0","99","99","0","0","99","99","99","0","99","0","Sun Oct 18 10:40:27 2020","The main experiment item","yes","Sternberg task.osexp","/Users/alisonbeason/Desktop/PSYC 5316","no","mono","no","18","no","white","no","yes","768","legacy","87","11","/Users/alisonbeason/Desktop/PSYC 5316/AB-subject-1.csv","legacy","9 4 2","Lentiform Loewenfeld","3.3.3","1","y","0","left","left","right","left","NA","787","33305","6005","787","NA","2","legacy","3","1024","2","48000","-16","experiment","1","odd","9","674428","671127","672181","3969","121145","672194","639468","3987","115139","676442","677230","673210","37321","676442","NA","Sternberg task","87","100968","100","yes","1024"
"87.12871287128714","87.12871287128714","1008.940594059406","1008.940594059406","black","experiment","legacy","legacy","legacy","0","uniform","1","undefined","1","right","100","100","100","0","0","100","100","0","0","100","100","100","0","100","0","Sun Oct 18 10:40:27 2020","The main experiment item","yes","Sternberg task.osexp","/Users/alisonbeason/Desktop/PSYC 5316","no","mono","no","18","no","white","no","yes","768","legacy","88","11","/Users/alisonbeason/Desktop/PSYC 5316/AB-subject-1.csv","legacy","8 6 3 4 7","Lentiform Loewenfeld","3.3.3","0","n","0","right","left","right","right","NA","935","33305","6005","935","NA","2","legacy","5","1024","2","48000","-16","experiment","1","odd","1","680557","677247","678306","3969","121145","678320","639468","3987","115139","682572","683508","679339","37321","682571","NA","Sternberg task","88","101903","101","yes","1024"
"86.27450980392157","86.27450980392157","1015.0784313725491","1015.0784313725491","black","experiment","legacy","legacy","legacy","0","uniform","0","undefined","0","left","101","101","101","0","0","101","101","0","0","101","101","101","0","101","0","Sun Oct 18 10:40:27 2020","The main experiment item","yes","Sternberg task.osexp","/Users/alisonbeason/Desktop/PSYC 5316","no","mono","no","18","no","white","no","yes","768","legacy","89","11","/Users/alisonbeason/Desktop/PSYC 5316/AB-subject-1.csv","legacy","3 9 7 6 4","Lentiform Loewenfeld","3.3.3","3","y","0","right","left","right","right","NA","1635","33305","6005","1635","NA","2","legacy","5","1024","2","48000","-16","experiment","1","odd","7","686822","683523","684577","3969","121145","684590","639468","3987","115139","688836","690472","685605","37321","688836","NA","Sternberg task","88","103538","102","yes","1024"
"86.40776699029126","86.40776699029126","1022.1067961165048","1022.1067961165048","black","experiment","legacy","legacy","legacy","0","uniform","1","undefined","1","left","102","102","102","0","0","102","102","0","0","102","102","102","0","102","0","Sun Oct 18 10:40:27 2020","The main experiment item","yes","Sternberg task.osexp","/Users/alisonbeason/Desktop/PSYC 5316","no","mono","no","18","no","white","no","yes","768","legacy","90","11","/Users/alisonbeason/Desktop/PSYC 5316/AB-subject-1.csv","legacy","2 6 1 7 4","Lentiform Loewenfeld","3.3.3","2","y","0","left","left","right","left","NA","1739","33305","6005","1739","NA","2","legacy","5","1024","2","48000","-16","experiment","1","odd","6","693793","683523","691547","3969","121145","691561","690488","3987","115139","695808","697548","692576","37321","695808","NA","Sternberg task","89","105277","103","yes","1024"
"86.53846153846153","86.53846153846153","1019.1442307692307","1019.1442307692307","black","experiment","legacy","legacy","legacy","0","uniform","1","undefined","1","right","103","103","103","0","0","103","103","0","0","103","103","103","0","103","0","Sun Oct 18 10:40:27 2020","The main experiment item","yes","Sternberg task.osexp","/Users/alisonbeason/Desktop/PSYC 5316","no","mono","no","18","no","white","no","yes","768","legacy","91","11","/Users/alisonbeason/Desktop/PSYC 5316/AB-subject-1.csv","legacy","2 8 9 4 1","Lentiform Loewenfeld","3.3.3","0","n","0","right","left","right","right","NA","714","33305","6005","714","NA","2","legacy","5","1024","2","48000","-16","experiment","1","odd","5","700871","697564","698623","3969","121145","698638","690488","3987","115139","702885","703600","699654","37321","702885","NA","Sternberg task","90","105991","104","yes","1024"
"86.66666666666667","86.66666666666667","1015.4","1015.4","black","experiment","legacy","legacy","legacy","0","uniform","1","undefined","1","left","104","104","104","0","0","104","104","0","0","104","104","104","0","104","0","Sun Oct 18 10:40:27 2020","The main experiment item","yes","Sternberg task.osexp","/Users/alisonbeason/Desktop/PSYC 5316","no","mono","no","18","no","white","no","yes","768","legacy","92","11","/Users/alisonbeason/Desktop/PSYC 5316/AB-subject-1.csv","legacy","2 3 7 4","Lentiform Loewenfeld","3.3.3","1","y","0","left","left","right","left","NA","626","33305","6005","626","NA","2","legacy","4","1024","2","48000","-16","experiment","1","odd","2","706922","703616","704675","3969","121145","704689","690488","3987","115139","708936","709563","705705","37321","708936","NA","Sternberg task","91","106617","105","yes","1024"
"86.79245283018868","86.79245283018868","1015.5471698113207","1015.5471698113207","black","experiment","legacy","legacy","legacy","0","uniform","1","undefined","1","left","105","105","105","0","0","105","105","0","0","105","105","105","0","105","0","Sun Oct 18 10:40:27 2020","The main experiment item","yes","Sternberg task.osexp","/Users/alisonbeason/Desktop/PSYC 5316","no","mono","no","18","no","white","no","yes","768","legacy","93","11","/Users/alisonbeason/Desktop/PSYC 5316/AB-subject-1.csv","legacy","4 1 8 7 5","Lentiform Loewenfeld","3.3.3","3","y","0","left","left","right","left","NA","1031","33305","6005","1031","NA","2","legacy","5","1024","2","48000","-16","experiment","1","odd","8","712885","709579","710638","3969","121145","710652","690488","3987","115139","714899","715931","711667","37321","714899","NA","Sternberg task","92","107648","106","yes","1024"
"86.91588785046729","86.91588785046729","1013.0560747663551","1013.0560747663551","black","experiment","legacy","legacy","legacy","0","uniform","1","undefined","1","right","106","106","106","0","0","106","106","0","0","106","106","106","0","106","0","Sun Oct 18 10:40:27 2020","The main experiment item","yes","Sternberg task.osexp","/Users/alisonbeason/Desktop/PSYC 5316","no","mono","no","18","no","white","no","yes","768","legacy","94","11","/Users/alisonbeason/Desktop/PSYC 5316/AB-subject-1.csv","legacy","1 3 2 6 9","Lentiform Loewenfeld","3.3.3","0","n","0","right","left","right","right","NA","749","33305","6005","749","NA","2","legacy","5","1024","2","48000","-16","experiment","1","odd","5","719253","715947","717007","3969","121145","717020","690488","3987","115139","721267","722017","718035","37321","721267","NA","Sternberg task","93","108397","107","yes","1024"
"87.03703703703704","87.03703703703704","1011.074074074074","1011.074074074074","black","experiment","legacy","legacy","legacy","0","uniform","1","undefined","1","left","107","107","107","0","0","107","107","0","0","107","107","107","0","107","0","Sun Oct 18 10:40:27 2020","The main experiment item","yes","Sternberg task.osexp","/Users/alisonbeason/Desktop/PSYC 5316","no","mono","no","18","no","white","no","yes","768","legacy","95","11","/Users/alisonbeason/Desktop/PSYC 5316/AB-subject-1.csv","legacy","3 5 4 7","Lentiform Loewenfeld","3.3.3","1","y","0","left","left","right","left","NA","799","33305","6005","799","NA","2","legacy","4","1024","2","48000","-16","experiment","1","odd","3","725334","722033","723087","3969","121145","723101","690488","3987","115139","727348","728148","724116","37321","727348","NA","Sternberg task","94","109196","108","yes","1024"
"87.1559633027523","87.1559633027523","1011.4678899082569","1011.4678899082569","black","experiment","legacy","legacy","legacy","0","uniform","1","undefined","1","left","108","108","108","0","0","108","108","0","0","108","108","108","0","108","0","Sun Oct 18 10:40:27 2020","The main experiment item","yes","Sternberg task.osexp","/Users/alisonbeason/Desktop/PSYC 5316","no","mono","no","18","no","white","no","yes","768","legacy","96","11","/Users/alisonbeason/Desktop/PSYC 5316/AB-subject-1.csv","legacy","9 3 8 2 1 4","Lentiform Loewenfeld","3.3.3","3","y","0","left","left","right","left","NA","1054","33305","6005","1054","NA","2","legacy","6","1024","2","48000","-16","experiment","1","odd","8","731469","728164","729223","3969","121145","729237","690488","3987","115139","733484","734539","730252","37321","733484","NA","Sternberg task","95","110250","109","yes","1024"
"87.27272727272727","87.27272727272727","1010.1090909090909","1010.1090909090909","black","experiment","legacy","legacy","legacy","0","uniform","1","undefined","1","right","109","109","109","0","0","109","109","0","0","109","109","109","0","109","0","Sun Oct 18 10:40:27 2020","The main experiment item","yes","Sternberg task.osexp","/Users/alisonbeason/Desktop/PSYC 5316","no","mono","no","18","no","white","no","yes","768","legacy","97","11","/Users/alisonbeason/Desktop/PSYC 5316/AB-subject-1.csv","legacy","5 3 2 6 9 8","Lentiform Loewenfeld","3.3.3","0","n","0","right","left","right","right","NA","862","33305","6005","862","NA","2","legacy","6","1024","2","48000","-16","experiment","1","odd","4","737861","734555","735614","3969","121145","735628","690488","3987","115139","739875","740738","736643","37321","739875","NA","Sternberg task","96","111112","110","yes","1024"
"87.38738738738739","87.38738738738739","1009.2072072072073","1009.2072072072073","black","experiment","legacy","legacy","legacy","0","uniform","1","undefined","1","left","110","110","110","0","0","110","110","0","0","110","110","110","0","110","0","Sun Oct 18 10:40:27 2020","The main experiment item","yes","Sternberg task.osexp","/Users/alisonbeason/Desktop/PSYC 5316","no","mono","no","18","no","white","no","yes","768","legacy","98","11","/Users/alisonbeason/Desktop/PSYC 5316/AB-subject-1.csv","legacy","5 2 6","Lentiform Loewenfeld","3.3.3","2","y","0","left","left","right","left","NA","910","33305","6005","910","NA","2","legacy","3","1024","2","48000","-16","experiment","1","odd","2","744058","740752","741811","3969","121145","741825","690488","3987","115139","746072","746983","742840","37321","746072","NA","Sternberg task","97","112022","111","yes","1024"
"87.5","87.5","1006.0892857142857","1006.0892857142857","black","experiment","legacy","legacy","legacy","0","uniform","1","undefined","1","right","111","111","111","0","0","111","111","0","0","111","111","111","0","111","0","Sun Oct 18 10:40:27 2020","The main experiment item","yes","Sternberg task.osexp","/Users/alisonbeason/Desktop/PSYC 5316","no","mono","no","18","no","white","no","yes","768","legacy","99","11","/Users/alisonbeason/Desktop/PSYC 5316/AB-subject-1.csv","legacy","2 5 1 4","Lentiform Loewenfeld","3.3.3","0","n","0","right","left","right","right","NA","660","33305","6005","660","NA","2","legacy","4","1024","2","48000","-16","experiment","1","odd","6","750304","746999","748057","3969","121145","748071","690488","3987","115139","752318","752979","749086","37321","752318","NA","Sternberg task","98","112682","112","yes","1024"
"87.61061946902655","87.61061946902655","1004.1946902654868","1004.1946902654868","black","experiment","legacy","legacy","legacy","0","uniform","1","undefined","1","right","112","112","112","0","0","112","112","0","0","112","112","112","0","112","0","Sun Oct 18 10:40:27 2020","The main experiment item","yes","Sternberg task.osexp","/Users/alisonbeason/Desktop/PSYC 5316","no","mono","no","18","no","white","no","yes","768","legacy","100","11","/Users/alisonbeason/Desktop/PSYC 5316/AB-subject-1.csv","legacy","4 1","Lentiform Loewenfeld","3.3.3","0","n","0","right","left","right","right","NA","792","33305","6005","792","NA","2","legacy","2","1024","2","48000","-16","experiment","1","odd","6","756302","752995","754055","3969","121145","754069","690488","3987","115139","758316","759109","755084","37321","758316","NA","Sternberg task","99","113474","113","yes","1024"
"87.71929824561404","87.71929824561404","1003.9298245614035","1003.9298245614035","black","experiment","legacy","legacy","legacy","0","uniform","1","undefined","1","right","113","113","113","0","0","113","113","0","0","113","113","113","0","113","0","Sun Oct 18 10:40:27 2020","The main experiment item","yes","Sternberg task.osexp","/Users/alisonbeason/Desktop/PSYC 5316","no","mono","no","18","no","white","no","yes","768","legacy","101","11","/Users/alisonbeason/Desktop/PSYC 5316/AB-subject-1.csv","legacy","5 9 2 3","Lentiform Loewenfeld","3.3.3","0","n","0","right","left","right","right","NA","974","33305","6005","974","NA","2","legacy","4","1024","2","48000","-16","experiment","1","odd","8","762430","759123","760183","3969","121145","760197","690488","3987","115139","764445","765420","761212","37321","764445","NA","Sternberg task","100","114448","114","yes","1024"
"87.82608695652173","87.82608695652173","1002.5043478260869","1002.5043478260869","black","experiment","legacy","legacy","legacy","0","uniform","1","undefined","1","left","114","114","114","0","0","114","114","0","0","114","114","114","0","114","0","Sun Oct 18 10:40:27 2020","The main experiment item","yes","Sternberg task.osexp","/Users/alisonbeason/Desktop/PSYC 5316","no","mono","no","18","no","white","no","yes","768","legacy","102","11","/Users/alisonbeason/Desktop/PSYC 5316/AB-subject-1.csv","legacy","6 1 2","Lentiform Loewenfeld","3.3.3","3","y","0","left","left","right","left","NA","840","33305","6005","840","NA","2","legacy","3","1024","2","48000","-16","experiment","1","odd","2","768742","765436","766495","3969","121145","766509","690488","3987","115139","770756","771597","767524","37321","770756","NA","Sternberg task","101","115288","115","yes","1024"
