"acc","accuracy","average_response_time","avg_rt","background","block","canvas_backend","clock_backend","color_backend","compensation","coordinates","correct","correct_instruction1","correct_new_keyboard_response","correct_response","count_Fixation","count_ISI","count_correctFeedback","count_expSequence","count_experiment","count_experimentLoop","count_incorrectFeedback","count_instruction1","count_instructions2","count_memorySet","count_new_keyboard_response","count_new_logger","count_practiceLoop","count_probe","count_thankYou","datetime","description","disable_garbage_collection","experiment_file","experiment_path","font_bold","font_family","font_italic","font_size","font_underline","foreground","form_clicks","fullscreen","height","keyboard_backend","live_row","live_row_practiceLoop","logfile","mouse_backend","numberSet","opensesame_codename","opensesame_version","posInSet","present","repeat_cycle","response","response_instruction1","response_instructions2","response_new_keyboard_response","response_thankYou","response_time","response_time_instruction1","response_time_instructions2","response_time_new_keyboard_response","response_time_thankYou","round_decimals","sampler_backend","setSize","sound_buf_size","sound_channels","sound_freq","sound_sample_size","start","subject_nr","subject_parity","target","time_Fixation","time_ISI","time_correctFeedback","time_expSequence","time_experiment","time_experimentLoop","time_incorrectFeedback","time_instruction1","time_instructions2","time_memorySet","time_new_keyboard_response","time_new_logger","time_practiceLoop","time_probe","time_thankYou","title","total_correct","total_response_time","total_responses","uniform_coordinates","width"
"100","100","740","740","black","practice","legacy","legacy","legacy","0","uniform","1","undefined","1","left","0","0","0","0","0","0","0","0","0","0","0","0","0","0","0","Sun Oct 18 20:39:12 2020","The main experiment item","yes","SternbergTask.osexp","/Users/tforestmoore/Desktop/Tarleton/Fall 2020/Math/Lab3","no","mono","no","18","no","white","no","yes","768","legacy","0","0","/Users/tforestmoore/Desktop/Tarleton/Fall 2020/Math/Lab3/subject-1.csv","legacy","1 7 9 8 5","Lentiform Loewenfeld","3.3.3","4","y","0","left","right","NA","left","NA","740","23855","NA","740","NA","2","legacy","5","1024","2","48000","-16","experiment","1","odd","8","27529","29763","NA","27514","3335","NA","NA","3353","NA","28545","31778","32520","27221","31778","NA","Sternberg Task","1","740","1","yes","1024"
"100","100","672","672","black","practice","legacy","legacy","legacy","0","uniform","1","undefined","1","right","1","1","1","1","0","0","1","0","0","1","1","1","0","1","0","Sun Oct 18 20:39:12 2020","The main experiment item","yes","SternbergTask.osexp","/Users/tforestmoore/Desktop/Tarleton/Fall 2020/Math/Lab3","no","mono","no","18","no","white","no","yes","768","legacy","1","1","/Users/tforestmoore/Desktop/Tarleton/Fall 2020/Math/Lab3/subject-1.csv","legacy","9 6 7 4 5","Lentiform Loewenfeld","3.3.3","0","n","0","right","right","NA","right","NA","604","23855","NA","604","NA","2","legacy","5","1024","2","48000","-16","experiment","1","odd","3","33674","35914","32565","33657","3335","NA","NA","3353","NA","34694","37933","38538","27221","37933","NA","Sternberg Task","2","1344","2","yes","1024"
"100","100","750","750","black","practice","legacy","legacy","legacy","0","uniform","1","undefined","1","left","2","2","2","2","0","0","2","0","0","2","2","2","0","2","0","Sun Oct 18 20:39:12 2020","The main experiment item","yes","SternbergTask.osexp","/Users/tforestmoore/Desktop/Tarleton/Fall 2020/Math/Lab3","no","mono","no","18","no","white","no","yes","768","legacy","2","2","/Users/tforestmoore/Desktop/Tarleton/Fall 2020/Math/Lab3/subject-1.csv","legacy","1 5 2 9","Lentiform Loewenfeld","3.3.3","2","y","0","left","right","NA","left","NA","906","23855","NA","906","NA","2","legacy","4","1024","2","48000","-16","experiment","1","odd","5","39664","41902","38585","39647","3335","NA","NA","3353","NA","40682","43920","44827","27221","43920","NA","Sternberg Task","3","2250","3","yes","1024"
"100","100","695.25","695.25","black","practice","legacy","legacy","legacy","0","uniform","1","undefined","1","right","3","3","3","3","0","0","3","0","0","3","3","3","0","3","0","Sun Oct 18 20:39:12 2020","The main experiment item","yes","SternbergTask.osexp","/Users/tforestmoore/Desktop/Tarleton/Fall 2020/Math/Lab3","no","mono","no","18","no","white","no","yes","768","legacy","3","3","/Users/tforestmoore/Desktop/Tarleton/Fall 2020/Math/Lab3/subject-1.csv","legacy","2 1","Lentiform Loewenfeld","3.3.3","0","n","0","right","right","NA","right","NA","531","23855","NA","531","NA","2","legacy","2","1024","2","48000","-16","experiment","1","odd","5","45943","48180","44849","45925","3335","NA","NA","3353","NA","46959","50201","50733","27221","50201","NA","Sternberg Task","4","2781","4","yes","1024"
"100","100","706","706","black","practice","legacy","legacy","legacy","0","uniform","1","undefined","1","left","4","4","4","4","0","0","4","0","0","4","4","4","0","4","0","Sun Oct 18 20:39:12 2020","The main experiment item","yes","SternbergTask.osexp","/Users/tforestmoore/Desktop/Tarleton/Fall 2020/Math/Lab3","no","mono","no","18","no","white","no","yes","768","legacy","4","4","/Users/tforestmoore/Desktop/Tarleton/Fall 2020/Math/Lab3/subject-1.csv","legacy","2 9 4","Lentiform Loewenfeld","3.3.3","3","y","0","left","right","NA","left","NA","749","23855","NA","749","NA","2","legacy","3","1024","2","48000","-16","experiment","1","odd","4","51847","54085","50752","51830","3335","NA","NA","3353","NA","52865","56103","56853","27221","56103","NA","Sternberg Task","5","3530","5","yes","1024"
"100","100","694.6666666666666","694.6666666666666","black","practice","legacy","legacy","legacy","0","uniform","1","undefined","1","left","5","5","5","5","0","0","5","0","0","5","5","5","0","5","0","Sun Oct 18 20:39:12 2020","The main experiment item","yes","SternbergTask.osexp","/Users/tforestmoore/Desktop/Tarleton/Fall 2020/Math/Lab3","no","mono","no","18","no","white","no","yes","768","legacy","5","5","/Users/tforestmoore/Desktop/Tarleton/Fall 2020/Math/Lab3/subject-1.csv","legacy","4 3 1 7 9 8","Lentiform Loewenfeld","3.3.3","1","y","0","left","right","NA","left","NA","638","23855","NA","638","NA","2","legacy","6","1024","2","48000","-16","experiment","1","odd","4","57966","60203","56872","57948","3335","NA","NA","3353","NA","58985","62222","62861","27221","62222","NA","Sternberg Task","6","4168","6","yes","1024"
"100","100","674.7142857142857","674.7142857142857","black","practice","legacy","legacy","legacy","0","uniform","1","undefined","1","left","6","6","6","6","0","0","6","0","0","6","6","6","0","6","0","Sun Oct 18 20:39:12 2020","The main experiment item","yes","SternbergTask.osexp","/Users/tforestmoore/Desktop/Tarleton/Fall 2020/Math/Lab3","no","mono","no","18","no","white","no","yes","768","legacy","6","6","/Users/tforestmoore/Desktop/Tarleton/Fall 2020/Math/Lab3/subject-1.csv","legacy","4 8","Lentiform Loewenfeld","3.3.3","1","y","0","left","right","NA","left","NA","555","23855","NA","555","NA","2","legacy","2","1024","2","48000","-16","experiment","1","odd","4","63975","66215","62884","63957","3335","NA","NA","3353","NA","64994","68233","68789","27221","68233","NA","Sternberg Task","7","4723","7","yes","1024"
"100","100","677.625","677.625","black","practice","legacy","legacy","legacy","0","uniform","1","undefined","1","right","7","7","7","7","0","0","7","0","0","7","7","7","0","7","0","Sun Oct 18 20:39:12 2020","The main experiment item","yes","SternbergTask.osexp","/Users/tforestmoore/Desktop/Tarleton/Fall 2020/Math/Lab3","no","mono","no","18","no","white","no","yes","768","legacy","7","7","/Users/tforestmoore/Desktop/Tarleton/Fall 2020/Math/Lab3/subject-1.csv","legacy","5 7 8 4 1 2","Lentiform Loewenfeld","3.3.3","0","n","0","right","right","NA","right","NA","698","23855","NA","698","NA","2","legacy","6","1024","2","48000","-16","experiment","1","odd","6","69899","72136","68810","69881","3335","NA","NA","3353","NA","70917","74154","74853","27221","74154","NA","Sternberg Task","8","5421","8","yes","1024"
"100","100","718.7777777777778","718.7777777777778","black","practice","legacy","legacy","legacy","0","uniform","1","undefined","1","right","8","8","8","8","0","0","8","0","0","8","8","8","0","8","0","Sun Oct 18 20:39:12 2020","The main experiment item","yes","SternbergTask.osexp","/Users/tforestmoore/Desktop/Tarleton/Fall 2020/Math/Lab3","no","mono","no","18","no","white","no","yes","768","legacy","8","8","/Users/tforestmoore/Desktop/Tarleton/Fall 2020/Math/Lab3/subject-1.csv","legacy","5","Lentiform Loewenfeld","3.3.3","0","n","0","right","right","NA","right","NA","1048","23855","NA","1048","NA","2","legacy","1","1024","2","48000","-16","experiment","1","odd","3","75952","78187","74876","75936","3335","NA","NA","3353","NA","76968","80205","81253","27221","80205","NA","Sternberg Task","9","6469","9","yes","1024"
"100","100","712.8","712.8","black","practice","legacy","legacy","legacy","0","uniform","1","undefined","1","right","9","9","9","9","0","0","9","0","0","9","9","9","0","9","0","Sun Oct 18 20:39:12 2020","The main experiment item","yes","SternbergTask.osexp","/Users/tforestmoore/Desktop/Tarleton/Fall 2020/Math/Lab3","no","mono","no","18","no","white","no","yes","768","legacy","9","9","/Users/tforestmoore/Desktop/Tarleton/Fall 2020/Math/Lab3/subject-1.csv","legacy","3 1 9 4","Lentiform Loewenfeld","3.3.3","0","n","0","right","right","NA","right","NA","659","23855","NA","659","NA","2","legacy","4","1024","2","48000","-16","experiment","1","odd","6","82375","84616","81272","82356","3335","NA","NA","3353","NA","83393","86635","87295","27221","86635","NA","Sternberg Task","10","7128","10","yes","1024"
"100","100","700.5454545454545","700.5454545454545","black","practice","legacy","legacy","legacy","0","uniform","1","undefined","1","right","10","10","10","10","0","0","10","0","0","10","10","10","0","10","0","Sun Oct 18 20:39:12 2020","The main experiment item","yes","SternbergTask.osexp","/Users/tforestmoore/Desktop/Tarleton/Fall 2020/Math/Lab3","no","mono","no","18","no","white","no","yes","768","legacy","10","10","/Users/tforestmoore/Desktop/Tarleton/Fall 2020/Math/Lab3/subject-1.csv","legacy","4 1 5","Lentiform Loewenfeld","3.3.3","0","n","0","right","right","NA","right","NA","578","23855","NA","578","NA","2","legacy","3","1024","2","48000","-16","experiment","1","odd","2","88407","90646","87313","88390","3335","NA","NA","3353","NA","89426","92667","93246","27221","92667","NA","Sternberg Task","11","7706","11","yes","1024"
"100","100","705","705","black","practice","legacy","legacy","legacy","0","uniform","1","undefined","1","left","11","11","11","11","0","0","11","0","0","11","11","11","0","11","0","Sun Oct 18 20:39:12 2020","The main experiment item","yes","SternbergTask.osexp","/Users/tforestmoore/Desktop/Tarleton/Fall 2020/Math/Lab3","no","mono","no","18","no","white","no","yes","768","legacy","11","11","/Users/tforestmoore/Desktop/Tarleton/Fall 2020/Math/Lab3/subject-1.csv","legacy","6","Lentiform Loewenfeld","3.3.3","1","y","0","left","right","NA","left","NA","754","23855","NA","754","NA","2","legacy","1","1024","2","48000","-16","experiment","1","odd","6","94358","96593","93264","94340","3335","NA","NA","3353","NA","95376","98611","99366","27221","98611","NA","Sternberg Task","12","8460","12","yes","1024"
"100","100","702.6153846153846","702.6153846153846","black","experiment","legacy","legacy","legacy","0","uniform","1","undefined","1","right","12","12","12","12","0","0","12","0","0","12","12","12","0","12","0","Sun Oct 18 20:39:12 2020","The main experiment item","yes","SternbergTask.osexp","/Users/tforestmoore/Desktop/Tarleton/Fall 2020/Math/Lab3","no","mono","no","18","no","white","no","yes","768","legacy","0","11","/Users/tforestmoore/Desktop/Tarleton/Fall 2020/Math/Lab3/subject-1.csv","legacy","6 3 1 7 9 8","Lentiform Loewenfeld","3.3.3","0","n","0","right","right","left","right","NA","674","23855","18100","674","NA","2","legacy","6","1024","2","48000","-16","experiment","1","odd","4","118625","120862","99390","118609","3335","118550","NA","3353","100449","119644","122880","123555","27221","122880","NA","Sternberg Task","13","9134","13","yes","1024"
"100","100","683.5714285714286","683.5714285714286","black","experiment","legacy","legacy","legacy","0","uniform","1","undefined","1","left","13","13","13","13","0","0","13","0","0","13","13","13","0","13","0","Sun Oct 18 20:39:12 2020","The main experiment item","yes","SternbergTask.osexp","/Users/tforestmoore/Desktop/Tarleton/Fall 2020/Math/Lab3","no","mono","no","18","no","white","no","yes","768","legacy","1","11","/Users/tforestmoore/Desktop/Tarleton/Fall 2020/Math/Lab3/subject-1.csv","legacy","6 5","Lentiform Loewenfeld","3.3.3","2","y","0","left","right","left","left","NA","436","23855","18100","436","NA","2","legacy","2","1024","2","48000","-16","experiment","1","odd","5","124668","126904","123574","124650","3335","118550","NA","3353","100449","125686","128922","129359","27221","128922","NA","Sternberg Task","14","9570","14","yes","1024"
"93.33333333333333","93.33333333333333","673.2","673.2","black","experiment","legacy","legacy","legacy","0","uniform","0","undefined","0","right","14","14","14","14","0","0","14","0","0","14","14","14","0","14","0","Sun Oct 18 20:39:12 2020","The main experiment item","yes","SternbergTask.osexp","/Users/tforestmoore/Desktop/Tarleton/Fall 2020/Math/Lab3","no","mono","no","18","no","white","no","yes","768","legacy","2","11","/Users/tforestmoore/Desktop/Tarleton/Fall 2020/Math/Lab3/subject-1.csv","legacy","8 4 3 5","Lentiform Loewenfeld","3.3.3","0","n","0","left","right","left","left","NA","528","23855","18100","528","NA","2","legacy","4","1024","2","48000","-16","experiment","1","odd","6","130458","132691","129379","130442","3335","118550","NA","3353","100449","131473","134714","135243","27221","134714","NA","Sternberg Task","14","10098","15","yes","1024"
"93.75","93.75","632.4375","632.4375","black","experiment","legacy","legacy","legacy","0","uniform","1","undefined","1","right","15","15","15","15","0","0","15","0","0","15","15","15","0","15","0","Sun Oct 18 20:39:12 2020","The main experiment item","yes","SternbergTask.osexp","/Users/tforestmoore/Desktop/Tarleton/Fall 2020/Math/Lab3","no","mono","no","18","no","white","no","yes","768","legacy","3","11","/Users/tforestmoore/Desktop/Tarleton/Fall 2020/Math/Lab3/subject-1.csv","legacy","7 4 2 8 1 9","Lentiform Loewenfeld","3.3.3","0","n","0","right","right","left","right","NA","21","23855","18100","21","NA","2","legacy","6","1024","2","48000","-16","experiment","1","odd","5","136355","138593","129379","136338","3335","118550","135261","3353","100449","137374","143984","144006","27221","140610","NA","Sternberg Task","15","10119","16","yes","1024"
"94.11764705882354","94.11764705882354","667.2941176470588","667.2941176470588","black","experiment","legacy","legacy","legacy","0","uniform","1","undefined","1","left","16","16","16","16","0","0","16","0","0","16","16","16","0","16","0","Sun Oct 18 20:39:12 2020","The main experiment item","yes","SternbergTask.osexp","/Users/tforestmoore/Desktop/Tarleton/Fall 2020/Math/Lab3","no","mono","no","18","no","white","no","yes","768","legacy","4","11","/Users/tforestmoore/Desktop/Tarleton/Fall 2020/Math/Lab3/subject-1.csv","legacy","4 7 6 8 2 3","Lentiform Loewenfeld","3.3.3","6","y","0","left","right","left","left","NA","1225","23855","18100","1225","NA","2","legacy","6","1024","2","48000","-16","experiment","1","odd","3","145144","147379","144026","145126","3335","118550","135261","3353","100449","146162","149398","150624","27221","149398","NA","Sternberg Task","16","11344","17","yes","1024"
"94.44444444444444","94.44444444444444","664.8888888888889","664.8888888888889","black","experiment","legacy","legacy","legacy","0","uniform","1","undefined","1","right","17","17","17","17","0","0","17","0","0","17","17","17","0","17","0","Sun Oct 18 20:39:12 2020","The main experiment item","yes","SternbergTask.osexp","/Users/tforestmoore/Desktop/Tarleton/Fall 2020/Math/Lab3","no","mono","no","18","no","white","no","yes","768","legacy","5","11","/Users/tforestmoore/Desktop/Tarleton/Fall 2020/Math/Lab3/subject-1.csv","legacy","9 5 3 2 8 6","Lentiform Loewenfeld","3.3.3","0","n","0","right","right","left","right","NA","624","23855","18100","624","NA","2","legacy","6","1024","2","48000","-16","experiment","1","odd","7","151735","153975","150644","151717","3335","118550","135261","3353","100449","152755","155994","156619","27221","155994","NA","Sternberg Task","17","11968","18","yes","1024"
"94.73684210526316","94.73684210526316","663.3684210526316","663.3684210526316","black","experiment","legacy","legacy","legacy","0","uniform","1","undefined","1","right","18","18","18","18","0","0","18","0","0","18","18","18","0","18","0","Sun Oct 18 20:39:12 2020","The main experiment item","yes","SternbergTask.osexp","/Users/tforestmoore/Desktop/Tarleton/Fall 2020/Math/Lab3","no","mono","no","18","no","white","no","yes","768","legacy","6","11","/Users/tforestmoore/Desktop/Tarleton/Fall 2020/Math/Lab3/subject-1.csv","legacy","2 8 9","Lentiform Loewenfeld","3.3.3","0","n","0","right","right","left","right","NA","636","23855","18100","636","NA","2","legacy","3","1024","2","48000","-16","experiment","1","odd","6","157734","159972","156640","157716","3335","118550","135261","3353","100449","158752","161991","162628","27221","161991","NA","Sternberg Task","18","12604","19","yes","1024"
"95","95","660.25","660.25","black","experiment","legacy","legacy","legacy","0","uniform","1","undefined","1","left","19","19","19","19","0","0","19","0","0","19","19","19","0","19","0","Sun Oct 18 20:39:12 2020","The main experiment item","yes","SternbergTask.osexp","/Users/tforestmoore/Desktop/Tarleton/Fall 2020/Math/Lab3","no","mono","no","18","no","white","no","yes","768","legacy","7","11","/Users/tforestmoore/Desktop/Tarleton/Fall 2020/Math/Lab3/subject-1.csv","legacy","3 9 7 6 4","Lentiform Loewenfeld","3.3.3","3","y","0","left","right","left","left","NA","601","23855","18100","601","NA","2","legacy","5","1024","2","48000","-16","experiment","1","odd","7","163740","165981","162648","163721","3335","118550","135261","3353","100449","164762","167999","168602","27221","167999","NA","Sternberg Task","19","13205","20","yes","1024"
"95.23809523809524","95.23809523809524","660.0952380952381","660.0952380952381","black","experiment","legacy","legacy","legacy","0","uniform","1","undefined","1","left","20","20","20","20","0","0","20","0","0","20","20","20","0","20","0","Sun Oct 18 20:39:12 2020","The main experiment item","yes","SternbergTask.osexp","/Users/tforestmoore/Desktop/Tarleton/Fall 2020/Math/Lab3","no","mono","no","18","no","white","no","yes","768","legacy","8","11","/Users/tforestmoore/Desktop/Tarleton/Fall 2020/Math/Lab3/subject-1.csv","legacy","5 2 9 6 1 7","Lentiform Loewenfeld","3.3.3","3","y","0","left","right","left","left","NA","657","23855","18100","657","NA","2","legacy","6","1024","2","48000","-16","experiment","1","odd","9","169716","171955","168621","169698","3335","118550","135261","3353","100449","170735","173973","174631","27221","173973","NA","Sternberg Task","20","13862","21","yes","1024"
"95.45454545454545","95.45454545454545","652.5909090909091","652.5909090909091","black","experiment","legacy","legacy","legacy","0","uniform","1","undefined","1","left","21","21","21","21","0","0","21","0","0","21","21","21","0","21","0","Sun Oct 18 20:39:12 2020","The main experiment item","yes","SternbergTask.osexp","/Users/tforestmoore/Desktop/Tarleton/Fall 2020/Math/Lab3","no","mono","no","18","no","white","no","yes","768","legacy","9","11","/Users/tforestmoore/Desktop/Tarleton/Fall 2020/Math/Lab3/subject-1.csv","legacy","9 3 1 2 5","Lentiform Loewenfeld","3.3.3","4","y","0","left","right","left","left","NA","495","23855","18100","495","NA","2","legacy","5","1024","2","48000","-16","experiment","1","odd","2","175749","177989","174654","175730","3335","118550","135261","3353","100449","176769","180007","180503","27221","180006","NA","Sternberg Task","21","14357","22","yes","1024"
"95.65217391304348","95.65217391304348","642.1304347826087","642.1304347826087","black","experiment","legacy","legacy","legacy","0","uniform","1","undefined","1","right","22","22","22","22","0","0","22","0","0","22","22","22","0","22","0","Sun Oct 18 20:39:12 2020","The main experiment item","yes","SternbergTask.osexp","/Users/tforestmoore/Desktop/Tarleton/Fall 2020/Math/Lab3","no","mono","no","18","no","white","no","yes","768","legacy","10","11","/Users/tforestmoore/Desktop/Tarleton/Fall 2020/Math/Lab3/subject-1.csv","legacy","7 1","Lentiform Loewenfeld","3.3.3","0","n","0","right","right","left","right","NA","412","23855","18100","412","NA","2","legacy","2","1024","2","48000","-16","experiment","1","odd","8","181614","183853","180521","181594","3335","118550","135261","3353","100449","182633","185872","186285","27221","185872","NA","Sternberg Task","22","14769","23","yes","1024"
"95.83333333333333","95.83333333333333","634.8333333333334","634.8333333333334","black","experiment","legacy","legacy","legacy","0","uniform","1","undefined","1","left","23","23","23","23","0","0","23","0","0","23","23","23","0","23","0","Sun Oct 18 20:39:12 2020","The main experiment item","yes","SternbergTask.osexp","/Users/tforestmoore/Desktop/Tarleton/Fall 2020/Math/Lab3","no","mono","no","18","no","white","no","yes","768","legacy","11","11","/Users/tforestmoore/Desktop/Tarleton/Fall 2020/Math/Lab3/subject-1.csv","legacy","9 1 7 2","Lentiform Loewenfeld","3.3.3","2","y","0","left","right","left","left","NA","467","23855","18100","467","NA","2","legacy","4","1024","2","48000","-16","experiment","1","odd","1","187403","189648","186309","187385","3335","118550","135261","3353","100449","188426","191666","192134","27221","191666","NA","Sternberg Task","23","15236","24","yes","1024"
"96","96","634.44","634.44","black","experiment","legacy","legacy","legacy","0","uniform","1","undefined","1","right","24","24","24","24","0","0","24","0","0","24","24","24","0","24","0","Sun Oct 18 20:39:12 2020","The main experiment item","yes","SternbergTask.osexp","/Users/tforestmoore/Desktop/Tarleton/Fall 2020/Math/Lab3","no","mono","no","18","no","white","no","yes","768","legacy","12","11","/Users/tforestmoore/Desktop/Tarleton/Fall 2020/Math/Lab3/subject-1.csv","legacy","3 9 1","Lentiform Loewenfeld","3.3.3","0","n","0","right","right","left","right","NA","625","23855","18100","625","NA","2","legacy","3","1024","2","48000","-16","experiment","1","odd","7","193247","195486","192152","193229","3335","118550","135261","3353","100449","194266","197505","198131","27221","197505","NA","Sternberg Task","24","15861","25","yes","1024"
"96.15384615384616","96.15384615384616","637.3846153846154","637.3846153846154","black","experiment","legacy","legacy","legacy","0","uniform","1","undefined","1","right","25","25","25","25","0","0","25","0","0","25","25","25","0","25","0","Sun Oct 18 20:39:12 2020","The main experiment item","yes","SternbergTask.osexp","/Users/tforestmoore/Desktop/Tarleton/Fall 2020/Math/Lab3","no","mono","no","18","no","white","no","yes","768","legacy","13","11","/Users/tforestmoore/Desktop/Tarleton/Fall 2020/Math/Lab3/subject-1.csv","legacy","6 2 9 3 8 4","Lentiform Loewenfeld","3.3.3","0","n","0","right","right","left","right","NA","711","23855","18100","711","NA","2","legacy","6","1024","2","48000","-16","experiment","1","odd","1","199243","201487","198150","199225","3335","118550","135261","3353","100449","200265","203505","204217","27221","203505","NA","Sternberg Task","25","16572","26","yes","1024"
"96.29629629629629","96.29629629629629","631.8888888888889","631.8888888888889","black","experiment","legacy","legacy","legacy","0","uniform","1","undefined","1","right","26","26","26","26","0","0","26","0","0","26","26","26","0","26","0","Sun Oct 18 20:39:12 2020","The main experiment item","yes","SternbergTask.osexp","/Users/tforestmoore/Desktop/Tarleton/Fall 2020/Math/Lab3","no","mono","no","18","no","white","no","yes","768","legacy","14","11","/Users/tforestmoore/Desktop/Tarleton/Fall 2020/Math/Lab3/subject-1.csv","legacy","6 8","Lentiform Loewenfeld","3.3.3","0","n","0","right","right","left","right","NA","489","23855","18100","489","NA","2","legacy","2","1024","2","48000","-16","experiment","1","odd","9","205329","207570","204235","205311","3335","118550","135261","3353","100449","206348","209589","210079","27221","209589","NA","Sternberg Task","26","17061","27","yes","1024"
"96.42857142857143","96.42857142857143","623.8571428571429","623.8571428571429","black","experiment","legacy","legacy","legacy","0","uniform","1","undefined","1","right","27","27","27","27","0","0","27","0","0","27","27","27","0","27","0","Sun Oct 18 20:39:12 2020","The main experiment item","yes","SternbergTask.osexp","/Users/tforestmoore/Desktop/Tarleton/Fall 2020/Math/Lab3","no","mono","no","18","no","white","no","yes","768","legacy","15","11","/Users/tforestmoore/Desktop/Tarleton/Fall 2020/Math/Lab3/subject-1.csv","legacy","4 1","Lentiform Loewenfeld","3.3.3","0","n","0","right","right","left","right","NA","407","23855","18100","407","NA","2","legacy","2","1024","2","48000","-16","experiment","1","odd","6","211194","213435","210097","211176","3335","118550","135261","3353","100449","212213","215454","215862","27221","215453","NA","Sternberg Task","27","17468","28","yes","1024"
"93.10344827586206","93.10344827586206","624.9655172413793","624.9655172413793","black","experiment","legacy","legacy","legacy","0","uniform","0","undefined","0","right","28","28","28","28","0","0","28","0","0","28","28","28","0","28","0","Sun Oct 18 20:39:12 2020","The main experiment item","yes","SternbergTask.osexp","/Users/tforestmoore/Desktop/Tarleton/Fall 2020/Math/Lab3","no","mono","no","18","no","white","no","yes","768","legacy","16","11","/Users/tforestmoore/Desktop/Tarleton/Fall 2020/Math/Lab3/subject-1.csv","legacy","7 9","Lentiform Loewenfeld","3.3.3","0","n","0","left","right","left","left","NA","656","23855","18100","656","NA","2","legacy","2","1024","2","48000","-16","experiment","1","odd","1","216977","219216","215882","216959","3335","118550","135261","3353","100449","217996","221235","221892","27221","221234","NA","Sternberg Task","27","18124","29","yes","1024"
"93.33333333333333","93.33333333333333","640.9666666666667","640.9666666666667","black","experiment","legacy","legacy","legacy","0","uniform","1","undefined","1","right","29","29","29","29","0","0","29","0","0","29","29","29","0","29","0","Sun Oct 18 20:39:12 2020","The main experiment item","yes","SternbergTask.osexp","/Users/tforestmoore/Desktop/Tarleton/Fall 2020/Math/Lab3","no","mono","no","18","no","white","no","yes","768","legacy","17","11","/Users/tforestmoore/Desktop/Tarleton/Fall 2020/Math/Lab3/subject-1.csv","legacy","7 1 8 4 9 3","Lentiform Loewenfeld","3.3.3","0","n","0","right","right","left","right","NA","1105","23855","18100","1105","NA","2","legacy","6","1024","2","48000","-16","experiment","1","odd","6","223005","225246","215882","222988","3335","118550","221911","3353","100449","224024","227265","228371","27221","227264","NA","Sternberg Task","28","19229","30","yes","1024"
"93.54838709677419","93.54838709677419","649.4516129032259","649.4516129032259","black","experiment","legacy","legacy","legacy","0","uniform","1","undefined","1","left","30","30","30","30","0","0","30","0","0","30","30","30","0","30","0","Sun Oct 18 20:39:12 2020","The main experiment item","yes","SternbergTask.osexp","/Users/tforestmoore/Desktop/Tarleton/Fall 2020/Math/Lab3","no","mono","no","18","no","white","no","yes","768","legacy","18","11","/Users/tforestmoore/Desktop/Tarleton/Fall 2020/Math/Lab3/subject-1.csv","legacy","9 5 3 8 4","Lentiform Loewenfeld","3.3.3","1","y","0","left","right","left","left","NA","904","23855","18100","904","NA","2","legacy","5","1024","2","48000","-16","experiment","1","odd","9","229485","231725","228390","229467","3335","118550","221911","3353","100449","230504","233744","234650","27221","233743","NA","Sternberg Task","29","20133","31","yes","1024"
"93.75","93.75","641.9375","641.9375","black","experiment","legacy","legacy","legacy","0","uniform","1","undefined","1","left","31","31","31","31","0","0","31","0","0","31","31","31","0","31","0","Sun Oct 18 20:39:12 2020","The main experiment item","yes","SternbergTask.osexp","/Users/tforestmoore/Desktop/Tarleton/Fall 2020/Math/Lab3","no","mono","no","18","no","white","no","yes","768","legacy","19","11","/Users/tforestmoore/Desktop/Tarleton/Fall 2020/Math/Lab3/subject-1.csv","legacy","7","Lentiform Loewenfeld","3.3.3","1","y","0","left","right","left","left","NA","409","23855","18100","409","NA","2","legacy","1","1024","2","48000","-16","experiment","1","odd","7","235763","237997","234668","235745","3335","118550","221911","3353","100449","236779","240011","240421","27221","240011","NA","Sternberg Task","30","20542","32","yes","1024"
"93.93939393939394","93.93939393939394","645.8484848484849","645.8484848484849","black","experiment","legacy","legacy","legacy","0","uniform","1","undefined","1","left","32","32","32","32","0","0","32","0","0","32","32","32","0","32","0","Sun Oct 18 20:39:12 2020","The main experiment item","yes","SternbergTask.osexp","/Users/tforestmoore/Desktop/Tarleton/Fall 2020/Math/Lab3","no","mono","no","18","no","white","no","yes","768","legacy","20","11","/Users/tforestmoore/Desktop/Tarleton/Fall 2020/Math/Lab3/subject-1.csv","legacy","4 3 2 5 8","Lentiform Loewenfeld","3.3.3","2","y","0","left","right","left","left","NA","771","23855","18100","771","NA","2","legacy","5","1024","2","48000","-16","experiment","1","odd","3","241517","243753","240441","241501","3335","118550","221911","3353","100449","242535","245769","246541","27221","245769","NA","Sternberg Task","31","21313","33","yes","1024"
"94.11764705882354","94.11764705882354","644.7941176470588","644.7941176470588","black","experiment","legacy","legacy","legacy","0","uniform","1","undefined","1","right","33","33","33","33","0","0","33","0","0","33","33","33","0","33","0","Sun Oct 18 20:39:12 2020","The main experiment item","yes","SternbergTask.osexp","/Users/tforestmoore/Desktop/Tarleton/Fall 2020/Math/Lab3","no","mono","no","18","no","white","no","yes","768","legacy","21","11","/Users/tforestmoore/Desktop/Tarleton/Fall 2020/Math/Lab3/subject-1.csv","legacy","3 9 8 1 6 4","Lentiform Loewenfeld","3.3.3","0","n","0","right","right","left","right","NA","610","23855","18100","610","NA","2","legacy","6","1024","2","48000","-16","experiment","1","odd","7","247652","249895","246559","247634","3335","118550","221911","3353","100449","248675","251915","252526","27221","251915","NA","Sternberg Task","32","21923","34","yes","1024"
"94.28571428571429","94.28571428571429","644.5428571428571","644.5428571428571","black","experiment","legacy","legacy","legacy","0","uniform","1","undefined","1","left","34","34","34","34","0","0","34","0","0","34","34","34","0","34","0","Sun Oct 18 20:39:12 2020","The main experiment item","yes","SternbergTask.osexp","/Users/tforestmoore/Desktop/Tarleton/Fall 2020/Math/Lab3","no","mono","no","18","no","white","no","yes","768","legacy","22","11","/Users/tforestmoore/Desktop/Tarleton/Fall 2020/Math/Lab3/subject-1.csv","legacy","6 7 8 5","Lentiform Loewenfeld","3.3.3","3","y","0","left","right","left","left","NA","636","23855","18100","636","NA","2","legacy","4","1024","2","48000","-16","experiment","1","odd","8","253638","255877","252544","253620","3335","118550","221911","3353","100449","254657","257896","258534","27221","257896","NA","Sternberg Task","33","22559","35","yes","1024"
"91.66666666666667","91.66666666666667","648.7222222222222","648.7222222222222","black","experiment","legacy","legacy","legacy","0","uniform","0","undefined","0","right","35","35","35","35","0","0","35","0","0","35","35","35","0","35","0","Sun Oct 18 20:39:12 2020","The main experiment item","yes","SternbergTask.osexp","/Users/tforestmoore/Desktop/Tarleton/Fall 2020/Math/Lab3","no","mono","no","18","no","white","no","yes","768","legacy","23","11","/Users/tforestmoore/Desktop/Tarleton/Fall 2020/Math/Lab3/subject-1.csv","legacy","1 5 3 2 8","Lentiform Loewenfeld","3.3.3","0","n","0","left","right","left","left","NA","795","23855","18100","795","NA","2","legacy","5","1024","2","48000","-16","experiment","1","odd","4","259645","261885","258552","259627","3335","118550","221911","3353","100449","260664","263903","264699","27221","263903","NA","Sternberg Task","33","23354","36","yes","1024"
"91.89189189189189","91.89189189189189","648.4324324324324","648.4324324324324","black","experiment","legacy","legacy","legacy","0","uniform","1","undefined","1","left","36","36","36","36","0","0","36","0","0","36","36","36","0","36","0","Sun Oct 18 20:39:12 2020","The main experiment item","yes","SternbergTask.osexp","/Users/tforestmoore/Desktop/Tarleton/Fall 2020/Math/Lab3","no","mono","no","18","no","white","no","yes","768","legacy","24","11","/Users/tforestmoore/Desktop/Tarleton/Fall 2020/Math/Lab3/subject-1.csv","legacy","9 5 8 1","Lentiform Loewenfeld","3.3.3","2","y","0","left","right","left","left","NA","638","23855","18100","638","NA","2","legacy","4","1024","2","48000","-16","experiment","1","odd","5","265816","268056","258552","265798","3335","118550","264721","3353","100449","266836","270078","270717","27221","270078","NA","Sternberg Task","34","23992","37","yes","1024"
"92.10526315789474","92.10526315789474","651.078947368421","651.078947368421","black","experiment","legacy","legacy","legacy","0","uniform","1","undefined","1","left","37","37","37","37","0","0","37","0","0","37","37","37","0","37","0","Sun Oct 18 20:39:12 2020","The main experiment item","yes","SternbergTask.osexp","/Users/tforestmoore/Desktop/Tarleton/Fall 2020/Math/Lab3","no","mono","no","18","no","white","no","yes","768","legacy","25","11","/Users/tforestmoore/Desktop/Tarleton/Fall 2020/Math/Lab3/subject-1.csv","legacy","2 3","Lentiform Loewenfeld","3.3.3","1","y","0","left","right","left","left","NA","749","23855","18100","749","NA","2","legacy","2","1024","2","48000","-16","experiment","1","odd","2","271829","274069","270736","271811","3335","118550","264721","3353","100449","272848","276087","276837","27221","276087","NA","Sternberg Task","35","24741","38","yes","1024"
"92.3076923076923","92.3076923076923","655.2820512820513","655.2820512820513","black","experiment","legacy","legacy","legacy","0","uniform","1","undefined","1","right","38","38","38","38","0","0","38","0","0","38","38","38","0","38","0","Sun Oct 18 20:39:12 2020","The main experiment item","yes","SternbergTask.osexp","/Users/tforestmoore/Desktop/Tarleton/Fall 2020/Math/Lab3","no","mono","no","18","no","white","no","yes","768","legacy","26","11","/Users/tforestmoore/Desktop/Tarleton/Fall 2020/Math/Lab3/subject-1.csv","legacy","7 3 2 8","Lentiform Loewenfeld","3.3.3","0","n","0","right","right","left","right","NA","815","23855","18100","815","NA","2","legacy","4","1024","2","48000","-16","experiment","1","odd","4","277950","280189","276856","277932","3335","118550","264721","3353","100449","278969","282208","283024","27221","282208","NA","Sternberg Task","36","25556","39","yes","1024"
"92.5","92.5","656.375","656.375","black","experiment","legacy","legacy","legacy","0","uniform","1","undefined","1","left","39","39","39","39","0","0","39","0","0","39","39","39","0","39","0","Sun Oct 18 20:39:12 2020","The main experiment item","yes","SternbergTask.osexp","/Users/tforestmoore/Desktop/Tarleton/Fall 2020/Math/Lab3","no","mono","no","18","no","white","no","yes","768","legacy","27","11","/Users/tforestmoore/Desktop/Tarleton/Fall 2020/Math/Lab3/subject-1.csv","legacy","9 6 2 4 1","Lentiform Loewenfeld","3.3.3","4","y","0","left","right","left","left","NA","699","23855","18100","699","NA","2","legacy","5","1024","2","48000","-16","experiment","1","odd","4","284134","286368","283043","284116","3335","118550","264721","3353","100449","285150","288388","289088","27221","288388","NA","Sternberg Task","37","26255","40","yes","1024"
"92.6829268292683","92.6829268292683","654.6829268292682","654.6829268292682","black","experiment","legacy","legacy","legacy","0","uniform","1","undefined","1","right","40","40","40","40","0","0","40","0","0","40","40","40","0","40","0","Sun Oct 18 20:39:12 2020","The main experiment item","yes","SternbergTask.osexp","/Users/tforestmoore/Desktop/Tarleton/Fall 2020/Math/Lab3","no","mono","no","18","no","white","no","yes","768","legacy","28","11","/Users/tforestmoore/Desktop/Tarleton/Fall 2020/Math/Lab3/subject-1.csv","legacy","9 7 4 5 8","Lentiform Loewenfeld","3.3.3","0","n","0","right","right","left","right","NA","587","23855","18100","587","NA","2","legacy","5","1024","2","48000","-16","experiment","1","odd","6","290202","292443","289108","290184","3335","118550","264721","3353","100449","291221","294462","295050","27221","294462","NA","Sternberg Task","38","26842","41","yes","1024"
"92.85714285714286","92.85714285714286","655.8333333333334","655.8333333333334","black","experiment","legacy","legacy","legacy","0","uniform","1","undefined","1","left","41","41","41","41","0","0","41","0","0","41","41","41","0","41","0","Sun Oct 18 20:39:12 2020","The main experiment item","yes","SternbergTask.osexp","/Users/tforestmoore/Desktop/Tarleton/Fall 2020/Math/Lab3","no","mono","no","18","no","white","no","yes","768","legacy","29","11","/Users/tforestmoore/Desktop/Tarleton/Fall 2020/Math/Lab3/subject-1.csv","legacy","4 6 2 5 1","Lentiform Loewenfeld","3.3.3","5","y","0","left","right","left","left","NA","703","23855","18100","703","NA","2","legacy","5","1024","2","48000","-16","experiment","1","odd","1","296163","298403","295068","296145","3335","118550","264721","3353","100449","297182","300422","301126","27221","300422","NA","Sternberg Task","39","27545","42","yes","1024"
"93.02325581395348","93.02325581395348","658.7441860465116","658.7441860465116","black","experiment","legacy","legacy","legacy","0","uniform","1","undefined","1","left","42","42","42","42","0","0","42","0","0","42","42","42","0","42","0","Sun Oct 18 20:39:12 2020","The main experiment item","yes","SternbergTask.osexp","/Users/tforestmoore/Desktop/Tarleton/Fall 2020/Math/Lab3","no","mono","no","18","no","white","no","yes","768","legacy","30","11","/Users/tforestmoore/Desktop/Tarleton/Fall 2020/Math/Lab3/subject-1.csv","legacy","2 8 5 1","Lentiform Loewenfeld","3.3.3","4","y","0","left","right","left","left","NA","781","23855","18100","781","NA","2","legacy","4","1024","2","48000","-16","experiment","1","odd","1","302252","304488","301144","302230","3335","118550","264721","3353","100449","303271","306508","307291","27221","306508","NA","Sternberg Task","40","28326","43","yes","1024"
"93.18181818181819","93.18181818181819","663.2954545454545","663.2954545454545","black","experiment","legacy","legacy","legacy","0","uniform","1","undefined","1","left","43","43","43","43","0","0","43","0","0","43","43","43","0","43","0","Sun Oct 18 20:39:12 2020","The main experiment item","yes","SternbergTask.osexp","/Users/tforestmoore/Desktop/Tarleton/Fall 2020/Math/Lab3","no","mono","no","18","no","white","no","yes","768","legacy","31","11","/Users/tforestmoore/Desktop/Tarleton/Fall 2020/Math/Lab3/subject-1.csv","legacy","5 7 3 6 2","Lentiform Loewenfeld","3.3.3","5","y","0","left","right","left","left","NA","859","23855","18100","859","NA","2","legacy","5","1024","2","48000","-16","experiment","1","odd","2","308405","310645","307311","308387","3335","118550","264721","3353","100449","309424","312664","313524","27221","312664","NA","Sternberg Task","41","29185","44","yes","1024"
"93.33333333333333","93.33333333333333","663.8888888888889","663.8888888888889","black","experiment","legacy","legacy","legacy","0","uniform","1","undefined","1","right","44","44","44","44","0","0","44","0","0","44","44","44","0","44","0","Sun Oct 18 20:39:12 2020","The main experiment item","yes","SternbergTask.osexp","/Users/tforestmoore/Desktop/Tarleton/Fall 2020/Math/Lab3","no","mono","no","18","no","white","no","yes","768","legacy","32","11","/Users/tforestmoore/Desktop/Tarleton/Fall 2020/Math/Lab3/subject-1.csv","legacy","1 4 3 6 5","Lentiform Loewenfeld","3.3.3","0","n","0","right","right","left","right","NA","690","23855","18100","690","NA","2","legacy","5","1024","2","48000","-16","experiment","1","odd","8","314637","316878","313543","314619","3335","118550","264721","3353","100449","315657","318897","319588","27221","318897","NA","Sternberg Task","42","29875","45","yes","1024"
"93.47826086956522","93.47826086956522","663.2173913043479","663.2173913043479","black","experiment","legacy","legacy","legacy","0","uniform","1","undefined","1","left","45","45","45","45","0","0","45","0","0","45","45","45","0","45","0","Sun Oct 18 20:39:12 2020","The main experiment item","yes","SternbergTask.osexp","/Users/tforestmoore/Desktop/Tarleton/Fall 2020/Math/Lab3","no","mono","no","18","no","white","no","yes","768","legacy","33","11","/Users/tforestmoore/Desktop/Tarleton/Fall 2020/Math/Lab3/subject-1.csv","legacy","3 9 6 2","Lentiform Loewenfeld","3.3.3","4","y","0","left","right","left","left","NA","633","23855","18100","633","NA","2","legacy","4","1024","2","48000","-16","experiment","1","odd","2","320702","322942","319608","320684","3335","118550","264721","3353","100449","321721","324961","325596","27221","324960","NA","Sternberg Task","43","30508","46","yes","1024"
"93.61702127659575","93.61702127659575","662.8936170212766","662.8936170212766","black","experiment","legacy","legacy","legacy","0","uniform","1","undefined","1","right","46","46","46","46","0","0","46","0","0","46","46","46","0","46","0","Sun Oct 18 20:39:12 2020","The main experiment item","yes","SternbergTask.osexp","/Users/tforestmoore/Desktop/Tarleton/Fall 2020/Math/Lab3","no","mono","no","18","no","white","no","yes","768","legacy","34","11","/Users/tforestmoore/Desktop/Tarleton/Fall 2020/Math/Lab3/subject-1.csv","legacy","7 8 6 1","Lentiform Loewenfeld","3.3.3","0","n","0","right","right","left","right","NA","648","23855","18100","648","NA","2","legacy","4","1024","2","48000","-16","experiment","1","odd","3","326722","328960","325614","326699","3335","118550","264721","3353","100449","327741","330976","331625","27221","330976","NA","Sternberg Task","44","31156","47","yes","1024"
"91.66666666666667","91.66666666666667","666.2916666666666","666.2916666666666","black","experiment","legacy","legacy","legacy","0","uniform","0","undefined","0","right","47","47","47","47","0","0","47","0","0","47","47","47","0","47","0","Sun Oct 18 20:39:12 2020","The main experiment item","yes","SternbergTask.osexp","/Users/tforestmoore/Desktop/Tarleton/Fall 2020/Math/Lab3","no","mono","no","18","no","white","no","yes","768","legacy","35","11","/Users/tforestmoore/Desktop/Tarleton/Fall 2020/Math/Lab3/subject-1.csv","legacy","6 9 4 5 2","Lentiform Loewenfeld","3.3.3","0","n","0","left","right","left","left","NA","826","23855","18100","826","NA","2","legacy","5","1024","2","48000","-16","experiment","1","odd","1","332739","334978","331644","332720","3335","118550","264721","3353","100449","333758","336997","337824","27221","336997","NA","Sternberg Task","44","31982","48","yes","1024"
"91.83673469387755","91.83673469387755","665.1020408163265","665.1020408163265","black","experiment","legacy","legacy","legacy","0","uniform","1","undefined","1","left","48","48","48","48","0","0","48","0","0","48","48","48","0","48","0","Sun Oct 18 20:39:12 2020","The main experiment item","yes","SternbergTask.osexp","/Users/tforestmoore/Desktop/Tarleton/Fall 2020/Math/Lab3","no","mono","no","18","no","white","no","yes","768","legacy","36","11","/Users/tforestmoore/Desktop/Tarleton/Fall 2020/Math/Lab3/subject-1.csv","legacy","3 5 9 6 2 4","Lentiform Loewenfeld","3.3.3","1","y","0","left","right","left","left","NA","608","23855","18100","608","NA","2","legacy","6","1024","2","48000","-16","experiment","1","odd","3","338942","341181","331644","338924","3335","118550","337848","3353","100449","339961","343200","343809","27221","343200","NA","Sternberg Task","45","32590","49","yes","1024"
"92","92","664.12","664.12","black","experiment","legacy","legacy","legacy","0","uniform","1","undefined","1","right","49","49","49","49","0","0","49","0","0","49","49","49","0","49","0","Sun Oct 18 20:39:12 2020","The main experiment item","yes","SternbergTask.osexp","/Users/tforestmoore/Desktop/Tarleton/Fall 2020/Math/Lab3","no","mono","no","18","no","white","no","yes","768","legacy","37","11","/Users/tforestmoore/Desktop/Tarleton/Fall 2020/Math/Lab3/subject-1.csv","legacy","5","Lentiform Loewenfeld","3.3.3","0","n","0","right","right","left","right","NA","616","23855","18100","616","NA","2","legacy","1","1024","2","48000","-16","experiment","1","odd","8","344929","347169","343827","344909","3335","118550","337848","3353","100449","345949","349188","349806","27221","349187","NA","Sternberg Task","46","33206","50","yes","1024"
"92.15686274509804","92.15686274509804","662.4509803921569","662.4509803921569","black","experiment","legacy","legacy","legacy","0","uniform","1","undefined","1","left","50","50","50","50","0","0","50","0","0","50","50","50","0","50","0","Sun Oct 18 20:39:12 2020","The main experiment item","yes","SternbergTask.osexp","/Users/tforestmoore/Desktop/Tarleton/Fall 2020/Math/Lab3","no","mono","no","18","no","white","no","yes","768","legacy","38","11","/Users/tforestmoore/Desktop/Tarleton/Fall 2020/Math/Lab3/subject-1.csv","legacy","8 7 3","Lentiform Loewenfeld","3.3.3","1","y","0","left","right","left","left","NA","579","23855","18100","579","NA","2","legacy","3","1024","2","48000","-16","experiment","1","odd","8","350919","353158","349825","350901","3335","118550","337848","3353","100449","351937","355177","355757","27221","355177","NA","Sternberg Task","47","33785","51","yes","1024"
"92.3076923076923","92.3076923076923","662.9807692307693","662.9807692307693","black","experiment","legacy","legacy","legacy","0","uniform","1","undefined","1","right","51","51","51","51","0","0","51","0","0","51","51","51","0","51","0","Sun Oct 18 20:39:12 2020","The main experiment item","yes","SternbergTask.osexp","/Users/tforestmoore/Desktop/Tarleton/Fall 2020/Math/Lab3","no","mono","no","18","no","white","no","yes","768","legacy","39","11","/Users/tforestmoore/Desktop/Tarleton/Fall 2020/Math/Lab3/subject-1.csv","legacy","1 7 5 2","Lentiform Loewenfeld","3.3.3","0","n","0","right","right","left","right","NA","690","23855","18100","690","NA","2","legacy","4","1024","2","48000","-16","experiment","1","odd","3","356871","359110","355778","356853","3335","118550","337848","3353","100449","357890","361130","361821","27221","361129","NA","Sternberg Task","48","34475","52","yes","1024"
"90.56603773584905","90.56603773584905","666.1320754716982","666.1320754716982","black","experiment","legacy","legacy","legacy","0","uniform","0","undefined","0","left","52","52","52","52","0","0","52","0","0","52","52","52","0","52","0","Sun Oct 18 20:39:12 2020","The main experiment item","yes","SternbergTask.osexp","/Users/tforestmoore/Desktop/Tarleton/Fall 2020/Math/Lab3","no","mono","no","18","no","white","no","yes","768","legacy","40","11","/Users/tforestmoore/Desktop/Tarleton/Fall 2020/Math/Lab3/subject-1.csv","legacy","6 9 3 1","Lentiform Loewenfeld","3.3.3","4","y","0","right","right","left","right","NA","830","23855","18100","830","NA","2","legacy","4","1024","2","48000","-16","experiment","1","odd","1","362943","365181","361839","362922","3335","118550","337848","3353","100449","363962","367199","368030","27221","367199","NA","Sternberg Task","48","35305","53","yes","1024"
"90.74074074074075","90.74074074074075","666","666","black","experiment","legacy","legacy","legacy","0","uniform","1","undefined","1","right","53","53","53","53","0","0","53","0","0","53","53","53","0","53","0","Sun Oct 18 20:39:12 2020","The main experiment item","yes","SternbergTask.osexp","/Users/tforestmoore/Desktop/Tarleton/Fall 2020/Math/Lab3","no","mono","no","18","no","white","no","yes","768","legacy","41","11","/Users/tforestmoore/Desktop/Tarleton/Fall 2020/Math/Lab3/subject-1.csv","legacy","2 7 5","Lentiform Loewenfeld","3.3.3","0","n","0","right","right","left","right","NA","659","23855","18100","659","NA","2","legacy","3","1024","2","48000","-16","experiment","1","odd","8","369142","371382","361839","369124","3335","118550","368048","3353","100449","370161","373400","374060","27221","373400","NA","Sternberg Task","49","35964","54","yes","1024"
"90.9090909090909","90.9090909090909","662.9818181818182","662.9818181818182","black","experiment","legacy","legacy","legacy","0","uniform","1","undefined","1","left","54","54","54","54","0","0","54","0","0","54","54","54","0","54","0","Sun Oct 18 20:39:12 2020","The main experiment item","yes","SternbergTask.osexp","/Users/tforestmoore/Desktop/Tarleton/Fall 2020/Math/Lab3","no","mono","no","18","no","white","no","yes","768","legacy","42","11","/Users/tforestmoore/Desktop/Tarleton/Fall 2020/Math/Lab3/subject-1.csv","legacy","4","Lentiform Loewenfeld","3.3.3","1","y","0","left","right","left","left","NA","500","23855","18100","500","NA","2","legacy","1","1024","2","48000","-16","experiment","1","odd","4","375172","377413","374078","375155","3335","118550","368048","3353","100449","376192","379433","379933","27221","379433","NA","Sternberg Task","50","36464","55","yes","1024"
"91.07142857142857","91.07142857142857","662.1071428571429","662.1071428571429","black","experiment","legacy","legacy","legacy","0","uniform","1","undefined","1","left","55","55","55","55","0","0","55","0","0","55","55","55","0","55","0","Sun Oct 18 20:39:12 2020","The main experiment item","yes","SternbergTask.osexp","/Users/tforestmoore/Desktop/Tarleton/Fall 2020/Math/Lab3","no","mono","no","18","no","white","no","yes","768","legacy","43","11","/Users/tforestmoore/Desktop/Tarleton/Fall 2020/Math/Lab3/subject-1.csv","legacy","8 1 6","Lentiform Loewenfeld","3.3.3","3","y","0","left","right","left","left","NA","614","23855","18100","614","NA","2","legacy","3","1024","2","48000","-16","experiment","1","odd","6","381045","383285","379951","381027","3335","118550","368048","3353","100449","382064","385303","385918","27221","385303","NA","Sternberg Task","51","37078","56","yes","1024"
"91.2280701754386","91.2280701754386","658.421052631579","658.421052631579","black","experiment","legacy","legacy","legacy","0","uniform","1","undefined","1","left","56","56","56","56","0","0","56","0","0","56","56","56","0","56","0","Sun Oct 18 20:39:12 2020","The main experiment item","yes","SternbergTask.osexp","/Users/tforestmoore/Desktop/Tarleton/Fall 2020/Math/Lab3","no","mono","no","18","no","white","no","yes","768","legacy","44","11","/Users/tforestmoore/Desktop/Tarleton/Fall 2020/Math/Lab3/subject-1.csv","legacy","8 9 6 1","Lentiform Loewenfeld","3.3.3","2","y","0","left","right","left","left","NA","452","23855","18100","452","NA","2","legacy","4","1024","2","48000","-16","experiment","1","odd","9","387033","389273","385938","387015","3335","118550","368048","3353","100449","388052","391293","391746","27221","391293","NA","Sternberg Task","52","37530","57","yes","1024"
"89.65517241379311","89.65517241379311","661.2068965517242","661.2068965517242","black","experiment","legacy","legacy","legacy","0","uniform","0","undefined","0","right","57","57","57","57","0","0","57","0","0","57","57","57","0","57","0","Sun Oct 18 20:39:12 2020","The main experiment item","yes","SternbergTask.osexp","/Users/tforestmoore/Desktop/Tarleton/Fall 2020/Math/Lab3","no","mono","no","18","no","white","no","yes","768","legacy","45","11","/Users/tforestmoore/Desktop/Tarleton/Fall 2020/Math/Lab3/subject-1.csv","legacy","7 9 1 6","Lentiform Loewenfeld","3.3.3","0","n","0","left","right","left","left","NA","820","23855","18100","820","NA","2","legacy","4","1024","2","48000","-16","experiment","1","odd","4","392855","395094","391764","392837","3335","118550","368048","3353","100449","393874","397112","397933","27221","397112","NA","Sternberg Task","52","38350","58","yes","1024"
"89.83050847457628","89.83050847457628","662.3050847457627","662.3050847457627","black","experiment","legacy","legacy","legacy","0","uniform","1","undefined","1","right","58","58","58","58","0","0","58","0","0","58","58","58","0","58","0","Sun Oct 18 20:39:12 2020","The main experiment item","yes","SternbergTask.osexp","/Users/tforestmoore/Desktop/Tarleton/Fall 2020/Math/Lab3","no","mono","no","18","no","white","no","yes","768","legacy","46","11","/Users/tforestmoore/Desktop/Tarleton/Fall 2020/Math/Lab3/subject-1.csv","legacy","3 4 9 6 7 8","Lentiform Loewenfeld","3.3.3","0","n","0","right","right","left","right","NA","726","23855","18100","726","NA","2","legacy","6","1024","2","48000","-16","experiment","1","odd","2","399045","401284","391764","399027","3335","118550","397952","3353","100449","400063","403303","404030","27221","403303","NA","Sternberg Task","53","39076","59","yes","1024"
"90","90","662.25","662.25","black","experiment","legacy","legacy","legacy","0","uniform","1","undefined","1","left","59","59","59","59","0","0","59","0","0","59","59","59","0","59","0","Sun Oct 18 20:39:12 2020","The main experiment item","yes","SternbergTask.osexp","/Users/tforestmoore/Desktop/Tarleton/Fall 2020/Math/Lab3","no","mono","no","18","no","white","no","yes","768","legacy","47","11","/Users/tforestmoore/Desktop/Tarleton/Fall 2020/Math/Lab3/subject-1.csv","legacy","7 4 2 6 3 5","Lentiform Loewenfeld","3.3.3","6","y","0","left","right","left","left","NA","659","23855","18100","659","NA","2","legacy","6","1024","2","48000","-16","experiment","1","odd","5","405142","407382","404048","405125","3335","118550","397952","3353","100449","406162","409400","410060","27221","409400","NA","Sternberg Task","54","39735","60","yes","1024"
"88.52459016393442","88.52459016393442","684.1803278688525","684.1803278688525","black","experiment","legacy","legacy","legacy","0","uniform","0","undefined","0","left","60","60","60","60","0","0","60","0","0","60","60","60","0","60","0","Sun Oct 18 20:39:12 2020","The main experiment item","yes","SternbergTask.osexp","/Users/tforestmoore/Desktop/Tarleton/Fall 2020/Math/Lab3","no","mono","no","18","no","white","no","yes","768","legacy","48","11","/Users/tforestmoore/Desktop/Tarleton/Fall 2020/Math/Lab3/subject-1.csv","legacy","8 5 1 3 9","Lentiform Loewenfeld","3.3.3","4","y","0","None","right","left","None","NA","2000","23855","18100","2000","NA","2","legacy","5","1024","2","48000","-16","experiment","1","odd","3","411175","413415","410079","411158","3335","118550","397952","3353","100449","412194","415434","417434","27221","415434","NA","Sternberg Task","54","41735","61","yes","1024"
"88.70967741935483","88.70967741935483","685.5806451612904","685.5806451612904","black","experiment","legacy","legacy","legacy","0","uniform","1","undefined","1","right","61","61","61","61","0","0","61","0","0","61","61","61","0","61","0","Sun Oct 18 20:39:12 2020","The main experiment item","yes","SternbergTask.osexp","/Users/tforestmoore/Desktop/Tarleton/Fall 2020/Math/Lab3","no","mono","no","18","no","white","no","yes","768","legacy","49","11","/Users/tforestmoore/Desktop/Tarleton/Fall 2020/Math/Lab3/subject-1.csv","legacy","8 4 3 9","Lentiform Loewenfeld","3.3.3","0","n","0","right","right","left","right","NA","771","23855","18100","771","NA","2","legacy","4","1024","2","48000","-16","experiment","1","odd","5","418545","420782","410079","418527","3335","118550","417452","3353","100449","419564","422800","423573","27221","422800","NA","Sternberg Task","55","42506","62","yes","1024"
"88.88888888888889","88.88888888888889","682.3015873015873","682.3015873015873","black","experiment","legacy","legacy","legacy","0","uniform","1","undefined","1","left","62","62","62","62","0","0","62","0","0","62","62","62","0","62","0","Sun Oct 18 20:39:12 2020","The main experiment item","yes","SternbergTask.osexp","/Users/tforestmoore/Desktop/Tarleton/Fall 2020/Math/Lab3","no","mono","no","18","no","white","no","yes","768","legacy","50","11","/Users/tforestmoore/Desktop/Tarleton/Fall 2020/Math/Lab3/subject-1.csv","legacy","4 1 5","Lentiform Loewenfeld","3.3.3","2","y","0","left","right","left","left","NA","479","23855","18100","479","NA","2","legacy","3","1024","2","48000","-16","experiment","1","odd","1","424697","426935","423591","424677","3335","118550","417452","3353","100449","425715","428954","429434","27221","428954","NA","Sternberg Task","56","42985","63","yes","1024"
"89.0625","89.0625","684.71875","684.71875","black","experiment","legacy","legacy","legacy","0","uniform","1","undefined","1","right","63","63","63","63","0","0","63","0","0","63","63","63","0","63","0","Sun Oct 18 20:39:12 2020","The main experiment item","yes","SternbergTask.osexp","/Users/tforestmoore/Desktop/Tarleton/Fall 2020/Math/Lab3","no","mono","no","18","no","white","no","yes","768","legacy","51","11","/Users/tforestmoore/Desktop/Tarleton/Fall 2020/Math/Lab3/subject-1.csv","legacy","5 3 2 6 9 8","Lentiform Loewenfeld","3.3.3","0","n","0","right","right","left","right","NA","837","23855","18100","837","NA","2","legacy","6","1024","2","48000","-16","experiment","1","odd","4","430548","432788","429453","430530","3335","118550","417452","3353","100449","431567","434806","435644","27221","434806","NA","Sternberg Task","57","43822","64","yes","1024"
"89.23076923076923","89.23076923076923","685.1384615384616","685.1384615384616","black","experiment","legacy","legacy","legacy","0","uniform","1","undefined","1","right","64","64","64","64","0","0","64","0","0","64","64","64","0","64","0","Sun Oct 18 20:39:12 2020","The main experiment item","yes","SternbergTask.osexp","/Users/tforestmoore/Desktop/Tarleton/Fall 2020/Math/Lab3","no","mono","no","18","no","white","no","yes","768","legacy","52","11","/Users/tforestmoore/Desktop/Tarleton/Fall 2020/Math/Lab3/subject-1.csv","legacy","6 9 4 5 3 2","Lentiform Loewenfeld","3.3.3","0","n","0","right","right","left","right","NA","712","23855","18100","712","NA","2","legacy","6","1024","2","48000","-16","experiment","1","odd","8","436760","439000","435664","436742","3335","118550","417452","3353","100449","437778","441017","441730","27221","441017","NA","Sternberg Task","58","44534","65","yes","1024"
"89.39393939393939","89.39393939393939","686.1666666666666","686.1666666666666","black","experiment","legacy","legacy","legacy","0","uniform","1","undefined","1","left","65","65","65","65","0","0","65","0","0","65","65","65","0","65","0","Sun Oct 18 20:39:12 2020","The main experiment item","yes","SternbergTask.osexp","/Users/tforestmoore/Desktop/Tarleton/Fall 2020/Math/Lab3","no","mono","no","18","no","white","no","yes","768","legacy","53","11","/Users/tforestmoore/Desktop/Tarleton/Fall 2020/Math/Lab3/subject-1.csv","legacy","2 5 4 8 7","Lentiform Loewenfeld","3.3.3","3","y","0","left","right","left","left","NA","753","23855","18100","753","NA","2","legacy","5","1024","2","48000","-16","experiment","1","odd","4","442853","445089","441748","442831","3335","118550","417452","3353","100449","443872","447107","447862","27221","447107","NA","Sternberg Task","59","45287","66","yes","1024"
"89.55223880597015","89.55223880597015","687.0895522388059","687.0895522388059","black","experiment","legacy","legacy","legacy","0","uniform","1","undefined","1","left","66","66","66","66","0","0","66","0","0","66","66","66","0","66","0","Sun Oct 18 20:39:12 2020","The main experiment item","yes","SternbergTask.osexp","/Users/tforestmoore/Desktop/Tarleton/Fall 2020/Math/Lab3","no","mono","no","18","no","white","no","yes","768","legacy","54","11","/Users/tforestmoore/Desktop/Tarleton/Fall 2020/Math/Lab3/subject-1.csv","legacy","8 9 5 6 7","Lentiform Loewenfeld","3.3.3","1","y","0","left","right","left","left","NA","748","23855","18100","748","NA","2","legacy","5","1024","2","48000","-16","experiment","1","odd","8","448975","451214","447880","448957","3335","118550","417452","3353","100449","449994","453232","453982","27221","453232","NA","Sternberg Task","60","46035","67","yes","1024"
"89.70588235294117","89.70588235294117","685.8823529411765","685.8823529411765","black","experiment","legacy","legacy","legacy","0","uniform","1","undefined","1","right","67","67","67","67","0","0","67","0","0","67","67","67","0","67","0","Sun Oct 18 20:39:12 2020","The main experiment item","yes","SternbergTask.osexp","/Users/tforestmoore/Desktop/Tarleton/Fall 2020/Math/Lab3","no","mono","no","18","no","white","no","yes","768","legacy","55","11","/Users/tforestmoore/Desktop/Tarleton/Fall 2020/Math/Lab3/subject-1.csv","legacy","8 9","Lentiform Loewenfeld","3.3.3","0","n","0","right","right","left","right","NA","605","23855","18100","605","NA","2","legacy","2","1024","2","48000","-16","experiment","1","odd","5","455091","457331","453999","455073","3335","118550","417452","3353","100449","456110","459349","459955","27221","459349","NA","Sternberg Task","61","46640","68","yes","1024"
"89.85507246376811","89.85507246376811","685.1739130434783","685.1739130434783","black","experiment","legacy","legacy","legacy","0","uniform","1","undefined","1","right","68","68","68","68","0","0","68","0","0","68","68","68","0","68","0","Sun Oct 18 20:39:12 2020","The main experiment item","yes","SternbergTask.osexp","/Users/tforestmoore/Desktop/Tarleton/Fall 2020/Math/Lab3","no","mono","no","18","no","white","no","yes","768","legacy","56","11","/Users/tforestmoore/Desktop/Tarleton/Fall 2020/Math/Lab3/subject-1.csv","legacy","5 3 8 7 2 4","Lentiform Loewenfeld","3.3.3","0","n","0","right","right","left","right","NA","637","23855","18100","637","NA","2","legacy","6","1024","2","48000","-16","experiment","1","odd","9","461067","463307","459974","461049","3335","118550","417452","3353","100449","462086","465325","465963","27221","465325","NA","Sternberg Task","62","47277","69","yes","1024"
"90","90","682.5428571428571","682.5428571428571","black","experiment","legacy","legacy","legacy","0","uniform","1","undefined","1","right","69","69","69","69","0","0","69","0","0","69","69","69","0","69","0","Sun Oct 18 20:39:12 2020","The main experiment item","yes","SternbergTask.osexp","/Users/tforestmoore/Desktop/Tarleton/Fall 2020/Math/Lab3","no","mono","no","18","no","white","no","yes","768","legacy","57","11","/Users/tforestmoore/Desktop/Tarleton/Fall 2020/Math/Lab3/subject-1.csv","legacy","1","Lentiform Loewenfeld","3.3.3","0","n","0","right","right","left","right","NA","501","23855","18100","501","NA","2","legacy","1","1024","2","48000","-16","experiment","1","odd","7","467074","469314","465981","467056","3335","118550","417452","3353","100449","468093","471333","471836","27221","471332","NA","Sternberg Task","63","47778","70","yes","1024"
"90.14084507042253","90.14084507042253","681.5915492957746","681.5915492957746","black","experiment","legacy","legacy","legacy","0","uniform","1","undefined","1","left","70","70","70","70","0","0","70","0","0","70","70","70","0","70","0","Sun Oct 18 20:39:12 2020","The main experiment item","yes","SternbergTask.osexp","/Users/tforestmoore/Desktop/Tarleton/Fall 2020/Math/Lab3","no","mono","no","18","no","white","no","yes","768","legacy","58","11","/Users/tforestmoore/Desktop/Tarleton/Fall 2020/Math/Lab3/subject-1.csv","legacy","1 4 9 3 2 5","Lentiform Loewenfeld","3.3.3","3","y","0","left","right","left","left","NA","615","23855","18100","615","NA","2","legacy","6","1024","2","48000","-16","experiment","1","odd","9","472946","475185","471855","472928","3335","118550","417452","3353","100449","473965","477204","477820","27221","477203","NA","Sternberg Task","64","48393","71","yes","1024"
"88.88888888888889","88.88888888888889","679.5833333333334","679.5833333333334","black","experiment","legacy","legacy","legacy","0","uniform","0","undefined","0","left","71","71","71","71","0","0","71","0","0","71","71","71","0","71","0","Sun Oct 18 20:39:12 2020","The main experiment item","yes","SternbergTask.osexp","/Users/tforestmoore/Desktop/Tarleton/Fall 2020/Math/Lab3","no","mono","no","18","no","white","no","yes","768","legacy","59","11","/Users/tforestmoore/Desktop/Tarleton/Fall 2020/Math/Lab3/subject-1.csv","legacy","8 3","Lentiform Loewenfeld","3.3.3","2","y","0","right","right","left","right","NA","537","23855","18100","537","NA","2","legacy","2","1024","2","48000","-16","experiment","1","odd","3","478931","481171","477838","478913","3335","118550","417452","3353","100449","479951","483189","483727","27221","483189","NA","Sternberg Task","64","48930","72","yes","1024"
"89.04109589041096","89.04109589041096","680.1095890410959","680.1095890410959","black","experiment","legacy","legacy","legacy","0","uniform","1","undefined","1","left","72","72","72","72","0","0","72","0","0","72","72","72","0","72","0","Sun Oct 18 20:39:12 2020","The main experiment item","yes","SternbergTask.osexp","/Users/tforestmoore/Desktop/Tarleton/Fall 2020/Math/Lab3","no","mono","no","18","no","white","no","yes","768","legacy","60","11","/Users/tforestmoore/Desktop/Tarleton/Fall 2020/Math/Lab3/subject-1.csv","legacy","4 1 8 7 5","Lentiform Loewenfeld","3.3.3","3","y","0","left","right","left","left","NA","718","23855","18100","718","NA","2","legacy","5","1024","2","48000","-16","experiment","1","odd","8","484837","487076","477838","484820","3335","118550","483745","3353","100449","485855","489094","489813","27221","489094","NA","Sternberg Task","65","49648","73","yes","1024"
"89.1891891891892","89.1891891891892","678","678","black","experiment","legacy","legacy","legacy","0","uniform","1","undefined","1","left","73","73","73","73","0","0","73","0","0","73","73","73","0","73","0","Sun Oct 18 20:39:12 2020","The main experiment item","yes","SternbergTask.osexp","/Users/tforestmoore/Desktop/Tarleton/Fall 2020/Math/Lab3","no","mono","no","18","no","white","no","yes","768","legacy","61","11","/Users/tforestmoore/Desktop/Tarleton/Fall 2020/Math/Lab3/subject-1.csv","legacy","3 5 4 7","Lentiform Loewenfeld","3.3.3","1","y","0","left","right","left","left","NA","524","23855","18100","524","NA","2","legacy","4","1024","2","48000","-16","experiment","1","odd","3","490926","493165","489831","490908","3335","118550","483745","3353","100449","491945","495183","495708","27221","495183","NA","Sternberg Task","66","50172","74","yes","1024"
"89.33333333333333","89.33333333333333","678.7466666666667","678.7466666666667","black","experiment","legacy","legacy","legacy","0","uniform","1","undefined","1","right","74","74","74","74","0","0","74","0","0","74","74","74","0","74","0","Sun Oct 18 20:39:12 2020","The main experiment item","yes","SternbergTask.osexp","/Users/tforestmoore/Desktop/Tarleton/Fall 2020/Math/Lab3","no","mono","no","18","no","white","no","yes","768","legacy","62","11","/Users/tforestmoore/Desktop/Tarleton/Fall 2020/Math/Lab3/subject-1.csv","legacy","6 9 5","Lentiform Loewenfeld","3.3.3","0","n","0","right","right","left","right","NA","734","23855","18100","734","NA","2","legacy","3","1024","2","48000","-16","experiment","1","odd","8","496824","499063","495729","496806","3335","118550","483745","3353","100449","497842","501082","501817","27221","501082","NA","Sternberg Task","67","50906","75","yes","1024"
"89.47368421052632","89.47368421052632","676.8684210526316","676.8684210526316","black","experiment","legacy","legacy","legacy","0","uniform","1","undefined","1","left","75","75","75","75","0","0","75","0","0","75","75","75","0","75","0","Sun Oct 18 20:39:12 2020","The main experiment item","yes","SternbergTask.osexp","/Users/tforestmoore/Desktop/Tarleton/Fall 2020/Math/Lab3","no","mono","no","18","no","white","no","yes","768","legacy","63","11","/Users/tforestmoore/Desktop/Tarleton/Fall 2020/Math/Lab3/subject-1.csv","legacy","5 2 6","Lentiform Loewenfeld","3.3.3","2","y","0","left","right","left","left","NA","536","23855","18100","536","NA","2","legacy","3","1024","2","48000","-16","experiment","1","odd","2","502929","505168","501835","502911","3335","118550","483745","3353","100449","503948","507186","507724","27221","507186","NA","Sternberg Task","68","51442","76","yes","1024"
"89.6103896103896","89.6103896103896","678.1818181818181","678.1818181818181","black","experiment","legacy","legacy","legacy","0","uniform","1","undefined","1","right","76","76","76","76","0","0","76","0","0","76","76","76","0","76","0","Sun Oct 18 20:39:12 2020","The main experiment item","yes","SternbergTask.osexp","/Users/tforestmoore/Desktop/Tarleton/Fall 2020/Math/Lab3","no","mono","no","18","no","white","no","yes","768","legacy","64","11","/Users/tforestmoore/Desktop/Tarleton/Fall 2020/Math/Lab3/subject-1.csv","legacy","7 1 5 6 3","Lentiform Loewenfeld","3.3.3","0","n","0","right","right","left","right","NA","778","23855","18100","778","NA","2","legacy","5","1024","2","48000","-16","experiment","1","odd","8","508852","511091","507748","508831","3335","118550","483745","3353","100449","509871","513109","513888","27221","513109","NA","Sternberg Task","69","52220","77","yes","1024"
"89.74358974358974","89.74358974358974","676.2051282051282","676.2051282051282","black","experiment","legacy","legacy","legacy","0","uniform","1","undefined","1","left","77","77","77","77","0","0","77","0","0","77","77","77","0","77","0","Sun Oct 18 20:39:12 2020","The main experiment item","yes","SternbergTask.osexp","/Users/tforestmoore/Desktop/Tarleton/Fall 2020/Math/Lab3","no","mono","no","18","no","white","no","yes","768","legacy","65","11","/Users/tforestmoore/Desktop/Tarleton/Fall 2020/Math/Lab3/subject-1.csv","legacy","7 6","Lentiform Loewenfeld","3.3.3","2","y","0","left","right","left","left","NA","524","23855","18100","524","NA","2","legacy","2","1024","2","48000","-16","experiment","1","odd","6","515000","517239","513907","514983","3335","118550","483745","3353","100449","516018","519258","519784","27221","519258","NA","Sternberg Task","70","52744","78","yes","1024"
"89.87341772151899","89.87341772151899","676.746835443038","676.746835443038","black","experiment","legacy","legacy","legacy","0","uniform","1","undefined","1","right","78","78","78","78","0","0","78","0","0","78","78","78","0","78","0","Sun Oct 18 20:39:12 2020","The main experiment item","yes","SternbergTask.osexp","/Users/tforestmoore/Desktop/Tarleton/Fall 2020/Math/Lab3","no","mono","no","18","no","white","no","yes","768","legacy","66","11","/Users/tforestmoore/Desktop/Tarleton/Fall 2020/Math/Lab3/subject-1.csv","legacy","3 4 2","Lentiform Loewenfeld","3.3.3","0","n","0","right","right","left","right","NA","719","23855","18100","719","NA","2","legacy","3","1024","2","48000","-16","experiment","1","odd","5","520895","523133","519802","520877","3335","118550","483745","3353","100449","521913","525151","525871","27221","525151","NA","Sternberg Task","71","53463","79","yes","1024"
"90","90","674.85","674.85","black","experiment","legacy","legacy","legacy","0","uniform","1","undefined","1","left","79","79","79","79","0","0","79","0","0","79","79","79","0","79","0","Sun Oct 18 20:39:12 2020","The main experiment item","yes","SternbergTask.osexp","/Users/tforestmoore/Desktop/Tarleton/Fall 2020/Math/Lab3","no","mono","no","18","no","white","no","yes","768","legacy","67","11","/Users/tforestmoore/Desktop/Tarleton/Fall 2020/Math/Lab3/subject-1.csv","legacy","9 4 2","Lentiform Loewenfeld","3.3.3","1","y","0","left","right","left","left","NA","525","23855","18100","525","NA","2","legacy","3","1024","2","48000","-16","experiment","1","odd","9","526980","529219","525889","526963","3335","118550","483745","3353","100449","527999","531238","531765","27221","531238","NA","Sternberg Task","72","53988","80","yes","1024"
"90.12345679012346","90.12345679012346","679.9506172839506","679.9506172839506","black","experiment","legacy","legacy","legacy","0","uniform","1","undefined","1","right","80","80","80","80","0","0","80","0","0","80","80","80","0","80","0","Sun Oct 18 20:39:12 2020","The main experiment item","yes","SternbergTask.osexp","/Users/tforestmoore/Desktop/Tarleton/Fall 2020/Math/Lab3","no","mono","no","18","no","white","no","yes","768","legacy","68","11","/Users/tforestmoore/Desktop/Tarleton/Fall 2020/Math/Lab3/subject-1.csv","legacy","6 7 5 9","Lentiform Loewenfeld","3.3.3","0","n","0","right","right","left","right","NA","1088","23855","18100","1088","NA","2","legacy","4","1024","2","48000","-16","experiment","1","odd","2","532875","535114","531784","532857","3335","118550","483745","3353","100449","533893","537132","538221","27221","537132","NA","Sternberg Task","73","55076","81","yes","1024"
"90.2439024390244","90.2439024390244","679.7073170731708","679.7073170731708","black","experiment","legacy","legacy","legacy","0","uniform","1","undefined","1","left","81","81","81","81","0","0","81","0","0","81","81","81","0","81","0","Sun Oct 18 20:39:12 2020","The main experiment item","yes","SternbergTask.osexp","/Users/tforestmoore/Desktop/Tarleton/Fall 2020/Math/Lab3","no","mono","no","18","no","white","no","yes","768","legacy","69","11","/Users/tforestmoore/Desktop/Tarleton/Fall 2020/Math/Lab3/subject-1.csv","legacy","3 4","Lentiform Loewenfeld","3.3.3","1","y","0","left","right","left","left","NA","660","23855","18100","660","NA","2","legacy","2","1024","2","48000","-16","experiment","1","odd","3","539333","541572","538241","539315","3335","118550","483745","3353","100449","540352","543591","544252","27221","543591","NA","Sternberg Task","74","55736","82","yes","1024"
"90.36144578313252","90.36144578313252","678.843373493976","678.843373493976","black","experiment","legacy","legacy","legacy","0","uniform","1","undefined","1","left","82","82","82","82","0","0","82","0","0","82","82","82","0","82","0","Sun Oct 18 20:39:12 2020","The main experiment item","yes","SternbergTask.osexp","/Users/tforestmoore/Desktop/Tarleton/Fall 2020/Math/Lab3","no","mono","no","18","no","white","no","yes","768","legacy","70","11","/Users/tforestmoore/Desktop/Tarleton/Fall 2020/Math/Lab3/subject-1.csv","legacy","6 2","Lentiform Loewenfeld","3.3.3","1","y","0","left","right","left","left","NA","608","23855","18100","608","NA","2","legacy","2","1024","2","48000","-16","experiment","1","odd","6","545367","547608","544275","545349","3335","118550","483745","3353","100449","546387","549627","550236","27221","549627","NA","Sternberg Task","75","56344","83","yes","1024"
"90.47619047619048","90.47619047619048","679.25","679.25","black","experiment","legacy","legacy","legacy","0","uniform","1","undefined","1","left","83","83","83","83","0","0","83","0","0","83","83","83","0","83","0","Sun Oct 18 20:39:12 2020","The main experiment item","yes","SternbergTask.osexp","/Users/tforestmoore/Desktop/Tarleton/Fall 2020/Math/Lab3","no","mono","no","18","no","white","no","yes","768","legacy","71","11","/Users/tforestmoore/Desktop/Tarleton/Fall 2020/Math/Lab3/subject-1.csv","legacy","6 8 9 3 4 9","Lentiform Loewenfeld","3.3.3","5","y","0","left","right","left","left","NA","713","23855","18100","713","NA","2","legacy","6","1024","2","48000","-16","experiment","1","odd","4","551350","553590","550255","551332","3335","118550","483745","3353","100449","552369","555608","556323","27221","555608","NA","Sternberg Task","76","57057","84","yes","1024"
"90.58823529411765","90.58823529411765","678.435294117647","678.435294117647","black","experiment","legacy","legacy","legacy","0","uniform","1","undefined","1","right","84","84","84","84","0","0","84","0","0","84","84","84","0","84","0","Sun Oct 18 20:39:12 2020","The main experiment item","yes","SternbergTask.osexp","/Users/tforestmoore/Desktop/Tarleton/Fall 2020/Math/Lab3","no","mono","no","18","no","white","no","yes","768","legacy","72","11","/Users/tforestmoore/Desktop/Tarleton/Fall 2020/Math/Lab3/subject-1.csv","legacy","1 7 8 3 9","Lentiform Loewenfeld","3.3.3","0","n","0","right","right","left","right","NA","610","23855","18100","610","NA","2","legacy","5","1024","2","48000","-16","experiment","1","odd","2","557439","559679","556346","557420","3335","118550","483745","3353","100449","558457","561697","562308","27221","561697","NA","Sternberg Task","77","57667","85","yes","1024"
"90.69767441860465","90.69767441860465","679.0930232558139","679.0930232558139","black","experiment","legacy","legacy","legacy","0","uniform","1","undefined","1","left","85","85","85","85","0","0","85","0","0","85","85","85","0","85","0","Sun Oct 18 20:39:12 2020","The main experiment item","yes","SternbergTask.osexp","/Users/tforestmoore/Desktop/Tarleton/Fall 2020/Math/Lab3","no","mono","no","18","no","white","no","yes","768","legacy","73","11","/Users/tforestmoore/Desktop/Tarleton/Fall 2020/Math/Lab3/subject-1.csv","legacy","7 2 3","Lentiform Loewenfeld","3.3.3","3","y","0","left","right","left","left","NA","735","23855","18100","735","NA","2","legacy","3","1024","2","48000","-16","experiment","1","odd","3","563422","565661","562333","563405","3335","118550","483745","3353","100449","564443","567681","568417","27221","567681","NA","Sternberg Task","78","58402","86","yes","1024"
"90.80459770114942","90.80459770114942","678.551724137931","678.551724137931","black","experiment","legacy","legacy","legacy","0","uniform","1","undefined","1","left","86","86","86","86","0","0","86","0","0","86","86","86","0","86","0","Sun Oct 18 20:39:12 2020","The main experiment item","yes","SternbergTask.osexp","/Users/tforestmoore/Desktop/Tarleton/Fall 2020/Math/Lab3","no","mono","no","18","no","white","no","yes","768","legacy","74","11","/Users/tforestmoore/Desktop/Tarleton/Fall 2020/Math/Lab3/subject-1.csv","legacy","8 5 4 7 3 1","Lentiform Loewenfeld","3.3.3","2","y","0","left","right","left","left","NA","632","23855","18100","632","NA","2","legacy","6","1024","2","48000","-16","experiment","1","odd","5","569532","571773","568437","569514","3335","118550","483745","3353","100449","570552","573791","574424","27221","573791","NA","Sternberg Task","79","59034","87","yes","1024"
"90.9090909090909","90.9090909090909","677.3181818181819","677.3181818181819","black","experiment","legacy","legacy","legacy","0","uniform","1","undefined","1","left","87","87","87","87","0","0","87","0","0","87","87","87","0","87","0","Sun Oct 18 20:39:12 2020","The main experiment item","yes","SternbergTask.osexp","/Users/tforestmoore/Desktop/Tarleton/Fall 2020/Math/Lab3","no","mono","no","18","no","white","no","yes","768","legacy","75","11","/Users/tforestmoore/Desktop/Tarleton/Fall 2020/Math/Lab3/subject-1.csv","legacy","8","Lentiform Loewenfeld","3.3.3","1","y","0","left","right","left","left","NA","570","23855","18100","570","NA","2","legacy","1","1024","2","48000","-16","experiment","1","odd","8","575536","577775","574443","575518","3335","118550","483745","3353","100449","576554","579793","580364","27221","579793","NA","Sternberg Task","80","59604","88","yes","1024"
"91.01123595505618","91.01123595505618","675.0112359550562","675.0112359550562","black","experiment","legacy","legacy","legacy","0","uniform","1","undefined","1","left","88","88","88","88","0","0","88","0","0","88","88","88","0","88","0","Sun Oct 18 20:39:12 2020","The main experiment item","yes","SternbergTask.osexp","/Users/tforestmoore/Desktop/Tarleton/Fall 2020/Math/Lab3","no","mono","no","18","no","white","no","yes","768","legacy","76","11","/Users/tforestmoore/Desktop/Tarleton/Fall 2020/Math/Lab3/subject-1.csv","legacy","9 1 6 7 8","Lentiform Loewenfeld","3.3.3","1","y","0","left","right","left","left","NA","472","23855","18100","472","NA","2","legacy","5","1024","2","48000","-16","experiment","1","odd","9","581481","583723","580387","581463","3335","118550","483745","3353","100449","582502","585741","586214","27221","585741","NA","Sternberg Task","81","60076","89","yes","1024"
"91.11111111111111","91.11111111111111","673.9","673.9","black","experiment","legacy","legacy","legacy","0","uniform","1","undefined","1","left","89","89","89","89","0","0","89","0","0","89","89","89","0","89","0","Sun Oct 18 20:39:12 2020","The main experiment item","yes","SternbergTask.osexp","/Users/tforestmoore/Desktop/Tarleton/Fall 2020/Math/Lab3","no","mono","no","18","no","white","no","yes","768","legacy","77","11","/Users/tforestmoore/Desktop/Tarleton/Fall 2020/Math/Lab3/subject-1.csv","legacy","2 6 1 7 4","Lentiform Loewenfeld","3.3.3","2","y","0","left","right","left","left","NA","575","23855","18100","575","NA","2","legacy","5","1024","2","48000","-16","experiment","1","odd","6","587329","589569","586234","587311","3335","118550","483745","3353","100449","588348","591589","592166","27221","591589","NA","Sternberg Task","82","60651","90","yes","1024"
"91.20879120879121","91.20879120879121","673.1538461538462","673.1538461538462","black","experiment","legacy","legacy","legacy","0","uniform","1","undefined","1","left","90","90","90","90","0","0","90","0","0","90","90","90","0","90","0","Sun Oct 18 20:39:12 2020","The main experiment item","yes","SternbergTask.osexp","/Users/tforestmoore/Desktop/Tarleton/Fall 2020/Math/Lab3","no","mono","no","18","no","white","no","yes","768","legacy","78","11","/Users/tforestmoore/Desktop/Tarleton/Fall 2020/Math/Lab3/subject-1.csv","legacy","3 5 7 1","Lentiform Loewenfeld","3.3.3","3","y","0","left","right","left","left","NA","606","23855","18100","606","NA","2","legacy","4","1024","2","48000","-16","experiment","1","odd","7","593283","595525","592189","593265","3335","118550","483745","3353","100449","594304","597543","598151","27221","597543","NA","Sternberg Task","83","61257","91","yes","1024"
"91.30434782608695","91.30434782608695","671.6413043478261","671.6413043478261","black","experiment","legacy","legacy","legacy","0","uniform","1","undefined","1","left","91","91","91","91","0","0","91","0","0","91","91","91","0","91","0","Sun Oct 18 20:39:12 2020","The main experiment item","yes","SternbergTask.osexp","/Users/tforestmoore/Desktop/Tarleton/Fall 2020/Math/Lab3","no","mono","no","18","no","white","no","yes","768","legacy","79","11","/Users/tforestmoore/Desktop/Tarleton/Fall 2020/Math/Lab3/subject-1.csv","legacy","3 2 1 4 7","Lentiform Loewenfeld","3.3.3","2","y","0","left","right","left","left","NA","534","23855","18100","534","NA","2","legacy","5","1024","2","48000","-16","experiment","1","odd","2","599264","601505","598170","599247","3335","118550","483745","3353","100449","600283","603523","604058","27221","603523","NA","Sternberg Task","84","61791","92","yes","1024"
"91.39784946236558","91.39784946236558","672.1935483870968","672.1935483870968","black","experiment","legacy","legacy","legacy","0","uniform","1","undefined","1","right","92","92","92","92","0","0","92","0","0","92","92","92","0","92","0","Sun Oct 18 20:39:12 2020","The main experiment item","yes","SternbergTask.osexp","/Users/tforestmoore/Desktop/Tarleton/Fall 2020/Math/Lab3","no","mono","no","18","no","white","no","yes","768","legacy","80","11","/Users/tforestmoore/Desktop/Tarleton/Fall 2020/Math/Lab3/subject-1.csv","legacy","5 7 3","Lentiform Loewenfeld","3.3.3","0","n","0","right","right","left","right","NA","723","23855","18100","723","NA","2","legacy","3","1024","2","48000","-16","experiment","1","odd","9","605165","607401","604077","605147","3335","118550","483745","3353","100449","606183","609419","610144","27221","609419","NA","Sternberg Task","85","62514","93","yes","1024"
"91.48936170212765","91.48936170212765","675.7765957446809","675.7765957446809","black","experiment","legacy","legacy","legacy","0","uniform","1","undefined","1","left","93","93","93","93","0","0","93","0","0","93","93","93","0","93","0","Sun Oct 18 20:39:12 2020","The main experiment item","yes","SternbergTask.osexp","/Users/tforestmoore/Desktop/Tarleton/Fall 2020/Math/Lab3","no","mono","no","18","no","white","no","yes","768","legacy","81","11","/Users/tforestmoore/Desktop/Tarleton/Fall 2020/Math/Lab3/subject-1.csv","legacy","5 7 8 2 3 8","Lentiform Loewenfeld","3.3.3","5","y","0","left","right","left","left","NA","1009","23855","18100","1009","NA","2","legacy","6","1024","2","48000","-16","experiment","1","odd","3","611250","613483","610163","611232","3335","118550","483745","3353","100449","612268","615502","616512","27221","615502","NA","Sternberg Task","86","63523","94","yes","1024"
"91.57894736842105","91.57894736842105","675.578947368421","675.578947368421","black","experiment","legacy","legacy","legacy","0","uniform","1","undefined","1","left","94","94","94","94","0","0","94","0","0","94","94","94","0","94","0","Sun Oct 18 20:39:12 2020","The main experiment item","yes","SternbergTask.osexp","/Users/tforestmoore/Desktop/Tarleton/Fall 2020/Math/Lab3","no","mono","no","18","no","white","no","yes","768","legacy","82","11","/Users/tforestmoore/Desktop/Tarleton/Fall 2020/Math/Lab3/subject-1.csv","legacy","6 7 9 3 1 2","Lentiform Loewenfeld","3.3.3","1","y","0","left","right","left","left","NA","657","23855","18100","657","NA","2","legacy","6","1024","2","48000","-16","experiment","1","odd","6","617625","619865","616536","617607","3335","118550","483745","3353","100449","618645","621884","622542","27221","621884","NA","Sternberg Task","87","64180","95","yes","1024"
"91.66666666666667","91.66666666666667","675.1875","675.1875","black","experiment","legacy","legacy","legacy","0","uniform","1","undefined","1","right","95","95","95","95","0","0","95","0","0","95","95","95","0","95","0","Sun Oct 18 20:39:12 2020","The main experiment item","yes","SternbergTask.osexp","/Users/tforestmoore/Desktop/Tarleton/Fall 2020/Math/Lab3","no","mono","no","18","no","white","no","yes","768","legacy","83","11","/Users/tforestmoore/Desktop/Tarleton/Fall 2020/Math/Lab3/subject-1.csv","legacy","8 2 1 4 5 9","Lentiform Loewenfeld","3.3.3","0","n","0","right","right","left","right","NA","638","23855","18100","638","NA","2","legacy","6","1024","2","48000","-16","experiment","1","odd","7","623651","625891","622560","623633","3335","118550","483745","3353","100449","624670","627910","628549","27221","627910","NA","Sternberg Task","88","64818","96","yes","1024"
"91.75257731958763","91.75257731958763","677.1237113402062","677.1237113402062","black","experiment","legacy","legacy","legacy","0","uniform","1","undefined","1","right","96","96","96","96","0","0","96","0","0","96","96","96","0","96","0","Sun Oct 18 20:39:12 2020","The main experiment item","yes","SternbergTask.osexp","/Users/tforestmoore/Desktop/Tarleton/Fall 2020/Math/Lab3","no","mono","no","18","no","white","no","yes","768","legacy","84","11","/Users/tforestmoore/Desktop/Tarleton/Fall 2020/Math/Lab3/subject-1.csv","legacy","5 2","Lentiform Loewenfeld","3.3.3","0","n","0","right","right","left","right","NA","863","23855","18100","863","NA","2","legacy","2","1024","2","48000","-16","experiment","1","odd","7","629661","631900","628567","629643","3335","118550","483745","3353","100449","630679","633918","634783","27221","633918","NA","Sternberg Task","89","65681","97","yes","1024"
"91.83673469387755","91.83673469387755","676.1224489795918","676.1224489795918","black","experiment","legacy","legacy","legacy","0","uniform","1","undefined","1","right","97","97","97","97","0","0","97","0","0","97","97","97","0","97","0","Sun Oct 18 20:39:12 2020","The main experiment item","yes","SternbergTask.osexp","/Users/tforestmoore/Desktop/Tarleton/Fall 2020/Math/Lab3","no","mono","no","18","no","white","no","yes","768","legacy","85","11","/Users/tforestmoore/Desktop/Tarleton/Fall 2020/Math/Lab3/subject-1.csv","legacy","8 5 7 3 6","Lentiform Loewenfeld","3.3.3","0","n","0","right","right","left","right","NA","579","23855","18100","579","NA","2","legacy","5","1024","2","48000","-16","experiment","1","odd","9","635893","638131","634800","635875","3335","118550","483745","3353","100449","636911","640153","640733","27221","640153","NA","Sternberg Task","90","66260","98","yes","1024"
"91.91919191919192","91.91919191919192","675.4040404040404","675.4040404040404","black","experiment","legacy","legacy","legacy","0","uniform","1","undefined","1","right","98","98","98","98","0","0","98","0","0","98","98","98","0","98","0","Sun Oct 18 20:39:12 2020","The main experiment item","yes","SternbergTask.osexp","/Users/tforestmoore/Desktop/Tarleton/Fall 2020/Math/Lab3","no","mono","no","18","no","white","no","yes","768","legacy","86","11","/Users/tforestmoore/Desktop/Tarleton/Fall 2020/Math/Lab3/subject-1.csv","legacy","6 9 7 3 8 2","Lentiform Loewenfeld","3.3.3","0","n","0","right","right","left","right","NA","605","23855","18100","605","NA","2","legacy","6","1024","2","48000","-16","experiment","1","odd","5","641846","644085","640751","641828","3335","118550","483745","3353","100449","642865","646103","646709","27221","646103","NA","Sternberg Task","91","66865","99","yes","1024"
"92","92","674.21","674.21","black","experiment","legacy","legacy","legacy","0","uniform","1","undefined","1","right","99","99","99","99","0","0","99","0","0","99","99","99","0","99","0","Sun Oct 18 20:39:12 2020","The main experiment item","yes","SternbergTask.osexp","/Users/tforestmoore/Desktop/Tarleton/Fall 2020/Math/Lab3","no","mono","no","18","no","white","no","yes","768","legacy","87","11","/Users/tforestmoore/Desktop/Tarleton/Fall 2020/Math/Lab3/subject-1.csv","legacy","6 8 4","Lentiform Loewenfeld","3.3.3","0","n","0","right","right","left","right","NA","556","23855","18100","556","NA","2","legacy","3","1024","2","48000","-16","experiment","1","odd","1","647822","650060","646728","647804","3335","118550","483745","3353","100449","648841","652078","652636","27221","652078","NA","Sternberg Task","92","67421","100","yes","1024"
"92.07920792079207","92.07920792079207","675.1881188118812","675.1881188118812","black","experiment","legacy","legacy","legacy","0","uniform","1","undefined","1","left","100","100","100","100","0","0","100","0","0","100","100","100","0","100","0","Sun Oct 18 20:39:12 2020","The main experiment item","yes","SternbergTask.osexp","/Users/tforestmoore/Desktop/Tarleton/Fall 2020/Math/Lab3","no","mono","no","18","no","white","no","yes","768","legacy","88","11","/Users/tforestmoore/Desktop/Tarleton/Fall 2020/Math/Lab3/subject-1.csv","legacy","8 5 3 7 4 6","Lentiform Loewenfeld","3.3.3","6","y","0","left","right","left","left","NA","773","23855","18100","773","NA","2","legacy","6","1024","2","48000","-16","experiment","1","odd","6","653750","655988","652655","653732","3335","118550","483745","3353","100449","654769","658005","658780","27221","658005","NA","Sternberg Task","93","68194","101","yes","1024"
"92.15686274509804","92.15686274509804","675.5","675.5","black","experiment","legacy","legacy","legacy","0","uniform","1","undefined","1","right","101","101","101","101","0","0","101","0","0","101","101","101","0","101","0","Sun Oct 18 20:39:12 2020","The main experiment item","yes","SternbergTask.osexp","/Users/tforestmoore/Desktop/Tarleton/Fall 2020/Math/Lab3","no","mono","no","18","no","white","no","yes","768","legacy","89","11","/Users/tforestmoore/Desktop/Tarleton/Fall 2020/Math/Lab3/subject-1.csv","legacy","2 8 7 9 5 3","Lentiform Loewenfeld","3.3.3","0","n","0","right","right","left","right","NA","707","23855","18100","707","NA","2","legacy","6","1024","2","48000","-16","experiment","1","odd","6","659889","662127","658799","659871","3335","118550","483745","3353","100449","660907","664145","664854","27221","664145","NA","Sternberg Task","94","68901","102","yes","1024"
"92.23300970873787","92.23300970873787","674.7281553398059","674.7281553398059","black","experiment","legacy","legacy","legacy","0","uniform","1","undefined","1","left","102","102","102","102","0","0","102","0","0","102","102","102","0","102","0","Sun Oct 18 20:39:12 2020","The main experiment item","yes","SternbergTask.osexp","/Users/tforestmoore/Desktop/Tarleton/Fall 2020/Math/Lab3","no","mono","no","18","no","white","no","yes","768","legacy","90","11","/Users/tforestmoore/Desktop/Tarleton/Fall 2020/Math/Lab3/subject-1.csv","legacy","7 1 3","Lentiform Loewenfeld","3.3.3","2","y","0","left","right","left","left","NA","596","23855","18100","596","NA","2","legacy","3","1024","2","48000","-16","experiment","1","odd","1","665962","668199","664872","665944","3335","118550","483745","3353","100449","666980","670218","670816","27221","670217","NA","Sternberg Task","95","69497","103","yes","1024"
"92.3076923076923","92.3076923076923","674.7692307692307","674.7692307692307","black","experiment","legacy","legacy","legacy","0","uniform","1","undefined","1","left","103","103","103","103","0","0","103","0","0","103","103","103","0","103","0","Sun Oct 18 20:39:12 2020","The main experiment item","yes","SternbergTask.osexp","/Users/tforestmoore/Desktop/Tarleton/Fall 2020/Math/Lab3","no","mono","no","18","no","white","no","yes","768","legacy","91","11","/Users/tforestmoore/Desktop/Tarleton/Fall 2020/Math/Lab3/subject-1.csv","legacy","3 4 9 6 2 9","Lentiform Loewenfeld","3.3.3","5","y","0","left","right","left","left","NA","679","23855","18100","679","NA","2","legacy","6","1024","2","48000","-16","experiment","1","odd","2","671930","674169","670838","671912","3335","118550","483745","3353","100449","672949","676188","676869","27221","676187","NA","Sternberg Task","96","70176","104","yes","1024"
"92.38095238095238","92.38095238095238","676.3333333333334","676.3333333333334","black","experiment","legacy","legacy","legacy","0","uniform","1","undefined","1","right","104","104","104","104","0","0","104","0","0","104","104","104","0","104","0","Sun Oct 18 20:39:12 2020","The main experiment item","yes","SternbergTask.osexp","/Users/tforestmoore/Desktop/Tarleton/Fall 2020/Math/Lab3","no","mono","no","18","no","white","no","yes","768","legacy","92","11","/Users/tforestmoore/Desktop/Tarleton/Fall 2020/Math/Lab3/subject-1.csv","legacy","2 3 8 5 6 7","Lentiform Loewenfeld","3.3.3","0","n","0","right","right","left","right","NA","839","23855","18100","839","NA","2","legacy","6","1024","2","48000","-16","experiment","1","odd","1","677982","680218","676887","677964","3335","118550","483745","3353","100449","679000","682237","683078","27221","682236","NA","Sternberg Task","97","71015","105","yes","1024"
"92.45283018867924","92.45283018867924","674.6981132075472","674.6981132075472","black","experiment","legacy","legacy","legacy","0","uniform","1","undefined","1","right","105","105","105","105","0","0","105","0","0","105","105","105","0","105","0","Sun Oct 18 20:39:12 2020","The main experiment item","yes","SternbergTask.osexp","/Users/tforestmoore/Desktop/Tarleton/Fall 2020/Math/Lab3","no","mono","no","18","no","white","no","yes","768","legacy","93","11","/Users/tforestmoore/Desktop/Tarleton/Fall 2020/Math/Lab3/subject-1.csv","legacy","5 9 2 3","Lentiform Loewenfeld","3.3.3","0","n","0","right","right","left","right","NA","503","23855","18100","503","NA","2","legacy","4","1024","2","48000","-16","experiment","1","odd","8","684191","686427","683096","684172","3335","118550","483745","3353","100449","685209","688447","688951","27221","688446","NA","Sternberg Task","98","71518","106","yes","1024"
"92.5233644859813","92.5233644859813","674.2897196261682","674.2897196261682","black","experiment","legacy","legacy","legacy","0","uniform","1","undefined","1","left","106","106","106","106","0","0","106","0","0","106","106","106","0","106","0","Sun Oct 18 20:39:12 2020","The main experiment item","yes","SternbergTask.osexp","/Users/tforestmoore/Desktop/Tarleton/Fall 2020/Math/Lab3","no","mono","no","18","no","white","no","yes","768","legacy","94","11","/Users/tforestmoore/Desktop/Tarleton/Fall 2020/Math/Lab3/subject-1.csv","legacy","2 3 7 4","Lentiform Loewenfeld","3.3.3","1","y","0","left","right","left","left","NA","631","23855","18100","631","NA","2","legacy","4","1024","2","48000","-16","experiment","1","odd","2","690062","692299","688970","690044","3335","118550","483745","3353","100449","691080","694315","694948","27221","694315","NA","Sternberg Task","99","72149","107","yes","1024"
"92.5925925925926","92.5925925925926","677.824074074074","677.824074074074","black","experiment","legacy","legacy","legacy","0","uniform","1","undefined","1","right","107","107","107","107","0","0","107","0","0","107","107","107","0","107","0","Sun Oct 18 20:39:12 2020","The main experiment item","yes","SternbergTask.osexp","/Users/tforestmoore/Desktop/Tarleton/Fall 2020/Math/Lab3","no","mono","no","18","no","white","no","yes","768","legacy","95","11","/Users/tforestmoore/Desktop/Tarleton/Fall 2020/Math/Lab3/subject-1.csv","legacy","2 8 6 3 1","Lentiform Loewenfeld","3.3.3","0","n","0","right","right","left","right","NA","1056","23855","18100","1056","NA","2","legacy","5","1024","2","48000","-16","experiment","1","odd","7","696040","698274","694966","696024","3335","118550","483745","3353","100449","697056","700290","701348","27221","700290","NA","Sternberg Task","100","73205","108","yes","1024"
"92.66055045871559","92.66055045871559","679.4311926605504","679.4311926605504","black","experiment","legacy","legacy","legacy","0","uniform","1","undefined","1","right","108","108","108","108","0","0","108","0","0","108","108","108","0","108","0","Sun Oct 18 20:39:12 2020","The main experiment item","yes","SternbergTask.osexp","/Users/tforestmoore/Desktop/Tarleton/Fall 2020/Math/Lab3","no","mono","no","18","no","white","no","yes","768","legacy","96","11","/Users/tforestmoore/Desktop/Tarleton/Fall 2020/Math/Lab3/subject-1.csv","legacy","1 6 4 3 9 7","Lentiform Loewenfeld","3.3.3","0","n","0","right","right","left","right","NA","853","23855","18100","853","NA","2","legacy","6","1024","2","48000","-16","experiment","1","odd","8","702444","704678","701367","702427","3335","118550","483745","3353","100449","703460","706693","707547","27221","706693","NA","Sternberg Task","101","74058","109","yes","1024"
"92.72727272727273","92.72727272727273","679","679","black","experiment","legacy","legacy","legacy","0","uniform","1","undefined","1","right","109","109","109","109","0","0","109","0","0","109","109","109","0","109","0","Sun Oct 18 20:39:12 2020","The main experiment item","yes","SternbergTask.osexp","/Users/tforestmoore/Desktop/Tarleton/Fall 2020/Math/Lab3","no","mono","no","18","no","white","no","yes","768","legacy","97","11","/Users/tforestmoore/Desktop/Tarleton/Fall 2020/Math/Lab3/subject-1.csv","legacy","8 5 4 2 9 6","Lentiform Loewenfeld","3.3.3","0","n","0","right","right","left","right","NA","632","23855","18100","632","NA","2","legacy","6","1024","2","48000","-16","experiment","1","odd","3","708640","710880","707565","708625","3335","118550","483745","3353","100449","709659","712899","713533","27221","712899","NA","Sternberg Task","102","74690","110","yes","1024"
"92.7927927927928","92.7927927927928","680.018018018018","680.018018018018","black","experiment","legacy","legacy","legacy","0","uniform","1","undefined","1","right","110","110","110","110","0","0","110","0","0","110","110","110","0","110","0","Sun Oct 18 20:39:12 2020","The main experiment item","yes","SternbergTask.osexp","/Users/tforestmoore/Desktop/Tarleton/Fall 2020/Math/Lab3","no","mono","no","18","no","white","no","yes","768","legacy","98","11","/Users/tforestmoore/Desktop/Tarleton/Fall 2020/Math/Lab3/subject-1.csv","legacy","1 4 9 2 5","Lentiform Loewenfeld","3.3.3","0","n","0","right","right","left","right","NA","792","23855","18100","792","NA","2","legacy","5","1024","2","48000","-16","experiment","1","odd","7","714655","716889","713551","714634","3335","118550","483745","3353","100449","715671","718904","719698","27221","718904","NA","Sternberg Task","103","75482","111","yes","1024"
