"acc","accuracy","average_response_time","avg_rt","background","block","canvas_backend","clock_backend","color_backend","compensation","coordinates","correct","correct_instructions1","correct_new_keyboard_response","correct_response","count_ISI","count_MemorySet","count_PracticeLoop","count_correctFeedback","count_expSequence","count_experiment","count_experimentLoop","count_fixation","count_incorrectFeedback","count_instructions1","count_instructions2","count_logger","count_new_keyboard_response","count_probe","count_thankYou","datetime","description","disable_garbage_collection","experiment_file","experiment_path","font_bold","font_family","font_italic","font_size","font_underline","foreground","form_clicks","fullscreen","height","keyboard_backend","live_row","live_row_PracticeLoop","logfile","mouse_backend","numberSet","opensesame_codename","opensesame_version","posInSet","present","repeat_cycle","response","response_instructions1","response_instructions2","response_new_keyboard_response","response_thankYou","response_time","response_time_instructions1","response_time_instructions2","response_time_new_keyboard_response","response_time_thankYou","round_decimals","sampler_backend","setSize","sound_buf_size","sound_channels","sound_freq","sound_sample_size","start","subject_nr","subject_parity","target","time_ISI","time_MemorySet","time_PracticeLoop","time_correctFeedback","time_expSequence","time_experiment","time_experimentLoop","time_fixation","time_incorrectFeedback","time_instructions1","time_instructions2","time_logger","time_new_keyboard_response","time_probe","time_thankYou","title","total_correct","total_response_time","total_responses","uniform_coordinates","width"
"0","0","719","719","black","practice","legacy","legacy","legacy","0","uniform","0","undefined","0","left","0","0","0","0","0","0","0","0","0","0","0","0","0","0","0","Sun Oct 25 19:16:27 2020","The main experiment item","yes","HoughSternbergTask.osexp","/Users/tionnahough/Desktop/Fall 2020","no","mono","no","18","no","white","no","yes","768","legacy","0","0","/Users/tionnahough/Desktop/th-subject-4.csv","legacy","2 9 4","Lentiform Loewenfeld","3.3.3","3","y","0","right","left","NA","right","NA","719","76461","NA","719","NA","2","legacy","3","1024","2","48000","-16","experiment","4","even","4","82699","81485","80119","NA","80457","3603","NA","80472","NA","3637","NA","85438","84717","84716","NA","Sternberg Task","0","719","1","yes","1024"
"50","50","690","690","black","practice","legacy","legacy","legacy","0","uniform","1","undefined","1","right","1","1","0","1","1","0","0","1","1","0","0","1","1","1","0","Sun Oct 25 19:16:27 2020","The main experiment item","yes","HoughSternbergTask.osexp","/Users/tionnahough/Desktop/Fall 2020","no","mono","no","18","no","white","no","yes","768","legacy","1","1","/Users/tionnahough/Desktop/th-subject-4.csv","legacy","2 1","Lentiform Loewenfeld","3.3.3","0","n","0","right","left","NA","right","NA","661","76461","NA","661","NA","2","legacy","2","1024","2","48000","-16","experiment","4","even","5","88872","87658","80119","NA","86631","3603","NA","86646","85496","3637","NA","91549","90887","90886","NA","Sternberg Task","1","1380","2","yes","1024"
"33.333333333333336","33.333333333333336","806.3333333333334","806.3333333333334","black","practice","legacy","legacy","legacy","0","uniform","0","undefined","0","right","2","2","0","2","2","0","0","2","2","0","0","2","2","2","0","Sun Oct 25 19:16:27 2020","The main experiment item","yes","HoughSternbergTask.osexp","/Users/tionnahough/Desktop/Fall 2020","no","mono","no","18","no","white","no","yes","768","legacy","2","2","/Users/tionnahough/Desktop/th-subject-4.csv","legacy","4 1 5","Lentiform Loewenfeld","3.3.3","0","n","0","left","left","NA","left","NA","1039","76461","NA","1039","NA","2","legacy","3","1024","2","48000","-16","experiment","4","even","2","94881","93666","80119","91566","92640","3603","NA","92651","85496","3637","NA","97933","96893","96893","NA","Sternberg Task","1","2419","3","yes","1024"
"50","50","975.25","975.25","black","practice","legacy","legacy","legacy","0","uniform","1","undefined","1","right","3","3","0","3","3","0","0","3","3","0","0","3","3","3","0","Sun Oct 25 19:16:27 2020","The main experiment item","yes","HoughSternbergTask.osexp","/Users/tionnahough/Desktop/Fall 2020","no","mono","no","18","no","white","no","yes","768","legacy","3","3","/Users/tionnahough/Desktop/th-subject-4.csv","legacy","9 6 7 4 5","Lentiform Loewenfeld","3.3.3","0","n","0","right","left","NA","right","NA","1482","76461","NA","1482","NA","2","legacy","5","1024","2","48000","-16","experiment","4","even","3","101267","100054","80119","91566","99030","3603","NA","99042","97955","3637","NA","104763","103279","103279","NA","Sternberg Task","2","3901","4","yes","1024"
"40","40","869","869","black","practice","legacy","legacy","legacy","0","uniform","0","undefined","0","left","4","4","0","4","4","0","0","4","4","0","0","4","4","4","0","Sun Oct 25 19:16:27 2020","The main experiment item","yes","HoughSternbergTask.osexp","/Users/tionnahough/Desktop/Fall 2020","no","mono","no","18","no","white","no","yes","768","legacy","4","4","/Users/tionnahough/Desktop/th-subject-4.csv","legacy","6","Lentiform Loewenfeld","3.3.3","1","y","0","right","left","NA","right","NA","444","76461","NA","444","NA","2","legacy","1","1024","2","48000","-16","experiment","4","even","6","108099","106884","80119","104775","105850","3603","NA","105871","97955","3637","NA","110558","110113","110113","NA","Sternberg Task","2","4345","5","yes","1024"
"50","50","811.5","811.5","black","practice","legacy","legacy","legacy","0","uniform","1","undefined","1","left","5","5","0","5","5","0","0","5","5","0","0","5","5","5","0","Sun Oct 25 19:16:27 2020","The main experiment item","yes","HoughSternbergTask.osexp","/Users/tionnahough/Desktop/Fall 2020","no","mono","no","18","no","white","no","yes","768","legacy","5","5","/Users/tionnahough/Desktop/th-subject-4.csv","legacy","4 3 1 7 9 8","Lentiform Loewenfeld","3.3.3","1","y","0","left","left","NA","left","NA","524","76461","NA","524","NA","2","legacy","6","1024","2","48000","-16","experiment","4","even","4","113897","112681","80119","104775","111657","3603","NA","111668","110580","3637","NA","116434","115909","115909","NA","Sternberg Task","3","4869","6","yes","1024"
"57.142857142857146","57.142857142857146","816.1428571428571","816.1428571428571","black","practice","legacy","legacy","legacy","0","uniform","1","undefined","1","right","6","6","0","6","6","0","0","6","6","0","0","6","6","6","0","Sun Oct 25 19:16:27 2020","The main experiment item","yes","HoughSternbergTask.osexp","/Users/tionnahough/Desktop/Fall 2020","no","mono","no","18","no","white","no","yes","768","legacy","6","6","/Users/tionnahough/Desktop/th-subject-4.csv","legacy","5","Lentiform Loewenfeld","3.3.3","0","n","0","right","left","NA","right","NA","844","76461","NA","844","NA","2","legacy","1","1024","2","48000","-16","experiment","4","even","3","119772","118559","80119","116457","117532","3603","NA","117543","110580","3637","NA","122629","121784","121784","NA","Sternberg Task","4","5713","7","yes","1024"
"62.5","62.5","811","811","black","practice","legacy","legacy","legacy","0","uniform","1","undefined","1","left","7","7","0","7","7","0","0","7","7","0","0","7","7","7","0","Sun Oct 25 19:16:27 2020","The main experiment item","yes","HoughSternbergTask.osexp","/Users/tionnahough/Desktop/Fall 2020","no","mono","no","18","no","white","no","yes","768","legacy","7","7","/Users/tionnahough/Desktop/th-subject-4.csv","legacy","4 8","Lentiform Loewenfeld","3.3.3","1","y","0","left","left","NA","left","NA","775","76461","NA","775","NA","2","legacy","2","1024","2","48000","-16","experiment","4","even","4","125964","124750","80119","122651","123726","3603","NA","123738","110580","3637","NA","128754","127977","127977","NA","Sternberg Task","5","6488","8","yes","1024"
"66.66666666666667","66.66666666666667","852.6666666666666","852.6666666666666","black","practice","legacy","legacy","legacy","0","uniform","1","undefined","1","right","8","8","0","8","8","0","0","8","8","0","0","8","8","8","0","Sun Oct 25 19:16:27 2020","The main experiment item","yes","HoughSternbergTask.osexp","/Users/tionnahough/Desktop/Fall 2020","no","mono","no","18","no","white","no","yes","768","legacy","8","8","/Users/tionnahough/Desktop/th-subject-4.csv","legacy","3 1 9 4","Lentiform Loewenfeld","3.3.3","0","n","0","right","left","NA","right","NA","1186","76461","NA","1186","NA","2","legacy","4","1024","2","48000","-16","experiment","4","even","6","132086","130873","80119","128775","129849","3603","NA","129861","110580","3637","NA","135285","134098","134098","NA","Sternberg Task","6","7674","9","yes","1024"
"70","70","854.6","854.6","black","practice","legacy","legacy","legacy","0","uniform","1","undefined","1","left","9","9","0","9","9","0","0","9","9","0","0","9","9","9","0","Sun Oct 25 19:16:27 2020","The main experiment item","yes","HoughSternbergTask.osexp","/Users/tionnahough/Desktop/Fall 2020","no","mono","no","18","no","white","no","yes","768","legacy","9","9","/Users/tionnahough/Desktop/th-subject-4.csv","legacy","1 7 9 8 5","Lentiform Loewenfeld","3.3.3","4","y","0","left","left","NA","left","NA","872","76461","NA","872","NA","2","legacy","5","1024","2","48000","-16","experiment","4","even","8","138620","137407","80119","135307","136383","3603","NA","136395","110580","3637","NA","141506","140633","140633","NA","Sternberg Task","7","8546","10","yes","1024"
"63.63636363636363","63.63636363636363","833.8181818181819","833.8181818181819","black","practice","legacy","legacy","legacy","0","uniform","0","undefined","0","left","10","10","0","10","10","0","0","10","10","0","0","10","10","10","0","Sun Oct 25 19:16:27 2020","The main experiment item","yes","HoughSternbergTask.osexp","/Users/tionnahough/Desktop/Fall 2020","no","mono","no","18","no","white","no","yes","768","legacy","10","10","/Users/tionnahough/Desktop/th-subject-4.csv","legacy","1 5 2 9","Lentiform Loewenfeld","3.3.3","2","y","0","right","left","NA","right","NA","626","76461","NA","626","NA","2","legacy","4","1024","2","48000","-16","experiment","4","even","5","144845","143628","80119","141528","142604","3603","NA","142616","110580","3637","NA","147484","146857","146857","NA","Sternberg Task","7","9172","11","yes","1024"
"66.66666666666667","66.66666666666667","792.6666666666666","792.6666666666666","black","practice","legacy","legacy","legacy","0","uniform","1","undefined","1","right","11","11","0","11","11","0","0","11","11","0","0","11","11","11","0","Sun Oct 25 19:16:27 2020","The main experiment item","yes","HoughSternbergTask.osexp","/Users/tionnahough/Desktop/Fall 2020","no","mono","no","18","no","white","no","yes","768","legacy","11","11","/Users/tionnahough/Desktop/th-subject-4.csv","legacy","5 7 8 4 1 2","Lentiform Loewenfeld","3.3.3","0","n","0","right","left","NA","right","NA","340","76461","NA","340","NA","2","legacy","6","1024","2","48000","-16","experiment","4","even","6","150819","149604","80119","141528","148579","3603","NA","148591","147505","3637","NA","153172","152831","152831","NA","Sternberg Task","8","9512","12","yes","1024"
"69.23076923076923","69.23076923076923","769.6923076923077","769.6923076923077","black","experiment","legacy","legacy","legacy","0","uniform","1","undefined","1","left","12","12","0","12","12","0","0","12","12","0","0","12","12","12","0","Sun Oct 25 19:16:27 2020","The main experiment item","yes","HoughSternbergTask.osexp","/Users/tionnahough/Desktop/Fall 2020","no","mono","no","18","no","white","no","yes","768","legacy","0","11","/Users/tionnahough/Desktop/th-subject-4.csv","legacy","2 3","Lentiform Loewenfeld","3.3.3","1","y","0","left","left","left","left","NA","494","76461","1024","494","NA","2","legacy","2","1024","2","48000","-16","experiment","4","even","2","157582","156369","80119","153194","155344","3603","155268","155355","147505","3637","154243","160089","159594","159594","NA","Sternberg Task","9","10006","13","yes","1024"
"71.42857142857143","71.42857142857143","755","755","black","experiment","legacy","legacy","legacy","0","uniform","1","undefined","1","left","13","13","0","13","13","0","0","13","13","0","0","13","13","13","0","Sun Oct 25 19:16:27 2020","The main experiment item","yes","HoughSternbergTask.osexp","/Users/tionnahough/Desktop/Fall 2020","no","mono","no","18","no","white","no","yes","768","legacy","1","11","/Users/tionnahough/Desktop/th-subject-4.csv","legacy","1 4 9 3 2 5","Lentiform Loewenfeld","3.3.3","3","y","0","left","left","left","left","NA","564","76461","1024","564","NA","2","legacy","6","1024","2","48000","-16","experiment","4","even","9","163425","162210","80119","160112","161187","3603","155268","161198","147505","3637","154243","166002","165437","165437","NA","Sternberg Task","10","10570","14","yes","1024"
"73.33333333333333","73.33333333333333","747","747","black","experiment","legacy","legacy","legacy","0","uniform","1","undefined","1","left","14","14","0","14","14","0","0","14","14","0","0","14","14","14","0","Sun Oct 25 19:16:27 2020","The main experiment item","yes","HoughSternbergTask.osexp","/Users/tionnahough/Desktop/Fall 2020","no","mono","no","18","no","white","no","yes","768","legacy","2","11","/Users/tionnahough/Desktop/th-subject-4.csv","legacy","6 7 8 5","Lentiform Loewenfeld","3.3.3","3","y","0","left","left","left","left","NA","635","76461","1024","635","NA","2","legacy","4","1024","2","48000","-16","experiment","4","even","8","169340","168127","80119","166024","167101","3603","155268","167115","147505","3637","154243","171989","171353","171353","NA","Sternberg Task","11","11205","15","yes","1024"
"68.75","68.75","719.375","719.375","black","experiment","legacy","legacy","legacy","0","uniform","0","undefined","0","left","15","15","0","15","15","0","0","15","15","0","0","15","15","15","0","Sun Oct 25 19:16:27 2020","The main experiment item","yes","HoughSternbergTask.osexp","/Users/tionnahough/Desktop/Fall 2020","no","mono","no","18","no","white","no","yes","768","legacy","3","11","/Users/tionnahough/Desktop/th-subject-4.csv","legacy","2 8 5 1","Lentiform Loewenfeld","3.3.3","4","y","0","right","left","left","right","NA","305","76461","1024","305","NA","2","legacy","4","1024","2","48000","-16","experiment","4","even","1","175326","174108","80119","172009","173083","3603","155268","173095","147505","3637","154243","177644","177338","177338","NA","Sternberg Task","11","11510","16","yes","1024"
"70.58823529411765","70.58823529411765","696.3529411764706","696.3529411764706","black","experiment","legacy","legacy","legacy","0","uniform","1","undefined","1","left","16","16","0","16","16","0","0","16","16","0","0","16","16","16","0","Sun Oct 25 19:16:27 2020","The main experiment item","yes","HoughSternbergTask.osexp","/Users/tionnahough/Desktop/Fall 2020","no","mono","no","18","no","white","no","yes","768","legacy","4","11","/Users/tionnahough/Desktop/th-subject-4.csv","legacy","5 7 3 6 2","Lentiform Loewenfeld","3.3.3","5","y","0","left","left","left","left","NA","328","76461","1024","328","NA","2","legacy","5","1024","2","48000","-16","experiment","4","even","2","180977","179763","80119","172009","178739","3603","155268","178751","177665","3637","154243","183318","182989","182989","NA","Sternberg Task","12","11838","17","yes","1024"
"72.22222222222223","72.22222222222223","689.1666666666666","689.1666666666666","black","experiment","legacy","legacy","legacy","0","uniform","1","undefined","1","left","17","17","0","17","17","0","0","17","17","0","0","17","17","17","0","Sun Oct 25 19:16:27 2020","The main experiment item","yes","HoughSternbergTask.osexp","/Users/tionnahough/Desktop/Fall 2020","no","mono","no","18","no","white","no","yes","768","legacy","5","11","/Users/tionnahough/Desktop/th-subject-4.csv","legacy","7 1 8 5 6 2","Lentiform Loewenfeld","3.3.3","2","y","0","left","left","left","left","NA","567","76461","1024","567","NA","2","legacy","6","1024","2","48000","-16","experiment","4","even","1","186650","185436","80119","183340","184413","3603","155268","184424","177665","3637","154243","189231","188663","188663","NA","Sternberg Task","13","12405","18","yes","1024"
"73.6842105263158","73.6842105263158","680","680","black","experiment","legacy","legacy","legacy","0","uniform","1","undefined","1","right","18","18","0","18","18","0","0","18","18","0","0","18","18","18","0","Sun Oct 25 19:16:27 2020","The main experiment item","yes","HoughSternbergTask.osexp","/Users/tionnahough/Desktop/Fall 2020","no","mono","no","18","no","white","no","yes","768","legacy","6","11","/Users/tionnahough/Desktop/th-subject-4.csv","legacy","3 9 1","Lentiform Loewenfeld","3.3.3","0","n","0","right","left","left","right","NA","515","76461","1024","515","NA","2","legacy","3","1024","2","48000","-16","experiment","4","even","7","192564","191351","80119","189253","190326","3603","155268","190338","177665","3637","154243","195093","194577","194577","NA","Sternberg Task","14","12920","19","yes","1024"
"75","75","698.7","698.7","black","experiment","legacy","legacy","legacy","0","uniform","1","undefined","1","right","19","19","0","19","19","0","0","19","19","0","0","19","19","19","0","Sun Oct 25 19:16:27 2020","The main experiment item","yes","HoughSternbergTask.osexp","/Users/tionnahough/Desktop/Fall 2020","no","mono","no","18","no","white","no","yes","768","legacy","7","11","/Users/tionnahough/Desktop/th-subject-4.csv","legacy","2 6 4 3 9","Lentiform Loewenfeld","3.3.3","0","n","0","right","left","left","right","NA","1054","76461","1024","1054","NA","2","legacy","5","1024","2","48000","-16","experiment","4","even","1","198418","197204","80119","195106","196180","3603","155268","196192","177665","3637","154243","201485","200430","200430","NA","Sternberg Task","15","13974","20","yes","1024"
"76.19047619047619","76.19047619047619","698.7142857142857","698.7142857142857","black","experiment","legacy","legacy","legacy","0","uniform","1","undefined","1","right","20","20","0","20","20","0","0","20","20","0","0","20","20","20","0","Sun Oct 25 19:16:27 2020","The main experiment item","yes","HoughSternbergTask.osexp","/Users/tionnahough/Desktop/Fall 2020","no","mono","no","18","no","white","no","yes","768","legacy","8","11","/Users/tionnahough/Desktop/th-subject-4.csv","legacy","7 1","Lentiform Loewenfeld","3.3.3","0","n","0","right","left","left","right","NA","699","76461","1024","699","NA","2","legacy","2","1024","2","48000","-16","experiment","4","even","8","204817","203603","80119","201507","202580","3603","155268","202591","177665","3637","154243","207529","206829","206829","NA","Sternberg Task","16","14673","21","yes","1024"
"72.72727272727273","72.72727272727273","686","686","black","experiment","legacy","legacy","legacy","0","uniform","0","undefined","0","left","21","21","0","21","21","0","0","21","21","0","0","21","21","21","0","Sun Oct 25 19:16:27 2020","The main experiment item","yes","HoughSternbergTask.osexp","/Users/tionnahough/Desktop/Fall 2020","no","mono","no","18","no","white","no","yes","768","legacy","9","11","/Users/tionnahough/Desktop/th-subject-4.csv","legacy","4","Lentiform Loewenfeld","3.3.3","1","y","0","right","left","left","right","NA","419","76461","1024","419","NA","2","legacy","1","1024","2","48000","-16","experiment","4","even","4","210865","209649","80119","207552","208626","3603","155268","208637","177665","3637","154243","213297","212877","212877","NA","Sternberg Task","16","15092","22","yes","1024"
"73.91304347826087","73.91304347826087","701.5217391304348","701.5217391304348","black","experiment","legacy","legacy","legacy","0","uniform","1","undefined","1","right","22","22","0","22","22","0","0","22","22","0","0","22","22","22","0","Sun Oct 25 19:16:27 2020","The main experiment item","yes","HoughSternbergTask.osexp","/Users/tionnahough/Desktop/Fall 2020","no","mono","no","18","no","white","no","yes","768","legacy","10","11","/Users/tionnahough/Desktop/th-subject-4.csv","legacy","1 4 3 6 5","Lentiform Loewenfeld","3.3.3","0","n","0","right","left","left","right","NA","1043","76461","1024","1043","NA","2","legacy","5","1024","2","48000","-16","experiment","4","even","8","216631","215417","80119","207552","214393","3603","155268","214404","213319","3637","154243","219692","218648","218648","NA","Sternberg Task","17","16135","23","yes","1024"
"70.83333333333333","70.83333333333333","706.4583333333334","706.4583333333334","black","experiment","legacy","legacy","legacy","0","uniform","0","undefined","0","left","23","23","0","23","23","0","0","23","23","0","0","23","23","23","0","Sun Oct 25 19:16:27 2020","The main experiment item","yes","HoughSternbergTask.osexp","/Users/tionnahough/Desktop/Fall 2020","no","mono","no","18","no","white","no","yes","768","legacy","11","11","/Users/tionnahough/Desktop/th-subject-4.csv","legacy","9 3 8 2 1 4","Lentiform Loewenfeld","3.3.3","3","y","0","right","left","left","right","NA","820","76461","1024","820","NA","2","legacy","6","1024","2","48000","-16","experiment","4","even","8","223024","221811","80119","219713","220788","3603","155268","220799","213319","3637","154243","225857","225036","225036","NA","Sternberg Task","17","16955","24","yes","1024"
"72","72","691.64","691.64","black","experiment","legacy","legacy","legacy","0","uniform","1","undefined","1","left","24","24","0","24","24","0","0","24","24","0","0","24","24","24","0","Sun Oct 25 19:16:27 2020","The main experiment item","yes","HoughSternbergTask.osexp","/Users/tionnahough/Desktop/Fall 2020","no","mono","no","18","no","white","no","yes","768","legacy","12","11","/Users/tionnahough/Desktop/th-subject-4.csv","legacy","4 1 8 7 5","Lentiform Loewenfeld","3.3.3","3","y","0","left","left","left","left","NA","336","76461","1024","336","NA","2","legacy","5","1024","2","48000","-16","experiment","4","even","8","229191","227977","80119","219713","226953","3603","155268","226965","225880","3637","154243","231541","231203","231203","NA","Sternberg Task","18","17291","25","yes","1024"
"69.23076923076923","69.23076923076923","714.2307692307693","714.2307692307693","black","experiment","legacy","legacy","legacy","0","uniform","0","undefined","0","left","25","25","0","25","25","0","0","25","25","0","0","25","25","25","0","Sun Oct 25 19:16:27 2020","The main experiment item","yes","HoughSternbergTask.osexp","/Users/tionnahough/Desktop/Fall 2020","no","mono","no","18","no","white","no","yes","768","legacy","13","11","/Users/tionnahough/Desktop/th-subject-4.csv","legacy","3 9 6 2","Lentiform Loewenfeld","3.3.3","4","y","0","right","left","left","right","NA","1279","76461","1024","1279","NA","2","legacy","4","1024","2","48000","-16","experiment","4","even","2","234877","233663","80119","231563","232639","3603","155268","232651","225880","3637","154243","238170","236889","236889","NA","Sternberg Task","18","18570","26","yes","1024"
"70.37037037037037","70.37037037037037","699.8888888888889","699.8888888888889","black","experiment","legacy","legacy","legacy","0","uniform","1","undefined","1","left","26","26","0","26","26","0","0","26","26","0","0","26","26","26","0","Sun Oct 25 19:16:27 2020","The main experiment item","yes","HoughSternbergTask.osexp","/Users/tionnahough/Desktop/Fall 2020","no","mono","no","18","no","white","no","yes","768","legacy","14","11","/Users/tionnahough/Desktop/th-subject-4.csv","legacy","2 3 7 4","Lentiform Loewenfeld","3.3.3","1","y","0","left","left","left","left","NA","327","76461","1024","327","NA","2","legacy","4","1024","2","48000","-16","experiment","4","even","2","241500","240288","80119","231563","239264","3603","155268","239276","238190","3637","154243","243840","243512","243512","NA","Sternberg Task","19","18897","27","yes","1024"
"67.85714285714286","67.85714285714286","685.7142857142857","685.7142857142857","black","experiment","legacy","legacy","legacy","0","uniform","0","undefined","0","right","27","27","0","27","27","0","0","27","27","0","0","27","27","27","0","Sun Oct 25 19:16:27 2020","The main experiment item","yes","HoughSternbergTask.osexp","/Users/tionnahough/Desktop/Fall 2020","no","mono","no","18","no","white","no","yes","768","legacy","15","11","/Users/tionnahough/Desktop/th-subject-4.csv","legacy","2 3 8 5 6 7","Lentiform Loewenfeld","3.3.3","0","n","0","left","left","left","left","NA","303","76461","1024","303","NA","2","legacy","6","1024","2","48000","-16","experiment","4","even","1","247174","245961","80119","243863","244937","3603","155268","244949","238190","3637","154243","249490","249186","249186","NA","Sternberg Task","19","19200","28","yes","1024"
"68.96551724137932","68.96551724137932","672.0689655172414","672.0689655172414","black","experiment","legacy","legacy","legacy","0","uniform","1","undefined","1","left","28","28","0","28","28","0","0","28","28","0","0","28","28","28","0","Sun Oct 25 19:16:27 2020","The main experiment item","yes","HoughSternbergTask.osexp","/Users/tionnahough/Desktop/Fall 2020","no","mono","no","18","no","white","no","yes","768","legacy","16","11","/Users/tionnahough/Desktop/th-subject-4.csv","legacy","8 5 3 7 4 6","Lentiform Loewenfeld","3.3.3","6","y","0","left","left","left","left","NA","290","76461","1024","290","NA","2","legacy","6","1024","2","48000","-16","experiment","4","even","6","252825","251610","80119","243863","250586","3603","155268","250598","249511","3637","154243","255128","254837","254837","NA","Sternberg Task","20","19490","29","yes","1024"
"70","70","661.5333333333333","661.5333333333333","black","experiment","legacy","legacy","legacy","0","uniform","1","undefined","1","right","29","29","0","29","29","0","0","29","29","0","0","29","29","29","0","Sun Oct 25 19:16:27 2020","The main experiment item","yes","HoughSternbergTask.osexp","/Users/tionnahough/Desktop/Fall 2020","no","mono","no","18","no","white","no","yes","768","legacy","17","11","/Users/tionnahough/Desktop/th-subject-4.csv","legacy","5 3 2 6 9 8","Lentiform Loewenfeld","3.3.3","0","n","0","right","left","left","right","NA","356","76461","1024","356","NA","2","legacy","6","1024","2","48000","-16","experiment","4","even","4","258461","257247","80119","255150","256223","3603","155268","256234","249511","3637","154243","260831","260473","260473","NA","Sternberg Task","21","19846","30","yes","1024"
"70.96774193548387","70.96774193548387","651.9677419354839","651.9677419354839","black","experiment","legacy","legacy","legacy","0","uniform","1","undefined","1","left","30","30","0","30","30","0","0","30","30","0","0","30","30","30","0","Sun Oct 25 19:16:27 2020","The main experiment item","yes","HoughSternbergTask.osexp","/Users/tionnahough/Desktop/Fall 2020","no","mono","no","18","no","white","no","yes","768","legacy","18","11","/Users/tionnahough/Desktop/th-subject-4.csv","legacy","8 9 5 7 1 6","Lentiform Loewenfeld","3.3.3","4","y","0","left","left","left","left","NA","365","76461","1024","365","NA","2","legacy","6","1024","2","48000","-16","experiment","4","even","7","264160","262948","80119","260852","261925","3603","155268","261936","249511","3637","154243","266540","266173","266173","NA","Sternberg Task","22","20211","31","yes","1024"
"71.875","71.875","642.28125","642.28125","black","experiment","legacy","legacy","legacy","0","uniform","1","undefined","1","right","31","31","0","31","31","0","0","31","31","0","0","31","31","31","0","Sun Oct 25 19:16:27 2020","The main experiment item","yes","HoughSternbergTask.osexp","/Users/tionnahough/Desktop/Fall 2020","no","mono","no","18","no","white","no","yes","768","legacy","19","11","/Users/tionnahough/Desktop/th-subject-4.csv","legacy","5 9 2 3","Lentiform Loewenfeld","3.3.3","0","n","0","right","left","left","right","NA","342","76461","1024","342","NA","2","legacy","4","1024","2","48000","-16","experiment","4","even","8","269871","268658","80119","266561","267634","3603","155268","267646","249511","3637","154243","272227","271883","271883","NA","Sternberg Task","23","20553","32","yes","1024"
"72.72727272727273","72.72727272727273","631.2727272727273","631.2727272727273","black","experiment","legacy","legacy","legacy","0","uniform","1","undefined","1","right","32","32","0","32","32","0","0","32","32","0","0","32","32","32","0","Sun Oct 25 19:16:27 2020","The main experiment item","yes","HoughSternbergTask.osexp","/Users/tionnahough/Desktop/Fall 2020","no","mono","no","18","no","white","no","yes","768","legacy","20","11","/Users/tionnahough/Desktop/th-subject-4.csv","legacy","4 2 6 9","Lentiform Loewenfeld","3.3.3","0","n","0","right","left","left","right","NA","279","76461","1024","279","NA","2","legacy","4","1024","2","48000","-16","experiment","4","even","7","275559","274346","80119","272247","273322","3603","155268","273334","249511","3637","154243","277852","277571","277571","NA","Sternberg Task","24","20832","33","yes","1024"
"70.58823529411765","70.58823529411765","631.4411764705883","631.4411764705883","black","experiment","legacy","legacy","legacy","0","uniform","0","undefined","0","left","33","33","0","33","33","0","0","33","33","0","0","33","33","33","0","Sun Oct 25 19:16:27 2020","The main experiment item","yes","HoughSternbergTask.osexp","/Users/tionnahough/Desktop/Fall 2020","no","mono","no","18","no","white","no","yes","768","legacy","21","11","/Users/tionnahough/Desktop/th-subject-4.csv","legacy","9 1 7 2","Lentiform Loewenfeld","3.3.3","2","y","0","right","left","left","right","NA","637","76461","1024","637","NA","2","legacy","4","1024","2","48000","-16","experiment","4","even","1","281183","279970","80119","277873","278946","3603","155268","278958","249511","3637","154243","283833","283195","283195","NA","Sternberg Task","24","21469","34","yes","1024"
"68.57142857142857","68.57142857142857","629.6","629.6","black","experiment","legacy","legacy","legacy","0","uniform","0","undefined","0","right","34","34","0","34","34","0","0","34","34","0","0","34","34","34","0","Sun Oct 25 19:16:27 2020","The main experiment item","yes","HoughSternbergTask.osexp","/Users/tionnahough/Desktop/Fall 2020","no","mono","no","18","no","white","no","yes","768","legacy","22","11","/Users/tionnahough/Desktop/th-subject-4.csv","legacy","8 4 3 9","Lentiform Loewenfeld","3.3.3","0","n","0","left","left","left","left","NA","567","76461","1024","567","NA","2","legacy","4","1024","2","48000","-16","experiment","4","even","5","287167","285954","80119","277873","284930","3603","155268","284942","283856","3637","154243","289749","289180","289180","NA","Sternberg Task","24","22036","35","yes","1024"
"69.44444444444444","69.44444444444444","630.1111111111111","630.1111111111111","black","experiment","legacy","legacy","legacy","0","uniform","1","undefined","1","left","35","35","0","35","35","0","0","35","35","0","0","35","35","35","0","Sun Oct 25 19:16:27 2020","The main experiment item","yes","HoughSternbergTask.osexp","/Users/tionnahough/Desktop/Fall 2020","no","mono","no","18","no","white","no","yes","768","legacy","23","11","/Users/tionnahough/Desktop/th-subject-4.csv","legacy","2 4 6 9","Lentiform Loewenfeld","3.3.3","3","y","0","left","left","left","left","NA","648","76461","1024","648","NA","2","legacy","4","1024","2","48000","-16","experiment","4","even","6","293082","291869","80119","277873","290844","3603","155268","290857","289771","3637","154243","295744","295094","295093","NA","Sternberg Task","25","22684","36","yes","1024"
"70.27027027027027","70.27027027027027","628.5405405405405","628.5405405405405","black","experiment","legacy","legacy","legacy","0","uniform","1","undefined","1","right","36","36","0","36","36","0","0","36","36","0","0","36","36","36","0","Sun Oct 25 19:16:27 2020","The main experiment item","yes","HoughSternbergTask.osexp","/Users/tionnahough/Desktop/Fall 2020","no","mono","no","18","no","white","no","yes","768","legacy","24","11","/Users/tionnahough/Desktop/th-subject-4.csv","legacy","4 1","Lentiform Loewenfeld","3.3.3","0","n","0","right","left","left","right","NA","572","76461","1024","572","NA","2","legacy","2","1024","2","48000","-16","experiment","4","even","6","299081","297868","80119","295767","296840","3603","155268","296852","289771","3637","154243","301666","301093","301093","NA","Sternberg Task","26","23256","37","yes","1024"
"71.05263157894737","71.05263157894737","622.1052631578947","622.1052631578947","black","experiment","legacy","legacy","legacy","0","uniform","1","undefined","1","right","37","37","0","37","37","0","0","37","37","0","0","37","37","37","0","Sun Oct 25 19:16:27 2020","The main experiment item","yes","HoughSternbergTask.osexp","/Users/tionnahough/Desktop/Fall 2020","no","mono","no","18","no","white","no","yes","768","legacy","25","11","/Users/tionnahough/Desktop/th-subject-4.csv","legacy","3 4 2","Lentiform Loewenfeld","3.3.3","0","n","0","right","left","left","right","NA","384","76461","1024","384","NA","2","legacy","3","1024","2","48000","-16","experiment","4","even","5","305002","303789","80119","301690","302765","3603","155268","302777","289771","3637","154243","307399","307014","307014","NA","Sternberg Task","27","23640","38","yes","1024"
"69.23076923076923","69.23076923076923","645.1538461538462","645.1538461538462","black","experiment","legacy","legacy","legacy","0","uniform","0","undefined","0","right","38","38","0","38","38","0","0","38","38","0","0","38","38","38","0","Sun Oct 25 19:16:27 2020","The main experiment item","yes","HoughSternbergTask.osexp","/Users/tionnahough/Desktop/Fall 2020","no","mono","no","18","no","white","no","yes","768","legacy","26","11","/Users/tionnahough/Desktop/th-subject-4.csv","legacy","7 4 2 8 1 9","Lentiform Loewenfeld","3.3.3","0","n","0","left","left","left","left","NA","1521","76461","1024","1521","NA","2","legacy","6","1024","2","48000","-16","experiment","4","even","5","310733","309519","80119","307421","308495","3603","155268","308507","289771","3637","154243","314267","312745","312745","NA","Sternberg Task","27","25161","39","yes","1024"
"67.5","67.5","644.65","644.65","black","experiment","legacy","legacy","legacy","0","uniform","0","undefined","0","right","39","39","0","39","39","0","0","39","39","0","0","39","39","39","0","Sun Oct 25 19:16:27 2020","The main experiment item","yes","HoughSternbergTask.osexp","/Users/tionnahough/Desktop/Fall 2020","no","mono","no","18","no","white","no","yes","768","legacy","27","11","/Users/tionnahough/Desktop/th-subject-4.csv","legacy","2 5 1 4","Lentiform Loewenfeld","3.3.3","0","n","0","left","left","left","left","NA","625","76461","1024","625","NA","2","legacy","4","1024","2","48000","-16","experiment","4","even","6","317602","316388","80119","307421","315364","3603","155268","315376","314288","3637","154243","320241","319614","319614","NA","Sternberg Task","27","25786","40","yes","1024"
"68.29268292682927","68.29268292682927","637.1219512195122","637.1219512195122","black","experiment","legacy","legacy","legacy","0","uniform","1","undefined","1","left","40","40","0","40","40","0","0","40","40","0","0","40","40","40","0","Sun Oct 25 19:16:27 2020","The main experiment item","yes","HoughSternbergTask.osexp","/Users/tionnahough/Desktop/Fall 2020","no","mono","no","18","no","white","no","yes","768","legacy","28","11","/Users/tionnahough/Desktop/th-subject-4.csv","legacy","8 3","Lentiform Loewenfeld","3.3.3","2","y","0","left","left","left","left","NA","336","76461","1024","336","NA","2","legacy","2","1024","2","48000","-16","experiment","4","even","3","323566","322352","80119","307421","321327","3603","155268","321339","320254","3637","154243","325916","325579","325579","NA","Sternberg Task","28","26122","41","yes","1024"
"69.04761904761905","69.04761904761905","632.6428571428571","632.6428571428571","black","experiment","legacy","legacy","legacy","0","uniform","1","undefined","1","left","41","41","0","41","41","0","0","41","41","0","0","41","41","41","0","Sun Oct 25 19:16:27 2020","The main experiment item","yes","HoughSternbergTask.osexp","/Users/tionnahough/Desktop/Fall 2020","no","mono","no","18","no","white","no","yes","768","legacy","29","11","/Users/tionnahough/Desktop/th-subject-4.csv","legacy","6 2","Lentiform Loewenfeld","3.3.3","1","y","0","left","left","left","left","NA","449","76461","1024","449","NA","2","legacy","2","1024","2","48000","-16","experiment","4","even","6","329247","328033","80119","325938","327009","3603","155268","327020","320254","3637","154243","331710","331259","331259","NA","Sternberg Task","29","26571","42","yes","1024"
"69.76744186046511","69.76744186046511","625.2325581395348","625.2325581395348","black","experiment","legacy","legacy","legacy","0","uniform","1","undefined","1","right","42","42","0","42","42","0","0","42","42","0","0","42","42","42","0","Sun Oct 25 19:16:27 2020","The main experiment item","yes","HoughSternbergTask.osexp","/Users/tionnahough/Desktop/Fall 2020","no","mono","no","18","no","white","no","yes","768","legacy","30","11","/Users/tionnahough/Desktop/th-subject-4.csv","legacy","8 6 3 4 7","Lentiform Loewenfeld","3.3.3","0","n","0","right","left","left","right","NA","314","76461","1024","314","NA","2","legacy","5","1024","2","48000","-16","experiment","4","even","1","335045","333832","80119","331731","332806","3603","155268","332817","320254","3637","154243","337373","337057","337057","NA","Sternberg Task","30","26885","43","yes","1024"
"70.45454545454545","70.45454545454545","623.8863636363636","623.8863636363636","black","experiment","legacy","legacy","legacy","0","uniform","1","undefined","1","right","43","43","0","43","43","0","0","43","43","0","0","43","43","43","0","Sun Oct 25 19:16:27 2020","The main experiment item","yes","HoughSternbergTask.osexp","/Users/tionnahough/Desktop/Fall 2020","no","mono","no","18","no","white","no","yes","768","legacy","31","11","/Users/tionnahough/Desktop/th-subject-4.csv","legacy","8 4 3 5","Lentiform Loewenfeld","3.3.3","0","n","0","right","left","left","right","NA","566","76461","1024","566","NA","2","legacy","4","1024","2","48000","-16","experiment","4","even","6","340707","339494","80119","337395","338470","3603","155268","338482","320254","3637","154243","343290","342722","342722","NA","Sternberg Task","31","27451","44","yes","1024"
"71.11111111111111","71.11111111111111","615.9111111111112","615.9111111111112","black","experiment","legacy","legacy","legacy","0","uniform","1","undefined","1","right","44","44","0","44","44","0","0","44","44","0","0","44","44","44","0","Sun Oct 25 19:16:27 2020","The main experiment item","yes","HoughSternbergTask.osexp","/Users/tionnahough/Desktop/Fall 2020","no","mono","no","18","no","white","no","yes","768","legacy","32","11","/Users/tionnahough/Desktop/th-subject-4.csv","legacy","7 9","Lentiform Loewenfeld","3.3.3","0","n","0","right","left","left","right","NA","265","76461","1024","265","NA","2","legacy","2","1024","2","48000","-16","experiment","4","even","1","346626","345411","80119","343311","344387","3603","155268","344399","320254","3637","154243","348907","348640","348639","NA","Sternberg Task","32","27716","45","yes","1024"
"71.73913043478261","71.73913043478261","611.5869565217391","611.5869565217391","black","experiment","legacy","legacy","legacy","0","uniform","1","undefined","1","right","45","45","0","45","45","0","0","45","45","0","0","45","45","45","0","Sun Oct 25 19:16:27 2020","The main experiment item","yes","HoughSternbergTask.osexp","/Users/tionnahough/Desktop/Fall 2020","no","mono","no","18","no","white","no","yes","768","legacy","33","11","/Users/tionnahough/Desktop/th-subject-4.csv","legacy","2 7 5","Lentiform Loewenfeld","3.3.3","0","n","0","right","left","left","right","NA","417","76461","1024","417","NA","2","legacy","3","1024","2","48000","-16","experiment","4","even","8","352239","351023","80119","348928","350000","3603","155268","350011","320254","3637","154243","354679","354261","354261","NA","Sternberg Task","33","28133","46","yes","1024"
"72.34042553191489","72.34042553191489","605.6382978723404","605.6382978723404","black","experiment","legacy","legacy","legacy","0","uniform","1","undefined","1","left","46","46","0","46","46","0","0","46","46","0","0","46","46","46","0","Sun Oct 25 19:16:27 2020","The main experiment item","yes","HoughSternbergTask.osexp","/Users/tionnahough/Desktop/Fall 2020","no","mono","no","18","no","white","no","yes","768","legacy","34","11","/Users/tionnahough/Desktop/th-subject-4.csv","legacy","3 4","Lentiform Loewenfeld","3.3.3","1","y","0","left","left","left","left","NA","332","76461","1024","332","NA","2","legacy","2","1024","2","48000","-16","experiment","4","even","3","358017","356803","80119","354701","355778","3603","155268","355791","320254","3637","154243","360363","360030","360029","NA","Sternberg Task","34","28465","47","yes","1024"
"72.91666666666667","72.91666666666667","598.9375","598.9375","black","experiment","legacy","legacy","legacy","0","uniform","1","undefined","1","left","47","47","0","47","47","0","0","47","47","0","0","47","47","47","0","Sun Oct 25 19:16:27 2020","The main experiment item","yes","HoughSternbergTask.osexp","/Users/tionnahough/Desktop/Fall 2020","no","mono","no","18","no","white","no","yes","768","legacy","35","11","/Users/tionnahough/Desktop/th-subject-4.csv","legacy","7 6","Lentiform Loewenfeld","3.3.3","2","y","0","left","left","left","left","NA","284","76461","1024","284","NA","2","legacy","2","1024","2","48000","-16","experiment","4","even","6","363699","362482","80119","360385","361458","3603","155268","361470","320254","3637","154243","365995","365710","365710","NA","Sternberg Task","35","28749","48","yes","1024"
"71.42857142857143","71.42857142857143","593.1224489795918","593.1224489795918","black","experiment","legacy","legacy","legacy","0","uniform","0","undefined","0","left","48","48","0","48","48","0","0","48","48","0","0","48","48","48","0","Sun Oct 25 19:16:27 2020","The main experiment item","yes","HoughSternbergTask.osexp","/Users/tionnahough/Desktop/Fall 2020","no","mono","no","18","no","white","no","yes","768","legacy","36","11","/Users/tionnahough/Desktop/th-subject-4.csv","legacy","8 1 6","Lentiform Loewenfeld","3.3.3","3","y","0","right","left","left","right","NA","314","76461","1024","314","NA","2","legacy","3","1024","2","48000","-16","experiment","4","even","6","369326","368112","80119","366016","367088","3603","155268","367100","320254","3637","154243","371653","371338","371338","NA","Sternberg Task","35","29063","49","yes","1024"
"72","72","590.52","590.52","black","experiment","legacy","legacy","legacy","0","uniform","1","undefined","1","right","49","49","0","49","49","0","0","49","49","0","0","49","49","49","0","Sun Oct 25 19:16:27 2020","The main experiment item","yes","HoughSternbergTask.osexp","/Users/tionnahough/Desktop/Fall 2020","no","mono","no","18","no","white","no","yes","768","legacy","37","11","/Users/tionnahough/Desktop/th-subject-4.csv","legacy","8 5 4 2 9 6","Lentiform Loewenfeld","3.3.3","0","n","0","right","left","left","right","NA","463","76461","1024","463","NA","2","legacy","6","1024","2","48000","-16","experiment","4","even","3","374991","373777","80119","366016","372754","3603","155268","372766","371676","3637","154243","377466","377002","377002","NA","Sternberg Task","36","29526","50","yes","1024"
"70.58823529411765","70.58823529411765","580.3333333333334","580.3333333333334","black","experiment","legacy","legacy","legacy","0","uniform","0","undefined","0","left","50","50","0","50","50","0","0","50","50","0","0","50","50","50","0","Sun Oct 25 19:16:27 2020","The main experiment item","yes","HoughSternbergTask.osexp","/Users/tionnahough/Desktop/Fall 2020","no","mono","no","18","no","white","no","yes","768","legacy","38","11","/Users/tionnahough/Desktop/th-subject-4.csv","legacy","5 2 9 6 1 7","Lentiform Loewenfeld","3.3.3","3","y","0","right","left","left","right","NA","71","76461","1024","71","NA","2","legacy","6","1024","2","48000","-16","experiment","4","even","9","380802","379589","80119","377489","378563","3603","155268","378577","371676","3637","154243","382886","382814","382814","NA","Sternberg Task","36","29597","51","yes","1024"
"69.23076923076923","69.23076923076923","577.1923076923077","577.1923076923077","black","experiment","legacy","legacy","legacy","0","uniform","0","undefined","0","right","51","51","0","51","51","0","0","51","51","0","0","51","51","51","0","Sun Oct 25 19:16:27 2020","The main experiment item","yes","HoughSternbergTask.osexp","/Users/tionnahough/Desktop/Fall 2020","no","mono","no","18","no","white","no","yes","768","legacy","39","11","/Users/tionnahough/Desktop/th-subject-4.csv","legacy","5 7 3","Lentiform Loewenfeld","3.3.3","0","n","0","left","left","left","left","NA","417","76461","1024","417","NA","2","legacy","3","1024","2","48000","-16","experiment","4","even","9","386217","385004","80119","377489","383982","3603","155268","383993","382909","3637","154243","388647","388229","388229","NA","Sternberg Task","36","30014","52","yes","1024"
"69.81132075471699","69.81132075471699","575.0377358490566","575.0377358490566","black","experiment","legacy","legacy","legacy","0","uniform","1","undefined","1","left","52","52","0","52","52","0","0","52","52","0","0","52","52","52","0","Sun Oct 25 19:16:27 2020","The main experiment item","yes","HoughSternbergTask.osexp","/Users/tionnahough/Desktop/Fall 2020","no","mono","no","18","no","white","no","yes","768","legacy","40","11","/Users/tionnahough/Desktop/th-subject-4.csv","legacy","6 9 7 4 5 1","Lentiform Loewenfeld","3.3.3","2","y","0","left","left","left","left","NA","463","76461","1024","463","NA","2","legacy","6","1024","2","48000","-16","experiment","4","even","9","391981","390768","80119","377489","389744","3603","155268","389756","388668","3637","154243","394457","393993","393993","NA","Sternberg Task","37","30477","53","yes","1024"
"68.51851851851852","68.51851851851852","577.3703703703703","577.3703703703703","black","experiment","legacy","legacy","legacy","0","uniform","0","undefined","0","right","53","53","0","53","53","0","0","53","53","0","0","53","53","53","0","Sun Oct 25 19:16:27 2020","The main experiment item","yes","HoughSternbergTask.osexp","/Users/tionnahough/Desktop/Fall 2020","no","mono","no","18","no","white","no","yes","768","legacy","41","11","/Users/tionnahough/Desktop/th-subject-4.csv","legacy","1 3 2 6 9","Lentiform Loewenfeld","3.3.3","0","n","0","left","left","left","left","NA","701","76461","1024","701","NA","2","legacy","5","1024","2","48000","-16","experiment","4","even","5","397791","396577","80119","394480","395554","3603","155268","395565","388668","3637","154243","400506","399804","399804","NA","Sternberg Task","37","31178","54","yes","1024"
"69.0909090909091","69.0909090909091","571.8545454545455","571.8545454545455","black","experiment","legacy","legacy","legacy","0","uniform","1","undefined","1","left","54","54","0","54","54","0","0","54","54","0","0","54","54","54","0","Sun Oct 25 19:16:27 2020","The main experiment item","yes","HoughSternbergTask.osexp","/Users/tionnahough/Desktop/Fall 2020","no","mono","no","18","no","white","no","yes","768","legacy","42","11","/Users/tionnahough/Desktop/th-subject-4.csv","legacy","5 2 6","Lentiform Loewenfeld","3.3.3","2","y","0","left","left","left","left","NA","274","76461","1024","274","NA","2","legacy","3","1024","2","48000","-16","experiment","4","even","2","403841","402626","80119","394480","401602","3603","155268","401614","400528","3637","154243","406129","405853","405853","NA","Sternberg Task","38","31452","55","yes","1024"
"69.64285714285714","69.64285714285714","567.0178571428571","567.0178571428571","black","experiment","legacy","legacy","legacy","0","uniform","1","undefined","1","right","55","55","0","55","55","0","0","55","55","0","0","55","55","55","0","Sun Oct 25 19:16:27 2020","The main experiment item","yes","HoughSternbergTask.osexp","/Users/tionnahough/Desktop/Fall 2020","no","mono","no","18","no","white","no","yes","768","legacy","43","11","/Users/tionnahough/Desktop/th-subject-4.csv","legacy","7 9 1 6","Lentiform Loewenfeld","3.3.3","0","n","0","right","left","left","right","NA","301","76461","1024","301","NA","2","legacy","4","1024","2","48000","-16","experiment","4","even","4","409462","408247","80119","406150","407224","3603","155268","407235","400528","3637","154243","411776","411474","411474","NA","Sternberg Task","39","31753","56","yes","1024"
"68.42105263157895","68.42105263157895","561","561","black","experiment","legacy","legacy","legacy","0","uniform","0","undefined","0","left","56","56","0","56","56","0","0","56","56","0","0","56","56","56","0","Sun Oct 25 19:16:27 2020","The main experiment item","yes","HoughSternbergTask.osexp","/Users/tionnahough/Desktop/Fall 2020","no","mono","no","18","no","white","no","yes","768","legacy","44","11","/Users/tionnahough/Desktop/th-subject-4.csv","legacy","4 6 2 5 1","Lentiform Loewenfeld","3.3.3","5","y","0","right","left","left","right","NA","224","76461","1024","224","NA","2","legacy","5","1024","2","48000","-16","experiment","4","even","1","415107","413894","80119","411797","412871","3603","155268","412882","400528","3637","154243","417345","417119","417119","NA","Sternberg Task","39","31977","57","yes","1024"
"68.96551724137932","68.96551724137932","557.1896551724138","557.1896551724138","black","experiment","legacy","legacy","legacy","0","uniform","1","undefined","1","right","57","57","0","57","57","0","0","57","57","0","0","57","57","57","0","Sun Oct 25 19:16:27 2020","The main experiment item","yes","HoughSternbergTask.osexp","/Users/tionnahough/Desktop/Fall 2020","no","mono","no","18","no","white","no","yes","768","legacy","45","11","/Users/tionnahough/Desktop/th-subject-4.csv","legacy","6 3 1 7 9 8","Lentiform Loewenfeld","3.3.3","0","n","0","right","left","left","right","NA","340","76461","1024","340","NA","2","legacy","6","1024","2","48000","-16","experiment","4","even","4","420680","419464","80119","411797","418440","3603","155268","418452","417366","3637","154243","423033","422692","422691","NA","Sternberg Task","40","32317","58","yes","1024"
"69.49152542372882","69.49152542372882","554.4067796610169","554.4067796610169","black","experiment","legacy","legacy","legacy","0","uniform","1","undefined","1","left","58","58","0","58","58","0","0","58","58","0","0","58","58","58","0","Sun Oct 25 19:16:27 2020","The main experiment item","yes","HoughSternbergTask.osexp","/Users/tionnahough/Desktop/Fall 2020","no","mono","no","18","no","white","no","yes","768","legacy","46","11","/Users/tionnahough/Desktop/th-subject-4.csv","legacy","2 4 8 5 1 3","Lentiform Loewenfeld","3.3.3","1","y","0","left","left","left","left","NA","393","76461","1024","393","NA","2","legacy","6","1024","2","48000","-16","experiment","4","even","2","426366","425152","80119","423054","424128","3603","155268","424140","417366","3637","154243","428773","428378","428378","NA","Sternberg Task","41","32710","59","yes","1024"
"68.33333333333333","68.33333333333333","550.3","550.3","black","experiment","legacy","legacy","legacy","0","uniform","0","undefined","0","right","59","59","0","59","59","0","0","59","59","0","0","59","59","59","0","Sun Oct 25 19:16:27 2020","The main experiment item","yes","HoughSternbergTask.osexp","/Users/tionnahough/Desktop/Fall 2020","no","mono","no","18","no","white","no","yes","768","legacy","47","11","/Users/tionnahough/Desktop/th-subject-4.csv","legacy","5","Lentiform Loewenfeld","3.3.3","0","n","0","left","left","left","left","NA","308","76461","1024","308","NA","2","legacy","1","1024","2","48000","-16","experiment","4","even","8","432104","430891","80119","428794","429867","3603","155268","429879","417366","3637","154243","434426","434117","434117","NA","Sternberg Task","41","33018","60","yes","1024"
"67.21311475409836","67.21311475409836","547.8852459016393","547.8852459016393","black","experiment","legacy","legacy","legacy","0","uniform","0","undefined","0","right","60","60","0","60","60","0","0","60","60","0","0","60","60","60","0","Sun Oct 25 19:16:27 2020","The main experiment item","yes","HoughSternbergTask.osexp","/Users/tionnahough/Desktop/Fall 2020","no","mono","no","18","no","white","no","yes","768","legacy","48","11","/Users/tionnahough/Desktop/th-subject-4.csv","legacy","6 9 7 3 8 2","Lentiform Loewenfeld","3.3.3","0","n","0","left","left","left","left","NA","403","76461","1024","403","NA","2","legacy","6","1024","2","48000","-16","experiment","4","even","5","437761","436547","80119","428794","435522","3603","155268","435534","434448","3637","154243","440177","439773","439773","NA","Sternberg Task","41","33421","61","yes","1024"
"66.12903225806451","66.12903225806451","543.758064516129","543.758064516129","black","experiment","legacy","legacy","legacy","0","uniform","0","undefined","0","left","61","61","0","61","61","0","0","61","61","0","0","61","61","61","0","Sun Oct 25 19:16:27 2020","The main experiment item","yes","HoughSternbergTask.osexp","/Users/tionnahough/Desktop/Fall 2020","no","mono","no","18","no","white","no","yes","768","legacy","49","11","/Users/tionnahough/Desktop/th-subject-4.csv","legacy","3 5 7 1","Lentiform Loewenfeld","3.3.3","3","y","0","right","left","left","right","NA","292","76461","1024","292","NA","2","legacy","4","1024","2","48000","-16","experiment","4","even","7","443512","442298","80119","428794","441274","3603","155268","441285","440200","3637","154243","445817","445523","445523","NA","Sternberg Task","41","33713","62","yes","1024"
"65.07936507936508","65.07936507936508","544.0793650793651","544.0793650793651","black","experiment","legacy","legacy","legacy","0","uniform","0","undefined","0","left","62","62","0","62","62","0","0","62","62","0","0","62","62","62","0","Sun Oct 25 19:16:27 2020","The main experiment item","yes","HoughSternbergTask.osexp","/Users/tionnahough/Desktop/Fall 2020","no","mono","no","18","no","white","no","yes","768","legacy","50","11","/Users/tionnahough/Desktop/th-subject-4.csv","legacy","2 5 4 8 7","Lentiform Loewenfeld","3.3.3","3","y","0","right","left","left","right","NA","564","76461","1024","564","NA","2","legacy","5","1024","2","48000","-16","experiment","4","even","4","449154","447941","80119","428794","446916","3603","155268","446928","445839","3637","154243","451733","451167","451167","NA","Sternberg Task","41","34277","63","yes","1024"
"64.0625","64.0625","540.4375","540.4375","black","experiment","legacy","legacy","legacy","0","uniform","0","undefined","0","left","63","63","0","63","63","0","0","63","63","0","0","63","63","63","0","Sun Oct 25 19:16:27 2020","The main experiment item","yes","HoughSternbergTask.osexp","/Users/tionnahough/Desktop/Fall 2020","no","mono","no","18","no","white","no","yes","768","legacy","51","11","/Users/tionnahough/Desktop/th-subject-4.csv","legacy","4 6 5 8","Lentiform Loewenfeld","3.3.3","1","y","0","right","left","left","right","NA","311","76461","1024","311","NA","2","legacy","4","1024","2","48000","-16","experiment","4","even","4","455064","453850","80119","428794","452826","3603","155268","452838","451751","3637","154243","457388","457076","457076","NA","Sternberg Task","41","34588","64","yes","1024"
"63.07692307692308","63.07692307692308","540.9076923076923","540.9076923076923","black","experiment","legacy","legacy","legacy","0","uniform","0","undefined","0","left","64","64","0","64","64","0","0","64","64","0","0","64","64","64","0","Sun Oct 25 19:16:27 2020","The main experiment item","yes","HoughSternbergTask.osexp","/Users/tionnahough/Desktop/Fall 2020","no","mono","no","18","no","white","no","yes","768","legacy","52","11","/Users/tionnahough/Desktop/th-subject-4.csv","legacy","3 4 9 6 2 9","Lentiform Loewenfeld","3.3.3","5","y","0","right","left","left","right","NA","571","76461","1024","571","NA","2","legacy","6","1024","2","48000","-16","experiment","4","even","2","460725","459510","80119","428794","458486","3603","155268","458498","457411","3637","154243","463309","462737","462737","NA","Sternberg Task","41","35159","65","yes","1024"
"62.121212121212125","62.121212121212125","538.1212121212121","538.1212121212121","black","experiment","legacy","legacy","legacy","0","uniform","0","undefined","0","left","65","65","0","65","65","0","0","65","65","0","0","65","65","65","0","Sun Oct 25 19:16:27 2020","The main experiment item","yes","HoughSternbergTask.osexp","/Users/tionnahough/Desktop/Fall 2020","no","mono","no","18","no","white","no","yes","768","legacy","53","11","/Users/tionnahough/Desktop/th-subject-4.csv","legacy","6 9 3 1","Lentiform Loewenfeld","3.3.3","4","y","0","right","left","left","right","NA","357","76461","1024","357","NA","2","legacy","4","1024","2","48000","-16","experiment","4","even","1","466642","465429","80119","428794","464405","3603","155268","464417","463330","3637","154243","469013","468654","468654","NA","Sternberg Task","41","35516","66","yes","1024"
"62.6865671641791","62.6865671641791","534.2835820895523","534.2835820895523","black","experiment","legacy","legacy","legacy","0","uniform","1","undefined","1","left","66","66","0","66","66","0","0","66","66","0","0","66","66","66","0","Sun Oct 25 19:16:27 2020","The main experiment item","yes","HoughSternbergTask.osexp","/Users/tionnahough/Desktop/Fall 2020","no","mono","no","18","no","white","no","yes","768","legacy","54","11","/Users/tionnahough/Desktop/th-subject-4.csv","legacy","8 9 5 6 7","Lentiform Loewenfeld","3.3.3","1","y","0","left","left","left","left","NA","281","76461","1024","281","NA","2","legacy","5","1024","2","48000","-16","experiment","4","even","8","472346","471133","80119","428794","470109","3603","155268","470121","469035","3637","154243","474641","474358","474358","NA","Sternberg Task","42","35797","67","yes","1024"
"61.76470588235294","61.76470588235294","530.4558823529412","530.4558823529412","black","experiment","legacy","legacy","legacy","0","uniform","0","undefined","0","right","67","67","0","67","67","0","0","67","67","0","0","67","67","67","0","Sun Oct 25 19:16:27 2020","The main experiment item","yes","HoughSternbergTask.osexp","/Users/tionnahough/Desktop/Fall 2020","no","mono","no","18","no","white","no","yes","768","legacy","55","11","/Users/tionnahough/Desktop/th-subject-4.csv","legacy","9 8 2 7 4","Lentiform Loewenfeld","3.3.3","0","n","0","left","left","left","left","NA","274","76461","1024","274","NA","2","legacy","5","1024","2","48000","-16","experiment","4","even","5","477976","476762","80119","474663","475739","3603","155268","475750","469035","3637","154243","480264","479988","479988","NA","Sternberg Task","42","36071","68","yes","1024"
"60.869565217391305","60.869565217391305","528.9565217391304","528.9565217391304","black","experiment","legacy","legacy","legacy","0","uniform","0","undefined","0","right","68","68","0","68","68","0","0","68","68","0","0","68","68","68","0","Sun Oct 25 19:16:27 2020","The main experiment item","yes","HoughSternbergTask.osexp","/Users/tionnahough/Desktop/Fall 2020","no","mono","no","18","no","white","no","yes","768","legacy","56","11","/Users/tionnahough/Desktop/th-subject-4.csv","legacy","7 6 4 8 1 2","Lentiform Loewenfeld","3.3.3","0","n","0","left","left","left","left","NA","427","76461","1024","427","NA","2","legacy","6","1024","2","48000","-16","experiment","4","even","9","483595","482382","80119","474663","481358","3603","155268","481369","480285","3637","154243","486036","485608","485608","NA","Sternberg Task","42","36498","69","yes","1024"
"60","60","545.4571428571429","545.4571428571429","black","experiment","legacy","legacy","legacy","0","uniform","0","undefined","0","right","69","69","0","69","69","0","0","69","69","0","0","69","69","69","0","Sun Oct 25 19:16:27 2020","The main experiment item","yes","HoughSternbergTask.osexp","/Users/tionnahough/Desktop/Fall 2020","no","mono","no","18","no","white","no","yes","768","legacy","57","11","/Users/tionnahough/Desktop/th-subject-4.csv","legacy","4 8 1 2","Lentiform Loewenfeld","3.3.3","0","n","0","left","left","left","left","NA","1684","76461","1024","1684","NA","2","legacy","4","1024","2","48000","-16","experiment","4","even","7","489367","488154","80119","474663","487130","3603","155268","487142","486058","3637","154243","493064","491379","491379","NA","Sternberg Task","42","38182","70","yes","1024"
"60.563380281690144","60.563380281690144","551.6056338028169","551.6056338028169","black","experiment","legacy","legacy","legacy","0","uniform","1","undefined","1","right","70","70","0","70","70","0","0","70","70","0","0","70","70","70","0","Sun Oct 25 19:16:27 2020","The main experiment item","yes","HoughSternbergTask.osexp","/Users/tionnahough/Desktop/Fall 2020","no","mono","no","18","no","white","no","yes","768","legacy","58","11","/Users/tionnahough/Desktop/th-subject-4.csv","legacy","1 6 4","Lentiform Loewenfeld","3.3.3","0","n","0","right","left","left","right","NA","982","76461","1024","982","NA","2","legacy","3","1024","2","48000","-16","experiment","4","even","7","496401","495187","80119","474663","494163","3603","155268","494175","493087","3637","154243","499397","498413","498413","NA","Sternberg Task","43","39164","71","yes","1024"
"61.111111111111114","61.111111111111114","548.9027777777778","548.9027777777778","black","experiment","legacy","legacy","legacy","0","uniform","1","undefined","1","right","71","71","0","71","71","0","0","71","71","0","0","71","71","71","0","Sun Oct 25 19:16:27 2020","The main experiment item","yes","HoughSternbergTask.osexp","/Users/tionnahough/Desktop/Fall 2020","no","mono","no","18","no","white","no","yes","768","legacy","59","11","/Users/tionnahough/Desktop/th-subject-4.csv","legacy","1","Lentiform Loewenfeld","3.3.3","0","n","0","right","left","left","right","NA","357","76461","1024","357","NA","2","legacy","1","1024","2","48000","-16","experiment","4","even","7","502731","501517","80119","499418","500493","3603","155268","500504","493087","3637","154243","505101","504743","504743","NA","Sternberg Task","44","39521","72","yes","1024"
"60.273972602739725","60.273972602739725","553.8904109589041","553.8904109589041","black","experiment","legacy","legacy","legacy","0","uniform","0","undefined","0","right","72","72","0","72","72","0","0","72","72","0","0","72","72","72","0","Sun Oct 25 19:16:27 2020","The main experiment item","yes","HoughSternbergTask.osexp","/Users/tionnahough/Desktop/Fall 2020","no","mono","no","18","no","white","no","yes","768","legacy","60","11","/Users/tionnahough/Desktop/th-subject-4.csv","legacy","1 7 8 3 9","Lentiform Loewenfeld","3.3.3","0","n","0","left","left","left","left","NA","913","76461","1024","913","NA","2","legacy","5","1024","2","48000","-16","experiment","4","even","2","508434","507221","80119","505123","506196","3603","155268","506208","493087","3637","154243","511362","510447","510447","NA","Sternberg Task","44","40434","73","yes","1024"
"59.45945945945946","59.45945945945946","551.4054054054054","551.4054054054054","black","experiment","legacy","legacy","legacy","0","uniform","0","undefined","0","left","73","73","0","73","73","0","0","73","73","0","0","73","73","73","0","Sun Oct 25 19:16:27 2020","The main experiment item","yes","HoughSternbergTask.osexp","/Users/tionnahough/Desktop/Fall 2020","no","mono","no","18","no","white","no","yes","768","legacy","61","11","/Users/tionnahough/Desktop/th-subject-4.csv","legacy","8 7 3","Lentiform Loewenfeld","3.3.3","1","y","0","right","left","left","right","NA","370","76461","1024","370","NA","2","legacy","3","1024","2","48000","-16","experiment","4","even","8","514696","513482","80119","505123","512458","3603","155268","512470","511383","3637","154243","517079","516707","516707","NA","Sternberg Task","44","40804","74","yes","1024"
"60","60","552.1333333333333","552.1333333333333","black","experiment","legacy","legacy","legacy","0","uniform","1","undefined","1","left","74","74","0","74","74","0","0","74","74","0","0","74","74","74","0","Sun Oct 25 19:16:27 2020","The main experiment item","yes","HoughSternbergTask.osexp","/Users/tionnahough/Desktop/Fall 2020","no","mono","no","18","no","white","no","yes","768","legacy","62","11","/Users/tionnahough/Desktop/th-subject-4.csv","legacy","7 4 2 6 3 5","Lentiform Loewenfeld","3.3.3","6","y","0","left","left","left","left","NA","606","76461","1024","606","NA","2","legacy","6","1024","2","48000","-16","experiment","4","even","5","520404","519190","80119","505123","518165","3603","155268","518177","517092","3637","154243","523024","522416","522415","NA","Sternberg Task","45","41410","75","yes","1024"
"59.21052631578947","59.21052631578947","556.2631578947369","556.2631578947369","black","experiment","legacy","legacy","legacy","0","uniform","0","undefined","0","right","75","75","0","75","75","0","0","75","75","0","0","75","75","75","0","Sun Oct 25 19:16:27 2020","The main experiment item","yes","HoughSternbergTask.osexp","/Users/tionnahough/Desktop/Fall 2020","no","mono","no","18","no","white","no","yes","768","legacy","63","11","/Users/tionnahough/Desktop/th-subject-4.csv","legacy","6 8 4","Lentiform Loewenfeld","3.3.3","0","n","0","left","left","left","left","NA","866","76461","1024","866","NA","2","legacy","3","1024","2","48000","-16","experiment","4","even","1","526359","525146","80119","523046","524123","3603","155268","524134","517092","3637","154243","529239","528371","528371","NA","Sternberg Task","45","42276","76","yes","1024"
"59.74025974025974","59.74025974025974","554.9090909090909","554.9090909090909","black","experiment","legacy","legacy","legacy","0","uniform","1","undefined","1","right","76","76","0","76","76","0","0","76","76","0","0","76","76","76","0","Sun Oct 25 19:16:27 2020","The main experiment item","yes","HoughSternbergTask.osexp","/Users/tionnahough/Desktop/Fall 2020","no","mono","no","18","no","white","no","yes","768","legacy","64","11","/Users/tionnahough/Desktop/th-subject-4.csv","legacy","7 8 6 1","Lentiform Loewenfeld","3.3.3","0","n","0","right","left","left","right","NA","452","76461","1024","452","NA","2","legacy","4","1024","2","48000","-16","experiment","4","even","3","532574","531361","80119","523046","530337","3603","155268","530349","529260","3637","154243","535039","534586","534586","NA","Sternberg Task","46","42728","77","yes","1024"
"58.97435897435897","58.97435897435897","552.974358974359","552.974358974359","black","experiment","legacy","legacy","legacy","0","uniform","0","undefined","0","left","77","77","0","77","77","0","0","77","77","0","0","77","77","77","0","Sun Oct 25 19:16:27 2020","The main experiment item","yes","HoughSternbergTask.osexp","/Users/tionnahough/Desktop/Fall 2020","no","mono","no","18","no","white","no","yes","768","legacy","65","11","/Users/tionnahough/Desktop/th-subject-4.csv","legacy","9 8 4","Lentiform Loewenfeld","3.3.3","1","y","0","right","left","left","right","NA","404","76461","1024","404","NA","2","legacy","3","1024","2","48000","-16","experiment","4","even","9","538375","537161","80119","535061","536137","3603","155268","536148","529260","3637","154243","540793","540387","540387","NA","Sternberg Task","46","43132","78","yes","1024"
"58.22784810126582","58.22784810126582","549.9493670886076","549.9493670886076","black","experiment","legacy","legacy","legacy","0","uniform","0","undefined","0","right","78","78","0","78","78","0","0","78","78","0","0","78","78","78","0","Sun Oct 25 19:16:27 2020","The main experiment item","yes","HoughSternbergTask.osexp","/Users/tionnahough/Desktop/Fall 2020","no","mono","no","18","no","white","no","yes","768","legacy","66","11","/Users/tionnahough/Desktop/th-subject-4.csv","legacy","8 5 7 3 6","Lentiform Loewenfeld","3.3.3","0","n","0","left","left","left","left","NA","314","76461","1024","314","NA","2","legacy","5","1024","2","48000","-16","experiment","4","even","9","544124","542911","80119","535061","541887","3603","155268","541899","540813","3637","154243","546451","546136","546136","NA","Sternberg Task","46","43446","79","yes","1024"
"57.5","57.5","548.3625","548.3625","black","experiment","legacy","legacy","legacy","0","uniform","0","undefined","0","left","79","79","0","79","79","0","0","79","79","0","0","79","79","79","0","Sun Oct 25 19:16:27 2020","The main experiment item","yes","HoughSternbergTask.osexp","/Users/tionnahough/Desktop/Fall 2020","no","mono","no","18","no","white","no","yes","768","legacy","67","11","/Users/tionnahough/Desktop/th-subject-4.csv","legacy","7 8 6 3 1","Lentiform Loewenfeld","3.3.3","5","y","0","right","left","left","right","NA","423","76461","1024","423","NA","2","legacy","5","1024","2","48000","-16","experiment","4","even","1","549787","548573","80119","535061","547549","3603","155268","547561","546474","3637","154243","552223","551799","551799","NA","Sternberg Task","46","43869","80","yes","1024"
"58.02469135802469","58.02469135802469","545.3333333333334","545.3333333333334","black","experiment","legacy","legacy","legacy","0","uniform","1","undefined","1","right","80","80","0","80","80","0","0","80","80","0","0","80","80","80","0","Sun Oct 25 19:16:27 2020","The main experiment item","yes","HoughSternbergTask.osexp","/Users/tionnahough/Desktop/Fall 2020","no","mono","no","18","no","white","no","yes","768","legacy","68","11","/Users/tionnahough/Desktop/th-subject-4.csv","legacy","1 5 3 2 8","Lentiform Loewenfeld","3.3.3","0","n","0","right","left","left","right","NA","303","76461","1024","303","NA","2","legacy","5","1024","2","48000","-16","experiment","4","even","4","555559","554345","80119","535061","553321","3603","155268","553333","552245","3637","154243","557875","557570","557570","NA","Sternberg Task","47","44172","81","yes","1024"
"58.53658536585366","58.53658536585366","543.8780487804878","543.8780487804878","black","experiment","legacy","legacy","legacy","0","uniform","1","undefined","1","left","81","81","0","81","81","0","0","81","81","0","0","81","81","81","0","Sun Oct 25 19:16:27 2020","The main experiment item","yes","HoughSternbergTask.osexp","/Users/tionnahough/Desktop/Fall 2020","no","mono","no","18","no","white","no","yes","768","legacy","69","11","/Users/tionnahough/Desktop/th-subject-4.csv","legacy","3 5 4 7","Lentiform Loewenfeld","3.3.3","1","y","0","left","left","left","left","NA","426","76461","1024","426","NA","2","legacy","4","1024","2","48000","-16","experiment","4","even","3","561209","559996","80119","557896","558972","3603","155268","558984","552245","3637","154243","563649","563221","563221","NA","Sternberg Task","48","44598","82","yes","1024"
"59.036144578313255","59.036144578313255","542.3373493975904","542.3373493975904","black","experiment","legacy","legacy","legacy","0","uniform","1","undefined","1","left","82","82","0","82","82","0","0","82","82","0","0","82","82","82","0","Sun Oct 25 19:16:27 2020","The main experiment item","yes","HoughSternbergTask.osexp","/Users/tionnahough/Desktop/Fall 2020","no","mono","no","18","no","white","no","yes","768","legacy","70","11","/Users/tionnahough/Desktop/th-subject-4.csv","legacy","9 1 6 7 8","Lentiform Loewenfeld","3.3.3","1","y","0","left","left","left","left","NA","416","76461","1024","416","NA","2","legacy","5","1024","2","48000","-16","experiment","4","even","9","566985","565771","80119","563670","564746","3603","155268","564758","552245","3637","154243","569414","568997","568997","NA","Sternberg Task","49","45014","83","yes","1024"
"59.523809523809526","59.523809523809526","550.4166666666666","550.4166666666666","black","experiment","legacy","legacy","legacy","0","uniform","1","undefined","1","right","83","83","0","83","83","0","0","83","83","0","0","83","83","83","0","Sun Oct 25 19:16:27 2020","The main experiment item","yes","HoughSternbergTask.osexp","/Users/tionnahough/Desktop/Fall 2020","no","mono","no","18","no","white","no","yes","768","legacy","71","11","/Users/tionnahough/Desktop/th-subject-4.csv","legacy","1 7 5 2","Lentiform Loewenfeld","3.3.3","0","n","0","right","left","left","right","NA","1221","76461","1024","1221","NA","2","legacy","4","1024","2","48000","-16","experiment","4","even","3","572749","571534","80119","569435","570511","3603","155268","570522","552245","3637","154243","575983","574761","574761","NA","Sternberg Task","50","46235","84","yes","1024"
"60","60","548.635294117647","548.635294117647","black","experiment","legacy","legacy","legacy","0","uniform","1","undefined","1","right","84","84","0","84","84","0","0","84","84","0","0","84","84","84","0","Sun Oct 25 19:16:27 2020","The main experiment item","yes","HoughSternbergTask.osexp","/Users/tionnahough/Desktop/Fall 2020","no","mono","no","18","no","white","no","yes","768","legacy","72","11","/Users/tionnahough/Desktop/th-subject-4.csv","legacy","8 9","Lentiform Loewenfeld","3.3.3","0","n","0","right","left","left","right","NA","399","76461","1024","399","NA","2","legacy","2","1024","2","48000","-16","experiment","4","even","5","579315","578101","80119","576004","577077","3603","155268","577089","552245","3637","154243","581727","581326","581326","NA","Sternberg Task","51","46634","85","yes","1024"
"60.46511627906977","60.46511627906977","547.5581395348837","547.5581395348837","black","experiment","legacy","legacy","legacy","0","uniform","1","undefined","1","right","85","85","0","85","85","0","0","85","85","0","0","85","85","85","0","Sun Oct 25 19:16:27 2020","The main experiment item","yes","HoughSternbergTask.osexp","/Users/tionnahough/Desktop/Fall 2020","no","mono","no","18","no","white","no","yes","768","legacy","73","11","/Users/tionnahough/Desktop/th-subject-4.csv","legacy","1 4 9 2 5","Lentiform Loewenfeld","3.3.3","0","n","0","right","left","left","right","NA","456","76461","1024","456","NA","2","legacy","5","1024","2","48000","-16","experiment","4","even","7","585061","583849","80119","581748","582825","3603","155268","582837","552245","3637","154243","587532","587074","587073","NA","Sternberg Task","52","47090","86","yes","1024"
"59.770114942528735","59.770114942528735","551.3678160919541","551.3678160919541","black","experiment","legacy","legacy","legacy","0","uniform","0","undefined","0","right","86","86","0","86","86","0","0","86","86","0","0","86","86","86","0","Sun Oct 25 19:16:27 2020","The main experiment item","yes","HoughSternbergTask.osexp","/Users/tionnahough/Desktop/Fall 2020","no","mono","no","18","no","white","no","yes","768","legacy","74","11","/Users/tionnahough/Desktop/th-subject-4.csv","legacy","1 8 7","Lentiform Loewenfeld","3.3.3","0","n","0","left","left","left","left","NA","879","76461","1024","879","NA","2","legacy","3","1024","2","48000","-16","experiment","4","even","4","590866","589652","80119","587554","588627","3603","155268","588639","552245","3637","154243","593759","592879","592879","NA","Sternberg Task","52","47969","87","yes","1024"
"59.09090909090909","59.09090909090909","551.3409090909091","551.3409090909091","black","experiment","legacy","legacy","legacy","0","uniform","0","undefined","0","left","87","87","0","87","87","0","0","87","87","0","0","87","87","87","0","Sun Oct 25 19:16:27 2020","The main experiment item","yes","HoughSternbergTask.osexp","/Users/tionnahough/Desktop/Fall 2020","no","mono","no","18","no","white","no","yes","768","legacy","75","11","/Users/tionnahough/Desktop/th-subject-4.csv","legacy","9 3 1 2 5","Lentiform Loewenfeld","3.3.3","4","y","0","right","left","left","right","NA","549","76461","1024","549","NA","2","legacy","5","1024","2","48000","-16","experiment","4","even","2","597094","595880","80119","587554","594856","3603","155268","594867","593781","3637","154243","599657","599106","599106","NA","Sternberg Task","52","48518","88","yes","1024"
"59.550561797752806","59.550561797752806","552.0786516853933","552.0786516853933","black","experiment","legacy","legacy","legacy","0","uniform","1","undefined","1","right","88","88","0","88","88","0","0","88","88","0","0","88","88","88","0","Sun Oct 25 19:16:27 2020","The main experiment item","yes","HoughSternbergTask.osexp","/Users/tionnahough/Desktop/Fall 2020","no","mono","no","18","no","white","no","yes","768","legacy","76","11","/Users/tionnahough/Desktop/th-subject-4.csv","legacy","3 9 8 1 6 4","Lentiform Loewenfeld","3.3.3","0","n","0","right","left","left","right","NA","617","76461","1024","617","NA","2","legacy","6","1024","2","48000","-16","experiment","4","even","7","602991","601777","80119","587554","600753","3603","155268","600764","599679","3637","154243","605621","605002","605002","NA","Sternberg Task","53","49135","89","yes","1024"
"60","60","553.6555555555556","553.6555555555556","black","experiment","legacy","legacy","legacy","0","uniform","1","undefined","1","right","89","89","0","89","89","0","0","89","89","0","0","89","89","89","0","Sun Oct 25 19:16:27 2020","The main experiment item","yes","HoughSternbergTask.osexp","/Users/tionnahough/Desktop/Fall 2020","no","mono","no","18","no","white","no","yes","768","legacy","77","11","/Users/tionnahough/Desktop/th-subject-4.csv","legacy","6 7 5 9","Lentiform Loewenfeld","3.3.3","0","n","0","right","left","left","right","NA","694","76461","1024","694","NA","2","legacy","4","1024","2","48000","-16","experiment","4","even","2","608958","607745","80119","605643","606721","3603","155268","606733","599679","3637","154243","611667","610971","610970","NA","Sternberg Task","54","49829","90","yes","1024"
"60.43956043956044","60.43956043956044","552.7362637362637","552.7362637362637","black","experiment","legacy","legacy","legacy","0","uniform","1","undefined","1","left","90","90","0","90","90","0","0","90","90","0","0","90","90","90","0","Sun Oct 25 19:16:27 2020","The main experiment item","yes","HoughSternbergTask.osexp","/Users/tionnahough/Desktop/Fall 2020","no","mono","no","18","no","white","no","yes","768","legacy","78","11","/Users/tionnahough/Desktop/th-subject-4.csv","legacy","8 5 4 7 3 1","Lentiform Loewenfeld","3.3.3","2","y","0","left","left","left","left","NA","470","76461","1024","470","NA","2","legacy","6","1024","2","48000","-16","experiment","4","even","5","614994","613780","80119","611680","612756","3603","155268","612768","599679","3637","154243","617476","617005","617005","NA","Sternberg Task","55","50299","91","yes","1024"
"60.869565217391305","60.869565217391305","555.695652173913","555.695652173913","black","experiment","legacy","legacy","legacy","0","uniform","1","undefined","1","left","91","91","0","91","91","0","0","91","91","0","0","91","91","91","0","Sun Oct 25 19:16:27 2020","The main experiment item","yes","HoughSternbergTask.osexp","/Users/tionnahough/Desktop/Fall 2020","no","mono","no","18","no","white","no","yes","768","legacy","79","11","/Users/tionnahough/Desktop/th-subject-4.csv","legacy","7","Lentiform Loewenfeld","3.3.3","1","y","0","left","left","left","left","NA","825","76461","1024","825","NA","2","legacy","1","1024","2","48000","-16","experiment","4","even","7","620809","619595","80119","617498","618571","3603","155268","618583","599679","3637","154243","623648","622821","622821","NA","Sternberg Task","56","51124","92","yes","1024"
"61.29032258064516","61.29032258064516","557.5913978494624","557.5913978494624","black","experiment","legacy","legacy","legacy","0","uniform","1","undefined","1","right","92","92","0","92","92","0","0","92","92","0","0","92","92","92","0","Sun Oct 25 19:16:27 2020","The main experiment item","yes","HoughSternbergTask.osexp","/Users/tionnahough/Desktop/Fall 2020","no","mono","no","18","no","white","no","yes","768","legacy","80","11","/Users/tionnahough/Desktop/th-subject-4.csv","legacy","2 8 6 3 1","Lentiform Loewenfeld","3.3.3","0","n","0","right","left","left","right","NA","732","76461","1024","732","NA","2","legacy","5","1024","2","48000","-16","experiment","4","even","7","626982","625769","80119","623670","624745","3603","155268","624757","599679","3637","154243","629728","628995","628995","NA","Sternberg Task","57","51856","93","yes","1024"
"60.638297872340424","60.638297872340424","560.3510638297872","560.3510638297872","black","experiment","legacy","legacy","legacy","0","uniform","0","undefined","0","left","93","93","0","93","93","0","0","93","93","0","0","93","93","93","0","Sun Oct 25 19:16:27 2020","The main experiment item","yes","HoughSternbergTask.osexp","/Users/tionnahough/Desktop/Fall 2020","no","mono","no","18","no","white","no","yes","768","legacy","81","11","/Users/tionnahough/Desktop/th-subject-4.csv","legacy","7 2 3","Lentiform Loewenfeld","3.3.3","3","y","0","right","left","left","right","NA","817","76461","1024","817","NA","2","legacy","3","1024","2","48000","-16","experiment","4","even","3","633065","631851","80119","629750","630827","3603","155268","630838","599679","3637","154243","635897","635078","635077","NA","Sternberg Task","57","52673","94","yes","1024"
"61.05263157894737","61.05263157894737","564.8526315789474","564.8526315789474","black","experiment","legacy","legacy","legacy","0","uniform","1","undefined","1","left","94","94","0","94","94","0","0","94","94","0","0","94","94","94","0","Sun Oct 25 19:16:27 2020","The main experiment item","yes","HoughSternbergTask.osexp","/Users/tionnahough/Desktop/Fall 2020","no","mono","no","18","no","white","no","yes","768","legacy","82","11","/Users/tionnahough/Desktop/th-subject-4.csv","legacy","6 1 2","Lentiform Loewenfeld","3.3.3","3","y","0","left","left","left","left","NA","988","76461","1024","988","NA","2","legacy","3","1024","2","48000","-16","experiment","4","even","2","639230","638016","80119","629750","636994","3603","155268","637004","635917","3637","154243","642231","641242","641242","NA","Sternberg Task","58","53661","95","yes","1024"
"61.458333333333336","61.458333333333336","565.59375","565.59375","black","experiment","legacy","legacy","legacy","0","uniform","1","undefined","1","right","95","95","0","95","95","0","0","95","95","0","0","95","95","95","0","Sun Oct 25 19:16:27 2020","The main experiment item","yes","HoughSternbergTask.osexp","/Users/tionnahough/Desktop/Fall 2020","no","mono","no","18","no","white","no","yes","768","legacy","83","11","/Users/tionnahough/Desktop/th-subject-4.csv","legacy","2 8 9 4 1","Lentiform Loewenfeld","3.3.3","0","n","0","right","left","left","right","NA","636","76461","1024","636","NA","2","legacy","5","1024","2","48000","-16","experiment","4","even","5","645567","644353","80119","642254","643329","3603","155268","643340","635917","3637","154243","648217","647579","647579","NA","Sternberg Task","59","54297","96","yes","1024"
"61.855670103092784","61.855670103092784","567.7525773195877","567.7525773195877","black","experiment","legacy","legacy","legacy","0","uniform","1","undefined","1","right","96","96","0","96","96","0","0","96","96","0","0","96","96","96","0","Sun Oct 25 19:16:27 2020","The main experiment item","yes","HoughSternbergTask.osexp","/Users/tionnahough/Desktop/Fall 2020","no","mono","no","18","no","white","no","yes","768","legacy","84","11","/Users/tionnahough/Desktop/th-subject-4.csv","legacy","8 2 1 4 5 9","Lentiform Loewenfeld","3.3.3","0","n","0","right","left","left","right","NA","775","76461","1024","775","NA","2","legacy","6","1024","2","48000","-16","experiment","4","even","7","651553","650340","80119","648238","649316","3603","155268","649328","635917","3637","154243","654344","653567","653566","NA","Sternberg Task","60","55072","97","yes","1024"
"61.224489795918366","61.224489795918366","568.8673469387755","568.8673469387755","black","experiment","legacy","legacy","legacy","0","uniform","0","undefined","0","left","97","97","0","97","97","0","0","97","97","0","0","97","97","97","0","Sun Oct 25 19:16:27 2020","The main experiment item","yes","HoughSternbergTask.osexp","/Users/tionnahough/Desktop/Fall 2020","no","mono","no","18","no","white","no","yes","768","legacy","85","11","/Users/tionnahough/Desktop/th-subject-4.csv","legacy","5 7 8 2 3 8","Lentiform Loewenfeld","3.3.3","5","y","0","right","left","left","right","NA","677","76461","1024","677","NA","2","legacy","6","1024","2","48000","-16","experiment","4","even","3","657702","656488","80119","654384","655458","3603","155268","655473","635917","3637","154243","660394","659715","659715","NA","Sternberg Task","60","55749","98","yes","1024"
"61.61616161616162","61.61616161616162","566.3434343434343","566.3434343434343","black","experiment","legacy","legacy","legacy","0","uniform","1","undefined","1","right","98","98","0","98","98","0","0","98","98","0","0","98","98","98","0","Sun Oct 25 19:16:27 2020","The main experiment item","yes","HoughSternbergTask.osexp","/Users/tionnahough/Desktop/Fall 2020","no","mono","no","18","no","white","no","yes","768","legacy","86","11","/Users/tionnahough/Desktop/th-subject-4.csv","legacy","9","Lentiform Loewenfeld","3.3.3","0","n","0","right","left","left","right","NA","319","76461","1024","319","NA","2","legacy","1","1024","2","48000","-16","experiment","4","even","6","663730","662512","80119","654384","661488","3603","155268","661500","660415","3637","154243","666066","665745","665745","NA","Sternberg Task","61","56068","99","yes","1024"
"61","61","565.46","565.46","black","experiment","legacy","legacy","legacy","0","uniform","0","undefined","0","left","99","99","0","99","99","0","0","99","99","0","0","99","99","99","0","Sun Oct 25 19:16:27 2020","The main experiment item","yes","HoughSternbergTask.osexp","/Users/tionnahough/Desktop/Fall 2020","no","mono","no","18","no","white","no","yes","768","legacy","87","11","/Users/tionnahough/Desktop/th-subject-4.csv","legacy","9 5 3 8 4","Lentiform Loewenfeld","3.3.3","1","y","0","right","left","left","right","NA","478","76461","1024","478","NA","2","legacy","5","1024","2","48000","-16","experiment","4","even","9","669402","668188","80119","666089","667164","3603","155268","667176","660415","3637","154243","671894","671414","671414","NA","Sternberg Task","61","56546","100","yes","1024"
"61.386138613861384","61.386138613861384","562.4158415841584","562.4158415841584","black","experiment","legacy","legacy","legacy","0","uniform","1","undefined","1","left","100","100","0","100","100","0","0","100","100","0","0","100","100","100","0","Sun Oct 25 19:16:27 2020","The main experiment item","yes","HoughSternbergTask.osexp","/Users/tionnahough/Desktop/Fall 2020","no","mono","no","18","no","white","no","yes","768","legacy","88","11","/Users/tionnahough/Desktop/th-subject-4.csv","legacy","8","Lentiform Loewenfeld","3.3.3","1","y","0","left","left","left","left","NA","258","76461","1024","258","NA","2","legacy","1","1024","2","48000","-16","experiment","4","even","8","675224","674010","80119","666089","672988","3603","155268","672999","671915","3637","154243","677496","677237","677237","NA","Sternberg Task","62","56804","101","yes","1024"
"61.76470588235294","61.76470588235294","561.7941176470588","561.7941176470588","black","experiment","legacy","legacy","legacy","0","uniform","1","undefined","1","left","101","101","0","101","101","0","0","101","101","0","0","101","101","101","0","Sun Oct 25 19:16:27 2020","The main experiment item","yes","HoughSternbergTask.osexp","/Users/tionnahough/Desktop/Fall 2020","no","mono","no","18","no","white","no","yes","768","legacy","89","11","/Users/tionnahough/Desktop/th-subject-4.csv","legacy","7 1 3","Lentiform Loewenfeld","3.3.3","2","y","0","left","left","left","left","NA","499","76461","1024","499","NA","2","legacy","3","1024","2","48000","-16","experiment","4","even","1","680827","679614","80119","677518","678591","3603","155268","678602","671915","3637","154243","683341","682840","682840","NA","Sternberg Task","63","57303","102","yes","1024"
"62.13592233009709","62.13592233009709","572.3300970873786","572.3300970873786","black","experiment","legacy","legacy","legacy","0","uniform","1","undefined","1","right","102","102","0","102","102","0","0","102","102","0","0","102","102","102","0","Sun Oct 25 19:16:27 2020","The main experiment item","yes","HoughSternbergTask.osexp","/Users/tionnahough/Desktop/Fall 2020","no","mono","no","18","no","white","no","yes","768","legacy","90","11","/Users/tionnahough/Desktop/th-subject-4.csv","legacy","6 8","Lentiform Loewenfeld","3.3.3","0","n","0","right","left","left","right","NA","1647","76461","1024","1647","NA","2","legacy","2","1024","2","48000","-16","experiment","4","even","9","686674","685460","80119","683362","684437","3603","155268","684448","671915","3637","154243","690336","688688","688688","NA","Sternberg Task","64","58950","103","yes","1024"
"61.53846153846154","61.53846153846154","570.6057692307693","570.6057692307693","black","experiment","legacy","legacy","legacy","0","uniform","0","undefined","0","left","103","103","0","103","103","0","0","103","103","0","0","103","103","103","0","Sun Oct 25 19:16:27 2020","The main experiment item","yes","HoughSternbergTask.osexp","/Users/tionnahough/Desktop/Fall 2020","no","mono","no","18","no","white","no","yes","768","legacy","91","11","/Users/tionnahough/Desktop/th-subject-4.csv","legacy","4 1 5","Lentiform Loewenfeld","3.3.3","2","y","0","right","left","left","right","NA","393","76461","1024","393","NA","2","legacy","3","1024","2","48000","-16","experiment","4","even","1","693669","692456","80119","690357","691432","3603","155268","691444","671915","3637","154243","696076","695682","695682","NA","Sternberg Task","64","59343","104","yes","1024"
"61.904761904761905","61.904761904761905","572.0857142857143","572.0857142857143","black","experiment","legacy","legacy","legacy","0","uniform","1","undefined","1","left","104","104","0","104","104","0","0","104","104","0","0","104","104","104","0","Sun Oct 25 19:16:27 2020","The main experiment item","yes","HoughSternbergTask.osexp","/Users/tionnahough/Desktop/Fall 2020","no","mono","no","18","no","white","no","yes","768","legacy","92","11","/Users/tionnahough/Desktop/th-subject-4.csv","legacy","6 8 9 3 4 9","Lentiform Loewenfeld","3.3.3","5","y","0","left","left","left","left","NA","726","76461","1024","726","NA","2","legacy","6","1024","2","48000","-16","experiment","4","even","4","699410","698196","80119","690357","697173","3603","155268","697184","696098","3637","154243","702150","701422","701421","NA","Sternberg Task","65","60069","105","yes","1024"
"62.264150943396224","62.264150943396224","572.433962264151","572.433962264151","black","experiment","legacy","legacy","legacy","0","uniform","1","undefined","1","right","105","105","0","105","105","0","0","105","105","0","0","105","105","105","0","Sun Oct 25 19:16:27 2020","The main experiment item","yes","HoughSternbergTask.osexp","/Users/tionnahough/Desktop/Fall 2020","no","mono","no","18","no","white","no","yes","768","legacy","93","11","/Users/tionnahough/Desktop/th-subject-4.csv","legacy","5 2","Lentiform Loewenfeld","3.3.3","0","n","0","right","left","left","right","NA","609","76461","1024","609","NA","2","legacy","2","1024","2","48000","-16","experiment","4","even","7","705485","704270","80119","702171","703245","3603","155268","703257","696098","3637","154243","708106","707496","707496","NA","Sternberg Task","66","60678","106","yes","1024"
"62.61682242990654","62.61682242990654","572.5514018691589","572.5514018691589","black","experiment","legacy","legacy","legacy","0","uniform","1","undefined","1","right","106","106","0","106","106","0","0","106","106","0","0","106","106","106","0","Sun Oct 25 19:16:27 2020","The main experiment item","yes","HoughSternbergTask.osexp","/Users/tionnahough/Desktop/Fall 2020","no","mono","no","18","no","white","no","yes","768","legacy","94","11","/Users/tionnahough/Desktop/th-subject-4.csv","legacy","1 7 5 2 9","Lentiform Loewenfeld","3.3.3","0","n","0","right","left","left","right","NA","585","76461","1024","585","NA","2","legacy","5","1024","2","48000","-16","experiment","4","even","3","711440","710227","80119","708128","709203","3603","155268","709215","696098","3637","154243","714039","713452","713451","NA","Sternberg Task","67","61263","107","yes","1024"
"62.03703703703704","62.03703703703704","573.7407407407408","573.7407407407408","black","experiment","legacy","legacy","legacy","0","uniform","0","undefined","0","left","107","107","0","107","107","0","0","107","107","0","0","107","107","107","0","Sun Oct 25 19:16:27 2020","The main experiment item","yes","HoughSternbergTask.osexp","/Users/tionnahough/Desktop/Fall 2020","no","mono","no","18","no","white","no","yes","768","legacy","95","11","/Users/tionnahough/Desktop/th-subject-4.csv","legacy","3 9 7 6 4","Lentiform Loewenfeld","3.3.3","3","y","0","right","left","left","right","NA","701","76461","1024","701","NA","2","legacy","5","1024","2","48000","-16","experiment","4","even","7","717375","716161","80119","714060","715137","3603","155268","715149","696098","3637","154243","720090","719388","719387","NA","Sternberg Task","67","61964","108","yes","1024"
"62.38532110091743","62.38532110091743","574.394495412844","574.394495412844","black","experiment","legacy","legacy","legacy","0","uniform","1","undefined","1","right","108","108","0","108","108","0","0","108","108","0","0","108","108","108","0","Sun Oct 25 19:16:27 2020","The main experiment item","yes","HoughSternbergTask.osexp","/Users/tionnahough/Desktop/Fall 2020","no","mono","no","18","no","white","no","yes","768","legacy","96","11","/Users/tionnahough/Desktop/th-subject-4.csv","legacy","6 9 4 5 2","Lentiform Loewenfeld","3.3.3","0","n","0","right","left","left","right","NA","645","76461","1024","645","NA","2","legacy","5","1024","2","48000","-16","experiment","4","even","1","723426","722212","80119","714060","721188","3603","155268","721199","720113","3637","154243","726085","725438","725438","NA","Sternberg Task","68","62609","109","yes","1024"
"61.81818181818182","61.81818181818182","574.6454545454545","574.6454545454545","black","experiment","legacy","legacy","legacy","0","uniform","0","undefined","0","left","109","109","0","109","109","0","0","109","109","0","0","109","109","109","0","Sun Oct 25 19:16:27 2020","The main experiment item","yes","HoughSternbergTask.osexp","/Users/tionnahough/Desktop/Fall 2020","no","mono","no","18","no","white","no","yes","768","legacy","97","11","/Users/tionnahough/Desktop/th-subject-4.csv","legacy","4 9 7 8 5 3","Lentiform Loewenfeld","3.3.3","4","y","0","right","left","left","right","NA","602","76461","1024","602","NA","2","legacy","6","1024","2","48000","-16","experiment","4","even","8","729418","728205","80119","726107","727181","3603","155268","727193","720113","3637","154243","732034","731431","731431","NA","Sternberg Task","68","63211","110","yes","1024"
"62.16216216216216","62.16216216216216","573.7117117117117","573.7117117117117","black","experiment","legacy","legacy","legacy","0","uniform","1","undefined","1","right","110","110","0","110","110","0","0","110","110","0","0","110","110","110","0","Sun Oct 25 19:16:27 2020","The main experiment item","yes","HoughSternbergTask.osexp","/Users/tionnahough/Desktop/Fall 2020","no","mono","no","18","no","white","no","yes","768","legacy","98","11","/Users/tionnahough/Desktop/th-subject-4.csv","legacy","6 9 5","Lentiform Loewenfeld","3.3.3","0","n","0","right","left","left","right","NA","471","76461","1024","471","NA","2","legacy","3","1024","2","48000","-16","experiment","4","even","8","735368","734154","80119","726107","733129","3603","155268","733141","732056","3637","154243","737852","737380","737379","NA","Sternberg Task","69","63682","111","yes","1024"
"62.5","62.5","576.8392857142857","576.8392857142857","black","experiment","legacy","legacy","legacy","0","uniform","1","undefined","1","right","111","111","0","111","111","0","0","111","111","0","0","111","111","111","0","Sun Oct 25 19:16:27 2020","The main experiment item","yes","HoughSternbergTask.osexp","/Users/tionnahough/Desktop/Fall 2020","no","mono","no","18","no","white","no","yes","768","legacy","99","11","/Users/tionnahough/Desktop/th-subject-4.csv","legacy","3 4 9 6 7 8","Lentiform Loewenfeld","3.3.3","0","n","0","right","left","left","right","NA","924","76461","1024","924","NA","2","legacy","6","1024","2","48000","-16","experiment","4","even","2","741185","739971","80119","737874","738947","3603","155268","738959","732056","3637","154243","744123","743197","743197","NA","Sternberg Task","70","64606","112","yes","1024"
"61.94690265486726","61.94690265486726","579.2212389380531","579.2212389380531","black","experiment","legacy","legacy","legacy","0","uniform","0","undefined","0","left","112","112","0","112","112","0","0","112","112","0","0","112","112","112","0","Sun Oct 25 19:16:27 2020","The main experiment item","yes","HoughSternbergTask.osexp","/Users/tionnahough/Desktop/Fall 2020","no","mono","no","18","no","white","no","yes","768","legacy","100","11","/Users/tionnahough/Desktop/th-subject-4.csv","legacy","6 7 9 3 1 2","Lentiform Loewenfeld","3.3.3","1","y","0","right","left","left","right","NA","846","76461","1024","846","NA","2","legacy","6","1024","2","48000","-16","experiment","4","even","6","747458","746244","80119","744146","745221","3603","155268","745232","732056","3637","154243","750317","749470","749470","NA","Sternberg Task","70","65452","113","yes","1024"
"61.40350877192982","61.40350877192982","581.1666666666666","581.1666666666666","black","experiment","legacy","legacy","legacy","0","uniform","0","undefined","0","left","113","113","0","113","113","0","0","113","113","0","0","113","113","113","0","Sun Oct 25 19:16:27 2020","The main experiment item","yes","HoughSternbergTask.osexp","/Users/tionnahough/Desktop/Fall 2020","no","mono","no","18","no","white","no","yes","768","legacy","101","11","/Users/tionnahough/Desktop/th-subject-4.csv","legacy","3 2 1 4 7","Lentiform Loewenfeld","3.3.3","2","y","0","right","left","left","right","NA","801","76461","1024","801","NA","2","legacy","5","1024","2","48000","-16","experiment","4","even","2","753650","752436","80119","744146","751413","3603","155268","751424","750339","3637","154243","756465","755662","755662","NA","Sternberg Task","70","66253","114","yes","1024"
"61.73913043478261","61.73913043478261","581.2347826086957","581.2347826086957","black","experiment","legacy","legacy","legacy","0","uniform","1","undefined","1","left","114","114","0","114","114","0","0","114","114","0","0","114","114","114","0","Sun Oct 25 19:16:27 2020","The main experiment item","yes","HoughSternbergTask.osexp","/Users/tionnahough/Desktop/Fall 2020","no","mono","no","18","no","white","no","yes","768","legacy","102","11","/Users/tionnahough/Desktop/th-subject-4.csv","legacy","9 6 2 4 1","Lentiform Loewenfeld","3.3.3","4","y","0","left","left","left","left","NA","589","76461","1024","589","NA","2","legacy","5","1024","2","48000","-16","experiment","4","even","4","759799","758584","80119","744146","757561","3603","155268","757572","756487","3637","154243","762403","761812","761811","NA","Sternberg Task","71","66842","115","yes","1024"
"62.06896551724138","62.06896551724138","581.1206896551724","581.1206896551724","black","experiment","legacy","legacy","legacy","0","uniform","1","undefined","1","right","115","115","0","115","115","0","0","115","115","0","0","115","115","115","0","Sun Oct 25 19:16:27 2020","The main experiment item","yes","HoughSternbergTask.osexp","/Users/tionnahough/Desktop/Fall 2020","no","mono","no","18","no","white","no","yes","768","legacy","103","11","/Users/tionnahough/Desktop/th-subject-4.csv","legacy","6 2 9 3 8 4","Lentiform Loewenfeld","3.3.3","0","n","0","right","left","left","right","NA","568","76461","1024","568","NA","2","legacy","6","1024","2","48000","-16","experiment","4","even","1","765738","764524","80119","762425","763500","3603","155268","763512","756487","3637","154243","768320","767750","767750","NA","Sternberg Task","72","67410","116","yes","1024"
