"acc","accuracy","average_response_time","avg_rt","background","block","canvas_backend","clock_backend","color_backend","compensation","coordinates","correct","correct_instruction1","correct_keyboard_response","correct_response","count_ISI","count_correctFeedback","count_expSequence","count_experiment","count_experimentLoop","count_fixation","count_incorrectFeedback","count_instruction1","count_instructions2","count_keyboard_response","count_logger","count_memorySet","count_practiceLoop","count_probe","count_thankYou","datetime","description","disable_garbage_collection","experiment_file","experiment_path","font_bold","font_family","font_italic","font_size","font_underline","foreground","form_clicks","fullscreen","height","keyboard_backend","live_row","live_row_practiceLoop","logfile","mouse_backend","numberSet","opensesame_codename","opensesame_version","posInSet","present","repeat_cycle","response","response_instruction1","response_instructions2","response_keyboard_response","response_thankYou","response_time","response_time_instruction1","response_time_instructions2","response_time_keyboard_response","response_time_thankYou","round_decimals","sampler_backend","setSize","sound_buf_size","sound_channels","sound_freq","sound_sample_size","start","subject_nr","subject_parity","target","time_ISI","time_correctFeedback","time_expSequence","time_experiment","time_experimentLoop","time_fixation","time_incorrectFeedback","time_instruction1","time_instructions2","time_keyboard_response","time_logger","time_memorySet","time_practiceLoop","time_probe","time_thankYou","title","total_correct","total_response_time","total_responses","uniform_coordinates","width"
"100","100","650","650","black","practice","legacy","legacy","legacy","0","uniform","1","undefined","1","left","0","0","0","0","0","0","0","0","0","0","0","0","0","0","0","Sun Oct 25 14:43:30 2020","The main experiment item","yes","Sternberg task.osexp","/Users/alisonbeason/Desktop/PSYC 5316/Lab 3","no","mono","no","18","no","white","no","yes","768","legacy","0","0","/Users/alisonbeason/Desktop/PSYC 5316/Lab 3/AB-subject-3.csv","legacy","4 8","Lentiform Loewenfeld","3.3.3","1","y","0","left","right","NA","left","NA","650","1535","NA","650","NA","2","legacy","2","1024","2","48000","-16","experiment","3","odd","4","6350","NA","4108","2324","NA","4119","NA","2334","NA","8360","9010","5136","3878","8360","NA","Sternberg task","1","650","1","yes","1024"
"100","100","723.5","723.5","black","practice","legacy","legacy","legacy","0","uniform","1","undefined","1","right","1","1","1","0","0","1","1","0","0","1","1","1","0","1","0","Sun Oct 25 14:43:30 2020","The main experiment item","yes","Sternberg task.osexp","/Users/alisonbeason/Desktop/PSYC 5316/Lab 3","no","mono","no","18","no","white","no","yes","768","legacy","1","1","/Users/alisonbeason/Desktop/PSYC 5316/Lab 3/AB-subject-3.csv","legacy","2 1","Lentiform Loewenfeld","3.3.3","0","n","0","right","right","NA","right","NA","797","1535","NA","797","NA","2","legacy","2","1024","2","48000","-16","experiment","3","odd","5","12346","9046","10112","2324","NA","10122","NA","2334","NA","14355","15152","11132","3878","14355","NA","Sternberg task","2","1447","2","yes","1024"
"100","100","738","738","black","practice","legacy","legacy","legacy","0","uniform","1","undefined","1","left","2","2","2","0","0","2","2","0","0","2","2","2","0","2","0","Sun Oct 25 14:43:30 2020","The main experiment item","yes","Sternberg task.osexp","/Users/alisonbeason/Desktop/PSYC 5316/Lab 3","no","mono","no","18","no","white","no","yes","768","legacy","2","2","/Users/alisonbeason/Desktop/PSYC 5316/Lab 3/AB-subject-3.csv","legacy","1 5 2 9","Lentiform Loewenfeld","3.3.3","2","y","0","left","right","NA","left","NA","767","1535","NA","767","NA","2","legacy","4","1024","2","48000","-16","experiment","3","odd","5","18450","15164","16218","2324","NA","16227","NA","2334","NA","20460","21228","17237","3878","20460","NA","Sternberg task","3","2214","3","yes","1024"
"100","100","745.5","745.5","black","practice","legacy","legacy","legacy","0","uniform","1","undefined","1","right","3","3","3","0","0","3","3","0","0","3","3","3","0","3","0","Sun Oct 25 14:43:30 2020","The main experiment item","yes","Sternberg task.osexp","/Users/alisonbeason/Desktop/PSYC 5316/Lab 3","no","mono","no","18","no","white","no","yes","768","legacy","3","3","/Users/alisonbeason/Desktop/PSYC 5316/Lab 3/AB-subject-3.csv","legacy","4 1 5","Lentiform Loewenfeld","3.3.3","0","n","0","right","right","NA","right","NA","768","1535","NA","768","NA","2","legacy","3","1024","2","48000","-16","experiment","3","odd","2","24524","21238","22291","2324","NA","22300","NA","2334","NA","26534","27303","23311","3878","26533","NA","Sternberg task","4","2982","4","yes","1024"
"100","100","887.4","887.4","black","practice","legacy","legacy","legacy","0","uniform","1","undefined","1","left","4","4","4","0","0","4","4","0","0","4","4","4","0","4","0","Sun Oct 25 14:43:30 2020","The main experiment item","yes","Sternberg task.osexp","/Users/alisonbeason/Desktop/PSYC 5316/Lab 3","no","mono","no","18","no","white","no","yes","768","legacy","4","4","/Users/alisonbeason/Desktop/PSYC 5316/Lab 3/AB-subject-3.csv","legacy","1 7 9 8 5","Lentiform Loewenfeld","3.3.3","4","y","0","left","right","NA","left","NA","1455","1535","NA","1455","NA","2","legacy","5","1024","2","48000","-16","experiment","3","odd","8","30600","27313","28368","2324","NA","28377","NA","2334","NA","32609","34064","29387","3878","32609","NA","Sternberg task","5","4437","5","yes","1024"
"100","100","873.1666666666666","873.1666666666666","black","practice","legacy","legacy","legacy","0","uniform","1","undefined","1","right","5","5","5","0","0","5","5","0","0","5","5","5","0","5","0","Sun Oct 25 14:43:30 2020","The main experiment item","yes","Sternberg task.osexp","/Users/alisonbeason/Desktop/PSYC 5316/Lab 3","no","mono","no","18","no","white","no","yes","768","legacy","5","5","/Users/alisonbeason/Desktop/PSYC 5316/Lab 3/AB-subject-3.csv","legacy","3 1 9 4","Lentiform Loewenfeld","3.3.3","0","n","0","right","right","NA","right","NA","802","1535","NA","802","NA","2","legacy","4","1024","2","48000","-16","experiment","3","odd","6","37362","34075","35129","2324","NA","35138","NA","2334","NA","39371","40173","36148","3878","39371","NA","Sternberg task","6","5239","6","yes","1024"
"85.71428571428571","85.71428571428571","856.2857142857143","856.2857142857143","black","practice","legacy","legacy","legacy","0","uniform","0","undefined","0","left","6","6","6","0","0","6","6","0","0","6","6","6","0","6","0","Sun Oct 25 14:43:30 2020","The main experiment item","yes","Sternberg task.osexp","/Users/alisonbeason/Desktop/PSYC 5316/Lab 3","no","mono","no","18","no","white","no","yes","768","legacy","6","6","/Users/alisonbeason/Desktop/PSYC 5316/Lab 3/AB-subject-3.csv","legacy","2 9 4","Lentiform Loewenfeld","3.3.3","3","y","0","right","right","NA","right","NA","755","1535","NA","755","NA","2","legacy","3","1024","2","48000","-16","experiment","3","odd","4","43471","40185","41238","2324","NA","41247","NA","2334","NA","45481","46237","42258","3878","45480","NA","Sternberg task","6","5994","7","yes","1024"
"87.5","87.5","870.5","870.5","black","practice","legacy","legacy","legacy","0","uniform","1","undefined","1","left","7","7","7","0","0","7","7","0","0","7","7","7","0","7","0","Sun Oct 25 14:43:30 2020","The main experiment item","yes","Sternberg task.osexp","/Users/alisonbeason/Desktop/PSYC 5316/Lab 3","no","mono","no","18","no","white","no","yes","768","legacy","7","7","/Users/alisonbeason/Desktop/PSYC 5316/Lab 3/AB-subject-3.csv","legacy","4 3 1 7 9 8","Lentiform Loewenfeld","3.3.3","1","y","0","left","right","NA","left","NA","970","1535","NA","970","NA","2","legacy","6","1024","2","48000","-16","experiment","3","odd","4","49535","40185","47301","2324","NA","47311","46248","2334","NA","51545","52516","48321","3878","51545","NA","Sternberg task","7","6964","8","yes","1024"
"88.88888888888889","88.88888888888889","854.2222222222222","854.2222222222222","black","practice","legacy","legacy","legacy","0","uniform","1","undefined","1","left","8","8","8","0","0","8","8","0","0","8","8","8","0","8","0","Sun Oct 25 14:43:30 2020","The main experiment item","yes","Sternberg task.osexp","/Users/alisonbeason/Desktop/PSYC 5316/Lab 3","no","mono","no","18","no","white","no","yes","768","legacy","8","8","/Users/alisonbeason/Desktop/PSYC 5316/Lab 3/AB-subject-3.csv","legacy","6","Lentiform Loewenfeld","3.3.3","1","y","0","left","right","NA","left","NA","724","1535","NA","724","NA","2","legacy","1","1024","2","48000","-16","experiment","3","odd","6","55813","52527","53580","2324","NA","53589","46248","2334","NA","57822","58546","54600","3878","57822","NA","Sternberg task","8","7688","9","yes","1024"
"90","90","842.1","842.1","black","practice","legacy","legacy","legacy","0","uniform","1","undefined","1","right","9","9","9","0","0","9","9","0","0","9","9","9","0","9","0","Sun Oct 25 14:43:30 2020","The main experiment item","yes","Sternberg task.osexp","/Users/alisonbeason/Desktop/PSYC 5316/Lab 3","no","mono","no","18","no","white","no","yes","768","legacy","9","9","/Users/alisonbeason/Desktop/PSYC 5316/Lab 3/AB-subject-3.csv","legacy","9 6 7 4 5","Lentiform Loewenfeld","3.3.3","0","n","0","right","right","NA","right","NA","733","1535","NA","733","NA","2","legacy","5","1024","2","48000","-16","experiment","3","odd","3","61842","58557","59610","2324","NA","59620","46248","2334","NA","63853","64587","60630","3878","63853","NA","Sternberg task","9","8421","10","yes","1024"
"90.9090909090909","90.9090909090909","881.2727272727273","881.2727272727273","black","practice","legacy","legacy","legacy","0","uniform","1","undefined","1","right","10","10","10","0","0","10","10","0","0","10","10","10","0","10","0","Sun Oct 25 14:43:30 2020","The main experiment item","yes","Sternberg task.osexp","/Users/alisonbeason/Desktop/PSYC 5316/Lab 3","no","mono","no","18","no","white","no","yes","768","legacy","10","10","/Users/alisonbeason/Desktop/PSYC 5316/Lab 3/AB-subject-3.csv","legacy","5","Lentiform Loewenfeld","3.3.3","0","n","0","right","right","NA","right","NA","1273","1535","NA","1273","NA","2","legacy","1","1024","2","48000","-16","experiment","3","odd","3","67885","64599","65652","2324","NA","65661","46248","2334","NA","69894","71167","66672","3878","69894","NA","Sternberg task","10","9694","11","yes","1024"
"91.66666666666667","91.66666666666667","883.4166666666666","883.4166666666666","black","practice","legacy","legacy","legacy","0","uniform","1","undefined","1","right","11","11","11","0","0","11","11","0","0","11","11","11","0","11","0","Sun Oct 25 14:43:30 2020","The main experiment item","yes","Sternberg task.osexp","/Users/alisonbeason/Desktop/PSYC 5316/Lab 3","no","mono","no","18","no","white","no","yes","768","legacy","11","11","/Users/alisonbeason/Desktop/PSYC 5316/Lab 3/AB-subject-3.csv","legacy","5 7 8 4 1 2","Lentiform Loewenfeld","3.3.3","0","n","0","right","right","NA","right","NA","907","1535","NA","907","NA","2","legacy","6","1024","2","48000","-16","experiment","3","odd","6","74461","71179","72232","2324","NA","72241","46248","2334","NA","76471","77379","73252","3878","76471","NA","Sternberg task","11","10601","12","yes","1024"
"92.3076923076923","92.3076923076923","882.8461538461538","882.8461538461538","black","experiment","legacy","legacy","legacy","0","uniform","1","undefined","1","right","12","12","12","0","0","12","12","0","0","12","12","12","0","12","0","Sun Oct 25 14:43:30 2020","The main experiment item","yes","Sternberg task.osexp","/Users/alisonbeason/Desktop/PSYC 5316/Lab 3","no","mono","no","18","no","white","no","yes","768","legacy","0","11","/Users/alisonbeason/Desktop/PSYC 5316/Lab 3/AB-subject-3.csv","legacy","1","Lentiform Loewenfeld","3.3.3","0","n","0","right","right","right","right","NA","876","1535","13207","876","NA","2","legacy","1","1024","2","48000","-16","experiment","3","odd","7","93910","77391","91678","2324","91633","91687","46248","2334","78425","95920","96796","92698","3878","95920","NA","Sternberg task","12","11477","13","yes","1024"
"92.85714285714286","92.85714285714286","884.2142857142857","884.2142857142857","black","experiment","legacy","legacy","legacy","0","uniform","1","undefined","1","right","13","13","13","0","0","13","13","0","0","13","13","13","0","13","0","Sun Oct 25 14:43:30 2020","The main experiment item","yes","Sternberg task.osexp","/Users/alisonbeason/Desktop/PSYC 5316/Lab 3","no","mono","no","18","no","white","no","yes","768","legacy","1","11","/Users/alisonbeason/Desktop/PSYC 5316/Lab 3/AB-subject-3.csv","legacy","1 7 8 3 9","Lentiform Loewenfeld","3.3.3","0","n","0","right","right","right","right","NA","902","1535","13207","902","NA","2","legacy","5","1024","2","48000","-16","experiment","3","odd","2","100094","96807","97862","2324","91633","97871","46248","2334","78425","102103","103006","98882","3878","102103","NA","Sternberg task","13","12379","14","yes","1024"
"93.33333333333333","93.33333333333333","889.8666666666667","889.8666666666667","black","experiment","legacy","legacy","legacy","0","uniform","1","undefined","1","left","14","14","14","0","0","14","14","0","0","14","14","14","0","14","0","Sun Oct 25 14:43:30 2020","The main experiment item","yes","Sternberg task.osexp","/Users/alisonbeason/Desktop/PSYC 5316/Lab 3","no","mono","no","18","no","white","no","yes","768","legacy","2","11","/Users/alisonbeason/Desktop/PSYC 5316/Lab 3/AB-subject-3.csv","legacy","6 2","Lentiform Loewenfeld","3.3.3","1","y","0","left","right","right","left","NA","969","1535","13207","969","NA","2","legacy","2","1024","2","48000","-16","experiment","3","odd","6","106303","103017","104070","2324","91633","104080","46248","2334","78425","108313","109283","105090","3878","108313","NA","Sternberg task","14","13348","15","yes","1024"
"93.75","93.75","931.3125","931.3125","black","experiment","legacy","legacy","legacy","0","uniform","1","undefined","1","left","15","15","15","0","0","15","15","0","0","15","15","15","0","15","0","Sun Oct 25 14:43:30 2020","The main experiment item","yes","Sternberg task.osexp","/Users/alisonbeason/Desktop/PSYC 5316/Lab 3","no","mono","no","18","no","white","no","yes","768","legacy","3","11","/Users/alisonbeason/Desktop/PSYC 5316/Lab 3/AB-subject-3.csv","legacy","5 2 9 6 1 7","Lentiform Loewenfeld","3.3.3","3","y","0","left","right","right","left","NA","1553","1535","13207","1553","NA","2","legacy","6","1024","2","48000","-16","experiment","3","odd","9","112583","109295","110350","2324","91633","110359","46248","2334","78425","114592","116146","111370","3878","114592","NA","Sternberg task","15","14901","16","yes","1024"
"94.11764705882354","94.11764705882354","946.8235294117648","946.8235294117648","black","experiment","legacy","legacy","legacy","0","uniform","1","undefined","1","left","16","16","16","0","0","16","16","0","0","16","16","16","0","16","0","Sun Oct 25 14:43:30 2020","The main experiment item","yes","Sternberg task.osexp","/Users/alisonbeason/Desktop/PSYC 5316/Lab 3","no","mono","no","18","no","white","no","yes","768","legacy","4","11","/Users/alisonbeason/Desktop/PSYC 5316/Lab 3/AB-subject-3.csv","legacy","7 8 4 6 9 5","Lentiform Loewenfeld","3.3.3","4","y","0","left","right","right","left","NA","1195","1535","13207","1195","NA","2","legacy","6","1024","2","48000","-16","experiment","3","odd","6","119444","116158","117212","2324","91633","117221","46248","2334","78425","121454","122650","118231","3878","121454","NA","Sternberg task","16","16096","17","yes","1024"
"94.44444444444444","94.44444444444444","933.7777777777778","933.7777777777778","black","experiment","legacy","legacy","legacy","0","uniform","1","undefined","1","left","17","17","17","0","0","17","17","0","0","17","17","17","0","17","0","Sun Oct 25 14:43:30 2020","The main experiment item","yes","Sternberg task.osexp","/Users/alisonbeason/Desktop/PSYC 5316/Lab 3","no","mono","no","18","no","white","no","yes","768","legacy","5","11","/Users/alisonbeason/Desktop/PSYC 5316/Lab 3/AB-subject-3.csv","legacy","9 1 6 7 8","Lentiform Loewenfeld","3.3.3","1","y","0","left","right","right","left","NA","712","1535","13207","712","NA","2","legacy","5","1024","2","48000","-16","experiment","3","odd","9","125947","122661","123714","2324","91633","123724","46248","2334","78425","127956","128669","124734","3878","127956","NA","Sternberg task","17","16808","18","yes","1024"
"94.73684210526316","94.73684210526316","926.1052631578947","926.1052631578947","black","experiment","legacy","legacy","legacy","0","uniform","1","undefined","1","right","18","18","18","0","0","18","18","0","0","18","18","18","0","18","0","Sun Oct 25 14:43:30 2020","The main experiment item","yes","Sternberg task.osexp","/Users/alisonbeason/Desktop/PSYC 5316/Lab 3","no","mono","no","18","no","white","no","yes","768","legacy","6","11","/Users/alisonbeason/Desktop/PSYC 5316/Lab 3/AB-subject-3.csv","legacy","7 9 1 6","Lentiform Loewenfeld","3.3.3","0","n","0","right","right","right","right","NA","788","1535","13207","788","NA","2","legacy","4","1024","2","48000","-16","experiment","3","odd","4","131967","128681","129734","2324","91633","129744","46248","2334","78425","133977","134766","130754","3878","133977","NA","Sternberg task","18","17596","19","yes","1024"
"95","95","941.75","941.75","black","experiment","legacy","legacy","legacy","0","uniform","1","undefined","1","left","19","19","19","0","0","19","19","0","0","19","19","19","0","19","0","Sun Oct 25 14:43:30 2020","The main experiment item","yes","Sternberg task.osexp","/Users/alisonbeason/Desktop/PSYC 5316/Lab 3","no","mono","no","18","no","white","no","yes","768","legacy","7","11","/Users/alisonbeason/Desktop/PSYC 5316/Lab 3/AB-subject-3.csv","legacy","3 4 9 6 2 9","Lentiform Loewenfeld","3.3.3","5","y","0","left","right","right","left","NA","1239","1535","13207","1239","NA","2","legacy","6","1024","2","48000","-16","experiment","3","odd","2","138064","134778","135831","2324","91633","135841","46248","2334","78425","140073","141313","136852","3878","140073","NA","Sternberg task","19","18835","20","yes","1024"
"95.23809523809524","95.23809523809524","923.9047619047619","923.9047619047619","black","experiment","legacy","legacy","legacy","0","uniform","1","undefined","1","left","20","20","20","0","0","20","20","0","0","20","20","20","0","20","0","Sun Oct 25 14:43:30 2020","The main experiment item","yes","Sternberg task.osexp","/Users/alisonbeason/Desktop/PSYC 5316/Lab 3","no","mono","no","18","no","white","no","yes","768","legacy","8","11","/Users/alisonbeason/Desktop/PSYC 5316/Lab 3/AB-subject-3.csv","legacy","4 6 5 8","Lentiform Loewenfeld","3.3.3","1","y","0","left","right","right","left","NA","567","1535","13207","567","NA","2","legacy","4","1024","2","48000","-16","experiment","3","odd","4","144608","141324","142379","2324","91633","142388","46248","2334","78425","146618","147186","143398","3878","146618","NA","Sternberg task","20","19402","21","yes","1024"
"95.45454545454545","95.45454545454545","919.3181818181819","919.3181818181819","black","experiment","legacy","legacy","legacy","0","uniform","1","undefined","1","left","21","21","21","0","0","21","21","0","0","21","21","21","0","21","0","Sun Oct 25 14:43:30 2020","The main experiment item","yes","Sternberg task.osexp","/Users/alisonbeason/Desktop/PSYC 5316/Lab 3","no","mono","no","18","no","white","no","yes","768","legacy","9","11","/Users/alisonbeason/Desktop/PSYC 5316/Lab 3/AB-subject-3.csv","legacy","2 6 1 7 4","Lentiform Loewenfeld","3.3.3","2","y","0","left","right","right","left","NA","823","1535","13207","823","NA","2","legacy","5","1024","2","48000","-16","experiment","3","odd","6","150484","147196","148250","2324","91633","148260","46248","2334","78425","152493","153317","149270","3878","152493","NA","Sternberg task","21","20225","22","yes","1024"
"95.65217391304348","95.65217391304348","923.4347826086956","923.4347826086956","black","experiment","legacy","legacy","legacy","0","uniform","1","undefined","1","right","22","22","22","0","0","22","22","0","0","22","22","22","0","22","0","Sun Oct 25 14:43:30 2020","The main experiment item","yes","Sternberg task.osexp","/Users/alisonbeason/Desktop/PSYC 5316/Lab 3","no","mono","no","18","no","white","no","yes","768","legacy","10","11","/Users/alisonbeason/Desktop/PSYC 5316/Lab 3/AB-subject-3.csv","legacy","8 5 7 3 6","Lentiform Loewenfeld","3.3.3","0","n","0","right","right","right","right","NA","1014","1535","13207","1014","NA","2","legacy","5","1024","2","48000","-16","experiment","3","odd","9","156616","153329","154383","2324","91633","154393","46248","2334","78425","158626","159640","155403","3878","158626","NA","Sternberg task","22","21239","23","yes","1024"
"95.83333333333333","95.83333333333333","916.9166666666666","916.9166666666666","black","experiment","legacy","legacy","legacy","0","uniform","1","undefined","1","left","23","23","23","0","0","23","23","0","0","23","23","23","0","23","0","Sun Oct 25 14:43:30 2020","The main experiment item","yes","Sternberg task.osexp","/Users/alisonbeason/Desktop/PSYC 5316/Lab 3","no","mono","no","18","no","white","no","yes","768","legacy","11","11","/Users/alisonbeason/Desktop/PSYC 5316/Lab 3/AB-subject-3.csv","legacy","8 1 6","Lentiform Loewenfeld","3.3.3","3","y","0","left","right","right","left","NA","767","1535","13207","767","NA","2","legacy","3","1024","2","48000","-16","experiment","3","odd","6","162936","159652","160705","2324","91633","160714","46248","2334","78425","164947","165715","161724","3878","164946","NA","Sternberg task","23","22006","24","yes","1024"
"96","96","907.36","907.36","black","experiment","legacy","legacy","legacy","0","uniform","1","undefined","1","right","24","24","24","0","0","24","24","0","0","24","24","24","0","24","0","Sun Oct 25 14:43:30 2020","The main experiment item","yes","Sternberg task.osexp","/Users/alisonbeason/Desktop/PSYC 5316/Lab 3","no","mono","no","18","no","white","no","yes","768","legacy","12","11","/Users/alisonbeason/Desktop/PSYC 5316/Lab 3/AB-subject-3.csv","legacy","4 1","Lentiform Loewenfeld","3.3.3","0","n","0","right","right","right","right","NA","678","1535","13207","678","NA","2","legacy","2","1024","2","48000","-16","experiment","3","odd","6","169012","165726","166780","2324","91633","166789","46248","2334","78425","171022","171701","167799","3878","171022","NA","Sternberg task","24","22684","25","yes","1024"
"96.15384615384616","96.15384615384616","902.0384615384615","902.0384615384615","black","experiment","legacy","legacy","legacy","0","uniform","1","undefined","1","left","25","25","25","0","0","25","25","0","0","25","25","25","0","25","0","Sun Oct 25 14:43:30 2020","The main experiment item","yes","Sternberg task.osexp","/Users/alisonbeason/Desktop/PSYC 5316/Lab 3","no","mono","no","18","no","white","no","yes","768","legacy","13","11","/Users/alisonbeason/Desktop/PSYC 5316/Lab 3/AB-subject-3.csv","legacy","6 7 8 5","Lentiform Loewenfeld","3.3.3","3","y","0","left","right","right","left","NA","769","1535","13207","769","NA","2","legacy","4","1024","2","48000","-16","experiment","3","odd","8","174998","171712","172765","2324","91633","172775","46248","2334","78425","177006","177776","173786","3878","177006","NA","Sternberg task","25","23453","26","yes","1024"
"96.29629629629629","96.29629629629629","896.1111111111111","896.1111111111111","black","experiment","legacy","legacy","legacy","0","uniform","1","undefined","1","left","26","26","26","0","0","26","26","0","0","26","26","26","0","26","0","Sun Oct 25 14:43:30 2020","The main experiment item","yes","Sternberg task.osexp","/Users/alisonbeason/Desktop/PSYC 5316/Lab 3","no","mono","no","18","no","white","no","yes","768","legacy","14","11","/Users/alisonbeason/Desktop/PSYC 5316/Lab 3/AB-subject-3.csv","legacy","5 7 3 6 2","Lentiform Loewenfeld","3.3.3","5","y","0","left","right","right","left","NA","742","1535","13207","742","NA","2","legacy","5","1024","2","48000","-16","experiment","3","odd","2","181073","177788","178842","2324","91633","178851","46248","2334","78425","183085","183828","179861","3878","183085","NA","Sternberg task","26","24195","27","yes","1024"
"96.42857142857143","96.42857142857143","888.6785714285714","888.6785714285714","black","experiment","legacy","legacy","legacy","0","uniform","1","undefined","1","right","27","27","27","0","0","27","27","0","0","27","27","27","0","27","0","Sun Oct 25 14:43:30 2020","The main experiment item","yes","Sternberg task.osexp","/Users/alisonbeason/Desktop/PSYC 5316/Lab 3","no","mono","no","18","no","white","no","yes","768","legacy","15","11","/Users/alisonbeason/Desktop/PSYC 5316/Lab 3/AB-subject-3.csv","legacy","8 6 3 4 7","Lentiform Loewenfeld","3.3.3","0","n","0","right","right","right","right","NA","688","1535","13207","688","NA","2","legacy","5","1024","2","48000","-16","experiment","3","odd","1","187126","183840","184894","2324","91633","184903","46248","2334","78425","189136","189825","185914","3878","189135","NA","Sternberg task","27","24883","28","yes","1024"
"96.55172413793103","96.55172413793103","887.6896551724138","887.6896551724138","black","experiment","legacy","legacy","legacy","0","uniform","1","undefined","1","left","28","28","28","0","0","28","28","0","0","28","28","28","0","28","0","Sun Oct 25 14:43:30 2020","The main experiment item","yes","Sternberg task.osexp","/Users/alisonbeason/Desktop/PSYC 5316/Lab 3","no","mono","no","18","no","white","no","yes","768","legacy","16","11","/Users/alisonbeason/Desktop/PSYC 5316/Lab 3/AB-subject-3.csv","legacy","4 7 6 8 2 3","Lentiform Loewenfeld","3.3.3","6","y","0","left","right","right","left","NA","860","1535","13207","860","NA","2","legacy","6","1024","2","48000","-16","experiment","3","odd","3","193119","189836","190890","2324","91633","190899","46248","2334","78425","195129","195990","191909","3878","195129","NA","Sternberg task","28","25743","29","yes","1024"
"96.66666666666667","96.66666666666667","880.0333333333333","880.0333333333333","black","experiment","legacy","legacy","legacy","0","uniform","1","undefined","1","left","29","29","29","0","0","29","29","0","0","29","29","29","0","29","0","Sun Oct 25 14:43:30 2020","The main experiment item","yes","Sternberg task.osexp","/Users/alisonbeason/Desktop/PSYC 5316/Lab 3","no","mono","no","18","no","white","no","yes","768","legacy","17","11","/Users/alisonbeason/Desktop/PSYC 5316/Lab 3/AB-subject-3.csv","legacy","8","Lentiform Loewenfeld","3.3.3","1","y","0","left","right","right","left","NA","658","1535","13207","658","NA","2","legacy","1","1024","2","48000","-16","experiment","3","odd","8","199285","196000","197053","2324","91633","197062","46248","2334","78425","201294","201953","198072","3878","201294","NA","Sternberg task","29","26401","30","yes","1024"
"96.7741935483871","96.7741935483871","876.8064516129032","876.8064516129032","black","experiment","legacy","legacy","legacy","0","uniform","1","undefined","1","left","30","30","30","0","0","30","30","0","0","30","30","30","0","30","0","Sun Oct 25 14:43:30 2020","The main experiment item","yes","Sternberg task.osexp","/Users/alisonbeason/Desktop/PSYC 5316/Lab 3","no","mono","no","18","no","white","no","yes","768","legacy","18","11","/Users/alisonbeason/Desktop/PSYC 5316/Lab 3/AB-subject-3.csv","legacy","1 4 9 3 2 5","Lentiform Loewenfeld","3.3.3","3","y","0","left","right","right","left","NA","780","1535","13207","780","NA","2","legacy","6","1024","2","48000","-16","experiment","3","odd","9","205248","201964","203017","2324","91633","203027","46248","2334","78425","207268","208049","204037","3878","207268","NA","Sternberg task","30","27181","31","yes","1024"
"96.875","96.875","873.78125","873.78125","black","experiment","legacy","legacy","legacy","0","uniform","1","undefined","1","right","31","31","31","0","0","31","31","0","0","31","31","31","0","31","0","Sun Oct 25 14:43:30 2020","The main experiment item","yes","Sternberg task.osexp","/Users/alisonbeason/Desktop/PSYC 5316/Lab 3","no","mono","no","18","no","white","no","yes","768","legacy","19","11","/Users/alisonbeason/Desktop/PSYC 5316/Lab 3/AB-subject-3.csv","legacy","1 4 3 6 5","Lentiform Loewenfeld","3.3.3","0","n","0","right","right","right","right","NA","780","1535","13207","780","NA","2","legacy","5","1024","2","48000","-16","experiment","3","odd","8","211356","208063","209122","2324","91633","209132","46248","2334","78425","213366","214147","210142","3878","213365","NA","Sternberg task","31","27961","32","yes","1024"
"96.96969696969697","96.96969696969697","866.7272727272727","866.7272727272727","black","experiment","legacy","legacy","legacy","0","uniform","1","undefined","1","right","32","32","32","0","0","32","32","0","0","32","32","32","0","32","0","Sun Oct 25 14:43:30 2020","The main experiment item","yes","Sternberg task.osexp","/Users/alisonbeason/Desktop/PSYC 5316/Lab 3","no","mono","no","18","no","white","no","yes","768","legacy","20","11","/Users/alisonbeason/Desktop/PSYC 5316/Lab 3/AB-subject-3.csv","legacy","9","Lentiform Loewenfeld","3.3.3","0","n","0","right","right","right","right","NA","641","1535","13207","641","NA","2","legacy","1","1024","2","48000","-16","experiment","3","odd","6","217446","214158","215212","2324","91633","215222","46248","2334","78425","219456","220098","216232","3878","219456","NA","Sternberg task","32","28602","33","yes","1024"
"97.05882352941177","97.05882352941177","866.3529411764706","866.3529411764706","black","experiment","legacy","legacy","legacy","0","uniform","1","undefined","1","right","33","33","33","0","0","33","33","0","0","33","33","33","0","33","0","Sun Oct 25 14:43:30 2020","The main experiment item","yes","Sternberg task.osexp","/Users/alisonbeason/Desktop/PSYC 5316/Lab 3","no","mono","no","18","no","white","no","yes","768","legacy","21","11","/Users/alisonbeason/Desktop/PSYC 5316/Lab 3/AB-subject-3.csv","legacy","9 5 3 2 8 6","Lentiform Loewenfeld","3.3.3","0","n","0","right","right","right","right","NA","854","1535","13207","854","NA","2","legacy","6","1024","2","48000","-16","experiment","3","odd","7","223398","220110","221164","2324","91633","221174","46248","2334","78425","225408","226263","222184","3878","225407","NA","Sternberg task","33","29456","34","yes","1024"
"97.14285714285714","97.14285714285714","874.0285714285715","874.0285714285715","black","experiment","legacy","legacy","legacy","0","uniform","1","undefined","1","right","34","34","34","0","0","34","34","0","0","34","34","34","0","34","0","Sun Oct 25 14:43:30 2020","The main experiment item","yes","Sternberg task.osexp","/Users/alisonbeason/Desktop/PSYC 5316/Lab 3","no","mono","no","18","no","white","no","yes","768","legacy","22","11","/Users/alisonbeason/Desktop/PSYC 5316/Lab 3/AB-subject-3.csv","legacy","2 8 7 9 5 3","Lentiform Loewenfeld","3.3.3","0","n","0","right","right","right","right","NA","1135","1535","13207","1135","NA","2","legacy","6","1024","2","48000","-16","experiment","3","odd","6","229563","226274","227329","2324","91633","227339","46248","2334","78425","231575","232711","228349","3878","231575","NA","Sternberg task","34","30591","35","yes","1024"
"97.22222222222223","97.22222222222223","872.3055555555555","872.3055555555555","black","experiment","legacy","legacy","legacy","0","uniform","1","undefined","1","right","35","35","35","0","0","35","35","0","0","35","35","35","0","35","0","Sun Oct 25 14:43:30 2020","The main experiment item","yes","Sternberg task.osexp","/Users/alisonbeason/Desktop/PSYC 5316/Lab 3","no","mono","no","18","no","white","no","yes","768","legacy","23","11","/Users/alisonbeason/Desktop/PSYC 5316/Lab 3/AB-subject-3.csv","legacy","2 3 8 5 6 7","Lentiform Loewenfeld","3.3.3","0","n","0","right","right","right","right","NA","812","1535","13207","812","NA","2","legacy","6","1024","2","48000","-16","experiment","3","odd","1","236008","232722","233776","2324","91633","233787","46248","2334","78425","238018","238830","234796","3878","238017","NA","Sternberg task","35","31403","36","yes","1024"
"97.29729729729729","97.29729729729729","865.5135135135135","865.5135135135135","black","experiment","legacy","legacy","legacy","0","uniform","1","undefined","1","left","36","36","36","0","0","36","36","0","0","36","36","36","0","36","0","Sun Oct 25 14:43:30 2020","The main experiment item","yes","Sternberg task.osexp","/Users/alisonbeason/Desktop/PSYC 5316/Lab 3","no","mono","no","18","no","white","no","yes","768","legacy","24","11","/Users/alisonbeason/Desktop/PSYC 5316/Lab 3/AB-subject-3.csv","legacy","4 1 5","Lentiform Loewenfeld","3.3.3","2","y","0","left","right","right","left","NA","621","1535","13207","621","NA","2","legacy","3","1024","2","48000","-16","experiment","3","odd","1","242128","238842","239896","2324","91633","239905","46248","2334","78425","244138","244760","240916","3878","244138","NA","Sternberg task","36","32024","37","yes","1024"
"97.36842105263158","97.36842105263158","864.7631578947369","864.7631578947369","black","experiment","legacy","legacy","legacy","0","uniform","1","undefined","1","right","37","37","37","0","0","37","37","0","0","37","37","37","0","37","0","Sun Oct 25 14:43:30 2020","The main experiment item","yes","Sternberg task.osexp","/Users/alisonbeason/Desktop/PSYC 5316/Lab 3","no","mono","no","18","no","white","no","yes","768","legacy","25","11","/Users/alisonbeason/Desktop/PSYC 5316/Lab 3/AB-subject-3.csv","legacy","8 2 1 4 5 9","Lentiform Loewenfeld","3.3.3","0","n","0","right","right","right","right","NA","837","1535","13207","837","NA","2","legacy","6","1024","2","48000","-16","experiment","3","odd","7","248055","244771","245825","2324","91633","245834","46248","2334","78425","250064","250902","246843","3878","250064","NA","Sternberg task","37","32861","38","yes","1024"
"97.43589743589743","97.43589743589743","871.1794871794872","871.1794871794872","black","experiment","legacy","legacy","legacy","0","uniform","1","undefined","1","left","38","38","38","0","0","38","38","0","0","38","38","38","0","38","0","Sun Oct 25 14:43:30 2020","The main experiment item","yes","Sternberg task.osexp","/Users/alisonbeason/Desktop/PSYC 5316/Lab 3","no","mono","no","18","no","white","no","yes","768","legacy","26","11","/Users/alisonbeason/Desktop/PSYC 5316/Lab 3/AB-subject-3.csv","legacy","3 5 7 1","Lentiform Loewenfeld","3.3.3","3","y","0","left","right","right","left","NA","1115","1535","13207","1115","NA","2","legacy","4","1024","2","48000","-16","experiment","3","odd","7","254200","250914","251968","2324","91633","251977","46248","2334","78425","256210","257326","252988","3878","256210","NA","Sternberg task","38","33976","39","yes","1024"
"97.5","97.5","865.75","865.75","black","experiment","legacy","legacy","legacy","0","uniform","1","undefined","1","right","39","39","39","0","0","39","39","0","0","39","39","39","0","39","0","Sun Oct 25 14:43:30 2020","The main experiment item","yes","Sternberg task.osexp","/Users/alisonbeason/Desktop/PSYC 5316/Lab 3","no","mono","no","18","no","white","no","yes","768","legacy","27","11","/Users/alisonbeason/Desktop/PSYC 5316/Lab 3/AB-subject-3.csv","legacy","2 8 9 4 1","Lentiform Loewenfeld","3.3.3","0","n","0","right","right","right","right","NA","654","1535","13207","654","NA","2","legacy","5","1024","2","48000","-16","experiment","3","odd","5","260623","257337","258390","2324","91633","258400","46248","2334","78425","262633","263288","259410","3878","262633","NA","Sternberg task","39","34630","40","yes","1024"
"97.5609756097561","97.5609756097561","863.829268292683","863.829268292683","black","experiment","legacy","legacy","legacy","0","uniform","1","undefined","1","right","40","40","40","0","0","40","40","0","0","40","40","40","0","40","0","Sun Oct 25 14:43:30 2020","The main experiment item","yes","Sternberg task.osexp","/Users/alisonbeason/Desktop/PSYC 5316/Lab 3","no","mono","no","18","no","white","no","yes","768","legacy","28","11","/Users/alisonbeason/Desktop/PSYC 5316/Lab 3/AB-subject-3.csv","legacy","2 7 5","Lentiform Loewenfeld","3.3.3","0","n","0","right","right","right","right","NA","787","1535","13207","787","NA","2","legacy","3","1024","2","48000","-16","experiment","3","odd","8","266589","263299","264356","2324","91633","264365","46248","2334","78425","268599","269387","265376","3878","268599","NA","Sternberg task","40","35417","41","yes","1024"
"97.61904761904762","97.61904761904762","865.5238095238095","865.5238095238095","black","experiment","legacy","legacy","legacy","0","uniform","1","undefined","1","right","41","41","41","0","0","41","41","0","0","41","41","41","0","41","0","Sun Oct 25 14:43:30 2020","The main experiment item","yes","Sternberg task.osexp","/Users/alisonbeason/Desktop/PSYC 5316/Lab 3","no","mono","no","18","no","white","no","yes","768","legacy","29","11","/Users/alisonbeason/Desktop/PSYC 5316/Lab 3/AB-subject-3.csv","legacy","7 4 2 8 1 9","Lentiform Loewenfeld","3.3.3","0","n","0","right","right","right","right","NA","935","1535","13207","935","NA","2","legacy","6","1024","2","48000","-16","experiment","3","odd","5","272685","269398","270453","2324","91633","270462","46248","2334","78425","274694","275630","271472","3878","274694","NA","Sternberg task","41","36352","42","yes","1024"
"97.67441860465117","97.67441860465117","864.7906976744187","864.7906976744187","black","experiment","legacy","legacy","legacy","0","uniform","1","undefined","1","left","42","42","42","0","0","42","42","0","0","42","42","42","0","42","0","Sun Oct 25 14:43:30 2020","The main experiment item","yes","Sternberg task.osexp","/Users/alisonbeason/Desktop/PSYC 5316/Lab 3","no","mono","no","18","no","white","no","yes","768","legacy","30","11","/Users/alisonbeason/Desktop/PSYC 5316/Lab 3/AB-subject-3.csv","legacy","2 5 4 8 7","Lentiform Loewenfeld","3.3.3","3","y","0","left","right","right","left","NA","834","1535","13207","834","NA","2","legacy","5","1024","2","48000","-16","experiment","3","odd","4","278928","275642","276695","2324","91633","276704","46248","2334","78425","280938","281773","277715","3878","280938","NA","Sternberg task","42","37186","43","yes","1024"
"97.72727272727273","97.72727272727273","863.8409090909091","863.8409090909091","black","experiment","legacy","legacy","legacy","0","uniform","1","undefined","1","right","43","43","43","0","0","43","43","0","0","43","43","43","0","43","0","Sun Oct 25 14:43:30 2020","The main experiment item","yes","Sternberg task.osexp","/Users/alisonbeason/Desktop/PSYC 5316/Lab 3","no","mono","no","18","no","white","no","yes","768","legacy","31","11","/Users/alisonbeason/Desktop/PSYC 5316/Lab 3/AB-subject-3.csv","legacy","9 8 2 7 4","Lentiform Loewenfeld","3.3.3","0","n","0","right","right","right","right","NA","823","1535","13207","823","NA","2","legacy","5","1024","2","48000","-16","experiment","3","odd","5","285071","281785","282838","2324","91633","282848","46248","2334","78425","287080","287904","283858","3878","287080","NA","Sternberg task","43","38009","44","yes","1024"
"97.77777777777777","97.77777777777777","862.2","862.2","black","experiment","legacy","legacy","legacy","0","uniform","1","undefined","1","left","44","44","44","0","0","44","44","0","0","44","44","44","0","44","0","Sun Oct 25 14:43:30 2020","The main experiment item","yes","Sternberg task.osexp","/Users/alisonbeason/Desktop/PSYC 5316/Lab 3","no","mono","no","18","no","white","no","yes","768","legacy","32","11","/Users/alisonbeason/Desktop/PSYC 5316/Lab 3/AB-subject-3.csv","legacy","8 3","Lentiform Loewenfeld","3.3.3","2","y","0","left","right","right","left","NA","790","1535","13207","790","NA","2","legacy","2","1024","2","48000","-16","experiment","3","odd","3","291200","287916","288969","2324","91633","288978","46248","2334","78425","293210","294001","289988","3878","293210","NA","Sternberg task","44","38799","45","yes","1024"
"97.82608695652173","97.82608695652173","860.3695652173913","860.3695652173913","black","experiment","legacy","legacy","legacy","0","uniform","1","undefined","1","left","45","45","45","0","0","45","45","0","0","45","45","45","0","45","0","Sun Oct 25 14:43:30 2020","The main experiment item","yes","Sternberg task.osexp","/Users/alisonbeason/Desktop/PSYC 5316/Lab 3","no","mono","no","18","no","white","no","yes","768","legacy","33","11","/Users/alisonbeason/Desktop/PSYC 5316/Lab 3/AB-subject-3.csv","legacy","8 9 5 6 7","Lentiform Loewenfeld","3.3.3","1","y","0","left","right","right","left","NA","778","1535","13207","778","NA","2","legacy","5","1024","2","48000","-16","experiment","3","odd","8","297299","294013","295066","2324","91633","295075","46248","2334","78425","299308","300087","296085","3878","299308","NA","Sternberg task","45","39577","46","yes","1024"
"97.87234042553192","97.87234042553192","858.3617021276596","858.3617021276596","black","experiment","legacy","legacy","legacy","0","uniform","1","undefined","1","left","46","46","46","0","0","46","46","0","0","46","46","46","0","46","0","Sun Oct 25 14:43:30 2020","The main experiment item","yes","Sternberg task.osexp","/Users/alisonbeason/Desktop/PSYC 5316/Lab 3","no","mono","no","18","no","white","no","yes","768","legacy","34","11","/Users/alisonbeason/Desktop/PSYC 5316/Lab 3/AB-subject-3.csv","legacy","6 1 2","Lentiform Loewenfeld","3.3.3","3","y","0","left","right","right","left","NA","766","1535","13207","766","NA","2","legacy","3","1024","2","48000","-16","experiment","3","odd","2","303386","300098","301153","2324","91633","301162","46248","2334","78425","305396","306163","302172","3878","305396","NA","Sternberg task","46","40343","47","yes","1024"
"97.91666666666667","97.91666666666667","861.8541666666666","861.8541666666666","black","experiment","legacy","legacy","legacy","0","uniform","1","undefined","1","left","47","47","47","0","0","47","47","0","0","47","47","47","0","47","0","Sun Oct 25 14:43:30 2020","The main experiment item","yes","Sternberg task.osexp","/Users/alisonbeason/Desktop/PSYC 5316/Lab 3","no","mono","no","18","no","white","no","yes","768","legacy","35","11","/Users/alisonbeason/Desktop/PSYC 5316/Lab 3/AB-subject-3.csv","legacy","3 2 1 4 7","Lentiform Loewenfeld","3.3.3","2","y","0","left","right","right","left","NA","1026","1535","13207","1026","NA","2","legacy","5","1024","2","48000","-16","experiment","3","odd","2","309461","306174","307228","2324","91633","307237","46248","2334","78425","311470","312497","308247","3878","311470","NA","Sternberg task","47","41369","48","yes","1024"
"97.95918367346938","97.95918367346938","858.7551020408164","858.7551020408164","black","experiment","legacy","legacy","legacy","0","uniform","1","undefined","1","left","48","48","48","0","0","48","48","0","0","48","48","48","0","48","0","Sun Oct 25 14:43:30 2020","The main experiment item","yes","Sternberg task.osexp","/Users/alisonbeason/Desktop/PSYC 5316/Lab 3","no","mono","no","18","no","white","no","yes","768","legacy","36","11","/Users/alisonbeason/Desktop/PSYC 5316/Lab 3/AB-subject-3.csv","legacy","9 5 8 1","Lentiform Loewenfeld","3.3.3","2","y","0","left","right","right","left","NA","710","1535","13207","710","NA","2","legacy","4","1024","2","48000","-16","experiment","3","odd","5","315795","312509","313562","2324","91633","313572","46248","2334","78425","317805","318516","314582","3878","317805","NA","Sternberg task","48","42079","49","yes","1024"
"98","98","857.24","857.24","black","experiment","legacy","legacy","legacy","0","uniform","1","undefined","1","left","49","49","49","0","0","49","49","0","0","49","49","49","0","49","0","Sun Oct 25 14:43:30 2020","The main experiment item","yes","Sternberg task.osexp","/Users/alisonbeason/Desktop/PSYC 5316/Lab 3","no","mono","no","18","no","white","no","yes","768","legacy","37","11","/Users/alisonbeason/Desktop/PSYC 5316/Lab 3/AB-subject-3.csv","legacy","7 6","Lentiform Loewenfeld","3.3.3","2","y","0","left","right","right","left","NA","783","1535","13207","783","NA","2","legacy","2","1024","2","48000","-16","experiment","3","odd","6","321810","318528","319578","2324","91633","319587","46248","2334","78425","323819","324603","320597","3878","323819","NA","Sternberg task","49","42862","50","yes","1024"
"98.03921568627452","98.03921568627452","864.1176470588235","864.1176470588235","black","experiment","legacy","legacy","legacy","0","uniform","1","undefined","1","right","50","50","50","0","0","50","50","0","0","50","50","50","0","50","0","Sun Oct 25 14:43:30 2020","The main experiment item","yes","Sternberg task.osexp","/Users/alisonbeason/Desktop/PSYC 5316/Lab 3","no","mono","no","18","no","white","no","yes","768","legacy","38","11","/Users/alisonbeason/Desktop/PSYC 5316/Lab 3/AB-subject-3.csv","legacy","4 2 6 9","Lentiform Loewenfeld","3.3.3","0","n","0","right","right","right","right","NA","1208","1535","13207","1208","NA","2","legacy","4","1024","2","48000","-16","experiment","3","odd","7","327896","324614","325664","2324","91633","325673","46248","2334","78425","329906","331116","326683","3878","329906","NA","Sternberg task","50","44070","51","yes","1024"
"98.07692307692308","98.07692307692308","863.3653846153846","863.3653846153846","black","experiment","legacy","legacy","legacy","0","uniform","1","undefined","1","left","51","51","51","0","0","51","51","0","0","51","51","51","0","51","0","Sun Oct 25 14:43:30 2020","The main experiment item","yes","Sternberg task.osexp","/Users/alisonbeason/Desktop/PSYC 5316/Lab 3","no","mono","no","18","no","white","no","yes","768","legacy","39","11","/Users/alisonbeason/Desktop/PSYC 5316/Lab 3/AB-subject-3.csv","legacy","3 9 6 2","Lentiform Loewenfeld","3.3.3","4","y","0","left","right","right","left","NA","825","1535","13207","825","NA","2","legacy","4","1024","2","48000","-16","experiment","3","odd","2","334412","331127","332178","2324","91633","332187","46248","2334","78425","336421","337247","333198","3878","336421","NA","Sternberg task","51","44895","52","yes","1024"
"98.11320754716981","98.11320754716981","866.4716981132076","866.4716981132076","black","experiment","legacy","legacy","legacy","0","uniform","1","undefined","1","right","52","52","52","0","0","52","52","0","0","52","52","52","0","52","0","Sun Oct 25 14:43:30 2020","The main experiment item","yes","Sternberg task.osexp","/Users/alisonbeason/Desktop/PSYC 5316/Lab 3","no","mono","no","18","no","white","no","yes","768","legacy","40","11","/Users/alisonbeason/Desktop/PSYC 5316/Lab 3/AB-subject-3.csv","legacy","9 7 4 5 8","Lentiform Loewenfeld","3.3.3","0","n","0","right","right","right","right","NA","1028","1535","13207","1028","NA","2","legacy","5","1024","2","48000","-16","experiment","3","odd","6","340543","337259","338309","2324","91633","338318","46248","2334","78425","342553","343582","339330","3878","342553","NA","Sternberg task","52","45923","53","yes","1024"
"98.14814814814815","98.14814814814815","865.6666666666666","865.6666666666666","black","experiment","legacy","legacy","legacy","0","uniform","1","undefined","1","left","53","53","53","0","0","53","53","0","0","53","53","53","0","53","0","Sun Oct 25 14:43:30 2020","The main experiment item","yes","Sternberg task.osexp","/Users/alisonbeason/Desktop/PSYC 5316/Lab 3","no","mono","no","18","no","white","no","yes","768","legacy","41","11","/Users/alisonbeason/Desktop/PSYC 5316/Lab 3/AB-subject-3.csv","legacy","7 2 3","Lentiform Loewenfeld","3.3.3","3","y","0","left","right","right","left","NA","823","1535","13207","823","NA","2","legacy","3","1024","2","48000","-16","experiment","3","odd","3","346879","343593","344646","2324","91633","344656","46248","2334","78425","348889","349713","345666","3878","348889","NA","Sternberg task","53","46746","54","yes","1024"
"98.18181818181819","98.18181818181819","864.8909090909091","864.8909090909091","black","experiment","legacy","legacy","legacy","0","uniform","1","undefined","1","left","54","54","54","0","0","54","54","0","0","54","54","54","0","54","0","Sun Oct 25 14:43:30 2020","The main experiment item","yes","Sternberg task.osexp","/Users/alisonbeason/Desktop/PSYC 5316/Lab 3","no","mono","no","18","no","white","no","yes","768","legacy","42","11","/Users/alisonbeason/Desktop/PSYC 5316/Lab 3/AB-subject-3.csv","legacy","6 9 7 4 5 1","Lentiform Loewenfeld","3.3.3","2","y","0","left","right","right","left","NA","823","1535","13207","823","NA","2","legacy","6","1024","2","48000","-16","experiment","3","odd","9","353010","349724","350778","2324","91633","350787","46248","2334","78425","355020","355844","351798","3878","355019","NA","Sternberg task","54","47569","55","yes","1024"
"98.21428571428571","98.21428571428571","867.1428571428571","867.1428571428571","black","experiment","legacy","legacy","legacy","0","uniform","1","undefined","1","right","55","55","55","0","0","55","55","0","0","55","55","55","0","55","0","Sun Oct 25 14:43:30 2020","The main experiment item","yes","Sternberg task.osexp","/Users/alisonbeason/Desktop/PSYC 5316/Lab 3","no","mono","no","18","no","white","no","yes","768","legacy","43","11","/Users/alisonbeason/Desktop/PSYC 5316/Lab 3/AB-subject-3.csv","legacy","6 9 5","Lentiform Loewenfeld","3.3.3","0","n","0","right","right","right","right","NA","991","1535","13207","991","NA","2","legacy","3","1024","2","48000","-16","experiment","3","odd","8","359141","355856","356909","2324","91633","356919","46248","2334","78425","361151","362143","357929","3878","361150","NA","Sternberg task","55","48560","56","yes","1024"
"98.24561403508773","98.24561403508773","863.7719298245614","863.7719298245614","black","experiment","legacy","legacy","legacy","0","uniform","1","undefined","1","left","56","56","56","0","0","56","56","0","0","56","56","56","0","56","0","Sun Oct 25 14:43:30 2020","The main experiment item","yes","Sternberg task.osexp","/Users/alisonbeason/Desktop/PSYC 5316/Lab 3","no","mono","no","18","no","white","no","yes","768","legacy","44","11","/Users/alisonbeason/Desktop/PSYC 5316/Lab 3/AB-subject-3.csv","legacy","9 4 2","Lentiform Loewenfeld","3.3.3","1","y","0","left","right","right","left","NA","675","1535","13207","675","NA","2","legacy","3","1024","2","48000","-16","experiment","3","odd","9","365442","362155","363208","2324","91633","363217","46248","2334","78425","367452","368128","364228","3878","367452","NA","Sternberg task","56","49235","57","yes","1024"
"98.27586206896552","98.27586206896552","865.8275862068965","865.8275862068965","black","experiment","legacy","legacy","legacy","0","uniform","1","undefined","1","right","57","57","57","0","0","57","57","0","0","57","57","57","0","57","0","Sun Oct 25 14:43:30 2020","The main experiment item","yes","Sternberg task.osexp","/Users/alisonbeason/Desktop/PSYC 5316/Lab 3","no","mono","no","18","no","white","no","yes","768","legacy","45","11","/Users/alisonbeason/Desktop/PSYC 5316/Lab 3/AB-subject-3.csv","legacy","7 1 8 4 9 3","Lentiform Loewenfeld","3.3.3","0","n","0","right","right","right","right","NA","983","1535","13207","983","NA","2","legacy","6","1024","2","48000","-16","experiment","3","odd","6","371426","368139","369193","2324","91633","369202","46248","2334","78425","373435","374419","370212","3878","373435","NA","Sternberg task","57","50218","58","yes","1024"
"98.30508474576271","98.30508474576271","862.3050847457627","862.3050847457627","black","experiment","legacy","legacy","legacy","0","uniform","1","undefined","1","left","58","58","58","0","0","58","58","0","0","58","58","58","0","58","0","Sun Oct 25 14:43:30 2020","The main experiment item","yes","Sternberg task.osexp","/Users/alisonbeason/Desktop/PSYC 5316/Lab 3","no","mono","no","18","no","white","no","yes","768","legacy","46","11","/Users/alisonbeason/Desktop/PSYC 5316/Lab 3/AB-subject-3.csv","legacy","8 7 3","Lentiform Loewenfeld","3.3.3","1","y","0","left","right","right","left","NA","658","1535","13207","658","NA","2","legacy","3","1024","2","48000","-16","experiment","3","odd","8","377713","374431","375481","2324","91633","375490","46248","2334","78425","379723","380382","376501","3878","379723","NA","Sternberg task","58","50876","59","yes","1024"
"98.33333333333333","98.33333333333333","862.9666666666667","862.9666666666667","black","experiment","legacy","legacy","legacy","0","uniform","1","undefined","1","left","59","59","59","0","0","59","59","0","0","59","59","59","0","59","0","Sun Oct 25 14:43:30 2020","The main experiment item","yes","Sternberg task.osexp","/Users/alisonbeason/Desktop/PSYC 5316/Lab 3","no","mono","no","18","no","white","no","yes","768","legacy","47","11","/Users/alisonbeason/Desktop/PSYC 5316/Lab 3/AB-subject-3.csv","legacy","4 9 7 8 5 3","Lentiform Loewenfeld","3.3.3","4","y","0","left","right","right","left","NA","902","1535","13207","902","NA","2","legacy","6","1024","2","48000","-16","experiment","3","odd","8","383679","380392","381446","2324","91633","381455","46248","2334","78425","385688","386591","382466","3878","385688","NA","Sternberg task","59","51778","60","yes","1024"
"98.36065573770492","98.36065573770492","859.1803278688525","859.1803278688525","black","experiment","legacy","legacy","legacy","0","uniform","1","undefined","1","left","60","60","60","0","0","60","60","0","0","60","60","60","0","60","0","Sun Oct 25 14:43:30 2020","The main experiment item","yes","Sternberg task.osexp","/Users/alisonbeason/Desktop/PSYC 5316/Lab 3","no","mono","no","18","no","white","no","yes","768","legacy","48","11","/Users/alisonbeason/Desktop/PSYC 5316/Lab 3/AB-subject-3.csv","legacy","3 4","Lentiform Loewenfeld","3.3.3","1","y","0","left","right","right","left","NA","632","1535","13207","632","NA","2","legacy","2","1024","2","48000","-16","experiment","3","odd","3","389888","386602","387655","2324","91633","387665","46248","2334","78425","391898","392532","388675","3878","391898","NA","Sternberg task","60","52410","61","yes","1024"
"98.38709677419355","98.38709677419355","858.241935483871","858.241935483871","black","experiment","legacy","legacy","legacy","0","uniform","1","undefined","1","right","61","61","61","0","0","61","61","0","0","61","61","61","0","61","0","Sun Oct 25 14:43:30 2020","The main experiment item","yes","Sternberg task.osexp","/Users/alisonbeason/Desktop/PSYC 5316/Lab 3","no","mono","no","18","no","white","no","yes","768","legacy","49","11","/Users/alisonbeason/Desktop/PSYC 5316/Lab 3/AB-subject-3.csv","legacy","4 2 7 6 1 3","Lentiform Loewenfeld","3.3.3","0","n","0","right","right","right","right","NA","801","1535","13207","801","NA","2","legacy","6","1024","2","48000","-16","experiment","3","odd","8","395829","392543","393597","2324","91633","393606","46248","2334","78425","397838","398641","394616","3878","397838","NA","Sternberg task","61","53211","62","yes","1024"
"96.82539682539682","96.82539682539682","861.047619047619","861.047619047619","black","experiment","legacy","legacy","legacy","0","uniform","0","undefined","0","right","62","62","62","0","0","62","62","0","0","62","62","62","0","62","0","Sun Oct 25 14:43:30 2020","The main experiment item","yes","Sternberg task.osexp","/Users/alisonbeason/Desktop/PSYC 5316/Lab 3","no","mono","no","18","no","white","no","yes","768","legacy","50","11","/Users/alisonbeason/Desktop/PSYC 5316/Lab 3/AB-subject-3.csv","legacy","7 3 2 8","Lentiform Loewenfeld","3.3.3","0","n","0","left","right","right","left","NA","1035","1535","13207","1035","NA","2","legacy","4","1024","2","48000","-16","experiment","3","odd","4","401939","398652","399705","2324","91633","399715","46248","2334","78425","403949","404986","400725","3878","403949","NA","Sternberg task","61","54246","63","yes","1024"
"96.875","96.875","860.46875","860.46875","black","experiment","legacy","legacy","legacy","0","uniform","1","undefined","1","right","63","63","63","0","0","63","63","0","0","63","63","63","0","63","0","Sun Oct 25 14:43:30 2020","The main experiment item","yes","Sternberg task.osexp","/Users/alisonbeason/Desktop/PSYC 5316/Lab 3","no","mono","no","18","no","white","no","yes","768","legacy","51","11","/Users/alisonbeason/Desktop/PSYC 5316/Lab 3/AB-subject-3.csv","legacy","3 9 8 1 6 4","Lentiform Loewenfeld","3.3.3","0","n","0","right","right","right","right","NA","824","1535","13207","824","NA","2","legacy","6","1024","2","48000","-16","experiment","3","odd","7","408282","398652","406049","2324","91633","406059","404997","2334","78425","410291","411116","407069","3878","410291","NA","Sternberg task","62","55070","64","yes","1024"
"96.92307692307692","96.92307692307692","861.6153846153846","861.6153846153846","black","experiment","legacy","legacy","legacy","0","uniform","1","undefined","1","left","64","64","64","0","0","64","64","0","0","64","64","64","0","64","0","Sun Oct 25 14:43:30 2020","The main experiment item","yes","Sternberg task.osexp","/Users/alisonbeason/Desktop/PSYC 5316/Lab 3","no","mono","no","18","no","white","no","yes","768","legacy","52","11","/Users/alisonbeason/Desktop/PSYC 5316/Lab 3/AB-subject-3.csv","legacy","6 9 3 1","Lentiform Loewenfeld","3.3.3","4","y","0","left","right","right","left","NA","935","1535","13207","935","NA","2","legacy","4","1024","2","48000","-16","experiment","3","odd","1","414414","411127","412180","2324","91633","412190","404997","2334","78425","416424","417360","413200","3878","416424","NA","Sternberg task","63","56005","65","yes","1024"
"96.96969696969697","96.96969696969697","860.7121212121212","860.7121212121212","black","experiment","legacy","legacy","legacy","0","uniform","1","undefined","1","right","65","65","65","0","0","65","65","0","0","65","65","65","0","65","0","Sun Oct 25 14:43:30 2020","The main experiment item","yes","Sternberg task.osexp","/Users/alisonbeason/Desktop/PSYC 5316/Lab 3","no","mono","no","18","no","white","no","yes","768","legacy","53","11","/Users/alisonbeason/Desktop/PSYC 5316/Lab 3/AB-subject-3.csv","legacy","5 7 3","Lentiform Loewenfeld","3.3.3","0","n","0","right","right","right","right","NA","802","1535","13207","802","NA","2","legacy","3","1024","2","48000","-16","experiment","3","odd","9","420657","417372","418425","2324","91633","418434","404997","2334","78425","422667","423470","419445","3878","422667","NA","Sternberg task","64","56807","66","yes","1024"
"97.01492537313433","97.01492537313433","860.8059701492538","860.8059701492538","black","experiment","legacy","legacy","legacy","0","uniform","1","undefined","1","right","66","66","66","0","0","66","66","0","0","66","66","66","0","66","0","Sun Oct 25 14:43:30 2020","The main experiment item","yes","Sternberg task.osexp","/Users/alisonbeason/Desktop/PSYC 5316/Lab 3","no","mono","no","18","no","white","no","yes","768","legacy","54","11","/Users/alisonbeason/Desktop/PSYC 5316/Lab 3/AB-subject-3.csv","legacy","6 9 4 5 3 2","Lentiform Loewenfeld","3.3.3","0","n","0","right","right","right","right","NA","867","1535","13207","867","NA","2","legacy","6","1024","2","48000","-16","experiment","3","odd","8","426768","423481","424535","2324","91633","424544","404997","2334","78425","428778","429646","425555","3878","428778","NA","Sternberg task","65","57674","67","yes","1024"
"97.05882352941177","97.05882352941177","861.2352941176471","861.2352941176471","black","experiment","legacy","legacy","legacy","0","uniform","1","undefined","1","right","67","67","67","0","0","67","67","0","0","67","67","67","0","67","0","Sun Oct 25 14:43:30 2020","The main experiment item","yes","Sternberg task.osexp","/Users/alisonbeason/Desktop/PSYC 5316/Lab 3","no","mono","no","18","no","white","no","yes","768","legacy","55","11","/Users/alisonbeason/Desktop/PSYC 5316/Lab 3/AB-subject-3.csv","legacy","7 1 5 6 3","Lentiform Loewenfeld","3.3.3","0","n","0","right","right","right","right","NA","890","1535","13207","890","NA","2","legacy","5","1024","2","48000","-16","experiment","3","odd","8","432943","429657","430711","2324","91633","430720","404997","2334","78425","434953","435845","431730","3878","434952","NA","Sternberg task","66","58564","68","yes","1024"
"97.10144927536231","97.10144927536231","860.3478260869565","860.3478260869565","black","experiment","legacy","legacy","legacy","0","uniform","1","undefined","1","left","68","68","68","0","0","68","68","0","0","68","68","68","0","68","0","Sun Oct 25 14:43:30 2020","The main experiment item","yes","Sternberg task.osexp","/Users/alisonbeason/Desktop/PSYC 5316/Lab 3","no","mono","no","18","no","white","no","yes","768","legacy","56","11","/Users/alisonbeason/Desktop/PSYC 5316/Lab 3/AB-subject-3.csv","legacy","3 9 7 6 4","Lentiform Loewenfeld","3.3.3","3","y","0","left","right","right","left","NA","800","1535","13207","800","NA","2","legacy","5","1024","2","48000","-16","experiment","3","odd","7","439141","435856","436909","2324","91633","436919","404997","2334","78425","441152","441953","437929","3878","441152","NA","Sternberg task","67","59364","69","yes","1024"
"97.14285714285714","97.14285714285714","858.3857142857142","858.3857142857142","black","experiment","legacy","legacy","legacy","0","uniform","1","undefined","1","right","69","69","69","0","0","69","69","0","0","69","69","69","0","69","0","Sun Oct 25 14:43:30 2020","The main experiment item","yes","Sternberg task.osexp","/Users/alisonbeason/Desktop/PSYC 5316/Lab 3","no","mono","no","18","no","white","no","yes","768","legacy","57","11","/Users/alisonbeason/Desktop/PSYC 5316/Lab 3/AB-subject-3.csv","legacy","8 4 3 5","Lentiform Loewenfeld","3.3.3","0","n","0","right","right","right","right","NA","723","1535","13207","723","NA","2","legacy","4","1024","2","48000","-16","experiment","3","odd","6","445249","441964","443017","2324","91633","443026","404997","2334","78425","447259","447984","444036","3878","447258","NA","Sternberg task","68","60087","70","yes","1024"
"97.1830985915493","97.1830985915493","856.2112676056338","856.2112676056338","black","experiment","legacy","legacy","legacy","0","uniform","1","undefined","1","right","70","70","70","0","0","70","70","0","0","70","70","70","0","70","0","Sun Oct 25 14:43:30 2020","The main experiment item","yes","Sternberg task.osexp","/Users/alisonbeason/Desktop/PSYC 5316/Lab 3","no","mono","no","18","no","white","no","yes","768","legacy","58","11","/Users/alisonbeason/Desktop/PSYC 5316/Lab 3/AB-subject-3.csv","legacy","1 6 4","Lentiform Loewenfeld","3.3.3","0","n","0","right","right","right","right","NA","704","1535","13207","704","NA","2","legacy","3","1024","2","48000","-16","experiment","3","odd","7","451276","447995","449044","2324","91633","449053","404997","2334","78425","453286","453991","450064","3878","453286","NA","Sternberg task","69","60791","71","yes","1024"
"97.22222222222223","97.22222222222223","852.5","852.5","black","experiment","legacy","legacy","legacy","0","uniform","1","undefined","1","right","71","71","71","0","0","71","71","0","0","71","71","71","0","71","0","Sun Oct 25 14:43:30 2020","The main experiment item","yes","Sternberg task.osexp","/Users/alisonbeason/Desktop/PSYC 5316/Lab 3","no","mono","no","18","no","white","no","yes","768","legacy","59","11","/Users/alisonbeason/Desktop/PSYC 5316/Lab 3/AB-subject-3.csv","legacy","7 1","Lentiform Loewenfeld","3.3.3","0","n","0","right","right","right","right","NA","589","1535","13207","589","NA","2","legacy","2","1024","2","48000","-16","experiment","3","odd","8","457287","454001","455054","2324","91633","455063","404997","2334","78425","459296","459887","456074","3878","459296","NA","Sternberg task","70","61380","72","yes","1024"
"97.26027397260275","97.26027397260275","854.6986301369863","854.6986301369863","black","experiment","legacy","legacy","legacy","0","uniform","1","undefined","1","right","72","72","72","0","0","72","72","0","0","72","72","72","0","72","0","Sun Oct 25 14:43:30 2020","The main experiment item","yes","Sternberg task.osexp","/Users/alisonbeason/Desktop/PSYC 5316/Lab 3","no","mono","no","18","no","white","no","yes","768","legacy","60","11","/Users/alisonbeason/Desktop/PSYC 5316/Lab 3/AB-subject-3.csv","legacy","1 6 4 3 9 7","Lentiform Loewenfeld","3.3.3","0","n","0","right","right","right","right","NA","1013","1535","13207","1013","NA","2","legacy","6","1024","2","48000","-16","experiment","3","odd","8","463184","459897","460952","2324","91633","460962","404997","2334","78425","465194","466208","461972","3878","465194","NA","Sternberg task","71","62393","73","yes","1024"
"97.29729729729729","97.29729729729729","852.7702702702703","852.7702702702703","black","experiment","legacy","legacy","legacy","0","uniform","1","undefined","1","right","73","73","73","0","0","73","73","0","0","73","73","73","0","73","0","Sun Oct 25 14:43:30 2020","The main experiment item","yes","Sternberg task.osexp","/Users/alisonbeason/Desktop/PSYC 5316/Lab 3","no","mono","no","18","no","white","no","yes","768","legacy","61","11","/Users/alisonbeason/Desktop/PSYC 5316/Lab 3/AB-subject-3.csv","legacy","3 9 1","Lentiform Loewenfeld","3.3.3","0","n","0","right","right","right","right","NA","712","1535","13207","712","NA","2","legacy","3","1024","2","48000","-16","experiment","3","odd","7","469505","466219","467272","2324","91633","467281","404997","2334","78425","471514","472227","468291","3878","471514","NA","Sternberg task","72","63105","74","yes","1024"
"97.33333333333333","97.33333333333333","852.2133333333334","852.2133333333334","black","experiment","legacy","legacy","legacy","0","uniform","1","undefined","1","right","74","74","74","0","0","74","74","0","0","74","74","74","0","74","0","Sun Oct 25 14:43:30 2020","The main experiment item","yes","Sternberg task.osexp","/Users/alisonbeason/Desktop/PSYC 5316/Lab 3","no","mono","no","18","no","white","no","yes","768","legacy","62","11","/Users/alisonbeason/Desktop/PSYC 5316/Lab 3/AB-subject-3.csv","legacy","6 9 4 5 2","Lentiform Loewenfeld","3.3.3","0","n","0","right","right","right","right","NA","811","1535","13207","811","NA","2","legacy","5","1024","2","48000","-16","experiment","3","odd","1","475526","472238","473292","2324","91633","473301","404997","2334","78425","477536","478348","474312","3878","477536","NA","Sternberg task","73","63916","75","yes","1024"
"97.36842105263158","97.36842105263158","851.5263157894736","851.5263157894736","black","experiment","legacy","legacy","legacy","0","uniform","1","undefined","1","left","75","75","75","0","0","75","75","0","0","75","75","75","0","75","0","Sun Oct 25 14:43:30 2020","The main experiment item","yes","Sternberg task.osexp","/Users/alisonbeason/Desktop/PSYC 5316/Lab 3","no","mono","no","18","no","white","no","yes","768","legacy","63","11","/Users/alisonbeason/Desktop/PSYC 5316/Lab 3/AB-subject-3.csv","legacy","4 3 2 5 8","Lentiform Loewenfeld","3.3.3","2","y","0","left","right","right","left","NA","800","1535","13207","800","NA","2","legacy","5","1024","2","48000","-16","experiment","3","odd","3","481646","478360","479414","2324","91633","479423","404997","2334","78425","483656","484457","480434","3878","483655","NA","Sternberg task","74","64716","76","yes","1024"
"97.40259740259741","97.40259740259741","850.4025974025974","850.4025974025974","black","experiment","legacy","legacy","legacy","0","uniform","1","undefined","1","left","76","76","76","0","0","76","76","0","0","76","76","76","0","76","0","Sun Oct 25 14:43:30 2020","The main experiment item","yes","Sternberg task.osexp","/Users/alisonbeason/Desktop/PSYC 5316/Lab 3","no","mono","no","18","no","white","no","yes","768","legacy","64","11","/Users/alisonbeason/Desktop/PSYC 5316/Lab 3/AB-subject-3.csv","legacy","9 5 3 8 4","Lentiform Loewenfeld","3.3.3","1","y","0","left","right","right","left","NA","765","1535","13207","765","NA","2","legacy","5","1024","2","48000","-16","experiment","3","odd","9","487755","484469","485523","2324","91633","485532","404997","2334","78425","489766","490532","486542","3878","489766","NA","Sternberg task","75","65481","77","yes","1024"
"97.43589743589743","97.43589743589743","847.474358974359","847.474358974359","black","experiment","legacy","legacy","legacy","0","uniform","1","undefined","1","right","77","77","77","0","0","77","77","0","0","77","77","77","0","77","0","Sun Oct 25 14:43:30 2020","The main experiment item","yes","Sternberg task.osexp","/Users/alisonbeason/Desktop/PSYC 5316/Lab 3","no","mono","no","18","no","white","no","yes","768","legacy","65","11","/Users/alisonbeason/Desktop/PSYC 5316/Lab 3/AB-subject-3.csv","legacy","5 2","Lentiform Loewenfeld","3.3.3","0","n","0","right","right","right","right","NA","622","1535","13207","622","NA","2","legacy","2","1024","2","48000","-16","experiment","3","odd","7","493828","490543","491595","2324","91633","491605","404997","2334","78425","495838","496461","492615","3878","495837","NA","Sternberg task","76","66103","78","yes","1024"
"97.46835443037975","97.46835443037975","850.1518987341772","850.1518987341772","black","experiment","legacy","legacy","legacy","0","uniform","1","undefined","1","right","78","78","78","0","0","78","78","0","0","78","78","78","0","78","0","Sun Oct 25 14:43:30 2020","The main experiment item","yes","Sternberg task.osexp","/Users/alisonbeason/Desktop/PSYC 5316/Lab 3","no","mono","no","18","no","white","no","yes","768","legacy","66","11","/Users/alisonbeason/Desktop/PSYC 5316/Lab 3/AB-subject-3.csv","legacy","6 7 5 9","Lentiform Loewenfeld","3.3.3","0","n","0","right","right","right","right","NA","1059","1535","13207","1059","NA","2","legacy","4","1024","2","48000","-16","experiment","3","odd","2","499759","496472","497525","2324","91633","497534","404997","2334","78425","501769","502829","498545","3878","501769","NA","Sternberg task","77","67162","79","yes","1024"
"96.25","96.25","861.7875","861.7875","black","experiment","legacy","legacy","legacy","0","uniform","0","undefined","0","left","79","79","79","0","0","79","79","0","0","79","79","79","0","79","0","Sun Oct 25 14:43:30 2020","The main experiment item","yes","Sternberg task.osexp","/Users/alisonbeason/Desktop/PSYC 5316/Lab 3","no","mono","no","18","no","white","no","yes","768","legacy","67","11","/Users/alisonbeason/Desktop/PSYC 5316/Lab 3/AB-subject-3.csv","legacy","9 3 1 2 5","Lentiform Loewenfeld","3.3.3","4","y","0","right","right","right","right","NA","1781","1535","13207","1781","NA","2","legacy","5","1024","2","48000","-16","experiment","3","odd","2","506125","502840","503894","2324","91633","503903","404997","2334","78425","508134","509916","504913","3878","508134","NA","Sternberg task","77","68943","80","yes","1024"
"96.29629629629629","96.29629629629629","868.2716049382716","868.2716049382716","black","experiment","legacy","legacy","legacy","0","uniform","1","undefined","1","right","80","80","80","0","0","80","80","0","0","80","80","80","0","80","0","Sun Oct 25 14:43:30 2020","The main experiment item","yes","Sternberg task.osexp","/Users/alisonbeason/Desktop/PSYC 5316/Lab 3","no","mono","no","18","no","white","no","yes","768","legacy","68","11","/Users/alisonbeason/Desktop/PSYC 5316/Lab 3/AB-subject-3.csv","legacy","6 8","Lentiform Loewenfeld","3.3.3","0","n","0","right","right","right","right","NA","1387","1535","13207","1387","NA","2","legacy","2","1024","2","48000","-16","experiment","3","odd","9","513213","502840","510982","2324","91633","510991","509928","2334","78425","515222","516610","512000","3878","515222","NA","Sternberg task","78","70330","81","yes","1024"
"96.34146341463415","96.34146341463415","864","864","black","experiment","legacy","legacy","legacy","0","uniform","1","undefined","1","left","81","81","81","0","0","81","81","0","0","81","81","81","0","81","0","Sun Oct 25 14:43:30 2020","The main experiment item","yes","Sternberg task.osexp","/Users/alisonbeason/Desktop/PSYC 5316/Lab 3","no","mono","no","18","no","white","no","yes","768","legacy","69","11","/Users/alisonbeason/Desktop/PSYC 5316/Lab 3/AB-subject-3.csv","legacy","4 1 8 7 5","Lentiform Loewenfeld","3.3.3","3","y","0","left","right","right","left","NA","518","1535","13207","518","NA","2","legacy","5","1024","2","48000","-16","experiment","3","odd","8","519908","516621","517675","2324","91633","517684","509928","2334","78425","521918","522438","518695","3878","521917","NA","Sternberg task","79","70848","82","yes","1024"
"96.3855421686747","96.3855421686747","862.4096385542168","862.4096385542168","black","experiment","legacy","legacy","legacy","0","uniform","1","undefined","1","left","82","82","82","0","0","82","82","0","0","82","82","82","0","82","0","Sun Oct 25 14:43:30 2020","The main experiment item","yes","Sternberg task.osexp","/Users/alisonbeason/Desktop/PSYC 5316/Lab 3","no","mono","no","18","no","white","no","yes","768","legacy","70","11","/Users/alisonbeason/Desktop/PSYC 5316/Lab 3/AB-subject-3.csv","legacy","4 6 2 5 1","Lentiform Loewenfeld","3.3.3","5","y","0","left","right","right","left","NA","732","1535","13207","732","NA","2","legacy","5","1024","2","48000","-16","experiment","3","odd","1","525737","522449","523504","2324","91633","523513","509928","2334","78425","527746","528479","524524","3878","527746","NA","Sternberg task","80","71580","83","yes","1024"
"96.42857142857143","96.42857142857143","860.0595238095239","860.0595238095239","black","experiment","legacy","legacy","legacy","0","uniform","1","undefined","1","right","83","83","83","0","0","83","83","0","0","83","83","83","0","83","0","Sun Oct 25 14:43:30 2020","The main experiment item","yes","Sternberg task.osexp","/Users/alisonbeason/Desktop/PSYC 5316/Lab 3","no","mono","no","18","no","white","no","yes","768","legacy","71","11","/Users/alisonbeason/Desktop/PSYC 5316/Lab 3/AB-subject-3.csv","legacy","1 4 9 2 5","Lentiform Loewenfeld","3.3.3","0","n","0","right","right","right","right","NA","665","1535","13207","665","NA","2","legacy","5","1024","2","48000","-16","experiment","3","odd","7","531777","528490","529544","2324","91633","529554","509928","2334","78425","533786","534453","530564","3878","533786","NA","Sternberg task","81","72245","84","yes","1024"
"96.47058823529412","96.47058823529412","858.9294117647058","858.9294117647058","black","experiment","legacy","legacy","legacy","0","uniform","1","undefined","1","right","84","84","84","0","0","84","84","0","0","84","84","84","0","84","0","Sun Oct 25 14:43:30 2020","The main experiment item","yes","Sternberg task.osexp","/Users/alisonbeason/Desktop/PSYC 5316/Lab 3","no","mono","no","18","no","white","no","yes","768","legacy","72","11","/Users/alisonbeason/Desktop/PSYC 5316/Lab 3/AB-subject-3.csv","legacy","2 6 4 3 9","Lentiform Loewenfeld","3.3.3","0","n","0","right","right","right","right","NA","764","1535","13207","764","NA","2","legacy","5","1024","2","48000","-16","experiment","3","odd","1","537754","534464","535518","2324","91633","535529","509928","2334","78425","539763","540528","536541","3878","539763","NA","Sternberg task","82","73009","85","yes","1024"
"96.51162790697674","96.51162790697674","856.4418604651163","856.4418604651163","black","experiment","legacy","legacy","legacy","0","uniform","1","undefined","1","left","85","85","85","0","0","85","85","0","0","85","85","85","0","85","0","Sun Oct 25 14:43:30 2020","The main experiment item","yes","Sternberg task.osexp","/Users/alisonbeason/Desktop/PSYC 5316/Lab 3","no","mono","no","18","no","white","no","yes","768","legacy","73","11","/Users/alisonbeason/Desktop/PSYC 5316/Lab 3/AB-subject-3.csv","legacy","2 3","Lentiform Loewenfeld","3.3.3","1","y","0","left","right","right","left","NA","645","1535","13207","645","NA","2","legacy","2","1024","2","48000","-16","experiment","3","odd","2","543822","540540","541590","2324","91633","541599","509928","2334","78425","545833","546480","542610","3878","545833","NA","Sternberg task","83","73654","86","yes","1024"
"95.40229885057471","95.40229885057471","854.1149425287356","854.1149425287356","black","experiment","legacy","legacy","legacy","0","uniform","0","undefined","0","left","86","86","86","0","0","86","86","0","0","86","86","86","0","86","0","Sun Oct 25 14:43:30 2020","The main experiment item","yes","Sternberg task.osexp","/Users/alisonbeason/Desktop/PSYC 5316/Lab 3","no","mono","no","18","no","white","no","yes","768","legacy","74","11","/Users/alisonbeason/Desktop/PSYC 5316/Lab 3/AB-subject-3.csv","legacy","2 8 5 1","Lentiform Loewenfeld","3.3.3","4","y","0","right","right","right","right","NA","654","1535","13207","654","NA","2","legacy","4","1024","2","48000","-16","experiment","3","odd","1","549777","546491","547545","2324","91633","547554","509928","2334","78425","551787","552442","548564","3878","551787","NA","Sternberg task","83","74308","87","yes","1024"
"95.45454545454545","95.45454545454545","855.2727272727273","855.2727272727273","black","experiment","legacy","legacy","legacy","0","uniform","1","undefined","1","right","87","87","87","0","0","87","87","0","0","87","87","87","0","87","0","Sun Oct 25 14:43:30 2020","The main experiment item","yes","Sternberg task.osexp","/Users/alisonbeason/Desktop/PSYC 5316/Lab 3","no","mono","no","18","no","white","no","yes","768","legacy","75","11","/Users/alisonbeason/Desktop/PSYC 5316/Lab 3/AB-subject-3.csv","legacy","6 9 7 3 8 2","Lentiform Loewenfeld","3.3.3","0","n","0","right","right","right","right","NA","956","1535","13207","956","NA","2","legacy","6","1024","2","48000","-16","experiment","3","odd","5","555741","546491","553508","2324","91633","553518","552454","2334","78425","557751","558708","554528","3878","557751","NA","Sternberg task","84","75264","88","yes","1024"
"95.50561797752809","95.50561797752809","854.7865168539325","854.7865168539325","black","experiment","legacy","legacy","legacy","0","uniform","1","undefined","1","left","88","88","88","0","0","88","88","0","0","88","88","88","0","88","0","Sun Oct 25 14:43:30 2020","The main experiment item","yes","Sternberg task.osexp","/Users/alisonbeason/Desktop/PSYC 5316/Lab 3","no","mono","no","18","no","white","no","yes","768","legacy","76","11","/Users/alisonbeason/Desktop/PSYC 5316/Lab 3/AB-subject-3.csv","legacy","6 8 9 3 4 9","Lentiform Loewenfeld","3.3.3","5","y","0","left","right","right","left","NA","812","1535","13207","812","NA","2","legacy","6","1024","2","48000","-16","experiment","3","odd","4","562005","558720","559773","2324","91633","559783","552454","2334","78425","564015","564829","560793","3878","564015","NA","Sternberg task","85","76076","89","yes","1024"
"94.44444444444444","94.44444444444444","857.6666666666666","857.6666666666666","black","experiment","legacy","legacy","legacy","0","uniform","0","undefined","0","left","89","89","89","0","0","89","89","0","0","89","89","89","0","89","0","Sun Oct 25 14:43:30 2020","The main experiment item","yes","Sternberg task.osexp","/Users/alisonbeason/Desktop/PSYC 5316/Lab 3","no","mono","no","18","no","white","no","yes","768","legacy","77","11","/Users/alisonbeason/Desktop/PSYC 5316/Lab 3/AB-subject-3.csv","legacy","7 1 8 5 6 2","Lentiform Loewenfeld","3.3.3","2","y","0","right","right","right","right","NA","1114","1535","13207","1114","NA","2","legacy","6","1024","2","48000","-16","experiment","3","odd","1","568126","564840","565894","2324","91633","565903","552454","2334","78425","570136","571252","566914","3878","570136","NA","Sternberg task","85","77190","90","yes","1024"
"94.50549450549451","94.50549450549451","854.8131868131868","854.8131868131868","black","experiment","legacy","legacy","legacy","0","uniform","1","undefined","1","left","90","90","90","0","0","90","90","0","0","90","90","90","0","90","0","Sun Oct 25 14:43:30 2020","The main experiment item","yes","Sternberg task.osexp","/Users/alisonbeason/Desktop/PSYC 5316/Lab 3","no","mono","no","18","no","white","no","yes","768","legacy","78","11","/Users/alisonbeason/Desktop/PSYC 5316/Lab 3/AB-subject-3.csv","legacy","7 4 2 6 3 5","Lentiform Loewenfeld","3.3.3","6","y","0","left","right","right","left","NA","598","1535","13207","598","NA","2","legacy","6","1024","2","48000","-16","experiment","3","odd","5","574550","564840","572316","2324","91633","572326","571263","2334","78425","576559","577158","573337","3878","576559","NA","Sternberg task","86","77788","91","yes","1024"
"93.47826086956522","93.47826086956522","856.054347826087","856.054347826087","black","experiment","legacy","legacy","legacy","0","uniform","0","undefined","0","right","91","91","91","0","0","91","91","0","0","91","91","91","0","91","0","Sun Oct 25 14:43:30 2020","The main experiment item","yes","Sternberg task.osexp","/Users/alisonbeason/Desktop/PSYC 5316/Lab 3","no","mono","no","18","no","white","no","yes","768","legacy","79","11","/Users/alisonbeason/Desktop/PSYC 5316/Lab 3/AB-subject-3.csv","legacy","7 8 6 1","Lentiform Loewenfeld","3.3.3","0","n","0","left","right","right","left","NA","969","1535","13207","969","NA","2","legacy","4","1024","2","48000","-16","experiment","3","odd","3","580456","577169","578222","2324","91633","578232","571263","2334","78425","582466","583437","579242","3878","582466","NA","Sternberg task","86","78757","92","yes","1024"
"93.54838709677419","93.54838709677419","856.8709677419355","856.8709677419355","black","experiment","legacy","legacy","legacy","0","uniform","1","undefined","1","left","92","92","92","0","0","92","92","0","0","92","92","92","0","92","0","Sun Oct 25 14:43:30 2020","The main experiment item","yes","Sternberg task.osexp","/Users/alisonbeason/Desktop/PSYC 5316/Lab 3","no","mono","no","18","no","white","no","yes","768","legacy","80","11","/Users/alisonbeason/Desktop/PSYC 5316/Lab 3/AB-subject-3.csv","legacy","8 5 1 3 9","Lentiform Loewenfeld","3.3.3","4","y","0","left","right","right","left","NA","932","1535","13207","932","NA","2","legacy","5","1024","2","48000","-16","experiment","3","odd","3","586737","577169","584502","2324","91633","584513","583448","2334","78425","588747","589680","585524","3878","588746","NA","Sternberg task","87","79689","93","yes","1024"
"93.61702127659575","93.61702127659575","856.0212765957447","856.0212765957447","black","experiment","legacy","legacy","legacy","0","uniform","1","undefined","1","left","93","93","93","0","0","93","93","0","0","93","93","93","0","93","0","Sun Oct 25 14:43:30 2020","The main experiment item","yes","Sternberg task.osexp","/Users/alisonbeason/Desktop/PSYC 5316/Lab 3","no","mono","no","18","no","white","no","yes","768","legacy","81","11","/Users/alisonbeason/Desktop/PSYC 5316/Lab 3/AB-subject-3.csv","legacy","2 4 6 9","Lentiform Loewenfeld","3.3.3","3","y","0","left","right","right","left","NA","777","1535","13207","777","NA","2","legacy","4","1024","2","48000","-16","experiment","3","odd","6","592978","589691","590745","2324","91633","590754","583448","2334","78425","594988","595766","591765","3878","594988","NA","Sternberg task","88","80466","94","yes","1024"
"93.6842105263158","93.6842105263158","854.8631578947368","854.8631578947368","black","experiment","legacy","legacy","legacy","0","uniform","1","undefined","1","left","94","94","94","0","0","94","94","0","0","94","94","94","0","94","0","Sun Oct 25 14:43:30 2020","The main experiment item","yes","Sternberg task.osexp","/Users/alisonbeason/Desktop/PSYC 5316/Lab 3","no","mono","no","18","no","white","no","yes","768","legacy","82","11","/Users/alisonbeason/Desktop/PSYC 5316/Lab 3/AB-subject-3.csv","legacy","8 5 3 7 4 6","Lentiform Loewenfeld","3.3.3","6","y","0","left","right","right","left","NA","746","1535","13207","746","NA","2","legacy","6","1024","2","48000","-16","experiment","3","odd","6","599063","595778","596832","2324","91633","596841","583448","2334","78425","601072","601819","597851","3878","601072","NA","Sternberg task","89","81212","95","yes","1024"
"93.75","93.75","853.71875","853.71875","black","experiment","legacy","legacy","legacy","0","uniform","1","undefined","1","right","95","95","95","0","0","95","95","0","0","95","95","95","0","95","0","Sun Oct 25 14:43:30 2020","The main experiment item","yes","Sternberg task.osexp","/Users/alisonbeason/Desktop/PSYC 5316/Lab 3","no","mono","no","18","no","white","no","yes","768","legacy","83","11","/Users/alisonbeason/Desktop/PSYC 5316/Lab 3/AB-subject-3.csv","legacy","5 3 2 6 9 8","Lentiform Loewenfeld","3.3.3","0","n","0","right","right","right","right","NA","745","1535","13207","745","NA","2","legacy","6","1024","2","48000","-16","experiment","3","odd","4","605116","601830","602884","2324","91633","602893","583448","2334","78425","607126","607872","603904","3878","607126","NA","Sternberg task","90","81957","96","yes","1024"
"93.81443298969072","93.81443298969072","856.4123711340206","856.4123711340206","black","experiment","legacy","legacy","legacy","0","uniform","1","undefined","1","right","96","96","96","0","0","96","96","0","0","96","96","96","0","96","0","Sun Oct 25 14:43:30 2020","The main experiment item","yes","Sternberg task.osexp","/Users/alisonbeason/Desktop/PSYC 5316/Lab 3","no","mono","no","18","no","white","no","yes","768","legacy","84","11","/Users/alisonbeason/Desktop/PSYC 5316/Lab 3/AB-subject-3.csv","legacy","6 3 1 7 9 8","Lentiform Loewenfeld","3.3.3","0","n","0","right","right","right","right","NA","1115","1535","13207","1115","NA","2","legacy","6","1024","2","48000","-16","experiment","3","odd","4","611170","607884","608938","2324","91633","608947","583448","2334","78425","613179","614295","609957","3878","613179","NA","Sternberg task","91","83072","97","yes","1024"
"93.87755102040816","93.87755102040816","855.3877551020408","855.3877551020408","black","experiment","legacy","legacy","legacy","0","uniform","1","undefined","1","right","97","97","97","0","0","97","97","0","0","97","97","97","0","97","0","Sun Oct 25 14:43:30 2020","The main experiment item","yes","Sternberg task.osexp","/Users/alisonbeason/Desktop/PSYC 5316/Lab 3","no","mono","no","18","no","white","no","yes","768","legacy","85","11","/Users/alisonbeason/Desktop/PSYC 5316/Lab 3/AB-subject-3.csv","legacy","3 4 2","Lentiform Loewenfeld","3.3.3","0","n","0","right","right","right","right","NA","756","1535","13207","756","NA","2","legacy","3","1024","2","48000","-16","experiment","3","odd","5","617592","614306","615360","2324","91633","615369","583448","2334","78425","619602","620359","616379","3878","619602","NA","Sternberg task","92","83828","98","yes","1024"
"93.93939393939394","93.93939393939394","855.5151515151515","855.5151515151515","black","experiment","legacy","legacy","legacy","0","uniform","1","undefined","1","right","98","98","98","0","0","98","98","0","0","98","98","98","0","98","0","Sun Oct 25 14:43:30 2020","The main experiment item","yes","Sternberg task.osexp","/Users/alisonbeason/Desktop/PSYC 5316/Lab 3","no","mono","no","18","no","white","no","yes","768","legacy","86","11","/Users/alisonbeason/Desktop/PSYC 5316/Lab 3/AB-subject-3.csv","legacy","1 7 5 2 9","Lentiform Loewenfeld","3.3.3","0","n","0","right","right","right","right","NA","868","1535","13207","868","NA","2","legacy","5","1024","2","48000","-16","experiment","3","odd","3","623656","620371","621424","2324","91633","621434","583448","2334","78425","625666","626536","622444","3878","625666","NA","Sternberg task","93","84696","99","yes","1024"
"94","94","857.33","857.33","black","experiment","legacy","legacy","legacy","0","uniform","1","undefined","1","left","99","99","99","0","0","99","99","0","0","99","99","99","0","99","0","Sun Oct 25 14:43:30 2020","The main experiment item","yes","Sternberg task.osexp","/Users/alisonbeason/Desktop/PSYC 5316/Lab 3","no","mono","no","18","no","white","no","yes","768","legacy","87","11","/Users/alisonbeason/Desktop/PSYC 5316/Lab 3/AB-subject-3.csv","legacy","5 7 8 2 3 8","Lentiform Loewenfeld","3.3.3","5","y","0","left","right","right","left","NA","1037","1535","13207","1037","NA","2","legacy","6","1024","2","48000","-16","experiment","3","odd","3","629833","626547","627600","2324","91633","627609","583448","2334","78425","631843","632882","628619","3878","631842","NA","Sternberg task","94","85733","100","yes","1024"
"94.05940594059406","94.05940594059406","854.4257425742575","854.4257425742575","black","experiment","legacy","legacy","legacy","0","uniform","1","undefined","1","left","100","100","100","0","0","100","100","0","0","100","100","100","0","100","0","Sun Oct 25 14:43:30 2020","The main experiment item","yes","Sternberg task.osexp","/Users/alisonbeason/Desktop/PSYC 5316/Lab 3","no","mono","no","18","no","white","no","yes","768","legacy","88","11","/Users/alisonbeason/Desktop/PSYC 5316/Lab 3/AB-subject-3.csv","legacy","6 5","Lentiform Loewenfeld","3.3.3","2","y","0","left","right","right","left","NA","564","1535","13207","564","NA","2","legacy","2","1024","2","48000","-16","experiment","3","odd","5","636179","632893","633947","2324","91633","633956","583448","2334","78425","638188","638753","634967","3878","638188","NA","Sternberg task","95","86297","101","yes","1024"
"94.11764705882354","94.11764705882354","852.9215686274509","852.9215686274509","black","experiment","legacy","legacy","legacy","0","uniform","1","undefined","1","right","101","101","101","0","0","101","101","0","0","101","101","101","0","101","0","Sun Oct 25 14:43:30 2020","The main experiment item","yes","Sternberg task.osexp","/Users/alisonbeason/Desktop/PSYC 5316/Lab 3","no","mono","no","18","no","white","no","yes","768","legacy","89","11","/Users/alisonbeason/Desktop/PSYC 5316/Lab 3/AB-subject-3.csv","legacy","2 5 1 4","Lentiform Loewenfeld","3.3.3","0","n","0","right","right","right","right","NA","701","1535","13207","701","NA","2","legacy","4","1024","2","48000","-16","experiment","3","odd","6","642049","638764","639817","2324","91633","639827","583448","2334","78425","644059","644761","640837","3878","644059","NA","Sternberg task","96","86998","102","yes","1024"
"94.1747572815534","94.1747572815534","850.8932038834952","850.8932038834952","black","experiment","legacy","legacy","legacy","0","uniform","1","undefined","1","left","102","102","102","0","0","102","102","0","0","102","102","102","0","102","0","Sun Oct 25 14:43:30 2020","The main experiment item","yes","Sternberg task.osexp","/Users/alisonbeason/Desktop/PSYC 5316/Lab 3","no","mono","no","18","no","white","no","yes","768","legacy","90","11","/Users/alisonbeason/Desktop/PSYC 5316/Lab 3/AB-subject-3.csv","legacy","9 8 4","Lentiform Loewenfeld","3.3.3","1","y","0","left","right","right","left","NA","644","1535","13207","644","NA","2","legacy","3","1024","2","48000","-16","experiment","3","odd","9","648058","644772","645825","2324","91633","645835","583448","2334","78425","650068","650713","646846","3878","650068","NA","Sternberg task","97","87642","103","yes","1024"
"94.23076923076923","94.23076923076923","851.6057692307693","851.6057692307693","black","experiment","legacy","legacy","legacy","0","uniform","1","undefined","1","right","103","103","103","0","0","103","103","0","0","103","103","103","0","103","0","Sun Oct 25 14:43:30 2020","The main experiment item","yes","Sternberg task.osexp","/Users/alisonbeason/Desktop/PSYC 5316/Lab 3","no","mono","no","18","no","white","no","yes","768","legacy","91","11","/Users/alisonbeason/Desktop/PSYC 5316/Lab 3/AB-subject-3.csv","legacy","1 3 2 6 9","Lentiform Loewenfeld","3.3.3","0","n","0","right","right","right","right","NA","925","1535","13207","925","NA","2","legacy","5","1024","2","48000","-16","experiment","3","odd","5","654009","650724","651777","2324","91633","651787","583448","2334","78425","656019","656946","652797","3878","656019","NA","Sternberg task","98","88567","104","yes","1024"
"94.28571428571429","94.28571428571429","854.3809523809524","854.3809523809524","black","experiment","legacy","legacy","legacy","0","uniform","1","undefined","1","right","104","104","104","0","0","104","104","0","0","104","104","104","0","104","0","Sun Oct 25 14:43:30 2020","The main experiment item","yes","Sternberg task.osexp","/Users/alisonbeason/Desktop/PSYC 5316/Lab 3","no","mono","no","18","no","white","no","yes","768","legacy","92","11","/Users/alisonbeason/Desktop/PSYC 5316/Lab 3/AB-subject-3.csv","legacy","7 6 4 8 1 2","Lentiform Loewenfeld","3.3.3","0","n","0","right","right","right","right","NA","1143","1535","13207","1143","NA","2","legacy","6","1024","2","48000","-16","experiment","3","odd","9","660889","656956","658654","2324","91633","658667","583448","2334","78425","662899","664043","659678","3878","662898","NA","Sternberg task","99","89710","105","yes","1024"
"94.33962264150944","94.33962264150944","853.8962264150944","853.8962264150944","black","experiment","legacy","legacy","legacy","0","uniform","1","undefined","1","right","105","105","105","0","0","105","105","0","0","105","105","105","0","105","0","Sun Oct 25 14:43:30 2020","The main experiment item","yes","Sternberg task.osexp","/Users/alisonbeason/Desktop/PSYC 5316/Lab 3","no","mono","no","18","no","white","no","yes","768","legacy","93","11","/Users/alisonbeason/Desktop/PSYC 5316/Lab 3/AB-subject-3.csv","legacy","4 8 1 2","Lentiform Loewenfeld","3.3.3","0","n","0","right","right","right","right","NA","803","1535","13207","803","NA","2","legacy","4","1024","2","48000","-16","experiment","3","odd","7","667338","664053","665106","2324","91633","665115","583448","2334","78425","669348","670152","666126","3878","669348","NA","Sternberg task","100","90513","106","yes","1024"
"94.39252336448598","94.39252336448598","854.4579439252336","854.4579439252336","black","experiment","legacy","legacy","legacy","0","uniform","1","undefined","1","left","106","106","106","0","0","106","106","0","0","106","106","106","0","106","0","Sun Oct 25 14:43:30 2020","The main experiment item","yes","Sternberg task.osexp","/Users/alisonbeason/Desktop/PSYC 5316/Lab 3","no","mono","no","18","no","white","no","yes","768","legacy","94","11","/Users/alisonbeason/Desktop/PSYC 5316/Lab 3/AB-subject-3.csv","legacy","7 8 6 3 1","Lentiform Loewenfeld","3.3.3","5","y","0","left","right","right","left","NA","914","1535","13207","914","NA","2","legacy","5","1024","2","48000","-16","experiment","3","odd","1","673450","670162","671216","2324","91633","671225","583448","2334","78425","675459","676374","672236","3878","675459","NA","Sternberg task","101","91427","107","yes","1024"
"94.44444444444444","94.44444444444444","855.2129629629629","855.2129629629629","black","experiment","legacy","legacy","legacy","0","uniform","1","undefined","1","left","107","107","107","0","0","107","107","0","0","107","107","107","0","107","0","Sun Oct 25 14:43:30 2020","The main experiment item","yes","Sternberg task.osexp","/Users/alisonbeason/Desktop/PSYC 5316/Lab 3","no","mono","no","18","no","white","no","yes","768","legacy","95","11","/Users/alisonbeason/Desktop/PSYC 5316/Lab 3/AB-subject-3.csv","legacy","8 5 4 7 3 1","Lentiform Loewenfeld","3.3.3","2","y","0","left","right","right","left","NA","936","1535","13207","936","NA","2","legacy","6","1024","2","48000","-16","experiment","3","odd","5","679671","676386","677440","2324","91633","677449","583448","2334","78425","681681","682618","678460","3878","681681","NA","Sternberg task","102","92363","108","yes","1024"
"94.4954128440367","94.4954128440367","853.8899082568807","853.8899082568807","black","experiment","legacy","legacy","legacy","0","uniform","1","undefined","1","left","108","108","108","0","0","108","108","0","0","108","108","108","0","108","0","Sun Oct 25 14:43:30 2020","The main experiment item","yes","Sternberg task.osexp","/Users/alisonbeason/Desktop/PSYC 5316/Lab 3","no","mono","no","18","no","white","no","yes","768","legacy","96","11","/Users/alisonbeason/Desktop/PSYC 5316/Lab 3/AB-subject-3.csv","legacy","5 2 6","Lentiform Loewenfeld","3.3.3","2","y","0","left","right","right","left","NA","711","1535","13207","711","NA","2","legacy","3","1024","2","48000","-16","experiment","3","odd","2","685914","682628","683681","2324","91633","683691","583448","2334","78425","687924","688637","684701","3878","687924","NA","Sternberg task","103","93074","109","yes","1024"
"94.54545454545455","94.54545454545455","852.8181818181819","852.8181818181819","black","experiment","legacy","legacy","legacy","0","uniform","1","undefined","1","left","109","109","109","0","0","109","109","0","0","109","109","109","0","109","0","Sun Oct 25 14:43:30 2020","The main experiment item","yes","Sternberg task.osexp","/Users/alisonbeason/Desktop/PSYC 5316/Lab 3","no","mono","no","18","no","white","no","yes","768","legacy","97","11","/Users/alisonbeason/Desktop/PSYC 5316/Lab 3/AB-subject-3.csv","legacy","9 1 7 2","Lentiform Loewenfeld","3.3.3","2","y","0","left","right","right","left","NA","736","1535","13207","736","NA","2","legacy","4","1024","2","48000","-16","experiment","3","odd","1","691931","688648","689702","2324","91633","689711","583448","2334","78425","693941","694678","690721","3878","693941","NA","Sternberg task","104","93810","110","yes","1024"
"94.5945945945946","94.5945945945946","850.7477477477478","850.7477477477478","black","experiment","legacy","legacy","legacy","0","uniform","1","undefined","1","right","110","110","110","0","0","110","110","0","0","110","110","110","0","110","0","Sun Oct 25 14:43:30 2020","The main experiment item","yes","Sternberg task.osexp","/Users/alisonbeason/Desktop/PSYC 5316/Lab 3","no","mono","no","18","no","white","no","yes","768","legacy","98","11","/Users/alisonbeason/Desktop/PSYC 5316/Lab 3/AB-subject-3.csv","legacy","5","Lentiform Loewenfeld","3.3.3","0","n","0","right","right","right","right","NA","623","1535","13207","623","NA","2","legacy","1","1024","2","48000","-16","experiment","3","odd","8","697973","694689","695742","2324","91633","695751","583448","2334","78425","699983","700608","696761","3878","699982","NA","Sternberg task","105","94433","111","yes","1024"
"94.64285714285714","94.64285714285714","850.6785714285714","850.6785714285714","black","experiment","legacy","legacy","legacy","0","uniform","1","undefined","1","left","111","111","111","0","0","111","111","0","0","111","111","111","0","111","0","Sun Oct 25 14:43:30 2020","The main experiment item","yes","Sternberg task.osexp","/Users/alisonbeason/Desktop/PSYC 5316/Lab 3","no","mono","no","18","no","white","no","yes","768","legacy","99","11","/Users/alisonbeason/Desktop/PSYC 5316/Lab 3/AB-subject-3.csv","legacy","8 9 6 1","Lentiform Loewenfeld","3.3.3","2","y","0","left","right","right","left","NA","843","1535","13207","843","NA","2","legacy","4","1024","2","48000","-16","experiment","3","odd","9","703906","700618","701673","2324","91633","701682","583448","2334","78425","705916","706761","702693","3878","705916","NA","Sternberg task","106","95276","112","yes","1024"
"94.69026548672566","94.69026548672566","851.141592920354","851.141592920354","black","experiment","legacy","legacy","legacy","0","uniform","1","undefined","1","right","112","112","112","0","0","112","112","0","0","112","112","112","0","112","0","Sun Oct 25 14:43:30 2020","The main experiment item","yes","Sternberg task.osexp","/Users/alisonbeason/Desktop/PSYC 5316/Lab 3","no","mono","no","18","no","white","no","yes","768","legacy","100","11","/Users/alisonbeason/Desktop/PSYC 5316/Lab 3/AB-subject-3.csv","legacy","6 2 9 3 8 4","Lentiform Loewenfeld","3.3.3","0","n","0","right","right","right","right","NA","903","1535","13207","903","NA","2","legacy","6","1024","2","48000","-16","experiment","3","odd","1","710058","706772","707826","2324","91633","707835","583448","2334","78425","712067","712971","708846","3878","712067","NA","Sternberg task","107","96179","113","yes","1024"
"93.85964912280701","93.85964912280701","851.4912280701755","851.4912280701755","black","experiment","legacy","legacy","legacy","0","uniform","0","undefined","0","right","113","113","113","0","0","113","113","0","0","113","113","113","0","113","0","Sun Oct 25 14:43:30 2020","The main experiment item","yes","Sternberg task.osexp","/Users/alisonbeason/Desktop/PSYC 5316/Lab 3","no","mono","no","18","no","white","no","yes","768","legacy","101","11","/Users/alisonbeason/Desktop/PSYC 5316/Lab 3/AB-subject-3.csv","legacy","2 8 9","Lentiform Loewenfeld","3.3.3","0","n","0","left","right","right","left","NA","891","1535","13207","891","NA","2","legacy","3","1024","2","48000","-16","experiment","3","odd","6","716267","712982","714034","2324","91633","714044","583448","2334","78425","718277","719170","715054","3878","718277","NA","Sternberg task","107","97070","114","yes","1024"
