"acc","accuracy","average_response_time","avg_rt","background","block","canvas_backend","clock_backend","color_backend","compensation","coordinates","correct","correct_Instructions1","correct_keyboard_response","correct_response","count_ISI","count_Instructions1","count_Practiceloop","count_closing","count_correctFeedback","count_experiment","count_experimentalLoop","count_expsequence","count_fixation","count_incorrectFeedback","count_instructions2","count_keyboard_response","count_logger","count_memoryset","count_probe","datetime","description","disable_garbage_collection","experiment_file","experiment_path","font_bold","font_family","font_italic","font_size","font_underline","foreground","form_clicks","fullscreen","height","keyboard_backend","live_row","live_row_Practiceloop","logfile","mouse_backend","numberSet","opensesame_codename","opensesame_version","posInSet","present","psychopy_suppress_warnings","repeat_cycle","response","response_Instructions1","response_closing","response_instructions2","response_keyboard_response","response_time","response_time_Instructions1","response_time_closing","response_time_instructions2","response_time_keyboard_response","round_decimals","sampler_backend","setSize","sound_buf_size","sound_channels","sound_freq","sound_sample_size","start","subject_nr","subject_parity","target","time_ISI","time_Instructions1","time_Practiceloop","time_closing","time_correctFeedback","time_experiment","time_experimentalLoop","time_expsequence","time_fixation","time_incorrectFeedback","time_instructions2","time_keyboard_response","time_logger","time_memoryset","time_probe","title","total_correct","total_response_time","total_responses","uniform_coordinates","width"
"0","0","755","755","black","practice","legacy","legacy","legacy","0","uniform","0","undefined","0","right","0","0","0","0","0","0","0","0","0","0","0","0","0","0","0","10/25/20 17:50:47","The main experiment item","yes","SternbergTask.osexp","C:\Users\User\Desktop\Quant 2020\Sternberg Task 3","no","mono","no","18","no","white","no","yes","768","legacy","0","0","C:/Users/User/Desktop/Quant 2020/Sternberg Task 3/VT-subject-2.csv","legacy","9 6 7 4 5","Lentiform Loewenfeld","3.3.3","0","n","yes","0","left","left","NA","NA","left","755","60294","NA","NA","755","2","legacy","5","1024","2","48000","-16","experiment","2","even","3","67777","2365","62660","NA","NA","2361","NA","65566","65569","NA","NA","69783","70538","66575","69783","Sternberg Task","0","755","1","yes","1024"
"50","50","682.5","682.5","black","practice","legacy","legacy","legacy","0","uniform","1","undefined","1","right","1","0","0","0","1","0","0","1","1","1","0","1","1","1","1","10/25/20 17:50:47","The main experiment item","yes","SternbergTask.osexp","C:\Users\User\Desktop\Quant 2020\Sternberg Task 3","no","mono","no","18","no","white","no","yes","768","legacy","1","1","C:/Users/User/Desktop/Quant 2020/Sternberg Task 3/VT-subject-2.csv","legacy","4 1 5","Lentiform Loewenfeld","3.3.3","0","n","yes","0","right","left","NA","NA","right","610","60294","NA","NA","610","2","legacy","3","1024","2","48000","-16","experiment","2","even","2","73980","2365","62660","NA","NA","2361","NA","71766","71769","70627","NA","75987","76598","72775","75986","Sternberg Task","1","1365","2","yes","1024"
"66.6666666667","66.6666666667","658.333333333","658.333333333","black","practice","legacy","legacy","legacy","0","uniform","1","undefined","1","left","2","0","0","0","2","0","0","2","2","2","0","2","2","2","2","10/25/20 17:50:47","The main experiment item","yes","SternbergTask.osexp","C:\Users\User\Desktop\Quant 2020\Sternberg Task 3","no","mono","no","18","no","white","no","yes","768","legacy","2","2","C:/Users/User/Desktop/Quant 2020/Sternberg Task 3/VT-subject-2.csv","legacy","1 5 2 9","Lentiform Loewenfeld","3.3.3","2","y","yes","0","left","left","NA","NA","left","610","60294","NA","NA","610","2","legacy","4","1024","2","48000","-16","experiment","2","even","5","79953","2365","62660","NA","76603","2361","NA","77739","77741","70627","NA","81959","82570","78747","81958","Sternberg Task","2","1975","3","yes","1024"
"75","75","631.5","631.5","black","practice","legacy","legacy","legacy","0","uniform","1","undefined","1","left","3","0","0","0","3","0","0","3","3","3","0","3","3","3","3","10/25/20 17:50:47","The main experiment item","yes","SternbergTask.osexp","C:\Users\User\Desktop\Quant 2020\Sternberg Task 3","no","mono","no","18","no","white","no","yes","768","legacy","3","3","C:/Users/User/Desktop/Quant 2020/Sternberg Task 3/VT-subject-2.csv","legacy","4 3 1 7 9 8","Lentiform Loewenfeld","3.3.3","1","y","yes","0","left","left","NA","NA","left","551","60294","NA","NA","551","2","legacy","6","1024","2","48000","-16","experiment","2","even","4","85924","2365","62660","NA","82575","2361","NA","83709","83712","70627","NA","87931","88482","84718","87930","Sternberg Task","3","2526","4","yes","1024"
"80","80","665.8","665.8","black","practice","legacy","legacy","legacy","0","uniform","1","undefined","1","right","4","0","0","0","4","0","0","4","4","4","0","4","4","4","4","10/25/20 17:50:47","The main experiment item","yes","SternbergTask.osexp","C:\Users\User\Desktop\Quant 2020\Sternberg Task 3","no","mono","no","18","no","white","no","yes","768","legacy","4","4","C:/Users/User/Desktop/Quant 2020/Sternberg Task 3/VT-subject-2.csv","legacy","5 7 8 4 1 2","Lentiform Loewenfeld","3.3.3","0","n","yes","0","right","left","NA","NA","right","803","60294","NA","NA","803","2","legacy","6","1024","2","48000","-16","experiment","2","even","6","91840","2365","62660","NA","88488","2361","NA","89624","89627","70627","NA","93846","94650","90633","93846","Sternberg Task","4","3329","5","yes","1024"
"83.3333333333","83.3333333333","677.666666667","677.666666667","black","practice","legacy","legacy","legacy","0","uniform","1","undefined","1","left","5","0","0","0","5","0","0","5","5","5","0","5","5","5","5","10/25/20 17:50:47","The main experiment item","yes","SternbergTask.osexp","C:\Users\User\Desktop\Quant 2020\Sternberg Task 3","no","mono","no","18","no","white","no","yes","768","legacy","5","5","C:/Users/User/Desktop/Quant 2020/Sternberg Task 3/VT-subject-2.csv","legacy","1 7 9 8 5","Lentiform Loewenfeld","3.3.3","4","y","yes","0","left","left","NA","NA","left","737","60294","NA","NA","737","2","legacy","5","1024","2","48000","-16","experiment","2","even","8","98008","2365","62660","NA","94655","2361","NA","95793","95796","70627","NA","100014","100751","96802","100014","Sternberg Task","5","4066","6","yes","1024"
"85.7142857143","85.7142857143","646.714285714","646.714285714","black","practice","legacy","legacy","legacy","0","uniform","1","undefined","1","left","6","0","0","0","6","0","0","6","6","6","0","6","6","6","6","10/25/20 17:50:47","The main experiment item","yes","SternbergTask.osexp","C:\Users\User\Desktop\Quant 2020\Sternberg Task 3","no","mono","no","18","no","white","no","yes","768","legacy","6","6","C:/Users/User/Desktop/Quant 2020/Sternberg Task 3/VT-subject-2.csv","legacy","4 8","Lentiform Loewenfeld","3.3.3","1","y","yes","0","left","left","NA","NA","left","461","60294","NA","NA","461","2","legacy","2","1024","2","48000","-16","experiment","2","even","4","104105","2365","62660","NA","100757","2361","NA","101891","101893","70627","NA","106112","106574","102900","106111","Sternberg Task","6","4527","7","yes","1024"
"87.5","87.5","615.125","615.125","black","practice","legacy","legacy","legacy","0","uniform","1","undefined","1","right","7","0","0","0","7","0","0","7","7","7","0","7","7","7","7","10/25/20 17:50:47","The main experiment item","yes","SternbergTask.osexp","C:\Users\User\Desktop\Quant 2020\Sternberg Task 3","no","mono","no","18","no","white","no","yes","768","legacy","7","7","C:/Users/User/Desktop/Quant 2020/Sternberg Task 3/VT-subject-2.csv","legacy","2 1","Lentiform Loewenfeld","3.3.3","0","n","yes","0","right","left","NA","NA","right","394","60294","NA","NA","394","2","legacy","2","1024","2","48000","-16","experiment","2","even","5","109937","2365","62660","NA","106579","2361","NA","107722","107725","70627","NA","111943","112337","108730","111943","Sternberg Task","7","4921","8","yes","1024"
"77.7777777778","77.7777777778","602.555555556","602.555555556","black","practice","legacy","legacy","legacy","0","uniform","0","undefined","0","left","8","0","0","0","8","0","0","8","8","8","0","8","8","8","8","10/25/20 17:50:47","The main experiment item","yes","SternbergTask.osexp","C:\Users\User\Desktop\Quant 2020\Sternberg Task 3","no","mono","no","18","no","white","no","yes","768","legacy","8","8","C:/Users/User/Desktop/Quant 2020/Sternberg Task 3/VT-subject-2.csv","legacy","2 9 4","Lentiform Loewenfeld","3.3.3","3","y","yes","0","right","left","NA","NA","right","502","60294","NA","NA","502","2","legacy","3","1024","2","48000","-16","experiment","2","even","4","115702","2365","62660","NA","112343","2361","NA","113488","113490","70627","NA","117709","118212","114496","117708","Sternberg Task","7","5423","9","yes","1024"
"80","80","587.6","587.6","black","practice","legacy","legacy","legacy","0","uniform","1","undefined","1","right","9","0","0","0","9","0","0","9","9","9","0","9","9","9","9","10/25/20 17:50:47","The main experiment item","yes","SternbergTask.osexp","C:\Users\User\Desktop\Quant 2020\Sternberg Task 3","no","mono","no","18","no","white","no","yes","768","legacy","9","9","C:/Users/User/Desktop/Quant 2020/Sternberg Task 3/VT-subject-2.csv","legacy","5","Lentiform Loewenfeld","3.3.3","0","n","yes","0","right","left","NA","NA","right","453","60294","NA","NA","453","2","legacy","1","1024","2","48000","-16","experiment","2","even","3","121564","2365","62660","NA","112343","2361","NA","119350","119352","118217","NA","123567","124020","120358","123567","Sternberg Task","8","5876","10","yes","1024"
"81.8181818182","81.8181818182","610.181818182","610.181818182","black","practice","legacy","legacy","legacy","0","uniform","1","undefined","1","right","10","0","0","0","10","0","0","10","10","10","0","10","10","10","10","10/25/20 17:50:47","The main experiment item","yes","SternbergTask.osexp","C:\Users\User\Desktop\Quant 2020\Sternberg Task 3","no","mono","no","18","no","white","no","yes","768","legacy","10","10","C:/Users/User/Desktop/Quant 2020/Sternberg Task 3/VT-subject-2.csv","legacy","3 1 9 4","Lentiform Loewenfeld","3.3.3","0","n","yes","0","right","left","NA","NA","right","836","60294","NA","NA","836","2","legacy","4","1024","2","48000","-16","experiment","2","even","6","127383","2365","62660","NA","124026","2361","NA","125168","125170","118217","NA","129389","130226","126176","129389","Sternberg Task","9","6712","11","yes","1024"
"75","75","600.833333333","600.833333333","black","practice","legacy","legacy","legacy","0","uniform","0","undefined","0","left","11","0","0","0","11","0","0","11","11","11","0","11","11","11","11","10/25/20 17:50:47","The main experiment item","yes","SternbergTask.osexp","C:\Users\User\Desktop\Quant 2020\Sternberg Task 3","no","mono","no","18","no","white","no","yes","768","legacy","11","11","C:/Users/User/Desktop/Quant 2020/Sternberg Task 3/VT-subject-2.csv","legacy","6","Lentiform Loewenfeld","3.3.3","1","y","yes","0","right","left","NA","NA","right","498","60294","NA","NA","498","2","legacy","1","1024","2","48000","-16","experiment","2","even","6","133580","2365","62660","NA","130231","2361","NA","131368","131370","118217","NA","135586","136085","132374","135586","Sternberg Task","9","7210","12","yes","1024"
"76.9230769231","76.9230769231","638.769230769","638.769230769","black","experiment","legacy","legacy","legacy","0","uniform","1","undefined","1","left","12","0","0","0","12","0","0","12","12","12","0","12","12","12","12","10/25/20 17:50:47","The main experiment item","yes","SternbergTask.osexp","C:\Users\User\Desktop\Quant 2020\Sternberg Task 3","no","mono","no","18","no","white","no","yes","768","legacy","0","11","C:/Users/User/Desktop/Quant 2020/Sternberg Task 3/VT-subject-2.csv","legacy","2 5 4 8 7","Lentiform Loewenfeld","3.3.3","3","y","yes","0","left","left","NA","right","left","1094","60294","NA","6200","1094","2","legacy","5","1024","2","48000","-16","experiment","2","even","4","145694","2365","62660","NA","130231","2361","143328","143479","143482","136090","137127","147700","148795","144487","147700","Sternberg Task","10","8304","13","yes","1024"
"78.5714285714","78.5714285714","640.714285714","640.714285714","black","experiment","legacy","legacy","legacy","0","uniform","1","undefined","1","left","13","0","0","0","13","0","0","13","13","13","0","13","13","13","13","10/25/20 17:50:47","The main experiment item","yes","SternbergTask.osexp","C:\Users\User\Desktop\Quant 2020\Sternberg Task 3","no","mono","no","18","no","white","no","yes","768","legacy","1","11","C:/Users/User/Desktop/Quant 2020/Sternberg Task 3/VT-subject-2.csv","legacy","2 4 6 9","Lentiform Loewenfeld","3.3.3","3","y","yes","0","left","left","NA","right","left","666","60294","NA","6200","666","2","legacy","4","1024","2","48000","-16","experiment","2","even","6","152155","2365","62660","NA","148800","2361","143328","149940","149943","136090","137127","154161","154827","150948","154160","Sternberg Task","11","8970","14","yes","1024"
"80","80","651","651","black","experiment","legacy","legacy","legacy","0","uniform","1","undefined","1","right","14","0","0","0","14","0","0","14","14","14","0","14","14","14","14","10/25/20 17:50:47","The main experiment item","yes","SternbergTask.osexp","C:\Users\User\Desktop\Quant 2020\Sternberg Task 3","no","mono","no","18","no","white","no","yes","768","legacy","2","11","C:/Users/User/Desktop/Quant 2020/Sternberg Task 3/VT-subject-2.csv","legacy","8 5 4 2 9 6","Lentiform Loewenfeld","3.3.3","0","n","yes","0","right","left","NA","right","right","795","60294","NA","6200","795","2","legacy","6","1024","2","48000","-16","experiment","2","even","3","158184","2365","62660","NA","154833","2361","143328","155970","155972","136090","137127","160190","160985","156978","160189","Sternberg Task","12","9765","15","yes","1024"
"81.25","81.25","668.25","668.25","black","experiment","legacy","legacy","legacy","0","uniform","1","undefined","1","left","15","0","0","0","15","0","0","15","15","15","0","15","15","15","15","10/25/20 17:50:47","The main experiment item","yes","SternbergTask.osexp","C:\Users\User\Desktop\Quant 2020\Sternberg Task 3","no","mono","no","18","no","white","no","yes","768","legacy","3","11","C:/Users/User/Desktop/Quant 2020/Sternberg Task 3/VT-subject-2.csv","legacy","8 5 1 3 9","Lentiform Loewenfeld","3.3.3","4","y","yes","0","left","left","NA","right","left","927","60294","NA","6200","927","2","legacy","5","1024","2","48000","-16","experiment","2","even","3","164337","2365","62660","NA","160991","2361","143328","162123","162126","136090","137127","166344","167272","163131","166344","Sternberg Task","13","10692","16","yes","1024"
"82.3529411765","82.3529411765","674.058823529","674.058823529","black","experiment","legacy","legacy","legacy","0","uniform","1","undefined","1","right","16","0","0","0","16","0","0","16","16","16","0","16","16","16","16","10/25/20 17:50:47","The main experiment item","yes","SternbergTask.osexp","C:\Users\User\Desktop\Quant 2020\Sternberg Task 3","no","mono","no","18","no","white","no","yes","768","legacy","4","11","C:/Users/User/Desktop/Quant 2020/Sternberg Task 3/VT-subject-2.csv","legacy","1 6 4","Lentiform Loewenfeld","3.3.3","0","n","yes","0","right","left","NA","right","right","767","60294","NA","6200","767","2","legacy","3","1024","2","48000","-16","experiment","2","even","7","170634","2365","62660","NA","167277","2361","143328","168418","168420","136090","137127","172640","173407","169428","172639","Sternberg Task","14","11459","17","yes","1024"
"83.3333333333","83.3333333333","688.166666667","688.166666667","black","experiment","legacy","legacy","legacy","0","uniform","1","undefined","1","left","17","0","0","0","17","0","0","17","17","17","0","17","17","17","17","10/25/20 17:50:47","The main experiment item","yes","SternbergTask.osexp","C:\Users\User\Desktop\Quant 2020\Sternberg Task 3","no","mono","no","18","no","white","no","yes","768","legacy","5","11","C:/Users/User/Desktop/Quant 2020/Sternberg Task 3/VT-subject-2.csv","legacy","9 5 3 8 4","Lentiform Loewenfeld","3.3.3","1","y","yes","0","left","left","NA","right","left","928","60294","NA","6200","928","2","legacy","5","1024","2","48000","-16","experiment","2","even","9","176763","2365","62660","NA","173412","2361","143328","174548","174551","136090","137127","178769","179698","175557","178769","Sternberg Task","15","12387","18","yes","1024"
"78.9473684211","78.9473684211","719.526315789","719.526315789","black","experiment","legacy","legacy","legacy","0","uniform","0","undefined","0","left","18","0","0","0","18","0","0","18","18","18","0","18","18","18","18","10/25/20 17:50:47","The main experiment item","yes","SternbergTask.osexp","C:\Users\User\Desktop\Quant 2020\Sternberg Task 3","no","mono","no","18","no","white","no","yes","768","legacy","6","11","C:/Users/User/Desktop/Quant 2020/Sternberg Task 3/VT-subject-2.csv","legacy","3 4 9 6 2 9","Lentiform Loewenfeld","3.3.3","5","y","yes","0","right","left","NA","right","right","1284","60294","NA","6200","1284","2","legacy","6","1024","2","48000","-16","experiment","2","even","2","183053","2365","62660","NA","179703","2361","143328","180839","180841","136090","137127","185059","186344","181847","185058","Sternberg Task","15","13671","19","yes","1024"
"80","80","726.3","726.3","black","experiment","legacy","legacy","legacy","0","uniform","1","undefined","1","right","19","0","0","0","19","0","0","19","19","19","0","19","19","19","19","10/25/20 17:50:47","The main experiment item","yes","SternbergTask.osexp","C:\Users\User\Desktop\Quant 2020\Sternberg Task 3","no","mono","no","18","no","white","no","yes","768","legacy","7","11","C:/Users/User/Desktop/Quant 2020/Sternberg Task 3/VT-subject-2.csv","legacy","4 8 1 2","Lentiform Loewenfeld","3.3.3","0","n","yes","0","right","left","NA","right","right","855","60294","NA","6200","855","2","legacy","4","1024","2","48000","-16","experiment","2","even","7","189700","2365","62660","NA","179703","2361","143328","187486","187488","186349","137127","191706","192562","188494","191706","Sternberg Task","16","14526","20","yes","1024"
"80.9523809524","80.9523809524","742.142857143","742.142857143","black","experiment","legacy","legacy","legacy","0","uniform","1","undefined","1","left","20","0","0","0","20","0","0","20","20","20","0","20","20","20","20","10/25/20 17:50:47","The main experiment item","yes","SternbergTask.osexp","C:\Users\User\Desktop\Quant 2020\Sternberg Task 3","no","mono","no","18","no","white","no","yes","768","legacy","8","11","C:/Users/User/Desktop/Quant 2020/Sternberg Task 3/VT-subject-2.csv","legacy","3 2 1 4 7","Lentiform Loewenfeld","3.3.3","2","y","yes","0","left","left","NA","right","left","1059","60294","NA","6200","1059","2","legacy","5","1024","2","48000","-16","experiment","2","even","2","195921","2365","62660","NA","192567","2361","143328","193707","193710","186349","137127","197928","198987","194716","197928","Sternberg Task","17","15585","21","yes","1024"
"81.8181818182","81.8181818182","757.181818182","757.181818182","black","experiment","legacy","legacy","legacy","0","uniform","1","undefined","1","left","21","0","0","0","21","0","0","21","21","21","0","21","21","21","21","10/25/20 17:50:47","The main experiment item","yes","SternbergTask.osexp","C:\Users\User\Desktop\Quant 2020\Sternberg Task 3","no","mono","no","18","no","white","no","yes","768","legacy","9","11","C:/Users/User/Desktop/Quant 2020/Sternberg Task 3/VT-subject-2.csv","legacy","4 7 6 8 2 3","Lentiform Loewenfeld","3.3.3","6","y","yes","0","left","left","NA","right","left","1073","60294","NA","6200","1073","2","legacy","6","1024","2","48000","-16","experiment","2","even","3","202346","2365","62660","NA","198993","2361","143328","200132","200134","186349","137127","204353","205426","201140","204353","Sternberg Task","18","16658","22","yes","1024"
"82.6086956522","82.6086956522","755.260869565","755.260869565","black","experiment","legacy","legacy","legacy","0","uniform","1","undefined","1","right","22","0","0","0","22","0","0","22","22","22","0","22","22","22","22","10/25/20 17:50:47","The main experiment item","yes","SternbergTask.osexp","C:\Users\User\Desktop\Quant 2020\Sternberg Task 3","no","mono","no","18","no","white","no","yes","768","legacy","10","11","C:/Users/User/Desktop/Quant 2020/Sternberg Task 3/VT-subject-2.csv","legacy","6 7 5 9","Lentiform Loewenfeld","3.3.3","0","n","yes","0","right","left","NA","right","right","713","60294","NA","6200","713","2","legacy","4","1024","2","48000","-16","experiment","2","even","2","208791","2365","62660","NA","205432","2361","143328","206577","206579","186349","137127","210797","211511","207585","210797","Sternberg Task","19","17371","23","yes","1024"
"83.3333333333","83.3333333333","750.125","750.125","black","experiment","legacy","legacy","legacy","0","uniform","1","undefined","1","right","23","0","0","0","23","0","0","23","23","23","0","23","23","23","23","10/25/20 17:50:47","The main experiment item","yes","SternbergTask.osexp","C:\Users\User\Desktop\Quant 2020\Sternberg Task 3","no","mono","no","18","no","white","no","yes","768","legacy","11","11","C:/Users/User/Desktop/Quant 2020/Sternberg Task 3/VT-subject-2.csv","legacy","6 8 4","Lentiform Loewenfeld","3.3.3","0","n","yes","0","right","left","NA","right","right","632","60294","NA","6200","632","2","legacy","3","1024","2","48000","-16","experiment","2","even","1","214866","2365","62660","NA","211516","2361","143328","212651","212654","186349","137127","216873","217506","213659","216872","Sternberg Task","20","18003","24","yes","1024"
"84","84","763.12","763.12","black","experiment","legacy","legacy","legacy","0","uniform","1","undefined","1","right","24","0","0","0","24","0","0","24","24","24","0","24","24","24","24","10/25/20 17:50:47","The main experiment item","yes","SternbergTask.osexp","C:\Users\User\Desktop\Quant 2020\Sternberg Task 3","no","mono","no","18","no","white","no","yes","768","legacy","12","11","C:/Users/User/Desktop/Quant 2020/Sternberg Task 3/VT-subject-2.csv","legacy","2 8 9","Lentiform Loewenfeld","3.3.3","0","n","yes","0","right","left","NA","right","right","1075","60294","NA","6200","1075","2","legacy","3","1024","2","48000","-16","experiment","2","even","6","220862","2365","62660","NA","217511","2361","143328","218647","218650","186349","137127","222868","223944","219656","222867","Sternberg Task","21","19078","25","yes","1024"
"80.7692307692","80.7692307692","763.576923077","763.576923077","black","experiment","legacy","legacy","legacy","0","uniform","0","undefined","0","left","25","0","0","0","25","0","0","25","25","25","0","25","25","25","25","10/25/20 17:50:47","The main experiment item","yes","SternbergTask.osexp","C:\Users\User\Desktop\Quant 2020\Sternberg Task 3","no","mono","no","18","no","white","no","yes","768","legacy","13","11","C:/Users/User/Desktop/Quant 2020/Sternberg Task 3/VT-subject-2.csv","legacy","7 1 8 5 6 2","Lentiform Loewenfeld","3.3.3","2","y","yes","0","right","left","NA","right","right","775","60294","NA","6200","775","2","legacy","6","1024","2","48000","-16","experiment","2","even","1","227303","2365","62660","NA","223949","2361","143328","225089","225091","186349","137127","229309","230084","226097","229309","Sternberg Task","21","19853","26","yes","1024"
"81.4814814815","81.4814814815","758.148148148","758.148148148","black","experiment","legacy","legacy","legacy","0","uniform","1","undefined","1","right","26","0","0","0","26","0","0","26","26","26","0","26","26","26","26","10/25/20 17:50:47","The main experiment item","yes","SternbergTask.osexp","C:\Users\User\Desktop\Quant 2020\Sternberg Task 3","no","mono","no","18","no","white","no","yes","768","legacy","14","11","C:/Users/User/Desktop/Quant 2020/Sternberg Task 3/VT-subject-2.csv","legacy","9","Lentiform Loewenfeld","3.3.3","0","n","yes","0","right","left","NA","right","right","617","60294","NA","6200","617","2","legacy","1","1024","2","48000","-16","experiment","2","even","6","233450","2365","62660","NA","223949","2361","143328","231236","231238","230090","137127","235457","236074","232244","235457","Sternberg Task","22","20470","27","yes","1024"
"82.1428571429","82.1428571429","749.607142857","749.607142857","black","experiment","legacy","legacy","legacy","0","uniform","1","undefined","1","right","27","0","0","0","27","0","0","27","27","27","0","27","27","27","27","10/25/20 17:50:47","The main experiment item","yes","SternbergTask.osexp","C:\Users\User\Desktop\Quant 2020\Sternberg Task 3","no","mono","no","18","no","white","no","yes","768","legacy","15","11","C:/Users/User/Desktop/Quant 2020/Sternberg Task 3/VT-subject-2.csv","legacy","4 1","Lentiform Loewenfeld","3.3.3","0","n","yes","0","right","left","NA","right","right","519","60294","NA","6200","519","2","legacy","2","1024","2","48000","-16","experiment","2","even","6","239427","2365","62660","NA","236079","2361","143328","237214","237216","230090","137127","241434","241954","238222","241433","Sternberg Task","23","20989","28","yes","1024"
"82.7586206897","82.7586206897","747.172413793","747.172413793","black","experiment","legacy","legacy","legacy","0","uniform","1","undefined","1","right","28","0","0","0","28","0","0","28","28","28","0","28","28","28","28","10/25/20 17:50:47","The main experiment item","yes","SternbergTask.osexp","C:\Users\User\Desktop\Quant 2020\Sternberg Task 3","no","mono","no","18","no","white","no","yes","768","legacy","16","11","C:/Users/User/Desktop/Quant 2020/Sternberg Task 3/VT-subject-2.csv","legacy","7 8 6 1","Lentiform Loewenfeld","3.3.3","0","n","yes","0","right","left","NA","right","right","679","60294","NA","6200","679","2","legacy","4","1024","2","48000","-16","experiment","2","even","3","245311","2365","62660","NA","241959","2361","143328","243095","243098","230090","137127","247318","247997","244104","247317","Sternberg Task","24","21668","29","yes","1024"
"83.3333333333","83.3333333333","737.8","737.8","black","experiment","legacy","legacy","legacy","0","uniform","1","undefined","1","left","29","0","0","0","29","0","0","29","29","29","0","29","29","29","29","10/25/20 17:50:47","The main experiment item","yes","SternbergTask.osexp","C:\Users\User\Desktop\Quant 2020\Sternberg Task 3","no","mono","no","18","no","white","no","yes","768","legacy","17","11","C:/Users/User/Desktop/Quant 2020/Sternberg Task 3/VT-subject-2.csv","legacy","8","Lentiform Loewenfeld","3.3.3","1","y","yes","0","left","left","NA","right","left","466","60294","NA","6200","466","2","legacy","1","1024","2","48000","-16","experiment","2","even","8","251362","2365","62660","NA","248003","2361","143328","249147","249149","230090","137127","253368","253835","250154","253368","Sternberg Task","25","22134","30","yes","1024"
"83.8709677419","83.8709677419","738.967741935","738.967741935","black","experiment","legacy","legacy","legacy","0","uniform","1","undefined","1","right","30","0","0","0","30","0","0","30","30","30","0","30","30","30","30","10/25/20 17:50:47","The main experiment item","yes","SternbergTask.osexp","C:\Users\User\Desktop\Quant 2020\Sternberg Task 3","no","mono","no","18","no","white","no","yes","768","legacy","18","11","C:/Users/User/Desktop/Quant 2020/Sternberg Task 3/VT-subject-2.csv","legacy","8 9","Lentiform Loewenfeld","3.3.3","0","n","yes","0","right","left","NA","right","right","774","60294","NA","6200","774","2","legacy","2","1024","2","48000","-16","experiment","2","even","5","257186","2365","62660","NA","253840","2361","143328","254971","254973","230090","137127","259192","259966","255979","259192","Sternberg Task","26","22908","31","yes","1024"
"84.375","84.375","743.78125","743.78125","black","experiment","legacy","legacy","legacy","0","uniform","1","undefined","1","left","31","0","0","0","31","0","0","31","31","31","0","31","31","31","31","10/25/20 17:50:47","The main experiment item","yes","SternbergTask.osexp","C:\Users\User\Desktop\Quant 2020\Sternberg Task 3","no","mono","no","18","no","white","no","yes","768","legacy","19","11","C:/Users/User/Desktop/Quant 2020/Sternberg Task 3/VT-subject-2.csv","legacy","9 3 8 2 1 4","Lentiform Loewenfeld","3.3.3","3","y","yes","0","left","left","NA","right","left","893","60294","NA","6200","893","2","legacy","6","1024","2","48000","-16","experiment","2","even","8","263328","2365","62660","NA","259972","2361","143328","261113","261116","230090","137127","265334","266228","262122","265334","Sternberg Task","27","23801","32","yes","1024"
"84.8484848485","84.8484848485","746.393939394","746.393939394","black","experiment","legacy","legacy","legacy","0","uniform","1","undefined","1","right","32","0","0","0","32","0","0","32","32","32","0","32","32","32","32","10/25/20 17:50:47","The main experiment item","yes","SternbergTask.osexp","C:\Users\User\Desktop\Quant 2020\Sternberg Task 3","no","mono","no","18","no","white","no","yes","768","legacy","20","11","C:/Users/User/Desktop/Quant 2020/Sternberg Task 3/VT-subject-2.csv","legacy","1 8 7","Lentiform Loewenfeld","3.3.3","0","n","yes","0","right","left","NA","right","right","830","60294","NA","6200","830","2","legacy","3","1024","2","48000","-16","experiment","2","even","4","269584","2365","62660","NA","266233","2361","143328","267370","267373","230090","137127","271591","272422","268378","271590","Sternberg Task","28","24631","33","yes","1024"
"85.2941176471","85.2941176471","747.029411765","747.029411765","black","experiment","legacy","legacy","legacy","0","uniform","1","undefined","1","right","33","0","0","0","33","0","0","33","33","33","0","33","33","33","33","10/25/20 17:50:47","The main experiment item","yes","SternbergTask.osexp","C:\Users\User\Desktop\Quant 2020\Sternberg Task 3","no","mono","no","18","no","white","no","yes","768","legacy","21","11","C:/Users/User/Desktop/Quant 2020/Sternberg Task 3/VT-subject-2.csv","legacy","4 2 7 6 1 3","Lentiform Loewenfeld","3.3.3","0","n","yes","0","right","left","NA","right","right","768","60294","NA","6200","768","2","legacy","6","1024","2","48000","-16","experiment","2","even","8","275783","2365","62660","NA","272427","2361","143328","273568","273571","230090","137127","277791","278560","274577","277790","Sternberg Task","29","25399","34","yes","1024"
"85.7142857143","85.7142857143","746.971428571","746.971428571","black","experiment","legacy","legacy","legacy","0","uniform","1","undefined","1","left","34","0","0","0","34","0","0","34","34","34","0","34","34","34","34","10/25/20 17:50:47","The main experiment item","yes","SternbergTask.osexp","C:\Users\User\Desktop\Quant 2020\Sternberg Task 3","no","mono","no","18","no","white","no","yes","768","legacy","22","11","C:/Users/User/Desktop/Quant 2020/Sternberg Task 3/VT-subject-2.csv","legacy","2 8 5 1","Lentiform Loewenfeld","3.3.3","4","y","yes","0","left","left","NA","right","left","745","60294","NA","6200","745","2","legacy","4","1024","2","48000","-16","experiment","2","even","1","281917","2365","62660","NA","278565","2361","143328","279702","279704","230090","137127","283923","284669","280711","283923","Sternberg Task","30","26144","35","yes","1024"
"86.1111111111","86.1111111111","749.666666667","749.666666667","black","experiment","legacy","legacy","legacy","0","uniform","1","undefined","1","left","35","0","0","0","35","0","0","35","35","35","0","35","35","35","35","10/25/20 17:50:47","The main experiment item","yes","SternbergTask.osexp","C:\Users\User\Desktop\Quant 2020\Sternberg Task 3","no","mono","no","18","no","white","no","yes","768","legacy","23","11","C:/Users/User/Desktop/Quant 2020/Sternberg Task 3/VT-subject-2.csv","legacy","6 9 3 1","Lentiform Loewenfeld","3.3.3","4","y","yes","0","left","left","NA","right","left","844","60294","NA","6200","844","2","legacy","4","1024","2","48000","-16","experiment","2","even","1","288024","2365","62660","NA","284674","2361","143328","285811","285813","230090","137127","290031","290876","286819","290031","Sternberg Task","31","26988","36","yes","1024"
"86.4864864865","86.4864864865","748.891891892","748.891891892","black","experiment","legacy","legacy","legacy","0","uniform","1","undefined","1","left","36","0","0","0","36","0","0","36","36","36","0","36","36","36","36","10/25/20 17:50:47","The main experiment item","yes","SternbergTask.osexp","C:\Users\User\Desktop\Quant 2020\Sternberg Task 3","no","mono","no","18","no","white","no","yes","768","legacy","24","11","C:/Users/User/Desktop/Quant 2020/Sternberg Task 3/VT-subject-2.csv","legacy","3 9 7 6 4","Lentiform Loewenfeld","3.3.3","3","y","yes","0","left","left","NA","right","left","721","60294","NA","6200","721","2","legacy","5","1024","2","48000","-16","experiment","2","even","7","294236","2365","62660","NA","290881","2361","143328","292020","292023","230090","137127","296242","296964","293029","296242","Sternberg Task","32","27709","37","yes","1024"
"86.8421052632","86.8421052632","740.868421053","740.868421053","black","experiment","legacy","legacy","legacy","0","uniform","1","undefined","1","right","37","0","0","0","37","0","0","37","37","37","0","37","37","37","37","10/25/20 17:50:47","The main experiment item","yes","SternbergTask.osexp","C:\Users\User\Desktop\Quant 2020\Sternberg Task 3","no","mono","no","18","no","white","no","yes","768","legacy","25","11","C:/Users/User/Desktop/Quant 2020/Sternberg Task 3/VT-subject-2.csv","legacy","5","Lentiform Loewenfeld","3.3.3","0","n","yes","0","right","left","NA","right","right","444","60294","NA","6200","444","2","legacy","1","1024","2","48000","-16","experiment","2","even","8","300321","2365","62660","NA","296969","2361","143328","298106","298109","230090","137127","302327","302772","299115","302327","Sternberg Task","33","28153","38","yes","1024"
"87.1794871795","87.1794871795","734.666666667","734.666666667","black","experiment","legacy","legacy","legacy","0","uniform","1","undefined","1","right","38","0","0","0","38","0","0","38","38","38","0","38","38","38","38","10/25/20 17:50:47","The main experiment item","yes","SternbergTask.osexp","C:\Users\User\Desktop\Quant 2020\Sternberg Task 3","no","mono","no","18","no","white","no","yes","768","legacy","26","11","C:/Users/User/Desktop/Quant 2020/Sternberg Task 3/VT-subject-2.csv","legacy","3 4 2","Lentiform Loewenfeld","3.3.3","0","n","yes","0","right","left","NA","right","right","499","60294","NA","6200","499","2","legacy","3","1024","2","48000","-16","experiment","2","even","5","306122","2365","62660","NA","302777","2361","143328","303908","303910","230090","137127","308128","308628","304915","308128","Sternberg Task","34","28652","39","yes","1024"
"87.5","87.5","736.25","736.25","black","experiment","legacy","legacy","legacy","0","uniform","1","undefined","1","left","39","0","0","0","39","0","0","39","39","39","0","39","39","39","39","10/25/20 17:50:47","The main experiment item","yes","SternbergTask.osexp","C:\Users\User\Desktop\Quant 2020\Sternberg Task 3","no","mono","no","18","no","white","no","yes","768","legacy","27","11","C:/Users/User/Desktop/Quant 2020/Sternberg Task 3/VT-subject-2.csv","legacy","9 1 7 2","Lentiform Loewenfeld","3.3.3","2","y","yes","0","left","left","NA","right","left","798","60294","NA","6200","798","2","legacy","4","1024","2","48000","-16","experiment","2","even","1","311996","2365","62660","NA","308633","2361","143328","309781","309784","230090","137127","314003","314802","310790","314002","Sternberg Task","35","29450","40","yes","1024"
"87.8048780488","87.8048780488","730.829268293","730.829268293","black","experiment","legacy","legacy","legacy","0","uniform","1","undefined","1","left","40","0","0","0","40","0","0","40","40","40","0","40","40","40","40","10/25/20 17:50:47","The main experiment item","yes","SternbergTask.osexp","C:\Users\User\Desktop\Quant 2020\Sternberg Task 3","no","mono","no","18","no","white","no","yes","768","legacy","28","11","C:/Users/User/Desktop/Quant 2020/Sternberg Task 3/VT-subject-2.csv","legacy","3 4","Lentiform Loewenfeld","3.3.3","1","y","yes","0","left","left","NA","right","left","514","60294","NA","6200","514","2","legacy","2","1024","2","48000","-16","experiment","2","even","3","318139","2365","62660","NA","314807","2361","143328","315925","315927","230090","137127","320146","320661","316933","320146","Sternberg Task","36","29964","41","yes","1024"
"88.0952380952","88.0952380952","730.952380952","730.952380952","black","experiment","legacy","legacy","legacy","0","uniform","1","undefined","1","left","41","0","0","0","41","0","0","41","41","41","0","41","41","41","41","10/25/20 17:50:47","The main experiment item","yes","SternbergTask.osexp","C:\Users\User\Desktop\Quant 2020\Sternberg Task 3","no","mono","no","18","no","white","no","yes","768","legacy","29","11","C:/Users/User/Desktop/Quant 2020/Sternberg Task 3/VT-subject-2.csv","legacy","6 7 9 3 1 2","Lentiform Loewenfeld","3.3.3","1","y","yes","0","left","left","NA","right","left","736","60294","NA","6200","736","2","legacy","6","1024","2","48000","-16","experiment","2","even","6","324024","2365","62660","NA","320667","2361","143328","321809","321811","230090","137127","326030","326767","322818","326029","Sternberg Task","37","30700","42","yes","1024"
"88.3720930233","88.3720930233","727.162790698","727.162790698","black","experiment","legacy","legacy","legacy","0","uniform","1","undefined","1","left","42","0","0","0","42","0","0","42","42","42","0","42","42","42","42","10/25/20 17:50:47","The main experiment item","yes","SternbergTask.osexp","C:\Users\User\Desktop\Quant 2020\Sternberg Task 3","no","mono","no","18","no","white","no","yes","768","legacy","30","11","C:/Users/User/Desktop/Quant 2020/Sternberg Task 3/VT-subject-2.csv","legacy","4 9 7 8 5 3","Lentiform Loewenfeld","3.3.3","4","y","yes","0","left","left","NA","right","left","568","60294","NA","6200","568","2","legacy","6","1024","2","48000","-16","experiment","2","even","8","330125","2365","62660","NA","326773","2361","143328","327910","327913","230090","137127","332131","332701","328918","332130","Sternberg Task","38","31268","43","yes","1024"
"88.6363636364","88.6363636364","724.545454545","724.545454545","black","experiment","legacy","legacy","legacy","0","uniform","1","undefined","1","left","43","0","0","0","43","0","0","43","43","43","0","43","43","43","43","10/25/20 17:50:47","The main experiment item","yes","SternbergTask.osexp","C:\Users\User\Desktop\Quant 2020\Sternberg Task 3","no","mono","no","18","no","white","no","yes","768","legacy","31","11","C:/Users/User/Desktop/Quant 2020/Sternberg Task 3/VT-subject-2.csv","legacy","6 7 8 5","Lentiform Loewenfeld","3.3.3","3","y","yes","0","left","left","NA","right","left","612","60294","NA","6200","612","2","legacy","4","1024","2","48000","-16","experiment","2","even","8","336053","2365","62660","NA","332706","2361","143328","333842","333845","230090","137127","338059","338672","334850","338059","Sternberg Task","39","31880","44","yes","1024"
"88.8888888889","88.8888888889","722.733333333","722.733333333","black","experiment","legacy","legacy","legacy","0","uniform","1","undefined","1","left","44","0","0","0","44","0","0","44","44","44","0","44","44","44","44","10/25/20 17:50:47","The main experiment item","yes","SternbergTask.osexp","C:\Users\User\Desktop\Quant 2020\Sternberg Task 3","no","mono","no","18","no","white","no","yes","768","legacy","32","11","C:/Users/User/Desktop/Quant 2020/Sternberg Task 3/VT-subject-2.csv","legacy","7 1 3","Lentiform Loewenfeld","3.3.3","2","y","yes","0","left","left","NA","right","left","643","60294","NA","6200","643","2","legacy","3","1024","2","48000","-16","experiment","2","even","1","342028","2365","62660","NA","338677","2361","143328","339813","339816","230090","137127","344035","344679","340822","344034","Sternberg Task","40","32523","45","yes","1024"
"89.1304347826","89.1304347826","720.152173913","720.152173913","black","experiment","legacy","legacy","legacy","0","uniform","1","undefined","1","right","45","0","0","0","45","0","0","45","45","45","0","45","45","45","45","10/25/20 17:50:47","The main experiment item","yes","SternbergTask.osexp","C:\Users\User\Desktop\Quant 2020\Sternberg Task 3","no","mono","no","18","no","white","no","yes","768","legacy","33","11","C:/Users/User/Desktop/Quant 2020/Sternberg Task 3/VT-subject-2.csv","legacy","6 8","Lentiform Loewenfeld","3.3.3","0","n","yes","0","right","left","NA","right","right","604","60294","NA","6200","604","2","legacy","2","1024","2","48000","-16","experiment","2","even","9","348030","2365","62660","NA","344684","2361","143328","345815","345817","230090","137127","350037","350643","346824","350037","Sternberg Task","41","33127","46","yes","1024"
"89.3617021277","89.3617021277","714.872340426","714.872340426","black","experiment","legacy","legacy","legacy","0","uniform","1","undefined","1","right","46","0","0","0","46","0","0","46","46","46","0","46","46","46","46","10/25/20 17:50:47","The main experiment item","yes","SternbergTask.osexp","C:\Users\User\Desktop\Quant 2020\Sternberg Task 3","no","mono","no","18","no","white","no","yes","768","legacy","34","11","C:/Users/User/Desktop/Quant 2020/Sternberg Task 3/VT-subject-2.csv","legacy","7 9","Lentiform Loewenfeld","3.3.3","0","n","yes","0","right","left","NA","right","right","472","60294","NA","6200","472","2","legacy","2","1024","2","48000","-16","experiment","2","even","1","353994","2365","62660","NA","350648","2361","143328","351780","351782","230090","137127","356000","356474","352788","355999","Sternberg Task","42","33599","47","yes","1024"
"89.5833333333","89.5833333333","714.041666667","714.041666667","black","experiment","legacy","legacy","legacy","0","uniform","1","undefined","1","left","47","0","0","0","47","0","0","47","47","47","0","47","47","47","47","10/25/20 17:50:47","The main experiment item","yes","SternbergTask.osexp","C:\Users\User\Desktop\Quant 2020\Sternberg Task 3","no","mono","no","18","no","white","no","yes","768","legacy","35","11","C:/Users/User/Desktop/Quant 2020/Sternberg Task 3/VT-subject-2.csv","legacy","2 4 8 5 1 3","Lentiform Loewenfeld","3.3.3","1","y","yes","0","left","left","NA","right","left","675","60294","NA","6200","675","2","legacy","6","1024","2","48000","-16","experiment","2","even","2","359826","2365","62660","NA","356479","2361","143328","357612","357614","230090","137127","361833","362509","358619","361833","Sternberg Task","43","34274","48","yes","1024"
"89.7959183673","89.7959183673","711.612244898","711.612244898","black","experiment","legacy","legacy","legacy","0","uniform","1","undefined","1","left","48","0","0","0","48","0","0","48","48","48","0","48","48","48","48","10/25/20 17:50:47","The main experiment item","yes","SternbergTask.osexp","C:\Users\User\Desktop\Quant 2020\Sternberg Task 3","no","mono","no","18","no","white","no","yes","768","legacy","36","11","C:/Users/User/Desktop/Quant 2020/Sternberg Task 3/VT-subject-2.csv","legacy","7 8 4 6 9 5","Lentiform Loewenfeld","3.3.3","4","y","yes","0","left","left","NA","right","left","595","60294","NA","6200","595","2","legacy","6","1024","2","48000","-16","experiment","2","even","6","365856","2365","62660","NA","362514","2361","143328","363642","363645","230090","137127","367863","368460","364651","367863","Sternberg Task","44","34869","49","yes","1024"
"90","90","710.78","710.78","black","experiment","legacy","legacy","legacy","0","uniform","1","undefined","1","left","49","0","0","0","49","0","0","49","49","49","0","49","49","49","49","10/25/20 17:50:47","The main experiment item","yes","SternbergTask.osexp","C:\Users\User\Desktop\Quant 2020\Sternberg Task 3","no","mono","no","18","no","white","no","yes","768","legacy","37","11","C:/Users/User/Desktop/Quant 2020/Sternberg Task 3/VT-subject-2.csv","legacy","3 5 9 6 2 4","Lentiform Loewenfeld","3.3.3","1","y","yes","0","left","left","NA","right","left","670","60294","NA","6200","670","2","legacy","6","1024","2","48000","-16","experiment","2","even","3","371813","2365","62660","NA","368465","2361","143328","369601","369603","230090","137127","373820","374492","370608","373819","Sternberg Task","45","35539","50","yes","1024"
"90.1960784314","90.1960784314","710.137254902","710.137254902","black","experiment","legacy","legacy","legacy","0","uniform","1","undefined","1","left","50","0","0","0","50","0","0","50","50","50","0","50","50","50","50","10/25/20 17:50:47","The main experiment item","yes","SternbergTask.osexp","C:\Users\User\Desktop\Quant 2020\Sternberg Task 3","no","mono","no","18","no","white","no","yes","768","legacy","38","11","C:/Users/User/Desktop/Quant 2020/Sternberg Task 3/VT-subject-2.csv","legacy","6 1 2","Lentiform Loewenfeld","3.3.3","3","y","yes","0","left","left","NA","right","left","678","60294","NA","6200","678","2","legacy","3","1024","2","48000","-16","experiment","2","even","2","377851","2365","62660","NA","374497","2361","143328","375637","375639","230090","137127","379858","380537","376645","379858","Sternberg Task","46","36217","51","yes","1024"
"90.3846153846","90.3846153846","712.692307692","712.692307692","black","experiment","legacy","legacy","legacy","0","uniform","1","undefined","1","right","51","0","0","0","51","0","0","51","51","51","0","51","51","51","51","10/25/20 17:50:47","The main experiment item","yes","SternbergTask.osexp","C:\Users\User\Desktop\Quant 2020\Sternberg Task 3","no","mono","no","18","no","white","no","yes","768","legacy","39","11","C:/Users/User/Desktop/Quant 2020/Sternberg Task 3/VT-subject-2.csv","legacy","2 8 9 4 1","Lentiform Loewenfeld","3.3.3","0","n","yes","0","right","left","NA","right","right","843","60294","NA","6200","843","2","legacy","5","1024","2","48000","-16","experiment","2","even","5","383899","2365","62660","NA","380542","2361","143328","381684","381686","230090","137127","385906","386751","382692","385905","Sternberg Task","47","37060","52","yes","1024"
"88.679245283","88.679245283","711.150943396","711.150943396","black","experiment","legacy","legacy","legacy","0","uniform","0","undefined","0","right","52","0","0","0","52","0","0","52","52","52","0","52","52","52","52","10/25/20 17:50:47","The main experiment item","yes","SternbergTask.osexp","C:\Users\User\Desktop\Quant 2020\Sternberg Task 3","no","mono","no","18","no","white","no","yes","768","legacy","40","11","C:/Users/User/Desktop/Quant 2020/Sternberg Task 3/VT-subject-2.csv","legacy","1 6 4 3 9 7","Lentiform Loewenfeld","3.3.3","0","n","yes","0","left","left","NA","right","left","631","60294","NA","6200","631","2","legacy","6","1024","2","48000","-16","experiment","2","even","8","390100","2365","62660","NA","386756","2361","143328","387885","387888","230090","137127","392106","392738","388894","392106","Sternberg Task","47","37691","53","yes","1024"
"88.8888888889","88.8888888889","706.814814815","706.814814815","black","experiment","legacy","legacy","legacy","0","uniform","1","undefined","1","right","53","0","0","0","53","0","0","53","53","53","0","53","53","53","53","10/25/20 17:50:47","The main experiment item","yes","SternbergTask.osexp","C:\Users\User\Desktop\Quant 2020\Sternberg Task 3","no","mono","no","18","no","white","no","yes","768","legacy","41","11","C:/Users/User/Desktop/Quant 2020/Sternberg Task 3/VT-subject-2.csv","legacy","5 2","Lentiform Loewenfeld","3.3.3","0","n","yes","0","right","left","NA","right","right","477","60294","NA","6200","477","2","legacy","2","1024","2","48000","-16","experiment","2","even","7","396095","2365","62660","NA","386756","2361","143328","393880","393883","392743","137127","398101","398579","394889","398101","Sternberg Task","48","38168","54","yes","1024"
"89.0909090909","89.0909090909","706.181818182","706.181818182","black","experiment","legacy","legacy","legacy","0","uniform","1","undefined","1","right","54","0","0","0","54","0","0","54","54","54","0","54","54","54","54","10/25/20 17:50:47","The main experiment item","yes","SternbergTask.osexp","C:\Users\User\Desktop\Quant 2020\Sternberg Task 3","no","mono","no","18","no","white","no","yes","768","legacy","42","11","C:/Users/User/Desktop/Quant 2020/Sternberg Task 3/VT-subject-2.csv","legacy","2 3 8 5 6 7","Lentiform Loewenfeld","3.3.3","0","n","yes","0","right","left","NA","right","right","672","60294","NA","6200","672","2","legacy","6","1024","2","48000","-16","experiment","2","even","1","401935","2365","62660","NA","398584","2361","143328","399721","399723","392743","137127","403941","404614","400728","403940","Sternberg Task","49","38840","55","yes","1024"
"89.2857142857","89.2857142857","705.732142857","705.732142857","black","experiment","legacy","legacy","legacy","0","uniform","1","undefined","1","right","55","0","0","0","55","0","0","55","55","55","0","55","55","55","55","10/25/20 17:50:47","The main experiment item","yes","SternbergTask.osexp","C:\Users\User\Desktop\Quant 2020\Sternberg Task 3","no","mono","no","18","no","white","no","yes","768","legacy","43","11","C:/Users/User/Desktop/Quant 2020/Sternberg Task 3/VT-subject-2.csv","legacy","7 9 1 6","Lentiform Loewenfeld","3.3.3","0","n","yes","0","right","left","NA","right","right","681","60294","NA","6200","681","2","legacy","4","1024","2","48000","-16","experiment","2","even","4","407966","2365","62660","NA","404619","2361","143328","405752","405754","392743","137127","409972","410654","406760","409971","Sternberg Task","50","39521","56","yes","1024"
"89.4736842105","89.4736842105","705.333333333","705.333333333","black","experiment","legacy","legacy","legacy","0","uniform","1","undefined","1","left","56","0","0","0","56","0","0","56","56","56","0","56","56","56","56","10/25/20 17:50:47","The main experiment item","yes","SternbergTask.osexp","C:\Users\User\Desktop\Quant 2020\Sternberg Task 3","no","mono","no","18","no","white","no","yes","768","legacy","44","11","C:/Users/User/Desktop/Quant 2020/Sternberg Task 3/VT-subject-2.csv","legacy","4 6 5 8","Lentiform Loewenfeld","3.3.3","1","y","yes","0","left","left","NA","right","left","683","60294","NA","6200","683","2","legacy","4","1024","2","48000","-16","experiment","2","even","4","414019","2365","62660","NA","410660","2361","143328","411805","411807","392743","137127","416025","416709","412813","416025","Sternberg Task","51","40204","57","yes","1024"
"89.6551724138","89.6551724138","705.396551724","705.396551724","black","experiment","legacy","legacy","legacy","0","uniform","1","undefined","1","right","57","0","0","0","57","0","0","57","57","57","0","57","57","57","57","10/25/20 17:50:47","The main experiment item","yes","SternbergTask.osexp","C:\Users\User\Desktop\Quant 2020\Sternberg Task 3","no","mono","no","18","no","white","no","yes","768","legacy","45","11","C:/Users/User/Desktop/Quant 2020/Sternberg Task 3/VT-subject-2.csv","legacy","9 5 3 2 8 6","Lentiform Loewenfeld","3.3.3","0","n","yes","0","right","left","NA","right","right","709","60294","NA","6200","709","2","legacy","6","1024","2","48000","-16","experiment","2","even","7","420061","2365","62660","NA","416714","2361","143328","417847","417849","392743","137127","422068","422778","418856","422067","Sternberg Task","52","40913","58","yes","1024"
"89.8305084746","89.8305084746","704.186440678","704.186440678","black","experiment","legacy","legacy","legacy","0","uniform","1","undefined","1","right","58","0","0","0","58","0","0","58","58","58","0","58","58","58","58","10/25/20 17:50:47","The main experiment item","yes","SternbergTask.osexp","C:\Users\User\Desktop\Quant 2020\Sternberg Task 3","no","mono","no","18","no","white","no","yes","768","legacy","46","11","C:/Users/User/Desktop/Quant 2020/Sternberg Task 3/VT-subject-2.csv","legacy","5 7 3","Lentiform Loewenfeld","3.3.3","0","n","yes","0","right","left","NA","right","right","634","60294","NA","6200","634","2","legacy","3","1024","2","48000","-16","experiment","2","even","9","426140","2365","62660","NA","422783","2361","143328","423925","423928","392743","137127","428146","428781","424934","428146","Sternberg Task","53","41547","59","yes","1024"
"90","90","700.2","700.2","black","experiment","legacy","legacy","legacy","0","uniform","1","undefined","1","right","59","0","0","0","59","0","0","59","59","59","0","59","59","59","59","10/25/20 17:50:47","The main experiment item","yes","SternbergTask.osexp","C:\Users\User\Desktop\Quant 2020\Sternberg Task 3","no","mono","no","18","no","white","no","yes","768","legacy","47","11","C:/Users/User/Desktop/Quant 2020/Sternberg Task 3/VT-subject-2.csv","legacy","1","Lentiform Loewenfeld","3.3.3","0","n","yes","0","right","left","NA","right","right","465","60294","NA","6200","465","2","legacy","1","1024","2","48000","-16","experiment","2","even","7","432142","2365","62660","NA","428786","2361","143328","429928","429930","392743","137127","434148","434614","430936","434147","Sternberg Task","54","42012","60","yes","1024"
"90.1639344262","90.1639344262","699.081967213","699.081967213","black","experiment","legacy","legacy","legacy","0","uniform","1","undefined","1","right","60","0","0","0","60","0","0","60","60","60","0","60","60","60","60","10/25/20 17:50:47","The main experiment item","yes","SternbergTask.osexp","C:\Users\User\Desktop\Quant 2020\Sternberg Task 3","no","mono","no","18","no","white","no","yes","768","legacy","48","11","C:/Users/User/Desktop/Quant 2020/Sternberg Task 3/VT-subject-2.csv","legacy","1 4 3 6 5","Lentiform Loewenfeld","3.3.3","0","n","yes","0","right","left","NA","right","right","632","60294","NA","6200","632","2","legacy","5","1024","2","48000","-16","experiment","2","even","8","437970","2365","62660","NA","434619","2361","143328","435758","435761","392743","137127","439976","440609","436767","439976","Sternberg Task","55","42644","61","yes","1024"
"90.3225806452","90.3225806452","698.806451613","698.806451613","black","experiment","legacy","legacy","legacy","0","uniform","1","undefined","1","right","61","0","0","0","61","0","0","61","61","61","0","61","61","61","61","10/25/20 17:50:47","The main experiment item","yes","SternbergTask.osexp","C:\Users\User\Desktop\Quant 2020\Sternberg Task 3","no","mono","no","18","no","white","no","yes","768","legacy","49","11","C:/Users/User/Desktop/Quant 2020/Sternberg Task 3/VT-subject-2.csv","legacy","7 1 5 6 3","Lentiform Loewenfeld","3.3.3","0","n","yes","0","right","left","NA","right","right","682","60294","NA","6200","682","2","legacy","5","1024","2","48000","-16","experiment","2","even","8","443967","2365","62660","NA","440614","2361","143328","441754","441756","392743","137127","445974","446658","442762","445973","Sternberg Task","56","43326","62","yes","1024"
"90.4761904762","90.4761904762","698.222222222","698.222222222","black","experiment","legacy","legacy","legacy","0","uniform","1","undefined","1","right","62","0","0","0","62","0","0","62","62","62","0","62","62","62","62","10/25/20 17:50:47","The main experiment item","yes","SternbergTask.osexp","C:\Users\User\Desktop\Quant 2020\Sternberg Task 3","no","mono","no","18","no","white","no","yes","768","legacy","50","11","C:/Users/User/Desktop/Quant 2020/Sternberg Task 3/VT-subject-2.csv","legacy","3 4 9 6 7 8","Lentiform Loewenfeld","3.3.3","0","n","yes","0","right","left","NA","right","right","662","60294","NA","6200","662","2","legacy","6","1024","2","48000","-16","experiment","2","even","2","450019","2365","62660","NA","446663","2361","143328","447806","447808","392743","137127","452026","452689","448814","452026","Sternberg Task","57","43988","63","yes","1024"
"90.625","90.625","695.671875","695.671875","black","experiment","legacy","legacy","legacy","0","uniform","1","undefined","1","right","63","0","0","0","63","0","0","63","63","63","0","63","63","63","63","10/25/20 17:50:47","The main experiment item","yes","SternbergTask.osexp","C:\Users\User\Desktop\Quant 2020\Sternberg Task 3","no","mono","no","18","no","white","no","yes","768","legacy","51","11","C:/Users/User/Desktop/Quant 2020/Sternberg Task 3/VT-subject-2.csv","legacy","7 6 4 8 1 2","Lentiform Loewenfeld","3.3.3","0","n","yes","0","right","left","NA","right","right","535","60294","NA","6200","535","2","legacy","6","1024","2","48000","-16","experiment","2","even","9","456052","2365","62660","NA","452694","2361","143328","453837","453840","392743","137127","458058","458594","454846","458058","Sternberg Task","58","44523","64","yes","1024"
"90.7692307692","90.7692307692","694.307692308","694.307692308","black","experiment","legacy","legacy","legacy","0","uniform","1","undefined","1","left","64","0","0","0","64","0","0","64","64","64","0","64","64","64","64","10/25/20 17:50:47","The main experiment item","yes","SternbergTask.osexp","C:\Users\User\Desktop\Quant 2020\Sternberg Task 3","no","mono","no","18","no","white","no","yes","768","legacy","52","11","C:/Users/User/Desktop/Quant 2020/Sternberg Task 3/VT-subject-2.csv","legacy","3 5 4 7","Lentiform Loewenfeld","3.3.3","1","y","yes","0","left","left","NA","right","left","607","60294","NA","6200","607","2","legacy","4","1024","2","48000","-16","experiment","2","even","3","461961","2365","62660","NA","458600","2361","143328","459746","459749","392743","137127","463967","464575","460755","463967","Sternberg Task","59","45130","65","yes","1024"
"90.9090909091","90.9090909091","693.96969697","693.96969697","black","experiment","legacy","legacy","legacy","0","uniform","1","undefined","1","left","65","0","0","0","65","0","0","65","65","65","0","65","65","65","65","10/25/20 17:50:47","The main experiment item","yes","SternbergTask.osexp","C:\Users\User\Desktop\Quant 2020\Sternberg Task 3","no","mono","no","18","no","white","no","yes","768","legacy","53","11","C:/Users/User/Desktop/Quant 2020/Sternberg Task 3/VT-subject-2.csv","legacy","7 6","Lentiform Loewenfeld","3.3.3","2","y","yes","0","left","left","NA","right","left","672","60294","NA","6200","672","2","legacy","2","1024","2","48000","-16","experiment","2","even","6","467936","2365","62660","NA","464581","2361","143328","465721","465723","392743","137127","469942","470615","466730","469941","Sternberg Task","60","45802","66","yes","1024"
"91.0447761194","91.0447761194","696.179104478","696.179104478","black","experiment","legacy","legacy","legacy","0","uniform","1","undefined","1","right","66","0","0","0","66","0","0","66","66","66","0","66","66","66","66","10/25/20 17:50:47","The main experiment item","yes","SternbergTask.osexp","C:\Users\User\Desktop\Quant 2020\Sternberg Task 3","no","mono","no","18","no","white","no","yes","768","legacy","54","11","C:/Users/User/Desktop/Quant 2020/Sternberg Task 3/VT-subject-2.csv","legacy","3 9 8 1 6 4","Lentiform Loewenfeld","3.3.3","0","n","yes","0","right","left","NA","right","right","842","60294","NA","6200","842","2","legacy","6","1024","2","48000","-16","experiment","2","even","7","473972","2365","62660","NA","470620","2361","143328","471757","471760","392743","137127","475978","476821","472766","475977","Sternberg Task","61","46644","67","yes","1024"
"91.1764705882","91.1764705882","700.955882353","700.955882353","black","experiment","legacy","legacy","legacy","0","uniform","1","undefined","1","left","67","0","0","0","67","0","0","67","67","67","0","67","67","67","67","10/25/20 17:50:47","The main experiment item","yes","SternbergTask.osexp","C:\Users\User\Desktop\Quant 2020\Sternberg Task 3","no","mono","no","18","no","white","no","yes","768","legacy","55","11","C:/Users/User/Desktop/Quant 2020/Sternberg Task 3/VT-subject-2.csv","legacy","9 5 8 1","Lentiform Loewenfeld","3.3.3","2","y","yes","0","left","left","NA","right","left","1021","60294","NA","6200","1021","2","legacy","4","1024","2","48000","-16","experiment","2","even","5","480180","2365","62660","NA","476826","2361","143328","477965","477968","392743","137127","482186","483209","478974","482186","Sternberg Task","62","47665","68","yes","1024"
"91.3043478261","91.3043478261","699.826086957","699.826086957","black","experiment","legacy","legacy","legacy","0","uniform","1","undefined","1","left","68","0","0","0","68","0","0","68","68","68","0","68","68","68","68","10/25/20 17:50:47","The main experiment item","yes","SternbergTask.osexp","C:\Users\User\Desktop\Quant 2020\Sternberg Task 3","no","mono","no","18","no","white","no","yes","768","legacy","56","11","C:/Users/User/Desktop/Quant 2020/Sternberg Task 3/VT-subject-2.csv","legacy","2 3 7 4","Lentiform Loewenfeld","3.3.3","1","y","yes","0","left","left","NA","right","left","623","60294","NA","6200","623","2","legacy","4","1024","2","48000","-16","experiment","2","even","2","486567","2365","62660","NA","483214","2361","143328","484352","484355","392743","137127","488573","489198","485361","488573","Sternberg Task","63","48288","69","yes","1024"
"91.4285714286","91.4285714286","696.1","696.1","black","experiment","legacy","legacy","legacy","0","uniform","1","undefined","1","left","69","0","0","0","69","0","0","69","69","69","0","69","69","69","69","10/25/20 17:50:47","The main experiment item","yes","SternbergTask.osexp","C:\Users\User\Desktop\Quant 2020\Sternberg Task 3","no","mono","no","18","no","white","no","yes","768","legacy","57","11","C:/Users/User/Desktop/Quant 2020/Sternberg Task 3/VT-subject-2.csv","legacy","2 3","Lentiform Loewenfeld","3.3.3","1","y","yes","0","left","left","NA","right","left","439","60294","NA","6200","439","2","legacy","2","1024","2","48000","-16","experiment","2","even","2","492559","2365","62660","NA","489203","2361","143328","490343","490346","392743","137127","494565","495006","491352","494565","Sternberg Task","64","48727","70","yes","1024"
"91.5492957746","91.5492957746","694.605633803","694.605633803","black","experiment","legacy","legacy","legacy","0","uniform","1","undefined","1","left","70","0","0","0","70","0","0","70","70","70","0","70","70","70","70","10/25/20 17:50:47","The main experiment item","yes","SternbergTask.osexp","C:\Users\User\Desktop\Quant 2020\Sternberg Task 3","no","mono","no","18","no","white","no","yes","768","legacy","58","11","C:/Users/User/Desktop/Quant 2020/Sternberg Task 3/VT-subject-2.csv","legacy","4 1 8 7 5","Lentiform Loewenfeld","3.3.3","3","y","yes","0","left","left","NA","right","left","590","60294","NA","6200","590","2","legacy","5","1024","2","48000","-16","experiment","2","even","8","498358","2365","62660","NA","495011","2361","143328","496144","496146","392743","137127","500365","500956","497153","500365","Sternberg Task","65","49317","71","yes","1024"
"91.6666666667","91.6666666667","694.027777778","694.027777778","black","experiment","legacy","legacy","legacy","0","uniform","1","undefined","1","right","71","0","0","0","71","0","0","71","71","71","0","71","71","71","71","10/25/20 17:50:47","The main experiment item","yes","SternbergTask.osexp","C:\Users\User\Desktop\Quant 2020\Sternberg Task 3","no","mono","no","18","no","white","no","yes","768","legacy","59","11","C:/Users/User/Desktop/Quant 2020/Sternberg Task 3/VT-subject-2.csv","legacy","8 5 7 3 6","Lentiform Loewenfeld","3.3.3","0","n","yes","0","right","left","NA","right","right","653","60294","NA","6200","653","2","legacy","5","1024","2","48000","-16","experiment","2","even","9","504323","2365","62660","NA","500962","2361","143328","502108","502111","392743","137127","506329","506983","503116","506328","Sternberg Task","66","49970","72","yes","1024"
"91.7808219178","91.7808219178","695.219178082","695.219178082","black","experiment","legacy","legacy","legacy","0","uniform","1","undefined","1","right","72","0","0","0","72","0","0","72","72","72","0","72","72","72","72","10/25/20 17:50:47","The main experiment item","yes","SternbergTask.osexp","C:\Users\User\Desktop\Quant 2020\Sternberg Task 3","no","mono","no","18","no","white","no","yes","768","legacy","60","11","C:/Users/User/Desktop/Quant 2020/Sternberg Task 3/VT-subject-2.csv","legacy","5 3 8 7 2 4","Lentiform Loewenfeld","3.3.3","0","n","yes","0","right","left","NA","right","right","781","60294","NA","6200","781","2","legacy","6","1024","2","48000","-16","experiment","2","even","9","510338","2365","62660","NA","506988","2361","143328","508125","508127","392743","137127","512345","513127","509132","512344","Sternberg Task","67","50751","73","yes","1024"
"91.8918918919","91.8918918919","695.972972973","695.972972973","black","experiment","legacy","legacy","legacy","0","uniform","1","undefined","1","right","73","0","0","0","73","0","0","73","73","73","0","73","73","73","73","10/25/20 17:50:47","The main experiment item","yes","SternbergTask.osexp","C:\Users\User\Desktop\Quant 2020\Sternberg Task 3","no","mono","no","18","no","white","no","yes","768","legacy","61","11","C:/Users/User/Desktop/Quant 2020/Sternberg Task 3/VT-subject-2.csv","legacy","7 1 8 4 9 3","Lentiform Loewenfeld","3.3.3","0","n","yes","0","right","left","NA","right","right","751","60294","NA","6200","751","2","legacy","6","1024","2","48000","-16","experiment","2","even","6","516482","2365","62660","NA","513132","2361","143328","514267","514270","392743","137127","518488","519241","515275","518488","Sternberg Task","68","51502","74","yes","1024"
"92","92","696.44","696.44","black","experiment","legacy","legacy","legacy","0","uniform","1","undefined","1","right","74","0","0","0","74","0","0","74","74","74","0","74","74","74","74","10/25/20 17:50:47","The main experiment item","yes","SternbergTask.osexp","C:\Users\User\Desktop\Quant 2020\Sternberg Task 3","no","mono","no","18","no","white","no","yes","768","legacy","62","11","C:/Users/User/Desktop/Quant 2020/Sternberg Task 3/VT-subject-2.csv","legacy","6 3 1 7 9 8","Lentiform Loewenfeld","3.3.3","0","n","yes","0","right","left","NA","right","right","731","60294","NA","6200","731","2","legacy","6","1024","2","48000","-16","experiment","2","even","4","522596","2365","62660","NA","519246","2361","143328","520381","520384","392743","137127","524602","525334","521390","524601","Sternberg Task","69","52233","75","yes","1024"
"92.1052631579","92.1052631579","695.855263158","695.855263158","black","experiment","legacy","legacy","legacy","0","uniform","1","undefined","1","left","75","0","0","0","75","0","0","75","75","75","0","75","75","75","75","10/25/20 17:50:47","The main experiment item","yes","SternbergTask.osexp","C:\Users\User\Desktop\Quant 2020\Sternberg Task 3","no","mono","no","18","no","white","no","yes","768","legacy","63","11","C:/Users/User/Desktop/Quant 2020/Sternberg Task 3/VT-subject-2.csv","legacy","9 1 6 7 8","Lentiform Loewenfeld","3.3.3","1","y","yes","0","left","left","NA","right","left","652","60294","NA","6200","652","2","legacy","5","1024","2","48000","-16","experiment","2","even","9","528688","2365","62660","NA","525340","2361","143328","526475","526477","392743","137127","530695","531349","527483","530694","Sternberg Task","70","52885","76","yes","1024"
"92.2077922078","92.2077922078","694.25974026","694.25974026","black","experiment","legacy","legacy","legacy","0","uniform","1","undefined","1","right","76","0","0","0","76","0","0","76","76","76","0","76","76","76","76","10/25/20 17:50:47","The main experiment item","yes","SternbergTask.osexp","C:\Users\User\Desktop\Quant 2020\Sternberg Task 3","no","mono","no","18","no","white","no","yes","768","legacy","64","11","C:/Users/User/Desktop/Quant 2020/Sternberg Task 3/VT-subject-2.csv","legacy","6 9 4 5 2","Lentiform Loewenfeld","3.3.3","0","n","yes","0","right","left","NA","right","right","573","60294","NA","6200","573","2","legacy","5","1024","2","48000","-16","experiment","2","even","1","534713","2365","62660","NA","531354","2361","143328","532501","532504","392743","137127","536719","537294","533510","536719","Sternberg Task","71","53458","77","yes","1024"
"92.3076923077","92.3076923077","693.384615385","693.384615385","black","experiment","legacy","legacy","legacy","0","uniform","1","undefined","1","right","77","0","0","0","77","0","0","77","77","77","0","77","77","77","77","10/25/20 17:50:47","The main experiment item","yes","SternbergTask.osexp","C:\Users\User\Desktop\Quant 2020\Sternberg Task 3","no","mono","no","18","no","white","no","yes","768","legacy","65","11","C:/Users/User/Desktop/Quant 2020/Sternberg Task 3/VT-subject-2.csv","legacy","2 6 4 3 9","Lentiform Loewenfeld","3.3.3","0","n","yes","0","right","left","NA","right","right","626","60294","NA","6200","626","2","legacy","5","1024","2","48000","-16","experiment","2","even","1","540653","2365","62660","NA","537299","2361","143328","538439","538441","392743","137127","542659","543286","539447","542659","Sternberg Task","72","54084","78","yes","1024"
"92.4050632911","92.4050632911","693.455696203","693.455696203","black","experiment","legacy","legacy","legacy","0","uniform","1","undefined","1","left","78","0","0","0","78","0","0","78","78","78","0","78","78","78","78","10/25/20 17:50:47","The main experiment item","yes","SternbergTask.osexp","C:\Users\User\Desktop\Quant 2020\Sternberg Task 3","no","mono","no","18","no","white","no","yes","768","legacy","66","11","C:/Users/User/Desktop/Quant 2020/Sternberg Task 3/VT-subject-2.csv","legacy","4 1 5","Lentiform Loewenfeld","3.3.3","2","y","yes","0","left","left","NA","right","left","699","60294","NA","6200","699","2","legacy","3","1024","2","48000","-16","experiment","2","even","1","546640","2365","62660","NA","543292","2361","143328","544424","544426","392743","137127","548646","549346","545433","548646","Sternberg Task","73","54783","79","yes","1024"
"92.5","92.5","691.75","691.75","black","experiment","legacy","legacy","legacy","0","uniform","1","undefined","1","left","79","0","0","0","79","0","0","79","79","79","0","79","79","79","79","10/25/20 17:50:47","The main experiment item","yes","SternbergTask.osexp","C:\Users\User\Desktop\Quant 2020\Sternberg Task 3","no","mono","no","18","no","white","no","yes","768","legacy","67","11","C:/Users/User/Desktop/Quant 2020/Sternberg Task 3/VT-subject-2.csv","legacy","6 2","Lentiform Loewenfeld","3.3.3","1","y","yes","0","left","left","NA","right","left","557","60294","NA","6200","557","2","legacy","2","1024","2","48000","-16","experiment","2","even","6","552700","2365","62660","NA","549351","2361","143328","550485","550488","392743","137127","554706","555265","551494","554706","Sternberg Task","74","55340","80","yes","1024"
"92.5925925926","92.5925925926","692.716049383","692.716049383","black","experiment","legacy","legacy","legacy","0","uniform","1","undefined","1","right","80","0","0","0","80","0","0","80","80","80","0","80","80","80","80","10/25/20 17:50:47","The main experiment item","yes","SternbergTask.osexp","C:\Users\User\Desktop\Quant 2020\Sternberg Task 3","no","mono","no","18","no","white","no","yes","768","legacy","68","11","C:/Users/User/Desktop/Quant 2020/Sternberg Task 3/VT-subject-2.csv","legacy","6 9 4 5 3 2","Lentiform Loewenfeld","3.3.3","0","n","yes","0","right","left","NA","right","right","770","60294","NA","6200","770","2","legacy","6","1024","2","48000","-16","experiment","2","even","8","558626","2365","62660","NA","555270","2361","143328","556412","556414","392743","137127","560632","561403","557419","560632","Sternberg Task","75","56110","81","yes","1024"
"92.6829268293","92.6829268293","691.182926829","691.182926829","black","experiment","legacy","legacy","legacy","0","uniform","1","undefined","1","left","81","0","0","0","81","0","0","81","81","81","0","81","81","81","81","10/25/20 17:50:47","The main experiment item","yes","SternbergTask.osexp","C:\Users\User\Desktop\Quant 2020\Sternberg Task 3","no","mono","no","18","no","white","no","yes","768","legacy","69","11","C:/Users/User/Desktop/Quant 2020/Sternberg Task 3/VT-subject-2.csv","legacy","9 8 4","Lentiform Loewenfeld","3.3.3","1","y","yes","0","left","left","NA","right","left","567","60294","NA","6200","567","2","legacy","3","1024","2","48000","-16","experiment","2","even","9","564757","2365","62660","NA","561408","2361","143328","562546","562549","392743","137127","566764","567332","563555","566763","Sternberg Task","76","56677","82","yes","1024"
"92.7710843373","92.7710843373","696.228915663","696.228915663","black","experiment","legacy","legacy","legacy","0","uniform","1","undefined","1","right","82","0","0","0","82","0","0","82","82","82","0","82","82","82","82","10/25/20 17:50:47","The main experiment item","yes","SternbergTask.osexp","C:\Users\User\Desktop\Quant 2020\Sternberg Task 3","no","mono","no","18","no","white","no","yes","768","legacy","70","11","C:/Users/User/Desktop/Quant 2020/Sternberg Task 3/VT-subject-2.csv","legacy","1 4 9 2 5","Lentiform Loewenfeld","3.3.3","0","n","yes","0","right","left","NA","right","right","1110","60294","NA","6200","1110","2","legacy","5","1024","2","48000","-16","experiment","2","even","7","570691","2365","62660","NA","567337","2361","143328","568476","568479","392743","137127","572697","573809","569485","572697","Sternberg Task","77","57787","83","yes","1024"
"92.8571428571","92.8571428571","696.952380952","696.952380952","black","experiment","legacy","legacy","legacy","0","uniform","1","undefined","1","left","83","0","0","0","83","0","0","83","83","83","0","83","83","83","83","10/25/20 17:50:47","The main experiment item","yes","SternbergTask.osexp","C:\Users\User\Desktop\Quant 2020\Sternberg Task 3","no","mono","no","18","no","white","no","yes","768","legacy","71","11","C:/Users/User/Desktop/Quant 2020/Sternberg Task 3/VT-subject-2.csv","legacy","3 9 6 2","Lentiform Loewenfeld","3.3.3","4","y","yes","0","left","left","NA","right","left","757","60294","NA","6200","757","2","legacy","4","1024","2","48000","-16","experiment","2","even","2","577169","2365","62660","NA","573814","2361","143328","574955","574957","392743","137127","579175","579933","575963","579174","Sternberg Task","78","58544","84","yes","1024"
"92.9411764706","92.9411764706","698.611764706","698.611764706","black","experiment","legacy","legacy","legacy","0","uniform","1","undefined","1","left","84","0","0","0","84","0","0","84","84","84","0","84","84","84","84","10/25/20 17:50:47","The main experiment item","yes","SternbergTask.osexp","C:\Users\User\Desktop\Quant 2020\Sternberg Task 3","no","mono","no","18","no","white","no","yes","768","legacy","72","11","C:/Users/User/Desktop/Quant 2020/Sternberg Task 3/VT-subject-2.csv","legacy","7 8 6 3 1","Lentiform Loewenfeld","3.3.3","5","y","yes","0","left","left","NA","right","left","838","60294","NA","6200","838","2","legacy","5","1024","2","48000","-16","experiment","2","even","1","583286","2365","62660","NA","579939","2361","143328","581072","581075","392743","137127","585293","586133","582081","585293","Sternberg Task","79","59382","85","yes","1024"
"93.023255814","93.023255814","699.127906977","699.127906977","black","experiment","legacy","legacy","legacy","0","uniform","1","undefined","1","right","85","0","0","0","85","0","0","85","85","85","0","85","85","85","85","10/25/20 17:50:47","The main experiment item","yes","SternbergTask.osexp","C:\Users\User\Desktop\Quant 2020\Sternberg Task 3","no","mono","no","18","no","white","no","yes","768","legacy","73","11","C:/Users/User/Desktop/Quant 2020/Sternberg Task 3/VT-subject-2.csv","legacy","4 2 6 9","Lentiform Loewenfeld","3.3.3","0","n","yes","0","right","left","NA","right","right","743","60294","NA","6200","743","2","legacy","4","1024","2","48000","-16","experiment","2","even","7","589483","2365","62660","NA","586138","2361","143328","587268","587271","392743","137127","591489","592234","588277","591489","Sternberg Task","80","60125","86","yes","1024"
"93.1034482759","93.1034482759","698.471264368","698.471264368","black","experiment","legacy","legacy","legacy","0","uniform","1","undefined","1","left","86","0","0","0","86","0","0","86","86","86","0","86","86","86","86","10/25/20 17:50:47","The main experiment item","yes","SternbergTask.osexp","C:\Users\User\Desktop\Quant 2020\Sternberg Task 3","no","mono","no","18","no","white","no","yes","768","legacy","74","11","C:/Users/User/Desktop/Quant 2020/Sternberg Task 3/VT-subject-2.csv","legacy","6 5","Lentiform Loewenfeld","3.3.3","2","y","yes","0","left","left","NA","right","left","642","60294","NA","6200","642","2","legacy","2","1024","2","48000","-16","experiment","2","even","5","595588","2365","62660","NA","592239","2361","143328","593374","593376","392743","137127","597594","598238","594382","597593","Sternberg Task","81","60767","87","yes","1024"
"93.1818181818","93.1818181818","698.704545455","698.704545455","black","experiment","legacy","legacy","legacy","0","uniform","1","undefined","1","right","87","0","0","0","87","0","0","87","87","87","0","87","87","87","87","10/25/20 17:50:47","The main experiment item","yes","SternbergTask.osexp","C:\Users\User\Desktop\Quant 2020\Sternberg Task 3","no","mono","no","18","no","white","no","yes","768","legacy","75","11","C:/Users/User/Desktop/Quant 2020/Sternberg Task 3/VT-subject-2.csv","legacy","2 7 5","Lentiform Loewenfeld","3.3.3","0","n","yes","0","right","left","NA","right","right","719","60294","NA","6200","719","2","legacy","3","1024","2","48000","-16","experiment","2","even","8","601594","2365","62660","NA","598243","2361","143328","599380","599382","392743","137127","603600","604321","600388","603599","Sternberg Task","82","61486","88","yes","1024"
"93.2584269663","93.2584269663","699.112359551","699.112359551","black","experiment","legacy","legacy","legacy","0","uniform","1","undefined","1","left","88","0","0","0","88","0","0","88","88","88","0","88","88","88","88","10/25/20 17:50:47","The main experiment item","yes","SternbergTask.osexp","C:\Users\User\Desktop\Quant 2020\Sternberg Task 3","no","mono","no","18","no","white","no","yes","768","legacy","76","11","C:/Users/User/Desktop/Quant 2020/Sternberg Task 3/VT-subject-2.csv","legacy","8 9 5 6 7","Lentiform Loewenfeld","3.3.3","1","y","yes","0","left","left","NA","right","left","735","60294","NA","6200","735","2","legacy","5","1024","2","48000","-16","experiment","2","even","8","607678","2365","62660","NA","604326","2361","143328","605463","605465","392743","137127","609684","610421","606472","609684","Sternberg Task","83","62221","89","yes","1024"
"93.3333333333","93.3333333333","701.566666667","701.566666667","black","experiment","legacy","legacy","legacy","0","uniform","1","undefined","1","right","89","0","0","0","89","0","0","89","89","89","0","89","89","89","89","10/25/20 17:50:47","The main experiment item","yes","SternbergTask.osexp","C:\Users\User\Desktop\Quant 2020\Sternberg Task 3","no","mono","no","18","no","white","no","yes","768","legacy","77","11","C:/Users/User/Desktop/Quant 2020/Sternberg Task 3/VT-subject-2.csv","legacy","2 8 6 3 1","Lentiform Loewenfeld","3.3.3","0","n","yes","0","right","left","NA","right","right","920","60294","NA","6200","920","2","legacy","5","1024","2","48000","-16","experiment","2","even","7","613774","2365","62660","NA","610426","2361","143328","611560","611562","392743","137127","615780","616701","612568","615780","Sternberg Task","84","63141","90","yes","1024"
"93.4065934066","93.4065934066","701.626373626","701.626373626","black","experiment","legacy","legacy","legacy","0","uniform","1","undefined","1","left","90","0","0","0","90","0","0","90","90","90","0","90","90","90","90","10/25/20 17:50:47","The main experiment item","yes","SternbergTask.osexp","C:\Users\User\Desktop\Quant 2020\Sternberg Task 3","no","mono","no","18","no","white","no","yes","768","legacy","78","11","C:/Users/User/Desktop/Quant 2020/Sternberg Task 3/VT-subject-2.csv","legacy","9 6 2 4 1","Lentiform Loewenfeld","3.3.3","4","y","yes","0","left","left","NA","right","left","707","60294","NA","6200","707","2","legacy","5","1024","2","48000","-16","experiment","2","even","4","620062","2365","62660","NA","616707","2361","143328","617849","617851","392743","137127","622070","622779","618857","622069","Sternberg Task","85","63848","91","yes","1024"
"93.4782608696","93.4782608696","702.347826087","702.347826087","black","experiment","legacy","legacy","legacy","0","uniform","1","undefined","1","left","91","0","0","0","91","0","0","91","91","91","0","91","91","91","91","10/25/20 17:50:47","The main experiment item","yes","SternbergTask.osexp","C:\Users\User\Desktop\Quant 2020\Sternberg Task 3","no","mono","no","18","no","white","no","yes","768","legacy","79","11","C:/Users/User/Desktop/Quant 2020/Sternberg Task 3/VT-subject-2.csv","legacy","4 3 2 5 8","Lentiform Loewenfeld","3.3.3","2","y","yes","0","left","left","NA","right","left","768","60294","NA","6200","768","2","legacy","5","1024","2","48000","-16","experiment","2","even","3","626136","2365","62660","NA","622784","2361","143328","623923","623925","392743","137127","628143","628913","624930","628143","Sternberg Task","86","64616","92","yes","1024"
"93.5483870968","93.5483870968","701.172043011","701.172043011","black","experiment","legacy","legacy","legacy","0","uniform","1","undefined","1","right","92","0","0","0","92","0","0","92","92","92","0","92","92","92","92","10/25/20 17:50:47","The main experiment item","yes","SternbergTask.osexp","C:\Users\User\Desktop\Quant 2020\Sternberg Task 3","no","mono","no","18","no","white","no","yes","768","legacy","80","11","C:/Users/User/Desktop/Quant 2020/Sternberg Task 3/VT-subject-2.csv","legacy","6 9 5","Lentiform Loewenfeld","3.3.3","0","n","yes","0","right","left","NA","right","right","593","60294","NA","6200","593","2","legacy","3","1024","2","48000","-16","experiment","2","even","8","632274","2365","62660","NA","628918","2361","143328","630060","630063","392743","137127","634281","634876","631069","634280","Sternberg Task","87","65209","93","yes","1024"
"93.6170212766","93.6170212766","702.053191489","702.053191489","black","experiment","legacy","legacy","legacy","0","uniform","1","undefined","1","right","93","0","0","0","93","0","0","93","93","93","0","93","93","93","93","10/25/20 17:50:47","The main experiment item","yes","SternbergTask.osexp","C:\Users\User\Desktop\Quant 2020\Sternberg Task 3","no","mono","no","18","no","white","no","yes","768","legacy","81","11","C:/Users/User/Desktop/Quant 2020/Sternberg Task 3/VT-subject-2.csv","legacy","5 9 2 3","Lentiform Loewenfeld","3.3.3","0","n","yes","0","right","left","NA","right","right","784","60294","NA","6200","784","2","legacy","4","1024","2","48000","-16","experiment","2","even","8","638242","2365","62660","NA","634881","2361","143328","636028","636030","392743","137127","640249","641035","637036","640249","Sternberg Task","88","65993","94","yes","1024"
"93.6842105263","93.6842105263","701.263157895","701.263157895","black","experiment","legacy","legacy","legacy","0","uniform","1","undefined","1","right","94","0","0","0","94","0","0","94","94","94","0","94","94","94","94","10/25/20 17:50:47","The main experiment item","yes","SternbergTask.osexp","C:\Users\User\Desktop\Quant 2020\Sternberg Task 3","no","mono","no","18","no","white","no","yes","768","legacy","82","11","C:/Users/User/Desktop/Quant 2020/Sternberg Task 3/VT-subject-2.csv","legacy","8 6 3 4 7","Lentiform Loewenfeld","3.3.3","0","n","yes","0","right","left","NA","right","right","627","60294","NA","6200","627","2","legacy","5","1024","2","48000","-16","experiment","2","even","1","644394","2365","62660","NA","641040","2361","143328","642179","642182","392743","137127","646400","647029","643187","646399","Sternberg Task","89","66620","95","yes","1024"
"93.75","93.75","702.1875","702.1875","black","experiment","legacy","legacy","legacy","0","uniform","1","undefined","1","left","95","0","0","0","95","0","0","95","95","95","0","95","95","95","95","10/25/20 17:50:47","The main experiment item","yes","SternbergTask.osexp","C:\Users\User\Desktop\Quant 2020\Sternberg Task 3","no","mono","no","18","no","white","no","yes","768","legacy","83","11","C:/Users/User/Desktop/Quant 2020/Sternberg Task 3/VT-subject-2.csv","legacy","7 4 2 6 3 5","Lentiform Loewenfeld","3.3.3","6","y","yes","0","left","left","NA","right","left","790","60294","NA","6200","790","2","legacy","6","1024","2","48000","-16","experiment","2","even","5","650389","2365","62660","NA","647034","2361","143328","648175","648177","392743","137127","652395","653187","649182","652395","Sternberg Task","90","67410","96","yes","1024"
"92.7835051546","92.7835051546","702.195876289","702.195876289","black","experiment","legacy","legacy","legacy","0","uniform","0","undefined","0","left","96","0","0","0","96","0","0","96","96","96","0","96","96","96","96","10/25/20 17:50:47","The main experiment item","yes","SternbergTask.osexp","C:\Users\User\Desktop\Quant 2020\Sternberg Task 3","no","mono","no","18","no","white","no","yes","768","legacy","84","11","C:/Users/User/Desktop/Quant 2020/Sternberg Task 3/VT-subject-2.csv","legacy","6 8 9 3 4 9","Lentiform Loewenfeld","3.3.3","5","y","yes","0","right","left","NA","right","right","703","60294","NA","6200","703","2","legacy","6","1024","2","48000","-16","experiment","2","even","4","656549","2365","62660","NA","653193","2361","143328","654334","654337","392743","137127","658556","659260","655343","658556","Sternberg Task","90","68113","97","yes","1024"
"92.8571428571","92.8571428571","701.071428571","701.071428571","black","experiment","legacy","legacy","legacy","0","uniform","1","undefined","1","right","97","0","0","0","97","0","0","97","97","97","0","97","97","97","97","10/25/20 17:50:47","The main experiment item","yes","SternbergTask.osexp","C:\Users\User\Desktop\Quant 2020\Sternberg Task 3","no","mono","no","18","no","white","no","yes","768","legacy","85","11","C:/Users/User/Desktop/Quant 2020/Sternberg Task 3/VT-subject-2.csv","legacy","3 9 1","Lentiform Loewenfeld","3.3.3","0","n","yes","0","right","left","NA","right","right","592","60294","NA","6200","592","2","legacy","3","1024","2","48000","-16","experiment","2","even","7","662618","2365","62660","NA","653193","2361","143328","660401","660404","659266","137127","664624","665218","661411","664623","Sternberg Task","91","68705","98","yes","1024"
"92.9292929293","92.9292929293","701.02020202","701.02020202","black","experiment","legacy","legacy","legacy","0","uniform","1","undefined","1","right","98","0","0","0","98","0","0","98","98","98","0","98","98","98","98","10/25/20 17:50:47","The main experiment item","yes","SternbergTask.osexp","C:\Users\User\Desktop\Quant 2020\Sternberg Task 3","no","mono","no","18","no","white","no","yes","768","legacy","86","11","C:/Users/User/Desktop/Quant 2020/Sternberg Task 3/VT-subject-2.csv","legacy","1 7 8 3 9","Lentiform Loewenfeld","3.3.3","0","n","yes","0","right","left","NA","right","right","696","60294","NA","6200","696","2","legacy","5","1024","2","48000","-16","experiment","2","even","2","668573","2365","62660","NA","665223","2361","143328","666359","666361","659266","137127","670579","671277","667367","670579","Sternberg Task","92","69401","99","yes","1024"
"93","93","700.34","700.34","black","experiment","legacy","legacy","legacy","0","uniform","1","undefined","1","right","99","0","0","0","99","0","0","99","99","99","0","99","99","99","99","10/25/20 17:50:47","The main experiment item","yes","SternbergTask.osexp","C:\Users\User\Desktop\Quant 2020\Sternberg Task 3","no","mono","no","18","no","white","no","yes","768","legacy","87","11","C:/Users/User/Desktop/Quant 2020/Sternberg Task 3/VT-subject-2.csv","legacy","1 7 5 2","Lentiform Loewenfeld","3.3.3","0","n","yes","0","right","left","NA","right","right","633","60294","NA","6200","633","2","legacy","4","1024","2","48000","-16","experiment","2","even","3","674633","2365","62660","NA","671282","2361","143328","672418","672420","659266","137127","676639","677274","673427","676639","Sternberg Task","93","70034","100","yes","1024"
"93.0693069307","93.0693069307","700.594059406","700.594059406","black","experiment","legacy","legacy","legacy","0","uniform","1","undefined","1","right","100","0","0","0","100","0","0","100","100","100","0","100","100","100","100","10/25/20 17:50:47","The main experiment item","yes","SternbergTask.osexp","C:\Users\User\Desktop\Quant 2020\Sternberg Task 3","no","mono","no","18","no","white","no","yes","768","legacy","88","11","C:/Users/User/Desktop/Quant 2020/Sternberg Task 3/VT-subject-2.csv","legacy","2 5 1 4","Lentiform Loewenfeld","3.3.3","0","n","yes","0","right","left","NA","right","right","726","60294","NA","6200","726","2","legacy","4","1024","2","48000","-16","experiment","2","even","6","680631","2365","62660","NA","677279","2361","143328","678417","678419","659266","137127","682638","683365","679425","682638","Sternberg Task","94","70760","101","yes","1024"
"93.137254902","93.137254902","698.519607843","698.519607843","black","experiment","legacy","legacy","legacy","0","uniform","1","undefined","1","left","101","0","0","0","101","0","0","101","101","101","0","101","101","101","101","10/25/20 17:50:47","The main experiment item","yes","SternbergTask.osexp","C:\Users\User\Desktop\Quant 2020\Sternberg Task 3","no","mono","no","18","no","white","no","yes","768","legacy","89","11","C:/Users/User/Desktop/Quant 2020/Sternberg Task 3/VT-subject-2.csv","legacy","7","Lentiform Loewenfeld","3.3.3","1","y","yes","0","left","left","NA","right","left","489","60294","NA","6200","489","2","legacy","1","1024","2","48000","-16","experiment","2","even","7","686725","2365","62660","NA","683371","2361","143328","684510","684512","659266","137127","688730","689220","685518","688729","Sternberg Task","95","71249","102","yes","1024"
"93.2038834951","93.2038834951","698.13592233","698.13592233","black","experiment","legacy","legacy","legacy","0","uniform","1","undefined","1","right","102","0","0","0","102","0","0","102","102","102","0","102","102","102","102","10/25/20 17:50:47","The main experiment item","yes","SternbergTask.osexp","C:\Users\User\Desktop\Quant 2020\Sternberg Task 3","no","mono","no","18","no","white","no","yes","768","legacy","90","11","C:/Users/User/Desktop/Quant 2020/Sternberg Task 3/VT-subject-2.csv","legacy","6 2 9 3 8 4","Lentiform Loewenfeld","3.3.3","0","n","yes","0","right","left","NA","right","right","659","60294","NA","6200","659","2","legacy","6","1024","2","48000","-16","experiment","2","even","1","692575","2365","62660","NA","689226","2361","143328","690360","690363","659266","137127","694582","695243","691369","694582","Sternberg Task","96","71908","103","yes","1024"
"93.2692307692","93.2692307692","698","698","black","experiment","legacy","legacy","legacy","0","uniform","1","undefined","1","right","103","0","0","0","103","0","0","103","103","103","0","103","103","103","103","10/25/20 17:50:47","The main experiment item","yes","SternbergTask.osexp","C:\Users\User\Desktop\Quant 2020\Sternberg Task 3","no","mono","no","18","no","white","no","yes","768","legacy","91","11","C:/Users/User/Desktop/Quant 2020/Sternberg Task 3/VT-subject-2.csv","legacy","1 3 2 6 9","Lentiform Loewenfeld","3.3.3","0","n","yes","0","right","left","NA","right","right","684","60294","NA","6200","684","2","legacy","5","1024","2","48000","-16","experiment","2","even","5","698601","2365","62660","NA","695249","2361","143328","696387","696390","659266","137127","700609","701295","697395","700608","Sternberg Task","97","72592","104","yes","1024"
"93.3333333333","93.3333333333","697.247619048","697.247619048","black","experiment","legacy","legacy","legacy","0","uniform","1","undefined","1","right","104","0","0","0","104","0","0","104","104","104","0","104","104","104","104","10/25/20 17:50:47","The main experiment item","yes","SternbergTask.osexp","C:\Users\User\Desktop\Quant 2020\Sternberg Task 3","no","mono","no","18","no","white","no","yes","768","legacy","92","11","C:/Users/User/Desktop/Quant 2020/Sternberg Task 3/VT-subject-2.csv","legacy","9 7 4 5 8","Lentiform Loewenfeld","3.3.3","0","n","yes","0","right","left","NA","right","right","619","60294","NA","6200","619","2","legacy","5","1024","2","48000","-16","experiment","2","even","6","704662","2365","62660","NA","701300","2361","143328","702447","702449","659266","137127","706668","707289","703456","706668","Sternberg Task","98","73211","105","yes","1024"
"93.3962264151","93.3962264151","696.613207547","696.613207547","black","experiment","legacy","legacy","legacy","0","uniform","1","undefined","1","right","105","0","0","0","105","0","0","105","105","105","0","105","105","105","105","10/25/20 17:50:47","The main experiment item","yes","SternbergTask.osexp","C:\Users\User\Desktop\Quant 2020\Sternberg Task 3","no","mono","no","18","no","white","no","yes","768","legacy","93","11","C:/Users/User/Desktop/Quant 2020/Sternberg Task 3/VT-subject-2.csv","legacy","1 7 5 2 9","Lentiform Loewenfeld","3.3.3","0","n","yes","0","right","left","NA","right","right","630","60294","NA","6200","630","2","legacy","5","1024","2","48000","-16","experiment","2","even","3","710646","2365","62660","NA","707294","2361","143328","708431","708434","659266","137127","712652","713284","709440","712652","Sternberg Task","99","73841","106","yes","1024"
"93.4579439252","93.4579439252","697.102803738","697.102803738","black","experiment","legacy","legacy","legacy","0","uniform","1","undefined","1","left","106","0","0","0","106","0","0","106","106","106","0","106","106","106","106","10/25/20 17:50:47","The main experiment item","yes","SternbergTask.osexp","C:\Users\User\Desktop\Quant 2020\Sternberg Task 3","no","mono","no","18","no","white","no","yes","768","legacy","94","11","C:/Users/User/Desktop/Quant 2020/Sternberg Task 3/VT-subject-2.csv","legacy","8 5 4 7 3 1","Lentiform Loewenfeld","3.3.3","2","y","yes","0","left","left","NA","right","left","749","60294","NA","6200","749","2","legacy","6","1024","2","48000","-16","experiment","2","even","5","716642","2365","62660","NA","713289","2361","143328","714426","714429","659266","137127","718649","719400","715435","718649","Sternberg Task","100","74590","107","yes","1024"
"93.5185185185","93.5185185185","696.509259259","696.509259259","black","experiment","legacy","legacy","legacy","0","uniform","1","undefined","1","right","107","0","0","0","107","0","0","107","107","107","0","107","107","107","107","10/25/20 17:50:47","The main experiment item","yes","SternbergTask.osexp","C:\Users\User\Desktop\Quant 2020\Sternberg Task 3","no","mono","no","18","no","white","no","yes","768","legacy","95","11","C:/Users/User/Desktop/Quant 2020/Sternberg Task 3/VT-subject-2.csv","legacy","7 1","Lentiform Loewenfeld","3.3.3","0","n","yes","0","right","left","NA","right","right","633","60294","NA","6200","633","2","legacy","2","1024","2","48000","-16","experiment","2","even","8","722759","2365","62660","NA","719405","2361","143328","720544","720547","659266","137127","724765","725400","721552","724765","Sternberg Task","101","75223","108","yes","1024"
"93.5779816514","93.5779816514","696.504587156","696.504587156","black","experiment","legacy","legacy","legacy","0","uniform","1","undefined","1","left","108","0","0","0","108","0","0","108","108","108","0","108","108","108","108","10/25/20 17:50:47","The main experiment item","yes","SternbergTask.osexp","C:\Users\User\Desktop\Quant 2020\Sternberg Task 3","no","mono","no","18","no","white","no","yes","768","legacy","96","11","C:/Users/User/Desktop/Quant 2020/Sternberg Task 3/VT-subject-2.csv","legacy","8 1 6","Lentiform Loewenfeld","3.3.3","3","y","yes","0","left","left","NA","right","left","696","60294","NA","6200","696","2","legacy","3","1024","2","48000","-16","experiment","2","even","6","728757","2365","62660","NA","725406","2361","143328","726542","726545","659266","137127","730764","731462","727551","730764","Sternberg Task","102","75919","109","yes","1024"
"93.6363636364","93.6363636364","698.9","698.9","black","experiment","legacy","legacy","legacy","0","uniform","1","undefined","1","left","109","0","0","0","109","0","0","109","109","109","0","109","109","109","109","10/25/20 17:50:47","The main experiment item","yes","SternbergTask.osexp","C:\Users\User\Desktop\Quant 2020\Sternberg Task 3","no","mono","no","18","no","white","no","yes","768","legacy","97","11","C:/Users/User/Desktop/Quant 2020/Sternberg Task 3/VT-subject-2.csv","legacy","9 3 1 2 5","Lentiform Loewenfeld","3.3.3","4","y","yes","0","left","left","NA","right","left","960","60294","NA","6200","960","2","legacy","5","1024","2","48000","-16","experiment","2","even","2","734815","2365","62660","NA","731468","2361","143328","732600","732603","659266","137127","736821","737783","733609","736820","Sternberg Task","103","76879","110","yes","1024"
"93.6936936937","93.6936936937","700.702702703","700.702702703","black","experiment","legacy","legacy","legacy","0","uniform","1","undefined","1","right","110","0","0","0","110","0","0","110","110","110","0","110","110","110","110","10/25/20 17:50:47","The main experiment item","yes","SternbergTask.osexp","C:\Users\User\Desktop\Quant 2020\Sternberg Task 3","no","mono","no","18","no","white","no","yes","768","legacy","98","11","C:/Users/User/Desktop/Quant 2020/Sternberg Task 3/VT-subject-2.csv","legacy","7 3 2 8","Lentiform Loewenfeld","3.3.3","0","n","yes","0","right","left","NA","right","right","899","60294","NA","6200","899","2","legacy","4","1024","2","48000","-16","experiment","2","even","4","741143","2365","62660","NA","737789","2361","143328","738928","738931","659266","137127","743150","744051","739937","743149","Sternberg Task","104","77778","111","yes","1024"
"93.75","93.75","701.125","701.125","black","experiment","legacy","legacy","legacy","0","uniform","1","undefined","1","left","111","0","0","0","111","0","0","111","111","111","0","111","111","111","111","10/25/20 17:50:47","The main experiment item","yes","SternbergTask.osexp","C:\Users\User\Desktop\Quant 2020\Sternberg Task 3","no","mono","no","18","no","white","no","yes","768","legacy","99","11","C:/Users/User/Desktop/Quant 2020/Sternberg Task 3/VT-subject-2.csv","legacy","5 2 9 6 1 7","Lentiform Loewenfeld","3.3.3","3","y","yes","0","left","left","NA","right","left","748","60294","NA","6200","748","2","legacy","6","1024","2","48000","-16","experiment","2","even","9","747418","2365","62660","NA","744056","2361","143328","745203","745205","659266","137127","749425","750175","746213","749425","Sternberg Task","105","78526","112","yes","1024"
"93.8053097345","93.8053097345","699.044247788","699.044247788","black","experiment","legacy","legacy","legacy","0","uniform","1","undefined","1","left","112","0","0","0","112","0","0","112","112","112","0","112","112","112","112","10/25/20 17:50:47","The main experiment item","yes","SternbergTask.osexp","C:\Users\User\Desktop\Quant 2020\Sternberg Task 3","no","mono","no","18","no","white","no","yes","768","legacy","100","11","C:/Users/User/Desktop/Quant 2020/Sternberg Task 3/VT-subject-2.csv","legacy","4","Lentiform Loewenfeld","3.3.3","1","y","yes","0","left","left","NA","right","left","466","60294","NA","6200","466","2","legacy","1","1024","2","48000","-16","experiment","2","even","4","753531","2365","62660","NA","750181","2361","143328","751317","751319","659266","137127","755537","756005","752324","755537","Sternberg Task","106","78992","113","yes","1024"
"93.8596491228","93.8596491228","698.578947368","698.578947368","black","experiment","legacy","legacy","legacy","0","uniform","1","undefined","1","right","113","0","0","0","113","0","0","113","113","113","0","113","113","113","113","10/25/20 17:50:47","The main experiment item","yes","SternbergTask.osexp","C:\Users\User\Desktop\Quant 2020\Sternberg Task 3","no","mono","no","18","no","white","no","yes","768","legacy","101","11","C:/Users/User/Desktop/Quant 2020/Sternberg Task 3/VT-subject-2.csv","legacy","9 8 2 7 4","Lentiform Loewenfeld","3.3.3","0","n","yes","0","right","left","NA","right","right","646","60294","NA","6200","646","2","legacy","5","1024","2","48000","-16","experiment","2","even","5","759364","2365","62660","NA","756010","2361","143328","757149","757152","659266","137127","761371","762019","758157","761370","Sternberg Task","107","79638","114","yes","1024"
