"acc","accuracy","average_response_time","avg_rt","background","block","canvas_backend","clock_backend","color_backend","compensation","coordinates","correct","correct_instruction1","correct_keyboard_response","correct_response","count_Fixation","count_IncorrectFeedback","count_Instructions2","count_MemSet","count_ThankYou","count_correctfeedback","count_expLoop","count_expSequence","count_experiment","count_instruction1","count_isi","count_keyboard_response","count_logger","count_practiceLoop","count_probe","datetime","description","disable_garbage_collection","experiment_file","experiment_path","font_bold","font_family","font_italic","font_size","font_underline","foreground","form_clicks","fullscreen","height","keyboard_backend","live_row","live_row_practiceLoop","logfile","mouse_backend","numberSet","opensesame_codename","opensesame_version","posInSet","present","repeat_cycle","response","response_Instructions2","response_ThankYou","response_instruction1","response_keyboard_response","response_time","response_time_Instructions2","response_time_ThankYou","response_time_instruction1","response_time_keyboard_response","round_decimals","sampler_backend","setSize","sound_buf_size","sound_channels","sound_freq","sound_sample_size","start","subject_nr","subject_parity","target","time_Fixation","time_IncorrectFeedback","time_Instructions2","time_MemSet","time_ThankYou","time_correctfeedback","time_expLoop","time_expSequence","time_experiment","time_instruction1","time_isi","time_keyboard_response","time_logger","time_practiceLoop","time_probe","title","total_correct","total_response_time","total_responses","uniform_coordinates","width"
"100","100","656","656","black","practice","legacy","legacy","legacy","0","uniform","1","undefined","1","left","0","0","0","0","0","0","0","0","0","0","0","0","0","0","0","Wed Oct 21 16:59:45 2020","The main experiment item","yes","Sternbergtask.osexp","C:\Users\chris\OneDrive\Desktop\Advanced Quanitative Methods and Design\lab 3\3","no","mono","no","18","no","white","no","yes","768","legacy","0","0","C:/Users/chris/OneDrive/Desktop/Advanced Quanitative Methods and Design/lab 3/3/CM-subject-4.csv","legacy","4 3 1 7 9 8","Lentiform Loewenfeld","3.3.3","1","y","0","left","NA","NA","down","left","656","NA","NA","410","656","2","legacy","6","1024","2","48000","-16","experiment","4","even","4","3195","NA","NA","4197","NA","NA","NA","3193","2115","2118","5399","7401","8058","2529","7401","Sternberg task","1","656","1","yes","1024"
"100","100","719.5","719.5","black","practice","legacy","legacy","legacy","0","uniform","1","undefined","1","left","1","1","0","1","0","1","0","1","0","0","1","1","1","0","1","Wed Oct 21 16:59:45 2020","The main experiment item","yes","Sternbergtask.osexp","C:\Users\chris\OneDrive\Desktop\Advanced Quanitative Methods and Design\lab 3\3","no","mono","no","18","no","white","no","yes","768","legacy","1","1","C:/Users/chris/OneDrive/Desktop/Advanced Quanitative Methods and Design/lab 3/3/CM-subject-4.csv","legacy","1 7 9 8 5","Lentiform Loewenfeld","3.3.3","4","y","0","left","NA","NA","down","left","783","NA","NA","410","783","2","legacy","5","1024","2","48000","-16","experiment","4","even","8","9242","NA","NA","10244","NA","8122","NA","9239","2115","2118","11446","13448","14232","2529","13448","Sternberg task","2","1439","2","yes","1024"
"100","100","799","799","black","practice","legacy","legacy","legacy","0","uniform","1","undefined","1","left","2","2","0","2","0","2","0","2","0","0","2","2","2","0","2","Wed Oct 21 16:59:45 2020","The main experiment item","yes","Sternbergtask.osexp","C:\Users\chris\OneDrive\Desktop\Advanced Quanitative Methods and Design\lab 3\3","no","mono","no","18","no","white","no","yes","768","legacy","2","2","C:/Users/chris/OneDrive/Desktop/Advanced Quanitative Methods and Design/lab 3/3/CM-subject-4.csv","legacy","1 5 2 9","Lentiform Loewenfeld","3.3.3","2","y","0","left","NA","NA","down","left","958","NA","NA","410","958","2","legacy","4","1024","2","48000","-16","experiment","4","even","5","15345","NA","NA","16347","NA","14236","NA","15343","2115","2118","17549","19551","20509","2529","19551","Sternberg task","3","2397","3","yes","1024"
"100","100","765.5","765.5","black","practice","legacy","legacy","legacy","0","uniform","1","undefined","1","right","3","3","0","3","0","3","0","3","0","0","3","3","3","0","3","Wed Oct 21 16:59:45 2020","The main experiment item","yes","Sternbergtask.osexp","C:\Users\chris\OneDrive\Desktop\Advanced Quanitative Methods and Design\lab 3\3","no","mono","no","18","no","white","no","yes","768","legacy","3","3","C:/Users/chris/OneDrive/Desktop/Advanced Quanitative Methods and Design/lab 3/3/CM-subject-4.csv","legacy","2 1","Lentiform Loewenfeld","3.3.3","0","n","0","right","NA","NA","down","right","665","NA","NA","410","665","2","legacy","2","1024","2","48000","-16","experiment","4","even","5","21622","NA","NA","22624","NA","20515","NA","21620","2115","2118","23829","25834","26499","2529","25834","Sternberg task","4","3062","4","yes","1024"
"100","100","746.8","746.8","black","practice","legacy","legacy","legacy","0","uniform","1","undefined","1","right","4","4","0","4","0","4","0","4","0","0","4","4","4","0","4","Wed Oct 21 16:59:45 2020","The main experiment item","yes","Sternbergtask.osexp","C:\Users\chris\OneDrive\Desktop\Advanced Quanitative Methods and Design\lab 3\3","no","mono","no","18","no","white","no","yes","768","legacy","4","4","C:/Users/chris/OneDrive/Desktop/Advanced Quanitative Methods and Design/lab 3/3/CM-subject-4.csv","legacy","9 6 7 4 5","Lentiform Loewenfeld","3.3.3","0","n","0","right","NA","NA","down","right","672","NA","NA","410","672","2","legacy","5","1024","2","48000","-16","experiment","4","even","3","27658","NA","NA","28663","NA","26510","NA","27656","2115","2118","29868","31873","32545","2529","31873","Sternberg task","5","3734","5","yes","1024"
"100","100","791","791","black","practice","legacy","legacy","legacy","0","uniform","1","undefined","1","right","5","5","0","5","0","5","0","5","0","0","5","5","5","0","5","Wed Oct 21 16:59:45 2020","The main experiment item","yes","Sternbergtask.osexp","C:\Users\chris\OneDrive\Desktop\Advanced Quanitative Methods and Design\lab 3\3","no","mono","no","18","no","white","no","yes","768","legacy","5","5","C:/Users/chris/OneDrive/Desktop/Advanced Quanitative Methods and Design/lab 3/3/CM-subject-4.csv","legacy","5","Lentiform Loewenfeld","3.3.3","0","n","0","right","NA","NA","down","right","1012","NA","NA","410","1012","2","legacy","1","1024","2","48000","-16","experiment","4","even","3","33692","NA","NA","34697","NA","32549","NA","33690","2115","2118","35902","37907","38919","2529","37907","Sternberg task","6","4746","6","yes","1024"
"100","100","752.2857142857143","752.2857142857143","black","practice","legacy","legacy","legacy","0","uniform","1","undefined","1","left","6","6","0","6","0","6","0","6","0","0","6","6","6","0","6","Wed Oct 21 16:59:45 2020","The main experiment item","yes","Sternbergtask.osexp","C:\Users\chris\OneDrive\Desktop\Advanced Quanitative Methods and Design\lab 3\3","no","mono","no","18","no","white","no","yes","768","legacy","6","6","C:/Users/chris/OneDrive/Desktop/Advanced Quanitative Methods and Design/lab 3/3/CM-subject-4.csv","legacy","4 8","Lentiform Loewenfeld","3.3.3","1","y","0","left","NA","NA","down","left","520","NA","NA","410","520","2","legacy","2","1024","2","48000","-16","experiment","4","even","4","40058","NA","NA","41063","NA","38923","NA","40056","2115","2118","42268","44273","44793","2529","44273","Sternberg task","7","5266","7","yes","1024"
"100","100","757","757","black","practice","legacy","legacy","legacy","0","uniform","1","undefined","1","right","7","7","0","7","0","7","0","7","0","0","7","7","7","0","7","Wed Oct 21 16:59:45 2020","The main experiment item","yes","Sternbergtask.osexp","C:\Users\chris\OneDrive\Desktop\Advanced Quanitative Methods and Design\lab 3\3","no","mono","no","18","no","white","no","yes","768","legacy","7","7","C:/Users/chris/OneDrive/Desktop/Advanced Quanitative Methods and Design/lab 3/3/CM-subject-4.csv","legacy","4 1 5","Lentiform Loewenfeld","3.3.3","0","n","0","right","NA","NA","down","right","790","NA","NA","410","790","2","legacy","3","1024","2","48000","-16","experiment","4","even","2","45937","NA","NA","46942","NA","44804","NA","45935","2115","2118","48147","50152","50943","2529","50152","Sternberg task","8","6056","8","yes","1024"
"100","100","765.1111111111111","765.1111111111111","black","practice","legacy","legacy","legacy","0","uniform","1","undefined","1","right","8","8","0","8","0","8","0","8","0","0","8","8","8","0","8","Wed Oct 21 16:59:45 2020","The main experiment item","yes","Sternbergtask.osexp","C:\Users\chris\OneDrive\Desktop\Advanced Quanitative Methods and Design\lab 3\3","no","mono","no","18","no","white","no","yes","768","legacy","8","8","C:/Users/chris/OneDrive/Desktop/Advanced Quanitative Methods and Design/lab 3/3/CM-subject-4.csv","legacy","3 1 9 4","Lentiform Loewenfeld","3.3.3","0","n","0","right","NA","NA","down","right","830","NA","NA","410","830","2","legacy","4","1024","2","48000","-16","experiment","4","even","6","52087","NA","NA","53093","NA","50952","NA","52085","2115","2118","54298","56303","57133","2529","56303","Sternberg task","9","6886","9","yes","1024"
"100","100","775","775","black","practice","legacy","legacy","legacy","0","uniform","1","undefined","1","left","9","9","0","9","0","9","0","9","0","0","9","9","9","0","9","Wed Oct 21 16:59:45 2020","The main experiment item","yes","Sternbergtask.osexp","C:\Users\chris\OneDrive\Desktop\Advanced Quanitative Methods and Design\lab 3\3","no","mono","no","18","no","white","no","yes","768","legacy","9","9","C:/Users/chris/OneDrive/Desktop/Advanced Quanitative Methods and Design/lab 3/3/CM-subject-4.csv","legacy","2 9 4","Lentiform Loewenfeld","3.3.3","3","y","0","left","NA","NA","down","left","864","NA","NA","410","864","2","legacy","3","1024","2","48000","-16","experiment","4","even","4","58270","NA","NA","59275","NA","57140","NA","58268","2115","2118","60480","62485","63350","2529","62485","Sternberg task","10","7750","10","yes","1024"
"90.9090909090909","90.9090909090909","809.4545454545455","809.4545454545455","black","practice","legacy","legacy","legacy","0","uniform","0","undefined","0","right","10","10","0","10","0","10","0","10","0","0","10","10","10","0","10","Wed Oct 21 16:59:45 2020","The main experiment item","yes","Sternbergtask.osexp","C:\Users\chris\OneDrive\Desktop\Advanced Quanitative Methods and Design\lab 3\3","no","mono","no","18","no","white","no","yes","768","legacy","10","10","C:/Users/chris/OneDrive/Desktop/Advanced Quanitative Methods and Design/lab 3/3/CM-subject-4.csv","legacy","5 7 8 4 1 2","Lentiform Loewenfeld","3.3.3","0","n","0","left","NA","NA","down","left","1154","NA","NA","410","1154","2","legacy","6","1024","2","48000","-16","experiment","4","even","6","64483","NA","NA","65488","NA","63353","NA","64482","2115","2118","66693","68698","69852","2529","68698","Sternberg task","10","8904","11","yes","1024"
"91.66666666666667","91.66666666666667","777","777","black","practice","legacy","legacy","legacy","0","uniform","1","undefined","1","left","11","11","0","11","0","11","0","11","0","0","11","11","11","0","11","Wed Oct 21 16:59:45 2020","The main experiment item","yes","Sternbergtask.osexp","C:\Users\chris\OneDrive\Desktop\Advanced Quanitative Methods and Design\lab 3\3","no","mono","no","18","no","white","no","yes","768","legacy","11","11","C:/Users/chris/OneDrive/Desktop/Advanced Quanitative Methods and Design/lab 3/3/CM-subject-4.csv","legacy","6","Lentiform Loewenfeld","3.3.3","1","y","0","left","NA","NA","down","left","420","NA","NA","410","420","2","legacy","1","1024","2","48000","-16","experiment","4","even","6","71005","69860","NA","72010","NA","63353","NA","71003","2115","2118","73215","75221","75642","2529","75220","Sternberg task","11","9324","12","yes","1024"
"92.3076923076923","92.3076923076923","762.3846153846154","762.3846153846154","black","experiment","legacy","legacy","legacy","0","uniform","1","undefined","1","left","12","12","0","12","0","12","0","12","0","0","12","12","12","0","12","Wed Oct 21 16:59:45 2020","The main experiment item","yes","Sternbergtask.osexp","C:\Users\chris\OneDrive\Desktop\Advanced Quanitative Methods and Design\lab 3\3","no","mono","no","18","no","white","no","yes","768","legacy","0","11","C:/Users/chris/OneDrive/Desktop/Advanced Quanitative Methods and Design/lab 3/3/CM-subject-4.csv","legacy","3 4","Lentiform Loewenfeld","3.3.3","1","y","0","left","right","NA","down","left","587","831","NA","410","587","2","legacy","2","1024","2","48000","-16","experiment","4","even","3","77674","69860","76702","78679","NA","75646","77533","77672","2115","2118","79884","81889","82477","2529","81889","Sternberg task","12","9911","13","yes","1024"
"92.85714285714286","92.85714285714286","752.5","752.5","black","experiment","legacy","legacy","legacy","0","uniform","1","undefined","1","right","13","13","0","13","0","13","0","13","0","0","13","13","13","0","13","Wed Oct 21 16:59:45 2020","The main experiment item","yes","Sternbergtask.osexp","C:\Users\chris\OneDrive\Desktop\Advanced Quanitative Methods and Design\lab 3\3","no","mono","no","18","no","white","no","yes","768","legacy","1","11","C:/Users/chris/OneDrive/Desktop/Advanced Quanitative Methods and Design/lab 3/3/CM-subject-4.csv","legacy","5 9 2 3","Lentiform Loewenfeld","3.3.3","0","n","0","right","right","NA","down","right","624","831","NA","410","624","2","legacy","4","1024","2","48000","-16","experiment","4","even","8","83629","69860","76702","84634","NA","82481","77533","83627","2115","2118","85839","87845","88469","2529","87845","Sternberg task","13","10535","14","yes","1024"
"93.33333333333333","93.33333333333333","809.5333333333333","809.5333333333333","black","experiment","legacy","legacy","legacy","0","uniform","1","undefined","1","right","14","14","0","14","0","14","0","14","0","0","14","14","14","0","14","Wed Oct 21 16:59:45 2020","The main experiment item","yes","Sternbergtask.osexp","C:\Users\chris\OneDrive\Desktop\Advanced Quanitative Methods and Design\lab 3\3","no","mono","no","18","no","white","no","yes","768","legacy","2","11","C:/Users/chris/OneDrive/Desktop/Advanced Quanitative Methods and Design/lab 3/3/CM-subject-4.csv","legacy","5 3 8 7 2 4","Lentiform Loewenfeld","3.3.3","0","n","0","right","right","NA","down","right","1608","831","NA","410","1608","2","legacy","6","1024","2","48000","-16","experiment","4","even","9","89627","69860","76702","90632","NA","88474","77533","89625","2115","2118","91837","93842","95450","2529","93842","Sternberg task","14","12143","15","yes","1024"
"93.75","93.75","805.3125","805.3125","black","experiment","legacy","legacy","legacy","0","uniform","1","undefined","1","left","15","15","0","15","0","15","0","15","0","0","15","15","15","0","15","Wed Oct 21 16:59:45 2020","The main experiment item","yes","Sternbergtask.osexp","C:\Users\chris\OneDrive\Desktop\Advanced Quanitative Methods and Design\lab 3\3","no","mono","no","18","no","white","no","yes","768","legacy","3","11","C:/Users/chris/OneDrive/Desktop/Advanced Quanitative Methods and Design/lab 3/3/CM-subject-4.csv","legacy","8 7 3","Lentiform Loewenfeld","3.3.3","1","y","0","left","right","NA","down","left","742","831","NA","410","742","2","legacy","3","1024","2","48000","-16","experiment","4","even","8","96598","69860","76702","97603","NA","95453","77533","96596","2115","2118","98808","100813","101556","2529","100813","Sternberg task","15","12885","16","yes","1024"
"94.11764705882354","94.11764705882354","824.7647058823529","824.7647058823529","black","experiment","legacy","legacy","legacy","0","uniform","1","undefined","1","right","16","16","0","16","0","16","0","16","0","0","16","16","16","0","16","Wed Oct 21 16:59:45 2020","The main experiment item","yes","Sternbergtask.osexp","C:\Users\chris\OneDrive\Desktop\Advanced Quanitative Methods and Design\lab 3\3","no","mono","no","18","no","white","no","yes","768","legacy","4","11","C:/Users/chris/OneDrive/Desktop/Advanced Quanitative Methods and Design/lab 3/3/CM-subject-4.csv","legacy","3 9 1","Lentiform Loewenfeld","3.3.3","0","n","0","right","right","NA","down","right","1136","831","NA","410","1136","2","legacy","3","1024","2","48000","-16","experiment","4","even","7","102697","69860","76702","103702","NA","101562","77533","102695","2115","2118","104907","106912","108049","2529","106912","Sternberg task","16","14021","17","yes","1024"
"94.44444444444444","94.44444444444444","820.1111111111111","820.1111111111111","black","experiment","legacy","legacy","legacy","0","uniform","1","undefined","1","right","17","17","0","17","0","17","0","17","0","0","17","17","17","0","17","Wed Oct 21 16:59:45 2020","The main experiment item","yes","Sternbergtask.osexp","C:\Users\chris\OneDrive\Desktop\Advanced Quanitative Methods and Design\lab 3\3","no","mono","no","18","no","white","no","yes","768","legacy","5","11","C:/Users/chris/OneDrive/Desktop/Advanced Quanitative Methods and Design/lab 3/3/CM-subject-4.csv","legacy","2 8 9","Lentiform Loewenfeld","3.3.3","0","n","0","right","right","NA","down","right","741","831","NA","410","741","2","legacy","3","1024","2","48000","-16","experiment","4","even","6","109198","69860","76702","110203","NA","108055","77533","109195","2115","2118","111408","113413","114155","2529","113413","Sternberg task","17","14762","18","yes","1024"
"94.73684210526316","94.73684210526316","815.3157894736842","815.3157894736842","black","experiment","legacy","legacy","legacy","0","uniform","1","undefined","1","right","18","18","0","18","0","18","0","18","0","0","18","18","18","0","18","Wed Oct 21 16:59:45 2020","The main experiment item","yes","Sternbergtask.osexp","C:\Users\chris\OneDrive\Desktop\Advanced Quanitative Methods and Design\lab 3\3","no","mono","no","18","no","white","no","yes","768","legacy","6","11","C:/Users/chris/OneDrive/Desktop/Advanced Quanitative Methods and Design/lab 3/3/CM-subject-4.csv","legacy","3 4 9 6 7 8","Lentiform Loewenfeld","3.3.3","0","n","0","right","right","NA","down","right","729","831","NA","410","729","2","legacy","6","1024","2","48000","-16","experiment","4","even","2","115299","69860","76702","116304","NA","114161","77533","115297","2115","2118","117509","119514","120245","2529","119514","Sternberg task","18","15491","19","yes","1024"
"95","95","825.7","825.7","black","experiment","legacy","legacy","legacy","0","uniform","1","undefined","1","right","19","19","0","19","0","19","0","19","0","0","19","19","19","0","19","Wed Oct 21 16:59:45 2020","The main experiment item","yes","Sternbergtask.osexp","C:\Users\chris\OneDrive\Desktop\Advanced Quanitative Methods and Design\lab 3\3","no","mono","no","18","no","white","no","yes","768","legacy","7","11","C:/Users/chris/OneDrive/Desktop/Advanced Quanitative Methods and Design/lab 3/3/CM-subject-4.csv","legacy","7 1 8 4 9 3","Lentiform Loewenfeld","3.3.3","0","n","0","right","right","NA","down","right","1023","831","NA","410","1023","2","legacy","6","1024","2","48000","-16","experiment","4","even","6","121388","69860","76702","122393","NA","120255","77533","121386","2115","2118","123598","125603","126627","2529","125603","Sternberg task","19","16514","20","yes","1024"
"90.47619047619048","90.47619047619048","856.3333333333334","856.3333333333334","black","experiment","legacy","legacy","legacy","0","uniform","0","undefined","0","left","20","20","0","20","0","20","0","20","0","0","20","20","20","0","20","Wed Oct 21 16:59:45 2020","The main experiment item","yes","Sternbergtask.osexp","C:\Users\chris\OneDrive\Desktop\Advanced Quanitative Methods and Design\lab 3\3","no","mono","no","18","no","white","no","yes","768","legacy","8","11","C:/Users/chris/OneDrive/Desktop/Advanced Quanitative Methods and Design/lab 3/3/CM-subject-4.csv","legacy","3 4 9 6 2 9","Lentiform Loewenfeld","3.3.3","5","y","0","right","right","NA","down","right","1469","831","NA","410","1469","2","legacy","6","1024","2","48000","-16","experiment","4","even","2","127772","69860","76702","128777","NA","126631","77533","127770","2115","2118","129982","131988","133459","2529","131988","Sternberg task","19","17983","21","yes","1024"
"90.9090909090909","90.9090909090909","843.2272727272727","843.2272727272727","black","experiment","legacy","legacy","legacy","0","uniform","1","undefined","1","left","21","21","0","21","0","21","0","21","0","0","21","21","21","0","21","Wed Oct 21 16:59:45 2020","The main experiment item","yes","Sternbergtask.osexp","C:\Users\chris\OneDrive\Desktop\Advanced Quanitative Methods and Design\lab 3\3","no","mono","no","18","no","white","no","yes","768","legacy","9","11","C:/Users/chris/OneDrive/Desktop/Advanced Quanitative Methods and Design/lab 3/3/CM-subject-4.csv","legacy","9 4 2","Lentiform Loewenfeld","3.3.3","1","y","0","left","right","NA","down","left","568","831","NA","410","568","2","legacy","3","1024","2","48000","-16","experiment","4","even","9","134614","133470","76702","135619","NA","126631","77533","134612","2115","2118","136824","138829","139398","2529","138829","Sternberg task","20","18551","22","yes","1024"
"91.30434782608695","91.30434782608695","867.1304347826087","867.1304347826087","black","experiment","legacy","legacy","legacy","0","uniform","1","undefined","1","right","22","22","0","22","0","22","0","22","0","0","22","22","22","0","22","Wed Oct 21 16:59:45 2020","The main experiment item","yes","Sternbergtask.osexp","C:\Users\chris\OneDrive\Desktop\Advanced Quanitative Methods and Design\lab 3\3","no","mono","no","18","no","white","no","yes","768","legacy","10","11","C:/Users/chris/OneDrive/Desktop/Advanced Quanitative Methods and Design/lab 3/3/CM-subject-4.csv","legacy","5 7 3","Lentiform Loewenfeld","3.3.3","0","n","0","right","right","NA","down","right","1393","831","NA","410","1393","2","legacy","3","1024","2","48000","-16","experiment","4","even","9","140567","133470","76702","141572","NA","139404","77533","140565","2115","2118","142777","144782","146175","2529","144782","Sternberg task","21","19944","23","yes","1024"
"87.5","87.5","863.1666666666666","863.1666666666666","black","experiment","legacy","legacy","legacy","0","uniform","0","undefined","0","left","23","23","0","23","0","23","0","23","0","0","23","23","23","0","23","Wed Oct 21 16:59:45 2020","The main experiment item","yes","Sternbergtask.osexp","C:\Users\chris\OneDrive\Desktop\Advanced Quanitative Methods and Design\lab 3\3","no","mono","no","18","no","white","no","yes","768","legacy","11","11","C:/Users/chris/OneDrive/Desktop/Advanced Quanitative Methods and Design/lab 3/3/CM-subject-4.csv","legacy","8 1 6","Lentiform Loewenfeld","3.3.3","3","y","0","right","right","NA","down","right","772","831","NA","410","772","2","legacy","3","1024","2","48000","-16","experiment","4","even","6","147325","133470","76702","148331","NA","146179","77533","147323","2115","2118","149536","151541","152313","2529","151541","Sternberg task","21","20716","24","yes","1024"
"84","84","855.44","855.44","black","experiment","legacy","legacy","legacy","0","uniform","0","undefined","0","left","24","24","0","24","0","24","0","24","0","0","24","24","24","0","24","Wed Oct 21 16:59:45 2020","The main experiment item","yes","Sternbergtask.osexp","C:\Users\chris\OneDrive\Desktop\Advanced Quanitative Methods and Design\lab 3\3","no","mono","no","18","no","white","no","yes","768","legacy","12","11","C:/Users/chris/OneDrive/Desktop/Advanced Quanitative Methods and Design/lab 3/3/CM-subject-4.csv","legacy","8 5 3 7 4 6","Lentiform Loewenfeld","3.3.3","6","y","0","right","right","NA","down","right","670","831","NA","410","670","2","legacy","6","1024","2","48000","-16","experiment","4","even","6","153495","152323","76702","154500","NA","146179","77533","153489","2115","2118","155705","157710","158381","2529","157710","Sternberg task","21","21386","25","yes","1024"
"80.76923076923077","80.76923076923077","857.8076923076923","857.8076923076923","black","experiment","legacy","legacy","legacy","0","uniform","0","undefined","0","left","25","25","0","25","0","25","0","25","0","0","25","25","25","0","25","Wed Oct 21 16:59:45 2020","The main experiment item","yes","Sternbergtask.osexp","C:\Users\chris\OneDrive\Desktop\Advanced Quanitative Methods and Design\lab 3\3","no","mono","no","18","no","white","no","yes","768","legacy","13","11","C:/Users/chris/OneDrive/Desktop/Advanced Quanitative Methods and Design/lab 3/3/CM-subject-4.csv","legacy","7 2 3","Lentiform Loewenfeld","3.3.3","3","y","0","right","right","NA","down","right","917","831","NA","410","917","2","legacy","3","1024","2","48000","-16","experiment","4","even","3","159531","158385","76702","160536","NA","146179","77533","159529","2115","2118","161741","163746","164664","2529","163746","Sternberg task","21","22303","26","yes","1024"
"81.48148148148148","81.48148148148148","854.5925925925926","854.5925925925926","black","experiment","legacy","legacy","legacy","0","uniform","1","undefined","1","right","26","26","0","26","0","26","0","26","0","0","26","26","26","0","26","Wed Oct 21 16:59:45 2020","The main experiment item","yes","Sternbergtask.osexp","C:\Users\chris\OneDrive\Desktop\Advanced Quanitative Methods and Design\lab 3\3","no","mono","no","18","no","white","no","yes","768","legacy","14","11","C:/Users/chris/OneDrive/Desktop/Advanced Quanitative Methods and Design/lab 3/3/CM-subject-4.csv","legacy","2 7 5","Lentiform Loewenfeld","3.3.3","0","n","0","right","right","NA","down","right","771","831","NA","410","771","2","legacy","3","1024","2","48000","-16","experiment","4","even","8","165809","164668","76702","166814","NA","146179","77533","165807","2115","2118","168019","170024","170796","2529","170024","Sternberg task","22","23074","27","yes","1024"
"82.14285714285714","82.14285714285714","844.1428571428571","844.1428571428571","black","experiment","legacy","legacy","legacy","0","uniform","1","undefined","1","left","27","27","0","27","0","27","0","27","0","0","27","27","27","0","27","Wed Oct 21 16:59:45 2020","The main experiment item","yes","Sternbergtask.osexp","C:\Users\chris\OneDrive\Desktop\Advanced Quanitative Methods and Design\lab 3\3","no","mono","no","18","no","white","no","yes","768","legacy","15","11","C:/Users/chris/OneDrive/Desktop/Advanced Quanitative Methods and Design/lab 3/3/CM-subject-4.csv","legacy","6 7 8 5","Lentiform Loewenfeld","3.3.3","3","y","0","left","right","NA","down","left","562","831","NA","410","562","2","legacy","4","1024","2","48000","-16","experiment","4","even","8","171936","164668","76702","172941","NA","170802","77533","171934","2115","2118","174146","176151","176713","2529","176151","Sternberg task","23","23636","28","yes","1024"
"82.75862068965517","82.75862068965517","844.6896551724138","844.6896551724138","black","experiment","legacy","legacy","legacy","0","uniform","1","undefined","1","left","28","28","0","28","0","28","0","28","0","0","28","28","28","0","28","Wed Oct 21 16:59:45 2020","The main experiment item","yes","Sternbergtask.osexp","C:\Users\chris\OneDrive\Desktop\Advanced Quanitative Methods and Design\lab 3\3","no","mono","no","18","no","white","no","yes","768","legacy","16","11","C:/Users/chris/OneDrive/Desktop/Advanced Quanitative Methods and Design/lab 3/3/CM-subject-4.csv","legacy","1 4 9 3 2 5","Lentiform Loewenfeld","3.3.3","3","y","0","left","right","NA","down","left","860","831","NA","410","860","2","legacy","6","1024","2","48000","-16","experiment","4","even","9","177865","164668","76702","178871","NA","176717","77533","177863","2115","2118","180076","182081","182942","2529","182081","Sternberg task","24","24496","29","yes","1024"
"83.33333333333333","83.33333333333333","841.4333333333333","841.4333333333333","black","experiment","legacy","legacy","legacy","0","uniform","1","undefined","1","right","29","29","0","29","0","29","0","29","0","0","29","29","29","0","29","Wed Oct 21 16:59:45 2020","The main experiment item","yes","Sternbergtask.osexp","C:\Users\chris\OneDrive\Desktop\Advanced Quanitative Methods and Design\lab 3\3","no","mono","no","18","no","white","no","yes","768","legacy","17","11","C:/Users/chris/OneDrive/Desktop/Advanced Quanitative Methods and Design/lab 3/3/CM-subject-4.csv","legacy","6 8","Lentiform Loewenfeld","3.3.3","0","n","0","right","right","NA","down","right","747","831","NA","410","747","2","legacy","2","1024","2","48000","-16","experiment","4","even","9","184086","164668","76702","185091","NA","182951","77533","184083","2115","2118","186296","188301","189048","2529","188301","Sternberg task","25","25243","30","yes","1024"
"83.87096774193549","83.87096774193549","843.0322580645161","843.0322580645161","black","experiment","legacy","legacy","legacy","0","uniform","1","undefined","1","left","30","30","0","30","0","30","0","30","0","0","30","30","30","0","30","Wed Oct 21 16:59:45 2020","The main experiment item","yes","Sternbergtask.osexp","C:\Users\chris\OneDrive\Desktop\Advanced Quanitative Methods and Design\lab 3\3","no","mono","no","18","no","white","no","yes","768","legacy","18","11","C:/Users/chris/OneDrive/Desktop/Advanced Quanitative Methods and Design/lab 3/3/CM-subject-4.csv","legacy","8 9 6 1","Lentiform Loewenfeld","3.3.3","2","y","0","left","right","NA","down","left","891","831","NA","410","891","2","legacy","4","1024","2","48000","-16","experiment","4","even","9","190193","164668","76702","191198","NA","189053","77533","190191","2115","2118","192403","194408","195300","2529","194408","Sternberg task","26","26134","31","yes","1024"
"84.375","84.375","845.65625","845.65625","black","experiment","legacy","legacy","legacy","0","uniform","1","undefined","1","right","31","31","0","31","0","31","0","31","0","0","31","31","31","0","31","Wed Oct 21 16:59:45 2020","The main experiment item","yes","Sternbergtask.osexp","C:\Users\chris\OneDrive\Desktop\Advanced Quanitative Methods and Design\lab 3\3","no","mono","no","18","no","white","no","yes","768","legacy","19","11","C:/Users/chris/OneDrive/Desktop/Advanced Quanitative Methods and Design/lab 3/3/CM-subject-4.csv","legacy","2 5 1 4","Lentiform Loewenfeld","3.3.3","0","n","0","right","right","NA","down","right","927","831","NA","410","927","2","legacy","4","1024","2","48000","-16","experiment","4","even","6","196444","164668","76702","197449","NA","195307","77533","196442","2115","2118","198654","200659","201586","2529","200659","Sternberg task","27","27061","32","yes","1024"
"81.81818181818181","81.81818181818181","880.6363636363636","880.6363636363636","black","experiment","legacy","legacy","legacy","0","uniform","0","undefined","0","left","32","32","0","32","0","32","0","32","0","0","32","32","32","0","32","Wed Oct 21 16:59:45 2020","The main experiment item","yes","Sternbergtask.osexp","C:\Users\chris\OneDrive\Desktop\Advanced Quanitative Methods and Design\lab 3\3","no","mono","no","18","no","white","no","yes","768","legacy","20","11","C:/Users/chris/OneDrive/Desktop/Advanced Quanitative Methods and Design/lab 3/3/CM-subject-4.csv","legacy","6 9 3 1","Lentiform Loewenfeld","3.3.3","4","y","0","None","right","NA","down","None","2000","831","NA","410","2000","2","legacy","4","1024","2","48000","-16","experiment","4","even","1","202719","164668","76702","203724","NA","201590","77533","202717","2115","2118","204929","206934","208934","2529","206934","Sternberg task","27","29061","33","yes","1024"
"79.41176470588235","79.41176470588235","913.5588235294117","913.5588235294117","black","experiment","legacy","legacy","legacy","0","uniform","0","undefined","0","left","33","33","0","33","0","33","0","33","0","0","33","33","33","0","33","Wed Oct 21 16:59:45 2020","The main experiment item","yes","Sternbergtask.osexp","C:\Users\chris\OneDrive\Desktop\Advanced Quanitative Methods and Design\lab 3\3","no","mono","no","18","no","white","no","yes","768","legacy","21","11","C:/Users/chris/OneDrive/Desktop/Advanced Quanitative Methods and Design/lab 3/3/CM-subject-4.csv","legacy","2 5 4 8 7","Lentiform Loewenfeld","3.3.3","3","y","0","None","right","NA","down","None","2000","831","NA","410","2000","2","legacy","5","1024","2","48000","-16","experiment","4","even","4","210086","208938","76702","211091","NA","201590","77533","210084","2115","2118","212296","214301","216301","2529","214301","Sternberg task","27","31061","34","yes","1024"
"80","80","904.6285714285714","904.6285714285714","black","experiment","legacy","legacy","legacy","0","uniform","1","undefined","1","right","34","34","0","34","0","34","0","34","0","0","34","34","34","0","34","Wed Oct 21 16:59:45 2020","The main experiment item","yes","Sternbergtask.osexp","C:\Users\chris\OneDrive\Desktop\Advanced Quanitative Methods and Design\lab 3\3","no","mono","no","18","no","white","no","yes","768","legacy","22","11","C:/Users/chris/OneDrive/Desktop/Advanced Quanitative Methods and Design/lab 3/3/CM-subject-4.csv","legacy","4 1","Lentiform Loewenfeld","3.3.3","0","n","0","right","right","NA","down","right","601","831","NA","410","601","2","legacy","2","1024","2","48000","-16","experiment","4","even","6","217444","216308","76702","218449","NA","201590","77533","217442","2115","2118","219654","221659","222260","2529","221659","Sternberg task","28","31662","35","yes","1024"
"80.55555555555556","80.55555555555556","894.3888888888889","894.3888888888889","black","experiment","legacy","legacy","legacy","0","uniform","1","undefined","1","left","35","35","0","35","0","35","0","35","0","0","35","35","35","0","35","Wed Oct 21 16:59:45 2020","The main experiment item","yes","Sternbergtask.osexp","C:\Users\chris\OneDrive\Desktop\Advanced Quanitative Methods and Design\lab 3\3","no","mono","no","18","no","white","no","yes","768","legacy","23","11","C:/Users/chris/OneDrive/Desktop/Advanced Quanitative Methods and Design/lab 3/3/CM-subject-4.csv","legacy","8","Lentiform Loewenfeld","3.3.3","1","y","0","left","right","NA","down","left","536","831","NA","410","536","2","legacy","1","1024","2","48000","-16","experiment","4","even","8","223416","216308","76702","224421","NA","222265","77533","223414","2115","2118","225626","227631","228168","2529","227631","Sternberg task","29","32198","36","yes","1024"
"81.08108108108108","81.08108108108108","887.8108108108108","887.8108108108108","black","experiment","legacy","legacy","legacy","0","uniform","1","undefined","1","right","36","36","0","36","0","36","0","36","0","0","36","36","36","0","36","Wed Oct 21 16:59:45 2020","The main experiment item","yes","Sternbergtask.osexp","C:\Users\chris\OneDrive\Desktop\Advanced Quanitative Methods and Design\lab 3\3","no","mono","no","18","no","white","no","yes","768","legacy","24","11","C:/Users/chris/OneDrive/Desktop/Advanced Quanitative Methods and Design/lab 3/3/CM-subject-4.csv","legacy","1 4 9 3","Lentiform Loewenfeld","3.3.3","0","n","0","right","right","NA","down","right","651","831","NA","410","651","2","legacy","4","1024","2","48000","-16","experiment","4","even","5","229303","216308","76702","230308","NA","228172","77533","229301","2115","2118","231513","233518","234170","2529","233518","Sternberg task","30","32849","37","yes","1024"
"81.57894736842105","81.57894736842105","888.3684210526316","888.3684210526316","black","experiment","legacy","legacy","legacy","0","uniform","1","undefined","1","right","37","37","0","37","0","37","0","37","0","0","37","37","37","0","37","Wed Oct 21 16:59:45 2020","The main experiment item","yes","Sternbergtask.osexp","C:\Users\chris\OneDrive\Desktop\Advanced Quanitative Methods and Design\lab 3\3","no","mono","no","18","no","white","no","yes","768","legacy","25","11","C:/Users/chris/OneDrive/Desktop/Advanced Quanitative Methods and Design/lab 3/3/CM-subject-4.csv","legacy","4 8 1 2","Lentiform Loewenfeld","3.3.3","0","n","0","right","right","NA","down","right","909","831","NA","410","909","2","legacy","4","1024","2","48000","-16","experiment","4","even","7","235318","216308","76702","236323","NA","234176","77533","235316","2115","2118","237528","239533","240442","2529","239533","Sternberg task","31","33758","38","yes","1024"
"79.48717948717949","79.48717948717949","877.4615384615385","877.4615384615385","black","experiment","legacy","legacy","legacy","0","uniform","0","undefined","0","right","38","38","0","38","0","38","0","38","0","0","38","38","38","0","38","Wed Oct 21 16:59:45 2020","The main experiment item","yes","Sternbergtask.osexp","C:\Users\chris\OneDrive\Desktop\Advanced Quanitative Methods and Design\lab 3\3","no","mono","no","18","no","white","no","yes","768","legacy","26","11","C:/Users/chris/OneDrive/Desktop/Advanced Quanitative Methods and Design/lab 3/3/CM-subject-4.csv","legacy","1","Lentiform Loewenfeld","3.3.3","0","n","0","left","right","NA","down","left","463","831","NA","410","463","2","legacy","1","1024","2","48000","-16","experiment","4","even","7","241608","216308","76702","242613","NA","240447","77533","241606","2115","2118","243818","245823","246286","2529","245823","Sternberg task","31","34221","39","yes","1024"
"80","80","895.275","895.275","black","experiment","legacy","legacy","legacy","0","uniform","1","undefined","1","right","39","39","0","39","0","39","0","39","0","0","39","39","39","0","39","Wed Oct 21 16:59:45 2020","The main experiment item","yes","Sternbergtask.osexp","C:\Users\chris\OneDrive\Desktop\Advanced Quanitative Methods and Design\lab 3\3","no","mono","no","18","no","white","no","yes","768","legacy","27","11","C:/Users/chris/OneDrive/Desktop/Advanced Quanitative Methods and Design/lab 3/3/CM-subject-4.csv","legacy","8 2 1 4 5 9","Lentiform Loewenfeld","3.3.3","0","n","0","right","right","NA","down","right","1590","831","NA","410","1590","2","legacy","6","1024","2","48000","-16","experiment","4","even","7","247421","246290","76702","248426","NA","240447","77533","247419","2115","2118","249631","251636","253227","2529","251636","Sternberg task","32","35811","40","yes","1024"
"78.04878048780488","78.04878048780488","894.0975609756098","894.0975609756098","black","experiment","legacy","legacy","legacy","0","uniform","0","undefined","0","right","40","40","0","40","0","40","0","40","0","0","40","40","40","0","40","Wed Oct 21 16:59:45 2020","The main experiment item","yes","Sternbergtask.osexp","C:\Users\chris\OneDrive\Desktop\Advanced Quanitative Methods and Design\lab 3\3","no","mono","no","18","no","white","no","yes","768","legacy","28","11","C:/Users/chris/OneDrive/Desktop/Advanced Quanitative Methods and Design/lab 3/3/CM-subject-4.csv","legacy","1 5 3 2 8","Lentiform Loewenfeld","3.3.3","0","n","0","left","right","NA","down","left","847","831","NA","410","847","2","legacy","5","1024","2","48000","-16","experiment","4","even","4","254391","246290","76702","255396","NA","253232","77533","254389","2115","2118","256601","258606","259454","2529","258606","Sternberg task","32","36658","41","yes","1024"
"78.57142857142857","78.57142857142857","895.2380952380952","895.2380952380952","black","experiment","legacy","legacy","legacy","0","uniform","1","undefined","1","left","41","41","0","41","0","41","0","41","0","0","41","41","41","0","41","Wed Oct 21 16:59:45 2020","The main experiment item","yes","Sternbergtask.osexp","C:\Users\chris\OneDrive\Desktop\Advanced Quanitative Methods and Design\lab 3\3","no","mono","no","18","no","white","no","yes","768","legacy","29","11","C:/Users/chris/OneDrive/Desktop/Advanced Quanitative Methods and Design/lab 3/3/CM-subject-4.csv","legacy","3 2 1 4 7","Lentiform Loewenfeld","3.3.3","2","y","0","left","right","NA","down","left","942","831","NA","410","942","2","legacy","5","1024","2","48000","-16","experiment","4","even","2","260600","259459","76702","261605","NA","253232","77533","260598","2115","2118","262811","264816","265759","2529","264816","Sternberg task","33","37600","42","yes","1024"
"79.06976744186046","79.06976744186046","888.8837209302326","888.8837209302326","black","experiment","legacy","legacy","legacy","0","uniform","1","undefined","1","right","42","42","0","42","0","42","0","42","0","0","42","42","42","0","42","Wed Oct 21 16:59:45 2020","The main experiment item","yes","Sternbergtask.osexp","C:\Users\chris\OneDrive\Desktop\Advanced Quanitative Methods and Design\lab 3\3","no","mono","no","18","no","white","no","yes","768","legacy","30","11","C:/Users/chris/OneDrive/Desktop/Advanced Quanitative Methods and Design/lab 3/3/CM-subject-4.csv","legacy","5 3 2 6 9 8","Lentiform Loewenfeld","3.3.3","0","n","0","right","right","NA","down","right","622","831","NA","410","622","2","legacy","6","1024","2","48000","-16","experiment","4","even","4","266891","259459","76702","267896","NA","265763","77533","266889","2115","2118","269101","271106","271729","2529","271106","Sternberg task","34","38222","43","yes","1024"
"79.54545454545455","79.54545454545455","887.0454545454545","887.0454545454545","black","experiment","legacy","legacy","legacy","0","uniform","1","undefined","1","right","43","43","0","43","0","43","0","43","0","0","43","43","43","0","43","Wed Oct 21 16:59:45 2020","The main experiment item","yes","Sternbergtask.osexp","C:\Users\chris\OneDrive\Desktop\Advanced Quanitative Methods and Design\lab 3\3","no","mono","no","18","no","white","no","yes","768","legacy","31","11","C:/Users/chris/OneDrive/Desktop/Advanced Quanitative Methods and Design/lab 3/3/CM-subject-4.csv","legacy","6 9 4 5 3 2","Lentiform Loewenfeld","3.3.3","0","n","0","right","right","NA","down","right","808","831","NA","410","808","2","legacy","6","1024","2","48000","-16","experiment","4","even","8","272867","259459","76702","273872","NA","271733","77533","272864","2115","2118","275077","277082","277890","2529","277082","Sternberg task","35","39030","44","yes","1024"
"77.77777777777777","77.77777777777777","882.8666666666667","882.8666666666667","black","experiment","legacy","legacy","legacy","0","uniform","0","undefined","0","right","44","44","0","44","0","44","0","44","0","0","44","44","44","0","44","Wed Oct 21 16:59:45 2020","The main experiment item","yes","Sternbergtask.osexp","C:\Users\chris\OneDrive\Desktop\Advanced Quanitative Methods and Design\lab 3\3","no","mono","no","18","no","white","no","yes","768","legacy","32","11","C:/Users/chris/OneDrive/Desktop/Advanced Quanitative Methods and Design/lab 3/3/CM-subject-4.csv","legacy","4 2 7 6 1 3","Lentiform Loewenfeld","3.3.3","0","n","0","left","right","NA","down","left","699","831","NA","410","699","2","legacy","6","1024","2","48000","-16","experiment","4","even","8","279035","259459","76702","280040","NA","277895","77533","279033","2115","2118","281245","283250","283951","2529","283250","Sternberg task","35","39729","45","yes","1024"
"78.26086956521739","78.26086956521739","884.6521739130435","884.6521739130435","black","experiment","legacy","legacy","legacy","0","uniform","1","undefined","1","right","45","45","0","45","0","45","0","45","0","0","45","45","45","0","45","Wed Oct 21 16:59:45 2020","The main experiment item","yes","Sternbergtask.osexp","C:\Users\chris\OneDrive\Desktop\Advanced Quanitative Methods and Design\lab 3\3","no","mono","no","18","no","white","no","yes","768","legacy","33","11","C:/Users/chris/OneDrive/Desktop/Advanced Quanitative Methods and Design/lab 3/3/CM-subject-4.csv","legacy","9","Lentiform Loewenfeld","3.3.3","0","n","0","right","right","NA","down","right","965","831","NA","410","965","2","legacy","1","1024","2","48000","-16","experiment","4","even","6","285104","283961","76702","286109","NA","277895","77533","285102","2115","2118","287314","289319","290285","2529","289319","Sternberg task","36","40694","46","yes","1024"
"78.72340425531915","78.72340425531915","876.0212765957447","876.0212765957447","black","experiment","legacy","legacy","legacy","0","uniform","1","undefined","1","left","46","46","0","46","0","46","0","46","0","0","46","46","46","0","46","Wed Oct 21 16:59:45 2020","The main experiment item","yes","Sternbergtask.osexp","C:\Users\chris\OneDrive\Desktop\Advanced Quanitative Methods and Design\lab 3\3","no","mono","no","18","no","white","no","yes","768","legacy","34","11","C:/Users/chris/OneDrive/Desktop/Advanced Quanitative Methods and Design/lab 3/3/CM-subject-4.csv","legacy","7 1 3","Lentiform Loewenfeld","3.3.3","2","y","0","left","right","NA","down","left","479","831","NA","410","479","2","legacy","3","1024","2","48000","-16","experiment","4","even","1","291427","283961","76702","292432","NA","290291","77533","291425","2115","2118","293638","295643","296122","2529","295643","Sternberg task","37","41173","47","yes","1024"
"79.16666666666667","79.16666666666667","870.625","870.625","black","experiment","legacy","legacy","legacy","0","uniform","1","undefined","1","left","47","47","0","47","0","47","0","47","0","0","47","47","47","0","47","Wed Oct 21 16:59:45 2020","The main experiment item","yes","Sternbergtask.osexp","C:\Users\chris\OneDrive\Desktop\Advanced Quanitative Methods and Design\lab 3\3","no","mono","no","18","no","white","no","yes","768","legacy","35","11","C:/Users/chris/OneDrive/Desktop/Advanced Quanitative Methods and Design/lab 3/3/CM-subject-4.csv","legacy","4 1 5","Lentiform Loewenfeld","3.3.3","2","y","0","left","right","NA","down","left","617","831","NA","410","617","2","legacy","3","1024","2","48000","-16","experiment","4","even","1","297269","283961","76702","298274","NA","296126","77533","297267","2115","2118","299479","301484","302102","2529","301484","Sternberg task","38","41790","48","yes","1024"
"79.59183673469387","79.59183673469387","867.3469387755102","867.3469387755102","black","experiment","legacy","legacy","legacy","0","uniform","1","undefined","1","left","48","48","0","48","0","48","0","48","0","0","48","48","48","0","48","Wed Oct 21 16:59:45 2020","The main experiment item","yes","Sternbergtask.osexp","C:\Users\chris\OneDrive\Desktop\Advanced Quanitative Methods and Design\lab 3\3","no","mono","no","18","no","white","no","yes","768","legacy","36","11","C:/Users/chris/OneDrive/Desktop/Advanced Quanitative Methods and Design/lab 3/3/CM-subject-4.csv","legacy","2 6 1 7 4","Lentiform Loewenfeld","3.3.3","2","y","0","left","right","NA","down","left","710","831","NA","410","710","2","legacy","5","1024","2","48000","-16","experiment","4","even","6","303244","283961","76702","304249","NA","302106","77533","303242","2115","2118","305454","307459","308170","2529","307459","Sternberg task","39","42500","49","yes","1024"
"80","80","862.3","862.3","black","experiment","legacy","legacy","legacy","0","uniform","1","undefined","1","right","49","49","0","49","0","49","0","49","0","0","49","49","49","0","49","Wed Oct 21 16:59:45 2020","The main experiment item","yes","Sternbergtask.osexp","C:\Users\chris\OneDrive\Desktop\Advanced Quanitative Methods and Design\lab 3\3","no","mono","no","18","no","white","no","yes","768","legacy","37","11","C:/Users/chris/OneDrive/Desktop/Advanced Quanitative Methods and Design/lab 3/3/CM-subject-4.csv","legacy","1 8 7","Lentiform Loewenfeld","3.3.3","0","n","0","right","right","NA","down","right","615","831","NA","410","615","2","legacy","3","1024","2","48000","-16","experiment","4","even","4","309308","283961","76702","310314","NA","308174","77533","309306","2115","2118","311519","313524","314140","2529","313524","Sternberg task","40","43115","50","yes","1024"
"80.3921568627451","80.3921568627451","861.9019607843137","861.9019607843137","black","experiment","legacy","legacy","legacy","0","uniform","1","undefined","1","left","50","50","0","50","0","50","0","50","0","0","50","50","50","0","50","Wed Oct 21 16:59:45 2020","The main experiment item","yes","Sternbergtask.osexp","C:\Users\chris\OneDrive\Desktop\Advanced Quanitative Methods and Design\lab 3\3","no","mono","no","18","no","white","no","yes","768","legacy","38","11","C:/Users/chris/OneDrive/Desktop/Advanced Quanitative Methods and Design/lab 3/3/CM-subject-4.csv","legacy","9 1 6 7 8","Lentiform Loewenfeld","3.3.3","1","y","0","left","right","NA","down","left","842","831","NA","410","842","2","legacy","5","1024","2","48000","-16","experiment","4","even","9","315294","283961","76702","316299","NA","314144","77533","315292","2115","2118","317504","319509","320352","2529","319509","Sternberg task","41","43957","51","yes","1024"
"80.76923076923077","80.76923076923077","859.0192307692307","859.0192307692307","black","experiment","legacy","legacy","legacy","0","uniform","1","undefined","1","left","51","51","0","51","0","51","0","51","0","0","51","51","51","0","51","Wed Oct 21 16:59:45 2020","The main experiment item","yes","Sternbergtask.osexp","C:\Users\chris\OneDrive\Desktop\Advanced Quanitative Methods and Design\lab 3\3","no","mono","no","18","no","white","no","yes","768","legacy","39","11","C:/Users/chris/OneDrive/Desktop/Advanced Quanitative Methods and Design/lab 3/3/CM-subject-4.csv","legacy","8 3","Lentiform Loewenfeld","3.3.3","2","y","0","left","right","NA","down","left","712","831","NA","410","712","2","legacy","2","1024","2","48000","-16","experiment","4","even","3","321498","283961","76702","322503","NA","320357","77533","321496","2115","2118","323708","325713","326426","2529","325713","Sternberg task","42","44669","52","yes","1024"
"81.13207547169812","81.13207547169812","854.0943396226415","854.0943396226415","black","experiment","legacy","legacy","legacy","0","uniform","1","undefined","1","left","52","52","0","52","0","52","0","52","0","0","52","52","52","0","52","Wed Oct 21 16:59:45 2020","The main experiment item","yes","Sternbergtask.osexp","C:\Users\chris\OneDrive\Desktop\Advanced Quanitative Methods and Design\lab 3\3","no","mono","no","18","no","white","no","yes","768","legacy","40","11","C:/Users/chris/OneDrive/Desktop/Advanced Quanitative Methods and Design/lab 3/3/CM-subject-4.csv","legacy","5 2 6","Lentiform Loewenfeld","3.3.3","2","y","0","left","right","NA","down","left","598","831","NA","410","598","2","legacy","3","1024","2","48000","-16","experiment","4","even","2","327576","283961","76702","328581","NA","326437","77533","327574","2115","2118","329786","331791","332391","2529","331791","Sternberg task","43","45267","53","yes","1024"
"81.48148148148148","81.48148148148148","846.425925925926","846.425925925926","black","experiment","legacy","legacy","legacy","0","uniform","1","undefined","1","left","53","53","0","53","0","53","0","53","0","0","53","53","53","0","53","Wed Oct 21 16:59:45 2020","The main experiment item","yes","Sternbergtask.osexp","C:\Users\chris\OneDrive\Desktop\Advanced Quanitative Methods and Design\lab 3\3","no","mono","no","18","no","white","no","yes","768","legacy","41","11","C:/Users/chris/OneDrive/Desktop/Advanced Quanitative Methods and Design/lab 3/3/CM-subject-4.csv","legacy","7 8 6 3 1","Lentiform Loewenfeld","3.3.3","5","y","0","left","right","NA","down","left","440","831","NA","410","440","2","legacy","5","1024","2","48000","-16","experiment","4","even","1","333538","283961","76702","334543","NA","332397","77533","333536","2115","2118","335748","337753","338194","2529","337753","Sternberg task","44","45707","54","yes","1024"
"81.81818181818181","81.81818181818181","839.2727272727273","839.2727272727273","black","experiment","legacy","legacy","legacy","0","uniform","1","undefined","1","left","54","54","0","54","0","54","0","54","0","0","54","54","54","0","54","Wed Oct 21 16:59:45 2020","The main experiment item","yes","Sternbergtask.osexp","C:\Users\chris\OneDrive\Desktop\Advanced Quanitative Methods and Design\lab 3\3","no","mono","no","18","no","white","no","yes","768","legacy","42","11","C:/Users/chris/OneDrive/Desktop/Advanced Quanitative Methods and Design/lab 3/3/CM-subject-4.csv","legacy","2 3 7 4","Lentiform Loewenfeld","3.3.3","1","y","0","left","right","NA","down","left","453","831","NA","410","453","2","legacy","4","1024","2","48000","-16","experiment","4","even","2","339337","283961","76702","340342","NA","338198","77533","339335","2115","2118","341546","343553","344007","2529","343553","Sternberg task","45","46160","55","yes","1024"
"80.35714285714286","80.35714285714286","844.2678571428571","844.2678571428571","black","experiment","legacy","legacy","legacy","0","uniform","0","undefined","0","right","55","55","0","55","0","55","0","55","0","0","55","55","55","0","55","Wed Oct 21 16:59:45 2020","The main experiment item","yes","Sternbergtask.osexp","C:\Users\chris\OneDrive\Desktop\Advanced Quanitative Methods and Design\lab 3\3","no","mono","no","18","no","white","no","yes","768","legacy","43","11","C:/Users/chris/OneDrive/Desktop/Advanced Quanitative Methods and Design/lab 3/3/CM-subject-4.csv","legacy","7 3 2 8","Lentiform Loewenfeld","3.3.3","0","n","0","left","right","NA","down","left","1119","831","NA","410","1119","2","legacy","4","1024","2","48000","-16","experiment","4","even","4","345152","283961","76702","346157","NA","344011","77533","345150","2115","2118","347362","349367","350487","2529","349367","Sternberg task","45","47279","56","yes","1024"
"78.94736842105263","78.94736842105263","864.5438596491229","864.5438596491229","black","experiment","legacy","legacy","legacy","0","uniform","0","undefined","0","right","56","56","0","56","0","56","0","56","0","0","56","56","56","0","56","Wed Oct 21 16:59:45 2020","The main experiment item","yes","Sternbergtask.osexp","C:\Users\chris\OneDrive\Desktop\Advanced Quanitative Methods and Design\lab 3\3","no","mono","no","18","no","white","no","yes","768","legacy","44","11","C:/Users/chris/OneDrive/Desktop/Advanced Quanitative Methods and Design/lab 3/3/CM-subject-4.csv","legacy","6 2 9 3 8 4","Lentiform Loewenfeld","3.3.3","0","n","0","None","right","NA","down","None","2000","831","NA","410","2000","2","legacy","6","1024","2","48000","-16","experiment","4","even","1","351631","350491","76702","352636","NA","344011","77533","351629","2115","2118","353842","355847","357847","2529","355847","Sternberg task","45","49279","57","yes","1024"
"79.3103448275862","79.3103448275862","870.5172413793103","870.5172413793103","black","experiment","legacy","legacy","legacy","0","uniform","1","undefined","1","left","57","57","0","57","0","57","0","57","0","0","57","57","57","0","57","Wed Oct 21 16:59:45 2020","The main experiment item","yes","Sternbergtask.osexp","C:\Users\chris\OneDrive\Desktop\Advanced Quanitative Methods and Design\lab 3\3","no","mono","no","18","no","white","no","yes","768","legacy","45","11","C:/Users/chris/OneDrive/Desktop/Advanced Quanitative Methods and Design/lab 3/3/CM-subject-4.csv","legacy","4 6 5 8","Lentiform Loewenfeld","3.3.3","1","y","0","left","right","NA","down","left","1211","831","NA","410","1211","2","legacy","4","1024","2","48000","-16","experiment","4","even","4","358986","357852","76702","359991","NA","344011","77533","358984","2115","2118","361196","363201","364413","2529","363201","Sternberg task","46","50490","58","yes","1024"
"77.96610169491525","77.96610169491525","889.6610169491526","889.6610169491526","black","experiment","legacy","legacy","legacy","0","uniform","0","undefined","0","right","58","58","0","58","0","58","0","58","0","0","58","58","58","0","58","Wed Oct 21 16:59:45 2020","The main experiment item","yes","Sternbergtask.osexp","C:\Users\chris\OneDrive\Desktop\Advanced Quanitative Methods and Design\lab 3\3","no","mono","no","18","no","white","no","yes","768","legacy","46","11","C:/Users/chris/OneDrive/Desktop/Advanced Quanitative Methods and Design/lab 3/3/CM-subject-4.csv","legacy","1 7 5 2 9","Lentiform Loewenfeld","3.3.3","0","n","0","None","right","NA","down","None","2000","831","NA","410","2000","2","legacy","5","1024","2","48000","-16","experiment","4","even","3","365573","357852","76702","366578","NA","364420","77533","365571","2115","2118","367783","369788","371788","2529","369788","Sternberg task","46","52490","59","yes","1024"
"78.33333333333333","78.33333333333333","884.1166666666667","884.1166666666667","black","experiment","legacy","legacy","legacy","0","uniform","1","undefined","1","left","59","59","0","59","0","59","0","59","0","0","59","59","59","0","59","Wed Oct 21 16:59:45 2020","The main experiment item","yes","Sternbergtask.osexp","C:\Users\chris\OneDrive\Desktop\Advanced Quanitative Methods and Design\lab 3\3","no","mono","no","18","no","white","no","yes","768","legacy","47","11","C:/Users/chris/OneDrive/Desktop/Advanced Quanitative Methods and Design/lab 3/3/CM-subject-4.csv","legacy","6 7 9 3 1 2","Lentiform Loewenfeld","3.3.3","1","y","0","left","right","NA","down","left","557","831","NA","410","557","2","legacy","6","1024","2","48000","-16","experiment","4","even","6","372938","371793","76702","373943","NA","364420","77533","372936","2115","2118","375148","377153","377712","2529","377153","Sternberg task","47","53047","60","yes","1024"
"78.68852459016394","78.68852459016394","879.5409836065573","879.5409836065573","black","experiment","legacy","legacy","legacy","0","uniform","1","undefined","1","left","60","60","0","60","0","60","0","60","0","0","60","60","60","0","60","Wed Oct 21 16:59:45 2020","The main experiment item","yes","Sternbergtask.osexp","C:\Users\chris\OneDrive\Desktop\Advanced Quanitative Methods and Design\lab 3\3","no","mono","no","18","no","white","no","yes","768","legacy","48","11","C:/Users/chris/OneDrive/Desktop/Advanced Quanitative Methods and Design/lab 3/3/CM-subject-4.csv","legacy","3 5 9 6 2 4","Lentiform Loewenfeld","3.3.3","1","y","0","left","right","NA","down","left","605","831","NA","410","605","2","legacy","6","1024","2","48000","-16","experiment","4","even","3","378877","371793","76702","379882","NA","377719","77533","378875","2115","2118","381087","383092","383698","2529","383092","Sternberg task","48","53652","61","yes","1024"
"79.03225806451613","79.03225806451613","872.4032258064516","872.4032258064516","black","experiment","legacy","legacy","legacy","0","uniform","1","undefined","1","left","61","61","0","61","0","61","0","61","0","0","61","61","61","0","61","Wed Oct 21 16:59:45 2020","The main experiment item","yes","Sternbergtask.osexp","C:\Users\chris\OneDrive\Desktop\Advanced Quanitative Methods and Design\lab 3\3","no","mono","no","18","no","white","no","yes","768","legacy","49","11","C:/Users/chris/OneDrive/Desktop/Advanced Quanitative Methods and Design/lab 3/3/CM-subject-4.csv","legacy","2 3","Lentiform Loewenfeld","3.3.3","1","y","0","left","right","NA","down","left","437","831","NA","410","437","2","legacy","2","1024","2","48000","-16","experiment","4","even","2","384843","371793","76702","385848","NA","383705","77533","384841","2115","2118","387053","389058","389497","2529","389058","Sternberg task","49","54089","62","yes","1024"
"77.77777777777777","77.77777777777777","870.1587301587301","870.1587301587301","black","experiment","legacy","legacy","legacy","0","uniform","0","undefined","0","left","62","62","0","62","0","62","0","62","0","0","62","62","62","0","62","Wed Oct 21 16:59:45 2020","The main experiment item","yes","Sternbergtask.osexp","C:\Users\chris\OneDrive\Desktop\Advanced Quanitative Methods and Design\lab 3\3","no","mono","no","18","no","white","no","yes","768","legacy","50","11","C:/Users/chris/OneDrive/Desktop/Advanced Quanitative Methods and Design/lab 3/3/CM-subject-4.csv","legacy","4 9 7 8 5 3","Lentiform Loewenfeld","3.3.3","4","y","0","right","right","NA","down","right","731","831","NA","410","731","2","legacy","6","1024","2","48000","-16","experiment","4","even","8","390638","371793","76702","391643","NA","389503","77533","390636","2115","2118","392848","394853","395586","2529","394853","Sternberg task","49","54820","63","yes","1024"
"78.125","78.125","866.5","866.5","black","experiment","legacy","legacy","legacy","0","uniform","1","undefined","1","right","63","63","0","63","0","63","0","63","0","0","63","63","63","0","63","Wed Oct 21 16:59:45 2020","The main experiment item","yes","Sternbergtask.osexp","C:\Users\chris\OneDrive\Desktop\Advanced Quanitative Methods and Design\lab 3\3","no","mono","no","18","no","white","no","yes","768","legacy","51","11","C:/Users/chris/OneDrive/Desktop/Advanced Quanitative Methods and Design/lab 3/3/CM-subject-4.csv","legacy","7 1 5 6 3","Lentiform Loewenfeld","3.3.3","0","n","0","right","right","NA","down","right","636","831","NA","410","636","2","legacy","5","1024","2","48000","-16","experiment","4","even","8","396728","395592","76702","397733","NA","389503","77533","396726","2115","2118","398938","400943","401580","2529","400943","Sternberg task","50","55456","64","yes","1024"
"78.46153846153847","78.46153846153847","863.5846153846154","863.5846153846154","black","experiment","legacy","legacy","legacy","0","uniform","1","undefined","1","right","64","64","0","64","0","64","0","64","0","0","64","64","64","0","64","Wed Oct 21 16:59:45 2020","The main experiment item","yes","Sternbergtask.osexp","C:\Users\chris\OneDrive\Desktop\Advanced Quanitative Methods and Design\lab 3\3","no","mono","no","18","no","white","no","yes","768","legacy","52","11","C:/Users/chris/OneDrive/Desktop/Advanced Quanitative Methods and Design/lab 3/3/CM-subject-4.csv","legacy","5","Lentiform Loewenfeld","3.3.3","0","n","0","right","right","NA","down","right","677","831","NA","410","677","2","legacy","1","1024","2","48000","-16","experiment","4","even","8","402725","395592","76702","403730","NA","401584","77533","402723","2115","2118","404936","406943","407620","2529","406941","Sternberg task","51","56133","65","yes","1024"
"78.78787878787878","78.78787878787878","861.6818181818181","861.6818181818181","black","experiment","legacy","legacy","legacy","0","uniform","1","undefined","1","left","65","65","0","65","0","65","0","65","0","0","65","65","65","0","65","Wed Oct 21 16:59:45 2020","The main experiment item","yes","Sternbergtask.osexp","C:\Users\chris\OneDrive\Desktop\Advanced Quanitative Methods and Design\lab 3\3","no","mono","no","18","no","white","no","yes","768","legacy","53","11","C:/Users/chris/OneDrive/Desktop/Advanced Quanitative Methods and Design/lab 3/3/CM-subject-4.csv","legacy","6 8 9 3 4 9","Lentiform Loewenfeld","3.3.3","5","y","0","left","right","NA","down","left","738","831","NA","410","738","2","legacy","6","1024","2","48000","-16","experiment","4","even","4","408759","395592","76702","409764","NA","407624","77533","408757","2115","2118","410969","412974","413713","2529","412974","Sternberg task","52","56871","66","yes","1024"
"79.1044776119403","79.1044776119403","857.4776119402985","857.4776119402985","black","experiment","legacy","legacy","legacy","0","uniform","1","undefined","1","right","66","66","0","66","0","66","0","66","0","0","66","66","66","0","66","Wed Oct 21 16:59:45 2020","The main experiment item","yes","Sternbergtask.osexp","C:\Users\chris\OneDrive\Desktop\Advanced Quanitative Methods and Design\lab 3\3","no","mono","no","18","no","white","no","yes","768","legacy","54","11","C:/Users/chris/OneDrive/Desktop/Advanced Quanitative Methods and Design/lab 3/3/CM-subject-4.csv","legacy","6 8 4","Lentiform Loewenfeld","3.3.3","0","n","0","right","right","NA","down","right","580","831","NA","410","580","2","legacy","3","1024","2","48000","-16","experiment","4","even","1","414848","395592","76702","415853","NA","413717","77533","414846","2115","2118","417058","419063","419645","2529","419063","Sternberg task","53","57451","67","yes","1024"
"79.41176470588235","79.41176470588235","855.25","855.25","black","experiment","legacy","legacy","legacy","0","uniform","1","undefined","1","left","67","67","0","67","0","67","0","67","0","0","67","67","67","0","67","Wed Oct 21 16:59:45 2020","The main experiment item","yes","Sternbergtask.osexp","C:\Users\chris\OneDrive\Desktop\Advanced Quanitative Methods and Design\lab 3\3","no","mono","no","18","no","white","no","yes","768","legacy","55","11","C:/Users/chris/OneDrive/Desktop/Advanced Quanitative Methods and Design/lab 3/3/CM-subject-4.csv","legacy","7 8 4 6 9 5","Lentiform Loewenfeld","3.3.3","4","y","0","left","right","NA","down","left","706","831","NA","410","706","2","legacy","6","1024","2","48000","-16","experiment","4","even","6","420796","395592","76702","421801","NA","419651","77533","420794","2115","2118","423006","425013","425720","2529","425013","Sternberg task","54","58157","68","yes","1024"
"79.71014492753623","79.71014492753623","852.9565217391304","852.9565217391304","black","experiment","legacy","legacy","legacy","0","uniform","1","undefined","1","left","68","68","0","68","0","68","0","68","0","0","68","68","68","0","68","Wed Oct 21 16:59:45 2020","The main experiment item","yes","Sternbergtask.osexp","C:\Users\chris\OneDrive\Desktop\Advanced Quanitative Methods and Design\lab 3\3","no","mono","no","18","no","white","no","yes","768","legacy","56","11","C:/Users/chris/OneDrive/Desktop/Advanced Quanitative Methods and Design/lab 3/3/CM-subject-4.csv","legacy","6 2","Lentiform Loewenfeld","3.3.3","1","y","0","left","right","NA","down","left","697","831","NA","410","697","2","legacy","2","1024","2","48000","-16","experiment","4","even","6","426867","395592","76702","427872","NA","425724","77533","426865","2115","2118","429077","431082","431780","2529","431082","Sternberg task","55","58854","69","yes","1024"
"80","80","853.1","853.1","black","experiment","legacy","legacy","legacy","0","uniform","1","undefined","1","right","69","69","0","69","0","69","0","69","0","0","69","69","69","0","69","Wed Oct 21 16:59:45 2020","The main experiment item","yes","Sternbergtask.osexp","C:\Users\chris\OneDrive\Desktop\Advanced Quanitative Methods and Design\lab 3\3","no","mono","no","18","no","white","no","yes","768","legacy","57","11","C:/Users/chris/OneDrive/Desktop/Advanced Quanitative Methods and Design/lab 3/3/CM-subject-4.csv","legacy","8 4 3 9","Lentiform Loewenfeld","3.3.3","0","n","0","right","right","NA","down","right","863","831","NA","410","863","2","legacy","4","1024","2","48000","-16","experiment","4","even","5","432926","395592","76702","433931","NA","431783","77533","432924","2115","2118","435136","437141","438006","2529","437141","Sternberg task","56","59717","70","yes","1024"
"80.28169014084507","80.28169014084507","852.056338028169","852.056338028169","black","experiment","legacy","legacy","legacy","0","uniform","1","undefined","1","left","70","70","0","70","0","70","0","70","0","0","70","70","70","0","70","Wed Oct 21 16:59:45 2020","The main experiment item","yes","Sternbergtask.osexp","C:\Users\chris\OneDrive\Desktop\Advanced Quanitative Methods and Design\lab 3\3","no","mono","no","18","no","white","no","yes","768","legacy","58","11","C:/Users/chris/OneDrive/Desktop/Advanced Quanitative Methods and Design/lab 3/3/CM-subject-4.csv","legacy","3 9 7 6 4","Lentiform Loewenfeld","3.3.3","3","y","0","left","right","NA","down","left","779","831","NA","410","779","2","legacy","5","1024","2","48000","-16","experiment","4","even","7","439160","395592","76702","440165","NA","438013","77533","439158","2115","2118","441370","443375","444155","2529","443375","Sternberg task","57","60496","71","yes","1024"
"80.55555555555556","80.55555555555556","848.8611111111111","848.8611111111111","black","experiment","legacy","legacy","legacy","0","uniform","1","undefined","1","right","71","71","0","71","0","71","0","71","0","0","71","71","71","0","71","Wed Oct 21 16:59:45 2020","The main experiment item","yes","Sternbergtask.osexp","C:\Users\chris\OneDrive\Desktop\Advanced Quanitative Methods and Design\lab 3\3","no","mono","no","18","no","white","no","yes","768","legacy","59","11","C:/Users/chris/OneDrive/Desktop/Advanced Quanitative Methods and Design/lab 3/3/CM-subject-4.csv","legacy","2 6 4 3 9","Lentiform Loewenfeld","3.3.3","0","n","0","right","right","NA","down","right","622","831","NA","410","622","2","legacy","5","1024","2","48000","-16","experiment","4","even","1","445295","395592","76702","446300","NA","444159","77533","445293","2115","2118","447505","449510","450135","2529","449510","Sternberg task","58","61118","72","yes","1024"
"79.45205479452055","79.45205479452055","849.4383561643835","849.4383561643835","black","experiment","legacy","legacy","legacy","0","uniform","0","undefined","0","right","72","72","0","72","0","72","0","72","0","0","72","72","72","0","72","Wed Oct 21 16:59:45 2020","The main experiment item","yes","Sternbergtask.osexp","C:\Users\chris\OneDrive\Desktop\Advanced Quanitative Methods and Design\lab 3\3","no","mono","no","18","no","white","no","yes","768","legacy","60","11","C:/Users/chris/OneDrive/Desktop/Advanced Quanitative Methods and Design/lab 3/3/CM-subject-4.csv","legacy","9 5 3 2 8 6","Lentiform Loewenfeld","3.3.3","0","n","0","left","right","NA","down","left","891","831","NA","410","891","2","legacy","6","1024","2","48000","-16","experiment","4","even","7","451287","395592","76702","452292","NA","450142","77533","451285","2115","2118","453497","455502","456394","2529","455502","Sternberg task","58","62009","73","yes","1024"
"78.37837837837837","78.37837837837837","847.8513513513514","847.8513513513514","black","experiment","legacy","legacy","legacy","0","uniform","0","undefined","0","right","73","73","0","73","0","73","0","73","0","0","73","73","73","0","73","Wed Oct 21 16:59:45 2020","The main experiment item","yes","Sternbergtask.osexp","C:\Users\chris\OneDrive\Desktop\Advanced Quanitative Methods and Design\lab 3\3","no","mono","no","18","no","white","no","yes","768","legacy","61","11","C:/Users/chris/OneDrive/Desktop/Advanced Quanitative Methods and Design/lab 3/3/CM-subject-4.csv","legacy","1 4 9 2 5","Lentiform Loewenfeld","3.3.3","0","n","0","left","right","NA","down","left","732","831","NA","410","732","2","legacy","5","1024","2","48000","-16","experiment","4","even","7","457537","456397","76702","458542","NA","450142","77533","457535","2115","2118","459747","461752","462486","2529","461752","Sternberg task","58","62741","74","yes","1024"
"78.66666666666667","78.66666666666667","844.9333333333333","844.9333333333333","black","experiment","legacy","legacy","legacy","0","uniform","1","undefined","1","left","74","74","0","74","0","74","0","74","0","0","74","74","74","0","74","Wed Oct 21 16:59:45 2020","The main experiment item","yes","Sternbergtask.osexp","C:\Users\chris\OneDrive\Desktop\Advanced Quanitative Methods and Design\lab 3\3","no","mono","no","18","no","white","no","yes","768","legacy","62","11","C:/Users/chris/OneDrive/Desktop/Advanced Quanitative Methods and Design/lab 3/3/CM-subject-4.csv","legacy","2 4 6 9","Lentiform Loewenfeld","3.3.3","3","y","0","left","right","NA","down","left","629","831","NA","410","629","2","legacy","4","1024","2","48000","-16","experiment","4","even","6","463627","462492","76702","464633","NA","450142","77533","463625","2115","2118","465838","467843","468472","2529","467843","Sternberg task","59","63370","75","yes","1024"
"78.94736842105263","78.94736842105263","841.1052631578947","841.1052631578947","black","experiment","legacy","legacy","legacy","0","uniform","1","undefined","1","left","75","75","0","75","0","75","0","75","0","0","75","75","75","0","75","Wed Oct 21 16:59:45 2020","The main experiment item","yes","Sternbergtask.osexp","C:\Users\chris\OneDrive\Desktop\Advanced Quanitative Methods and Design\lab 3\3","no","mono","no","18","no","white","no","yes","768","legacy","63","11","C:/Users/chris/OneDrive/Desktop/Advanced Quanitative Methods and Design/lab 3/3/CM-subject-4.csv","legacy","6 1 2","Lentiform Loewenfeld","3.3.3","3","y","0","left","right","NA","down","left","554","831","NA","410","554","2","legacy","3","1024","2","48000","-16","experiment","4","even","2","469619","462492","76702","470624","NA","468476","77533","469617","2115","2118","471829","473834","474389","2529","473834","Sternberg task","60","63924","76","yes","1024"
"79.22077922077922","79.22077922077922","837.7272727272727","837.7272727272727","black","experiment","legacy","legacy","legacy","0","uniform","1","undefined","1","left","76","76","0","76","0","76","0","76","0","0","76","76","76","0","76","Wed Oct 21 16:59:45 2020","The main experiment item","yes","Sternbergtask.osexp","C:\Users\chris\OneDrive\Desktop\Advanced Quanitative Methods and Design\lab 3\3","no","mono","no","18","no","white","no","yes","768","legacy","64","11","C:/Users/chris/OneDrive/Desktop/Advanced Quanitative Methods and Design/lab 3/3/CM-subject-4.csv","legacy","6 5","Lentiform Loewenfeld","3.3.3","2","y","0","left","right","NA","down","left","581","831","NA","410","581","2","legacy","2","1024","2","48000","-16","experiment","4","even","5","475557","462492","76702","476562","NA","474393","77533","475555","2115","2118","477767","479772","480354","2529","479772","Sternberg task","61","64505","77","yes","1024"
"79.48717948717949","79.48717948717949","839.0512820512821","839.0512820512821","black","experiment","legacy","legacy","legacy","0","uniform","1","undefined","1","right","77","77","0","77","0","77","0","77","0","0","77","77","77","0","77","Wed Oct 21 16:59:45 2020","The main experiment item","yes","Sternbergtask.osexp","C:\Users\chris\OneDrive\Desktop\Advanced Quanitative Methods and Design\lab 3\3","no","mono","no","18","no","white","no","yes","768","legacy","65","11","C:/Users/chris/OneDrive/Desktop/Advanced Quanitative Methods and Design/lab 3/3/CM-subject-4.csv","legacy","1 3 2 6 9","Lentiform Loewenfeld","3.3.3","0","n","0","right","right","NA","down","right","941","831","NA","410","941","2","legacy","5","1024","2","48000","-16","experiment","4","even","5","481534","462492","76702","482539","NA","480358","77533","481532","2115","2118","483744","485749","486692","2529","485749","Sternberg task","62","65446","78","yes","1024"
"79.74683544303798","79.74683544303798","834.6835443037975","834.6835443037975","black","experiment","legacy","legacy","legacy","0","uniform","1","undefined","1","left","78","78","0","78","0","78","0","78","0","0","78","78","78","0","78","Wed Oct 21 16:59:45 2020","The main experiment item","yes","Sternbergtask.osexp","C:\Users\chris\OneDrive\Desktop\Advanced Quanitative Methods and Design\lab 3\3","no","mono","no","18","no","white","no","yes","768","legacy","66","11","C:/Users/chris/OneDrive/Desktop/Advanced Quanitative Methods and Design/lab 3/3/CM-subject-4.csv","legacy","9 1 7 2","Lentiform Loewenfeld","3.3.3","2","y","0","left","right","NA","down","left","494","831","NA","410","494","2","legacy","4","1024","2","48000","-16","experiment","4","even","1","487852","462492","76702","488857","NA","486698","77533","487850","2115","2118","490062","492067","492562","2529","492067","Sternberg task","63","65940","79","yes","1024"
"78.75","78.75","849.25","849.25","black","experiment","legacy","legacy","legacy","0","uniform","0","undefined","0","right","79","79","0","79","0","79","0","79","0","0","79","79","79","0","79","Wed Oct 21 16:59:45 2020","The main experiment item","yes","Sternbergtask.osexp","C:\Users\chris\OneDrive\Desktop\Advanced Quanitative Methods and Design\lab 3\3","no","mono","no","18","no","white","no","yes","768","legacy","67","11","C:/Users/chris/OneDrive/Desktop/Advanced Quanitative Methods and Design/lab 3/3/CM-subject-4.csv","legacy","6 9 5","Lentiform Loewenfeld","3.3.3","0","n","0","None","right","NA","down","None","2000","831","NA","410","2000","2","legacy","3","1024","2","48000","-16","experiment","4","even","8","493722","462492","76702","494727","NA","492567","77533","493720","2115","2118","495932","497937","499937","2529","497937","Sternberg task","63","67940","80","yes","1024"
"79.01234567901234","79.01234567901234","843.5555555555555","843.5555555555555","black","experiment","legacy","legacy","legacy","0","uniform","1","undefined","1","left","80","80","0","80","0","80","0","80","0","0","80","80","80","0","80","Wed Oct 21 16:59:45 2020","The main experiment item","yes","Sternbergtask.osexp","C:\Users\chris\OneDrive\Desktop\Advanced Quanitative Methods and Design\lab 3\3","no","mono","no","18","no","white","no","yes","768","legacy","68","11","C:/Users/chris/OneDrive/Desktop/Advanced Quanitative Methods and Design/lab 3/3/CM-subject-4.csv","legacy","9 5 3 8 4","Lentiform Loewenfeld","3.3.3","1","y","0","left","right","NA","down","left","388","831","NA","410","388","2","legacy","5","1024","2","48000","-16","experiment","4","even","9","501123","499941","76702","502129","NA","492567","77533","501121","2115","2118","503334","505339","505730","2529","505339","Sternberg task","64","68328","81","yes","1024"
"78.04878048780488","78.04878048780488","852.6585365853658","852.6585365853658","black","experiment","legacy","legacy","legacy","0","uniform","0","undefined","0","right","81","81","0","81","0","81","0","81","0","0","81","81","81","0","81","Wed Oct 21 16:59:45 2020","The main experiment item","yes","Sternbergtask.osexp","C:\Users\chris\OneDrive\Desktop\Advanced Quanitative Methods and Design\lab 3\3","no","mono","no","18","no","white","no","yes","768","legacy","69","11","C:/Users/chris/OneDrive/Desktop/Advanced Quanitative Methods and Design/lab 3/3/CM-subject-4.csv","legacy","7 4 2 8 1 9","Lentiform Loewenfeld","3.3.3","0","n","0","left","right","NA","down","left","1590","831","NA","410","1590","2","legacy","6","1024","2","48000","-16","experiment","4","even","5","506881","499941","76702","507886","NA","505738","77533","506879","2115","2118","509091","511096","512688","2529","511096","Sternberg task","64","69918","82","yes","1024"
"77.10843373493977","77.10843373493977","856.6265060240963","856.6265060240963","black","experiment","legacy","legacy","legacy","0","uniform","0","undefined","0","right","82","82","0","82","0","82","0","82","0","0","82","82","82","0","82","Wed Oct 21 16:59:45 2020","The main experiment item","yes","Sternbergtask.osexp","C:\Users\chris\OneDrive\Desktop\Advanced Quanitative Methods and Design\lab 3\3","no","mono","no","18","no","white","no","yes","768","legacy","70","11","C:/Users/chris/OneDrive/Desktop/Advanced Quanitative Methods and Design/lab 3/3/CM-subject-4.csv","legacy","3 9 8 1 6 4","Lentiform Loewenfeld","3.3.3","0","n","0","left","right","NA","down","left","1182","831","NA","410","1182","2","legacy","6","1024","2","48000","-16","experiment","4","even","7","513837","512695","76702","514842","NA","505738","77533","513835","2115","2118","516047","518052","519235","2529","518052","Sternberg task","64","71100","83","yes","1024"
"77.38095238095238","77.38095238095238","853.6547619047619","853.6547619047619","black","experiment","legacy","legacy","legacy","0","uniform","1","undefined","1","right","83","83","0","83","0","83","0","83","0","0","83","83","83","0","83","Wed Oct 21 16:59:45 2020","The main experiment item","yes","Sternbergtask.osexp","C:\Users\chris\OneDrive\Desktop\Advanced Quanitative Methods and Design\lab 3\3","no","mono","no","18","no","white","no","yes","768","legacy","71","11","C:/Users/chris/OneDrive/Desktop/Advanced Quanitative Methods and Design/lab 3/3/CM-subject-4.csv","legacy","1 6 4","Lentiform Loewenfeld","3.3.3","0","n","0","right","right","NA","down","right","607","831","NA","410","607","2","legacy","3","1024","2","48000","-16","experiment","4","even","7","520383","519246","76702","521388","NA","505738","77533","520381","2115","2118","522593","524598","525208","2529","524598","Sternberg task","65","71707","84","yes","1024"
"77.6470588235294","77.6470588235294","855.2705882352941","855.2705882352941","black","experiment","legacy","legacy","legacy","0","uniform","1","undefined","1","left","84","84","0","84","0","84","0","84","0","0","84","84","84","0","84","Wed Oct 21 16:59:45 2020","The main experiment item","yes","Sternbergtask.osexp","C:\Users\chris\OneDrive\Desktop\Advanced Quanitative Methods and Design\lab 3\3","no","mono","no","18","no","white","no","yes","768","legacy","72","11","C:/Users/chris/OneDrive/Desktop/Advanced Quanitative Methods and Design/lab 3/3/CM-subject-4.csv","legacy","4 6 2 5 1","Lentiform Loewenfeld","3.3.3","5","y","0","left","right","NA","down","left","991","831","NA","410","991","2","legacy","5","1024","2","48000","-16","experiment","4","even","1","526355","519246","76702","527360","NA","525214","77533","526353","2115","2118","528565","530570","531563","2529","530570","Sternberg task","66","72698","85","yes","1024"
"77.90697674418605","77.90697674418605","854.1511627906976","854.1511627906976","black","experiment","legacy","legacy","legacy","0","uniform","1","undefined","1","left","85","85","0","85","0","85","0","85","0","0","85","85","85","0","85","Wed Oct 21 16:59:45 2020","The main experiment item","yes","Sternbergtask.osexp","C:\Users\chris\OneDrive\Desktop\Advanced Quanitative Methods and Design\lab 3\3","no","mono","no","18","no","white","no","yes","768","legacy","73","11","C:/Users/chris/OneDrive/Desktop/Advanced Quanitative Methods and Design/lab 3/3/CM-subject-4.csv","legacy","5 2 9 6 1 7","Lentiform Loewenfeld","3.3.3","3","y","0","left","right","NA","down","left","759","831","NA","410","759","2","legacy","6","1024","2","48000","-16","experiment","4","even","9","532722","519246","76702","533724","NA","531575","77533","532720","2115","2118","534929","536934","537695","2529","536934","Sternberg task","67","73457","86","yes","1024"
"78.16091954022988","78.16091954022988","852.0114942528736","852.0114942528736","black","experiment","legacy","legacy","legacy","0","uniform","1","undefined","1","left","86","86","0","86","0","86","0","86","0","0","86","86","86","0","86","Wed Oct 21 16:59:45 2020","The main experiment item","yes","Sternbergtask.osexp","C:\Users\chris\OneDrive\Desktop\Advanced Quanitative Methods and Design\lab 3\3","no","mono","no","18","no","white","no","yes","768","legacy","74","11","C:/Users/chris/OneDrive/Desktop/Advanced Quanitative Methods and Design/lab 3/3/CM-subject-4.csv","legacy","8 9 5 6 7","Lentiform Loewenfeld","3.3.3","1","y","0","left","right","NA","down","left","668","831","NA","410","668","2","legacy","5","1024","2","48000","-16","experiment","4","even","8","538837","519246","76702","539843","NA","537700","77533","538835","2115","2118","541048","543054","543722","2529","543054","Sternberg task","68","74125","87","yes","1024"
"77.27272727272727","77.27272727272727","853.4431818181819","853.4431818181819","black","experiment","legacy","legacy","legacy","0","uniform","0","undefined","0","left","87","87","0","87","0","87","0","87","0","0","87","87","87","0","87","Wed Oct 21 16:59:45 2020","The main experiment item","yes","Sternbergtask.osexp","C:\Users\chris\OneDrive\Desktop\Advanced Quanitative Methods and Design\lab 3\3","no","mono","no","18","no","white","no","yes","768","legacy","75","11","C:/Users/chris/OneDrive/Desktop/Advanced Quanitative Methods and Design/lab 3/3/CM-subject-4.csv","legacy","4 7 6 8 2 3","Lentiform Loewenfeld","3.3.3","6","y","0","right","right","NA","down","right","978","831","NA","410","978","2","legacy","6","1024","2","48000","-16","experiment","4","even","3","544866","519246","76702","545872","NA","543726","77533","544864","2115","2118","547077","549082","550062","2529","549082","Sternberg task","68","75103","88","yes","1024"
"76.40449438202248","76.40449438202248","852.8651685393259","852.8651685393259","black","experiment","legacy","legacy","legacy","0","uniform","0","undefined","0","right","88","88","0","88","0","88","0","88","0","0","88","88","88","0","88","Wed Oct 21 16:59:45 2020","The main experiment item","yes","Sternbergtask.osexp","C:\Users\chris\OneDrive\Desktop\Advanced Quanitative Methods and Design\lab 3\3","no","mono","no","18","no","white","no","yes","768","legacy","76","11","C:/Users/chris/OneDrive/Desktop/Advanced Quanitative Methods and Design/lab 3/3/CM-subject-4.csv","legacy","1 6 4 3 9 7","Lentiform Loewenfeld","3.3.3","0","n","0","left","right","NA","down","left","802","831","NA","410","802","2","legacy","6","1024","2","48000","-16","experiment","4","even","8","551225","550069","76702","552230","NA","543726","77533","551223","2115","2118","553435","555440","556244","2529","555440","Sternberg task","68","75905","89","yes","1024"
"76.66666666666667","76.66666666666667","851.5888888888888","851.5888888888888","black","experiment","legacy","legacy","legacy","0","uniform","1","undefined","1","right","89","89","0","89","0","89","0","89","0","0","89","89","89","0","89","Wed Oct 21 16:59:45 2020","The main experiment item","yes","Sternbergtask.osexp","C:\Users\chris\OneDrive\Desktop\Advanced Quanitative Methods and Design\lab 3\3","no","mono","no","18","no","white","no","yes","768","legacy","77","11","C:/Users/chris/OneDrive/Desktop/Advanced Quanitative Methods and Design/lab 3/3/CM-subject-4.csv","legacy","2 3 8 5 6 7","Lentiform Loewenfeld","3.3.3","0","n","0","right","right","NA","down","right","738","831","NA","410","738","2","legacy","6","1024","2","48000","-16","experiment","4","even","1","557379","556252","76702","558385","NA","543726","77533","557377","2115","2118","559590","561595","562335","2529","561595","Sternberg task","69","76643","90","yes","1024"
"75.82417582417582","75.82417582417582","852.1868131868132","852.1868131868132","black","experiment","legacy","legacy","legacy","0","uniform","0","undefined","0","right","90","90","0","90","0","90","0","90","0","0","90","90","90","0","90","Wed Oct 21 16:59:45 2020","The main experiment item","yes","Sternbergtask.osexp","C:\Users\chris\OneDrive\Desktop\Advanced Quanitative Methods and Design\lab 3\3","no","mono","no","18","no","white","no","yes","768","legacy","78","11","C:/Users/chris/OneDrive/Desktop/Advanced Quanitative Methods and Design/lab 3/3/CM-subject-4.csv","legacy","7 1","Lentiform Loewenfeld","3.3.3","0","n","0","left","right","NA","down","left","906","831","NA","410","906","2","legacy","2","1024","2","48000","-16","experiment","4","even","8","563471","556252","76702","564478","NA","562343","77533","563469","2115","2118","565683","567688","568596","2529","567688","Sternberg task","69","77549","91","yes","1024"
"75","75","853.0760869565217","853.0760869565217","black","experiment","legacy","legacy","legacy","0","uniform","0","undefined","0","right","91","91","0","91","0","91","0","91","0","0","91","91","91","0","91","Wed Oct 21 16:59:45 2020","The main experiment item","yes","Sternbergtask.osexp","C:\Users\chris\OneDrive\Desktop\Advanced Quanitative Methods and Design\lab 3\3","no","mono","no","18","no","white","no","yes","768","legacy","79","11","C:/Users/chris/OneDrive/Desktop/Advanced Quanitative Methods and Design/lab 3/3/CM-subject-4.csv","legacy","2 8 6 3 1","Lentiform Loewenfeld","3.3.3","0","n","0","left","right","NA","down","left","934","831","NA","410","934","2","legacy","5","1024","2","48000","-16","experiment","4","even","7","569736","568601","76702","570741","NA","562343","77533","569734","2115","2118","571946","573952","574887","2529","573952","Sternberg task","69","78483","92","yes","1024"
"75.26881720430107","75.26881720430107","850.4408602150538","850.4408602150538","black","experiment","legacy","legacy","legacy","0","uniform","1","undefined","1","right","92","92","0","92","0","92","0","92","0","0","92","92","92","0","92","Wed Oct 21 16:59:45 2020","The main experiment item","yes","Sternbergtask.osexp","C:\Users\chris\OneDrive\Desktop\Advanced Quanitative Methods and Design\lab 3\3","no","mono","no","18","no","white","no","yes","768","legacy","80","11","C:/Users/chris/OneDrive/Desktop/Advanced Quanitative Methods and Design/lab 3/3/CM-subject-4.csv","legacy","8 5 7 3 6","Lentiform Loewenfeld","3.3.3","0","n","0","right","right","NA","down","right","608","831","NA","410","608","2","legacy","5","1024","2","48000","-16","experiment","4","even","9","576051","574892","76702","577056","NA","562343","77533","576049","2115","2118","578261","580266","580875","2529","580266","Sternberg task","70","79091","93","yes","1024"
"75.53191489361703","75.53191489361703","847.8617021276596","847.8617021276596","black","experiment","legacy","legacy","legacy","0","uniform","1","undefined","1","right","93","93","0","93","0","93","0","93","0","0","93","93","93","0","93","Wed Oct 21 16:59:45 2020","The main experiment item","yes","Sternbergtask.osexp","C:\Users\chris\OneDrive\Desktop\Advanced Quanitative Methods and Design\lab 3\3","no","mono","no","18","no","white","no","yes","768","legacy","81","11","C:/Users/chris/OneDrive/Desktop/Advanced Quanitative Methods and Design/lab 3/3/CM-subject-4.csv","legacy","1 7 8 3 9","Lentiform Loewenfeld","3.3.3","0","n","0","right","right","NA","down","right","608","831","NA","410","608","2","legacy","5","1024","2","48000","-16","experiment","4","even","2","582009","574892","76702","583014","NA","580881","77533","582007","2115","2118","584219","586224","586833","2529","586224","Sternberg task","71","79699","94","yes","1024"
"75.78947368421052","75.78947368421052","849.6631578947369","849.6631578947369","black","experiment","legacy","legacy","legacy","0","uniform","1","undefined","1","right","94","94","0","94","0","94","0","94","0","0","94","94","94","0","94","Wed Oct 21 16:59:45 2020","The main experiment item","yes","Sternbergtask.osexp","C:\Users\chris\OneDrive\Desktop\Advanced Quanitative Methods and Design\lab 3\3","no","mono","no","18","no","white","no","yes","768","legacy","82","11","C:/Users/chris/OneDrive/Desktop/Advanced Quanitative Methods and Design/lab 3/3/CM-subject-4.csv","legacy","1 4 3 6 5","Lentiform Loewenfeld","3.3.3","0","n","0","right","right","NA","down","right","1019","831","NA","410","1019","2","legacy","5","1024","2","48000","-16","experiment","4","even","8","587977","574892","76702","588982","NA","586837","77533","587975","2115","2118","590187","592192","593212","2529","592192","Sternberg task","72","80718","95","yes","1024"
"75","75","848.75","848.75","black","experiment","legacy","legacy","legacy","0","uniform","0","undefined","0","left","95","95","0","95","0","95","0","95","0","0","95","95","95","0","95","Wed Oct 21 16:59:45 2020","The main experiment item","yes","Sternbergtask.osexp","C:\Users\chris\OneDrive\Desktop\Advanced Quanitative Methods and Design\lab 3\3","no","mono","no","18","no","white","no","yes","768","legacy","83","11","C:/Users/chris/OneDrive/Desktop/Advanced Quanitative Methods and Design/lab 3/3/CM-subject-4.csv","legacy","4 3 2 5 8","Lentiform Loewenfeld","3.3.3","2","y","0","right","right","NA","down","right","762","831","NA","410","762","2","legacy","5","1024","2","48000","-16","experiment","4","even","3","594359","574892","76702","595364","NA","593216","77533","594357","2115","2118","596569","598574","599338","2529","598574","Sternberg task","72","81480","96","yes","1024"
"75.25773195876289","75.25773195876289","846.7938144329897","846.7938144329897","black","experiment","legacy","legacy","legacy","0","uniform","1","undefined","1","right","96","96","0","96","0","96","0","96","0","0","96","96","96","0","96","Wed Oct 21 16:59:45 2020","The main experiment item","yes","Sternbergtask.osexp","C:\Users\chris\OneDrive\Desktop\Advanced Quanitative Methods and Design\lab 3\3","no","mono","no","18","no","white","no","yes","768","legacy","84","11","C:/Users/chris/OneDrive/Desktop/Advanced Quanitative Methods and Design/lab 3/3/CM-subject-4.csv","legacy","7 8 6 1","Lentiform Loewenfeld","3.3.3","0","n","0","right","right","NA","down","right","659","831","NA","410","659","2","legacy","4","1024","2","48000","-16","experiment","4","even","3","600500","599343","76702","601505","NA","593216","77533","600498","2115","2118","602710","604715","605375","2529","604715","Sternberg task","73","82139","97","yes","1024"
"74.48979591836735","74.48979591836735","845.5612244897959","845.5612244897959","black","experiment","legacy","legacy","legacy","0","uniform","0","undefined","0","left","97","97","0","97","0","97","0","97","0","0","97","97","97","0","97","Wed Oct 21 16:59:45 2020","The main experiment item","yes","Sternbergtask.osexp","C:\Users\chris\OneDrive\Desktop\Advanced Quanitative Methods and Design\lab 3\3","no","mono","no","18","no","white","no","yes","768","legacy","85","11","C:/Users/chris/OneDrive/Desktop/Advanced Quanitative Methods and Design/lab 3/3/CM-subject-4.csv","legacy","3 9 6 2","Lentiform Loewenfeld","3.3.3","4","y","0","right","right","NA","down","right","726","831","NA","410","726","2","legacy","4","1024","2","48000","-16","experiment","4","even","2","606517","599343","76702","607523","NA","605379","77533","606515","2115","2118","608728","610733","611460","2529","610733","Sternberg task","73","82865","98","yes","1024"
"74.74747474747475","74.74747474747475","844.989898989899","844.989898989899","black","experiment","legacy","legacy","legacy","0","uniform","1","undefined","1","right","98","98","0","98","0","98","0","98","0","0","98","98","98","0","98","Wed Oct 21 16:59:45 2020","The main experiment item","yes","Sternbergtask.osexp","C:\Users\chris\OneDrive\Desktop\Advanced Quanitative Methods and Design\lab 3\3","no","mono","no","18","no","white","no","yes","768","legacy","86","11","C:/Users/chris/OneDrive/Desktop/Advanced Quanitative Methods and Design/lab 3/3/CM-subject-4.csv","legacy","8 6 3 4 7","Lentiform Loewenfeld","3.3.3","0","n","0","right","right","NA","down","right","789","831","NA","410","789","2","legacy","5","1024","2","48000","-16","experiment","4","even","1","612603","611463","76702","613608","NA","605379","77533","612601","2115","2118","614813","616818","617608","2529","616818","Sternberg task","74","83654","99","yes","1024"
"75","75","846.45","846.45","black","experiment","legacy","legacy","legacy","0","uniform","1","undefined","1","left","99","99","0","99","0","99","0","99","0","0","99","99","99","0","99","Wed Oct 21 16:59:45 2020","The main experiment item","yes","Sternbergtask.osexp","C:\Users\chris\OneDrive\Desktop\Advanced Quanitative Methods and Design\lab 3\3","no","mono","no","18","no","white","no","yes","768","legacy","87","11","C:/Users/chris/OneDrive/Desktop/Advanced Quanitative Methods and Design/lab 3/3/CM-subject-4.csv","legacy","8 5 1 3 9","Lentiform Loewenfeld","3.3.3","4","y","0","left","right","NA","down","left","991","831","NA","410","991","2","legacy","5","1024","2","48000","-16","experiment","4","even","3","618752","611463","76702","619757","NA","617612","77533","618750","2115","2118","620962","622967","623960","2529","622967","Sternberg task","75","84645","100","yes","1024"
"75.24752475247524","75.24752475247524","845.019801980198","845.019801980198","black","experiment","legacy","legacy","legacy","0","uniform","1","undefined","1","right","100","100","0","100","0","100","0","100","0","0","100","100","100","0","100","Wed Oct 21 16:59:45 2020","The main experiment item","yes","Sternbergtask.osexp","C:\Users\chris\OneDrive\Desktop\Advanced Quanitative Methods and Design\lab 3\3","no","mono","no","18","no","white","no","yes","768","legacy","88","11","C:/Users/chris/OneDrive/Desktop/Advanced Quanitative Methods and Design/lab 3/3/CM-subject-4.csv","legacy","4 2 6 9","Lentiform Loewenfeld","3.3.3","0","n","0","right","right","NA","down","right","702","831","NA","410","702","2","legacy","4","1024","2","48000","-16","experiment","4","even","7","625109","611463","76702","626114","NA","623967","77533","625107","2115","2118","627319","629324","630028","2529","629324","Sternberg task","76","85347","101","yes","1024"
"75.49019607843137","75.49019607843137","842.2549019607843","842.2549019607843","black","experiment","legacy","legacy","legacy","0","uniform","1","undefined","1","right","101","101","0","101","0","101","0","101","0","0","101","101","101","0","101","Wed Oct 21 16:59:45 2020","The main experiment item","yes","Sternbergtask.osexp","C:\Users\chris\OneDrive\Desktop\Advanced Quanitative Methods and Design\lab 3\3","no","mono","no","18","no","white","no","yes","768","legacy","89","11","C:/Users/chris/OneDrive/Desktop/Advanced Quanitative Methods and Design/lab 3/3/CM-subject-4.csv","legacy","6 3 1 7 9 8","Lentiform Loewenfeld","3.3.3","0","n","0","right","right","NA","down","right","563","831","NA","410","563","2","legacy","6","1024","2","48000","-16","experiment","4","even","4","631174","611463","76702","632179","NA","630035","77533","631172","2115","2118","633384","635389","635954","2529","635389","Sternberg task","77","85910","102","yes","1024"
"75.72815533980582","75.72815533980582","842.4466019417475","842.4466019417475","black","experiment","legacy","legacy","legacy","0","uniform","1","undefined","1","right","102","102","0","102","0","102","0","102","0","0","102","102","102","0","102","Wed Oct 21 16:59:45 2020","The main experiment item","yes","Sternbergtask.osexp","C:\Users\chris\OneDrive\Desktop\Advanced Quanitative Methods and Design\lab 3\3","no","mono","no","18","no","white","no","yes","768","legacy","90","11","C:/Users/chris/OneDrive/Desktop/Advanced Quanitative Methods and Design/lab 3/3/CM-subject-4.csv","legacy","7 9 1 6","Lentiform Loewenfeld","3.3.3","0","n","0","right","right","NA","down","right","862","831","NA","410","862","2","legacy","4","1024","2","48000","-16","experiment","4","even","4","637089","611463","76702","638094","NA","635958","77533","637087","2115","2118","639299","641304","642167","2529","641304","Sternberg task","78","86772","103","yes","1024"
"75.96153846153847","75.96153846153847","843.125","843.125","black","experiment","legacy","legacy","legacy","0","uniform","1","undefined","1","left","103","103","0","103","0","103","0","103","0","0","103","103","103","0","103","Wed Oct 21 16:59:45 2020","The main experiment item","yes","Sternbergtask.osexp","C:\Users\chris\OneDrive\Desktop\Advanced Quanitative Methods and Design\lab 3\3","no","mono","no","18","no","white","no","yes","768","legacy","91","11","C:/Users/chris/OneDrive/Desktop/Advanced Quanitative Methods and Design/lab 3/3/CM-subject-4.csv","legacy","9 6 2 4 1","Lentiform Loewenfeld","3.3.3","4","y","0","left","right","NA","down","left","913","831","NA","410","913","2","legacy","5","1024","2","48000","-16","experiment","4","even","4","643301","611463","76702","644306","NA","642171","77533","643299","2115","2118","645511","647516","648433","2529","647516","Sternberg task","79","87685","104","yes","1024"
"76.19047619047619","76.19047619047619","840.2666666666667","840.2666666666667","black","experiment","legacy","legacy","legacy","0","uniform","1","undefined","1","left","104","104","0","104","0","104","0","104","0","0","104","104","104","0","104","Wed Oct 21 16:59:45 2020","The main experiment item","yes","Sternbergtask.osexp","C:\Users\chris\OneDrive\Desktop\Advanced Quanitative Methods and Design\lab 3\3","no","mono","no","18","no","white","no","yes","768","legacy","92","11","C:/Users/chris/OneDrive/Desktop/Advanced Quanitative Methods and Design/lab 3/3/CM-subject-4.csv","legacy","7 1 8 5 6 2","Lentiform Loewenfeld","3.3.3","2","y","0","left","right","NA","down","left","543","831","NA","410","543","2","legacy","6","1024","2","48000","-16","experiment","4","even","1","649589","611463","76702","650594","NA","648444","77533","649587","2115","2118","651799","653804","654348","2529","653804","Sternberg task","80","88228","105","yes","1024"
"75.47169811320755","75.47169811320755","838.3018867924528","838.3018867924528","black","experiment","legacy","legacy","legacy","0","uniform","0","undefined","0","left","105","105","0","105","0","105","0","105","0","0","105","105","105","0","105","Wed Oct 21 16:59:45 2020","The main experiment item","yes","Sternbergtask.osexp","C:\Users\chris\OneDrive\Desktop\Advanced Quanitative Methods and Design\lab 3\3","no","mono","no","18","no","white","no","yes","768","legacy","93","11","C:/Users/chris/OneDrive/Desktop/Advanced Quanitative Methods and Design/lab 3/3/CM-subject-4.csv","legacy","6 9 7 4 5 1","Lentiform Loewenfeld","3.3.3","2","y","0","right","right","NA","down","right","632","831","NA","410","632","2","legacy","6","1024","2","48000","-16","experiment","4","even","9","655482","611463","76702","656487","NA","654352","77533","655480","2115","2118","657692","659697","660332","2529","659697","Sternberg task","80","88860","106","yes","1024"
