"acc","accuracy","average_response_time","avg_rt","background","block","canvas_backend","clock_backend","color_backend","compensation","coordinates","correct","correct_instructions1","correct_keyboard_response","correct_response","count_ISI","count_correctFeedback","count_expSequence","count_experiment","count_experimentLoop","count_fixation","count_incorrectFeedback","count_instructions1","count_instructions2","count_keyboard_response","count_logger","count_memorySet","count_practiceLoop","count_probe","count_thankYou","datetime","description","disable_garbage_collection","experiment_file","experiment_path","font_bold","font_family","font_italic","font_size","font_underline","foreground","form_clicks","fullscreen","height","keyboard_backend","live_row","live_row_practiceLoop","logfile","mouse_backend","numberSet","opensesame_codename","opensesame_version","posInSet","present","repeat_cycle","response","response_instructions1","response_instructions2","response_keyboard_response","response_thankYou","response_time","response_time_instructions1","response_time_instructions2","response_time_keyboard_response","response_time_thankYou","round_decimals","sampler_backend","setSize","sound_buf_size","sound_channels","sound_freq","sound_sample_size","start","subject_nr","subject_parity","target","time_ISI","time_correctFeedback","time_expSequence","time_experiment","time_experimentLoop","time_fixation","time_incorrectFeedback","time_instructions1","time_instructions2","time_keyboard_response","time_logger","time_memorySet","time_practiceLoop","time_probe","time_thankYou","title","total_correct","total_response_time","total_responses","uniform_coordinates","width"
"100","100","1375","1375","black","practice","legacy","legacy","legacy","0","uniform","1","undefined","1","left","0","0","0","0","0","0","0","0","0","0","0","0","0","0","0","Mon Oct  1 12:33:41 2018","The main experiment item","yes","SternbergTask.osexp","/Users/emorgan/Desktop","no","mono","no","18","no","white","no","yes","768","legacy","0","0","/Users/emorgan/Desktop/EM subject-1, f, 25.csv","legacy","1 7 9 8 5","Kafkaesque Koffka","3.2.5","4","y","0","left","right","NA","left","NA","1375","38806","NA","1375","NA","2","legacy","5","1024","2","48000","-16","experiment","1","odd","8","52688","NA","50457","10857","NA","50468","NA","10879","NA","54699","56075","51478","49737","54698","NA","Sternberg Task","1","1375","1","yes","1024"
"100","100","1178","1178","black","practice","legacy","legacy","legacy","0","uniform","1","undefined","1","left","1","1","1","0","0","1","1","0","0","1","1","1","0","1","0","Mon Oct  1 12:33:41 2018","The main experiment item","yes","SternbergTask.osexp","/Users/emorgan/Desktop","no","mono","no","18","no","white","no","yes","768","legacy","1","1","/Users/emorgan/Desktop/EM subject-1, f, 25.csv","legacy","2 9 4","Kafkaesque Koffka","3.2.5","3","y","0","left","right","NA","left","NA","981","38806","NA","981","NA","2","legacy","3","1024","2","48000","-16","experiment","1","odd","4","59473","56153","57239","10857","NA","57251","NA","10879","NA","61484","62466","58262","49737","61484","NA","Sternberg Task","2","2356","2","yes","1024"
"100","100","1063","1063","black","practice","legacy","legacy","legacy","0","uniform","1","undefined","1","left","2","2","2","0","0","2","2","0","0","2","2","2","0","2","0","Mon Oct  1 12:33:41 2018","The main experiment item","yes","SternbergTask.osexp","/Users/emorgan/Desktop","no","mono","no","18","no","white","no","yes","768","legacy","2","2","/Users/emorgan/Desktop/EM subject-1, f, 25.csv","legacy","6","Kafkaesque Koffka","3.2.5","1","y","0","left","right","NA","left","NA","833","38806","NA","833","NA","2","legacy","1","1024","2","48000","-16","experiment","1","odd","6","65786","62478","63554","10857","NA","63565","NA","10879","NA","67797","68631","64575","49737","67797","NA","Sternberg Task","3","3189","3","yes","1024"
"100","100","991.25","991.25","black","practice","legacy","legacy","legacy","0","uniform","1","undefined","1","right","3","3","3","0","0","3","3","0","0","3","3","3","0","3","0","Mon Oct  1 12:33:41 2018","The main experiment item","yes","SternbergTask.osexp","/Users/emorgan/Desktop","no","mono","no","18","no","white","no","yes","768","legacy","3","3","/Users/emorgan/Desktop/EM subject-1, f, 25.csv","legacy","9 6 7 4 5","Kafkaesque Koffka","3.2.5","0","n","0","right","right","NA","right","NA","776","38806","NA","776","NA","2","legacy","5","1024","2","48000","-16","experiment","1","odd","3","71953","68644","69722","10857","NA","69733","NA","10879","NA","73963","74740","70743","49737","73963","NA","Sternberg Task","4","3965","4","yes","1024"
"100","100","934.8","934.8","black","practice","legacy","legacy","legacy","0","uniform","1","undefined","1","left","4","4","4","0","0","4","4","0","0","4","4","4","0","4","0","Mon Oct  1 12:33:41 2018","The main experiment item","yes","SternbergTask.osexp","/Users/emorgan/Desktop","no","mono","no","18","no","white","no","yes","768","legacy","4","4","/Users/emorgan/Desktop/EM subject-1, f, 25.csv","legacy","4 3 1 7 9 8","Kafkaesque Koffka","3.2.5","1","y","0","left","right","NA","left","NA","709","38806","NA","709","NA","2","legacy","6","1024","2","48000","-16","experiment","1","odd","4","78071","74759","75838","10857","NA","75849","NA","10879","NA","80083","80793","76860","49737","80082","NA","Sternberg Task","5","4674","5","yes","1024"
"100","100","878","878","black","practice","legacy","legacy","legacy","0","uniform","1","undefined","1","right","5","5","5","0","0","5","5","0","0","5","5","5","0","5","0","Mon Oct  1 12:33:41 2018","The main experiment item","yes","SternbergTask.osexp","/Users/emorgan/Desktop","no","mono","no","18","no","white","no","yes","768","legacy","5","5","/Users/emorgan/Desktop/EM subject-1, f, 25.csv","legacy","5 7 8 4 1 2","Kafkaesque Koffka","3.2.5","0","n","0","right","right","NA","right","NA","594","38806","NA","594","NA","2","legacy","6","1024","2","48000","-16","experiment","1","odd","6","84114","80804","81883","10857","NA","81894","NA","10879","NA","86126","86721","82904","49737","86125","NA","Sternberg Task","6","5268","6","yes","1024"
"100","100","826.428571429","826.428571429","black","practice","legacy","legacy","legacy","0","uniform","1","undefined","1","right","6","6","6","0","0","6","6","0","0","6","6","6","0","6","0","Mon Oct  1 12:33:41 2018","The main experiment item","yes","SternbergTask.osexp","/Users/emorgan/Desktop","no","mono","no","18","no","white","no","yes","768","legacy","6","6","/Users/emorgan/Desktop/EM subject-1, f, 25.csv","legacy","2 1","Kafkaesque Koffka","3.2.5","0","n","0","right","right","NA","right","NA","517","38806","NA","517","NA","2","legacy","2","1024","2","48000","-16","experiment","1","odd","5","90042","86734","87811","10857","NA","87822","NA","10879","NA","92053","92572","88832","49737","92053","NA","Sternberg Task","7","5785","7","yes","1024"
"100","100","777.75","777.75","black","practice","legacy","legacy","legacy","0","uniform","1","undefined","1","left","7","7","7","0","0","7","7","0","0","7","7","7","0","7","0","Mon Oct  1 12:33:41 2018","The main experiment item","yes","SternbergTask.osexp","/Users/emorgan/Desktop","no","mono","no","18","no","white","no","yes","768","legacy","7","7","/Users/emorgan/Desktop/EM subject-1, f, 25.csv","legacy","4 8","Kafkaesque Koffka","3.2.5","1","y","0","left","right","NA","left","NA","437","38806","NA","437","NA","2","legacy","2","1024","2","48000","-16","experiment","1","odd","4","95894","92584","93662","10857","NA","93673","NA","10879","NA","97905","98343","94684","49737","97905","NA","Sternberg Task","8","6222","8","yes","1024"
"100","100","746","746","black","practice","legacy","legacy","legacy","0","uniform","1","undefined","1","right","8","8","8","0","0","8","8","0","0","8","8","8","0","8","0","Mon Oct  1 12:33:41 2018","The main experiment item","yes","SternbergTask.osexp","/Users/emorgan/Desktop","no","mono","no","18","no","white","no","yes","768","legacy","8","8","/Users/emorgan/Desktop/EM subject-1, f, 25.csv","legacy","3 1 9 4","Kafkaesque Koffka","3.2.5","0","n","0","right","right","NA","right","NA","492","38806","NA","492","NA","2","legacy","4","1024","2","48000","-16","experiment","1","odd","6","101667","98356","99434","10857","NA","99445","NA","10879","NA","103678","104171","100455","49737","103678","NA","Sternberg Task","9","6714","9","yes","1024"
"100","100","727.5","727.5","black","practice","legacy","legacy","legacy","0","uniform","1","undefined","1","left","9","9","9","0","0","9","9","0","0","9","9","9","0","9","0","Mon Oct  1 12:33:41 2018","The main experiment item","yes","SternbergTask.osexp","/Users/emorgan/Desktop","no","mono","no","18","no","white","no","yes","768","legacy","9","9","/Users/emorgan/Desktop/EM subject-1, f, 25.csv","legacy","1 5 2 9","Kafkaesque Koffka","3.2.5","2","y","0","left","right","NA","left","NA","561","38806","NA","561","NA","2","legacy","4","1024","2","48000","-16","experiment","1","odd","5","107492","104183","105260","10857","NA","105271","NA","10879","NA","109503","110065","106281","49737","109503","NA","Sternberg Task","10","7275","10","yes","1024"
"100","100","706.181818182","706.181818182","black","practice","legacy","legacy","legacy","0","uniform","1","undefined","1","right","10","10","10","0","0","10","10","0","0","10","10","10","0","10","0","Mon Oct  1 12:33:41 2018","The main experiment item","yes","SternbergTask.osexp","/Users/emorgan/Desktop","no","mono","no","18","no","white","no","yes","768","legacy","10","10","/Users/emorgan/Desktop/EM subject-1, f, 25.csv","legacy","4 1 5","Kafkaesque Koffka","3.2.5","0","n","0","right","right","NA","right","NA","493","38806","NA","493","NA","2","legacy","3","1024","2","48000","-16","experiment","1","odd","2","113388","110077","111155","10857","NA","111166","NA","10879","NA","115399","115893","112177","49737","115399","NA","Sternberg Task","11","7768","11","yes","1024"
"100","100","696.916666667","696.916666667","black","practice","legacy","legacy","legacy","0","uniform","1","undefined","1","right","11","11","11","0","0","11","11","0","0","11","11","11","0","11","0","Mon Oct  1 12:33:41 2018","The main experiment item","yes","SternbergTask.osexp","/Users/emorgan/Desktop","no","mono","no","18","no","white","no","yes","768","legacy","11","11","/Users/emorgan/Desktop/EM subject-1, f, 25.csv","legacy","5","Kafkaesque Koffka","3.2.5","0","n","0","right","right","NA","right","NA","595","38806","NA","595","NA","2","legacy","1","1024","2","48000","-16","experiment","1","odd","3","119215","115905","116983","10857","NA","116994","NA","10879","NA","121226","121822","118004","49737","121226","NA","Sternberg Task","12","8363","12","yes","1024"
"100","100","693.230769231","693.230769231","black","experiment","legacy","legacy","legacy","0","uniform","1","undefined","1","left","12","12","12","0","0","12","12","0","0","12","12","12","0","12","0","Mon Oct  1 12:33:41 2018","The main experiment item","yes","SternbergTask.osexp","/Users/emorgan/Desktop","no","mono","no","18","no","white","no","yes","768","legacy","0","11","/Users/emorgan/Desktop/EM subject-1, f, 25.csv","legacy","2 3 7 4","Kafkaesque Koffka","3.2.5","1","y","0","left","right","right","left","NA","649","38806","6429","649","NA","2","legacy","4","1024","2","48000","-16","experiment","1","odd","2","131614","121834","129382","10857","129292","129392","NA","10879","122862","133626","134276","130403","49737","133626","NA","Sternberg Task","13","9012","13","yes","1024"
"100","100","691.785714286","691.785714286","black","experiment","legacy","legacy","legacy","0","uniform","1","undefined","1","left","13","13","13","0","0","13","13","0","0","13","13","13","0","13","0","Mon Oct  1 12:33:41 2018","The main experiment item","yes","SternbergTask.osexp","/Users/emorgan/Desktop","no","mono","no","18","no","white","no","yes","768","legacy","1","11","/Users/emorgan/Desktop/EM subject-1, f, 25.csv","legacy","4 9 7 8 5 3","Kafkaesque Koffka","3.2.5","4","y","0","left","right","right","left","NA","673","38806","6429","673","NA","2","legacy","6","1024","2","48000","-16","experiment","1","odd","8","137599","134288","135368","10857","129292","135378","NA","10879","122862","139610","140284","136388","49737","139610","NA","Sternberg Task","14","9685","14","yes","1024"
"100","100","684.6","684.6","black","experiment","legacy","legacy","legacy","0","uniform","1","undefined","1","left","14","14","14","0","0","14","14","0","0","14","14","14","0","14","0","Mon Oct  1 12:33:41 2018","The main experiment item","yes","SternbergTask.osexp","/Users/emorgan/Desktop","no","mono","no","18","no","white","no","yes","768","legacy","2","11","/Users/emorgan/Desktop/EM subject-1, f, 25.csv","legacy","3 5 4 7","Kafkaesque Koffka","3.2.5","1","y","0","left","right","right","left","NA","584","38806","6429","584","NA","2","legacy","4","1024","2","48000","-16","experiment","1","odd","3","143605","140296","141374","10857","129292","141384","NA","10879","122862","145616","146201","142394","49737","145616","NA","Sternberg Task","15","10269","15","yes","1024"
"100","100","666.375","666.375","black","experiment","legacy","legacy","legacy","0","uniform","1","undefined","1","right","15","15","15","0","0","15","15","0","0","15","15","15","0","15","0","Mon Oct  1 12:33:41 2018","The main experiment item","yes","SternbergTask.osexp","/Users/emorgan/Desktop","no","mono","no","18","no","white","no","yes","768","legacy","3","11","/Users/emorgan/Desktop/EM subject-1, f, 25.csv","legacy","4 1","Kafkaesque Koffka","3.2.5","0","n","0","right","right","right","right","NA","393","38806","6429","393","NA","2","legacy","2","1024","2","48000","-16","experiment","1","odd","6","149523","146214","147291","10857","129292","147302","NA","10879","122862","151534","151928","148312","49737","151534","NA","Sternberg Task","16","10662","16","yes","1024"
"100","100","655.588235294","655.588235294","black","experiment","legacy","legacy","legacy","0","uniform","1","undefined","1","left","16","16","16","0","0","16","16","0","0","16","16","16","0","16","0","Mon Oct  1 12:33:41 2018","The main experiment item","yes","SternbergTask.osexp","/Users/emorgan/Desktop","no","mono","no","18","no","white","no","yes","768","legacy","4","11","/Users/emorgan/Desktop/EM subject-1, f, 25.csv","legacy","2 3","Kafkaesque Koffka","3.2.5","1","y","0","left","right","right","left","NA","483","38806","6429","483","NA","2","legacy","2","1024","2","48000","-16","experiment","1","odd","2","155272","151964","153039","10857","129292","153050","NA","10879","122862","157282","157766","154060","49737","157282","NA","Sternberg Task","17","11145","17","yes","1024"
"100","100","657","657","black","experiment","legacy","legacy","legacy","0","uniform","1","undefined","1","left","17","17","17","0","0","17","17","0","0","17","17","17","0","17","0","Mon Oct  1 12:33:41 2018","The main experiment item","yes","SternbergTask.osexp","/Users/emorgan/Desktop","no","mono","no","18","no","white","no","yes","768","legacy","5","11","/Users/emorgan/Desktop/EM subject-1, f, 25.csv","legacy","5 2 9 6 1 7","Kafkaesque Koffka","3.2.5","3","y","0","left","right","right","left","NA","681","38806","6429","681","NA","2","legacy","6","1024","2","48000","-16","experiment","1","odd","9","161092","157781","158859","10857","129292","158870","NA","10879","122862","163103","163785","159881","49737","163102","NA","Sternberg Task","18","11826","18","yes","1024"
"100","100","653.421052632","653.421052632","black","experiment","legacy","legacy","legacy","0","uniform","1","undefined","1","right","18","18","18","0","0","18","18","0","0","18","18","18","0","18","0","Mon Oct  1 12:33:41 2018","The main experiment item","yes","SternbergTask.osexp","/Users/emorgan/Desktop","no","mono","no","18","no","white","no","yes","768","legacy","6","11","/Users/emorgan/Desktop/EM subject-1, f, 25.csv","legacy","7 1","Kafkaesque Koffka","3.2.5","0","n","0","right","right","right","right","NA","589","38806","6429","589","NA","2","legacy","2","1024","2","48000","-16","experiment","1","odd","8","167112","163797","164880","10857","129292","164891","NA","10879","122862","169124","169714","165902","49737","169124","NA","Sternberg Task","19","12415","19","yes","1024"
"100","100","668.6","668.6","black","experiment","legacy","legacy","legacy","0","uniform","1","undefined","1","left","19","19","19","0","0","19","19","0","0","19","19","19","0","19","0","Mon Oct  1 12:33:41 2018","The main experiment item","yes","SternbergTask.osexp","/Users/emorgan/Desktop","no","mono","no","18","no","white","no","yes","768","legacy","7","11","/Users/emorgan/Desktop/EM subject-1, f, 25.csv","legacy","7 8 6 3 1","Kafkaesque Koffka","3.2.5","5","y","0","left","right","right","left","NA","957","38806","6429","957","NA","2","legacy","5","1024","2","48000","-16","experiment","1","odd","1","173067","169757","170834","10857","129292","170845","NA","10879","122862","175078","176036","171855","49737","175078","NA","Sternberg Task","20","13372","20","yes","1024"
"100","100","664.19047619","664.19047619","black","experiment","legacy","legacy","legacy","0","uniform","1","undefined","1","left","20","20","20","0","0","20","20","0","0","20","20","20","0","20","0","Mon Oct  1 12:33:41 2018","The main experiment item","yes","SternbergTask.osexp","/Users/emorgan/Desktop","no","mono","no","18","no","white","no","yes","768","legacy","8","11","/Users/emorgan/Desktop/EM subject-1, f, 25.csv","legacy","5 7 8 2 3 8","Kafkaesque Koffka","3.2.5","5","y","0","left","right","right","left","NA","576","38806","6429","576","NA","2","legacy","6","1024","2","48000","-16","experiment","1","odd","3","179378","176063","177144","10857","129292","177155","NA","10879","122862","181389","181966","178166","49737","181389","NA","Sternberg Task","21","13948","21","yes","1024"
"100","100","659","659","black","experiment","legacy","legacy","legacy","0","uniform","1","undefined","1","left","21","21","21","0","0","21","21","0","0","21","21","21","0","21","0","Mon Oct  1 12:33:41 2018","The main experiment item","yes","SternbergTask.osexp","/Users/emorgan/Desktop","no","mono","no","18","no","white","no","yes","768","legacy","9","11","/Users/emorgan/Desktop/EM subject-1, f, 25.csv","legacy","3 4 9 6 2 9","Kafkaesque Koffka","3.2.5","5","y","0","left","right","right","left","NA","550","38806","6429","550","NA","2","legacy","6","1024","2","48000","-16","experiment","1","odd","2","185310","181998","183075","10857","129292","183085","NA","10879","122862","187321","187872","184098","49737","187321","NA","Sternberg Task","22","14498","22","yes","1024"
"100","100","652.52173913","652.52173913","black","experiment","legacy","legacy","legacy","0","uniform","1","undefined","1","left","22","22","22","0","0","22","22","0","0","22","22","22","0","22","0","Mon Oct  1 12:33:41 2018","The main experiment item","yes","SternbergTask.osexp","/Users/emorgan/Desktop","no","mono","no","18","no","white","no","yes","768","legacy","10","11","/Users/emorgan/Desktop/EM subject-1, f, 25.csv","legacy","6 9 7 4 5 1","Kafkaesque Koffka","3.2.5","2","y","0","left","right","right","left","NA","510","38806","6429","510","NA","2","legacy","6","1024","2","48000","-16","experiment","1","odd","9","191200","187890","188968","10857","129292","188979","NA","10879","122862","193211","193722","189990","49737","193211","NA","Sternberg Task","23","15008","23","yes","1024"
"100","100","651.5","651.5","black","experiment","legacy","legacy","legacy","0","uniform","1","undefined","1","right","23","23","23","0","0","23","23","0","0","23","23","23","0","23","0","Mon Oct  1 12:33:41 2018","The main experiment item","yes","SternbergTask.osexp","/Users/emorgan/Desktop","no","mono","no","18","no","white","no","yes","768","legacy","11","11","/Users/emorgan/Desktop/EM subject-1, f, 25.csv","legacy","8 5 7 3 6","Kafkaesque Koffka","3.2.5","0","n","0","right","right","right","right","NA","628","38806","6429","628","NA","2","legacy","5","1024","2","48000","-16","experiment","1","odd","9","197045","193734","194812","10857","129292","194823","NA","10879","122862","199056","199685","195834","49737","199056","NA","Sternberg Task","24","15636","24","yes","1024"
"100","100","650.56","650.56","black","experiment","legacy","legacy","legacy","0","uniform","1","undefined","1","left","24","24","24","0","0","24","24","0","0","24","24","24","0","24","0","Mon Oct  1 12:33:41 2018","The main experiment item","yes","SternbergTask.osexp","/Users/emorgan/Desktop","no","mono","no","18","no","white","no","yes","768","legacy","12","11","/Users/emorgan/Desktop/EM subject-1, f, 25.csv","legacy","9 4 2","Kafkaesque Koffka","3.2.5","1","y","0","left","right","right","left","NA","628","38806","6429","628","NA","2","legacy","3","1024","2","48000","-16","experiment","1","odd","9","203006","199697","200775","10857","129292","200786","NA","10879","122862","205018","205648","201797","49737","205017","NA","Sternberg Task","25","16264","25","yes","1024"
"100","100","646.961538462","646.961538462","black","experiment","legacy","legacy","legacy","0","uniform","1","undefined","1","left","25","25","25","0","0","25","25","0","0","25","25","25","0","25","0","Mon Oct  1 12:33:41 2018","The main experiment item","yes","SternbergTask.osexp","/Users/emorgan/Desktop","no","mono","no","18","no","white","no","yes","768","legacy","13","11","/Users/emorgan/Desktop/EM subject-1, f, 25.csv","legacy","2 4 8 5 1 3","Kafkaesque Koffka","3.2.5","1","y","0","left","right","right","left","NA","557","38806","6429","557","NA","2","legacy","6","1024","2","48000","-16","experiment","1","odd","2","208973","205661","206740","10857","129292","206751","NA","10879","122862","210984","211543","207762","49737","210983","NA","Sternberg Task","26","16821","26","yes","1024"
"100","100","644.185185185","644.185185185","black","experiment","legacy","legacy","legacy","0","uniform","1","undefined","1","left","26","26","26","0","0","26","26","0","0","26","26","26","0","26","0","Mon Oct  1 12:33:41 2018","The main experiment item","yes","SternbergTask.osexp","/Users/emorgan/Desktop","no","mono","no","18","no","white","no","yes","768","legacy","14","11","/Users/emorgan/Desktop/EM subject-1, f, 25.csv","legacy","7 4 2 6 3 5","Kafkaesque Koffka","3.2.5","6","y","0","left","right","right","left","NA","572","38806","6429","572","NA","2","legacy","6","1024","2","48000","-16","experiment","1","odd","5","214866","211555","212634","10857","129292","212645","NA","10879","122862","216876","217449","213655","49737","216876","NA","Sternberg Task","27","17393","27","yes","1024"
"100","100","644.071428571","644.071428571","black","experiment","legacy","legacy","legacy","0","uniform","1","undefined","1","right","27","27","27","0","0","27","27","0","0","27","27","27","0","27","0","Mon Oct  1 12:33:41 2018","The main experiment item","yes","SternbergTask.osexp","/Users/emorgan/Desktop","no","mono","no","18","no","white","no","yes","768","legacy","15","11","/Users/emorgan/Desktop/EM subject-1, f, 25.csv","legacy","8 9","Kafkaesque Koffka","3.2.5","0","n","0","right","right","right","right","NA","641","38806","6429","641","NA","2","legacy","2","1024","2","48000","-16","experiment","1","odd","5","220770","217461","218539","10857","129292","218549","NA","10879","122862","222781","223423","219560","49737","222781","NA","Sternberg Task","28","18034","28","yes","1024"
"100","100","642","642","black","experiment","legacy","legacy","legacy","0","uniform","1","undefined","1","left","28","28","28","0","0","28","28","0","0","28","28","28","0","28","0","Mon Oct  1 12:33:41 2018","The main experiment item","yes","SternbergTask.osexp","/Users/emorgan/Desktop","no","mono","no","18","no","white","no","yes","768","legacy","16","11","/Users/emorgan/Desktop/EM subject-1, f, 25.csv","legacy","3 2 1 4 7","Kafkaesque Koffka","3.2.5","2","y","0","left","right","right","left","NA","584","38806","6429","584","NA","2","legacy","5","1024","2","48000","-16","experiment","1","odd","2","226743","223435","224512","10857","129292","224523","NA","10879","122862","228755","229341","225533","49737","228755","NA","Sternberg Task","29","18618","29","yes","1024"
"100","100","644.9","644.9","black","experiment","legacy","legacy","legacy","0","uniform","1","undefined","1","right","29","29","29","0","0","29","29","0","0","29","29","29","0","29","0","Mon Oct  1 12:33:41 2018","The main experiment item","yes","SternbergTask.osexp","/Users/emorgan/Desktop","no","mono","no","18","no","white","no","yes","768","legacy","17","11","/Users/emorgan/Desktop/EM subject-1, f, 25.csv","legacy","8 5 4 2 9 6","Kafkaesque Koffka","3.2.5","0","n","0","right","right","right","right","NA","729","38806","6429","729","NA","2","legacy","6","1024","2","48000","-16","experiment","1","odd","3","232663","229353","230430","10857","129292","230441","NA","10879","122862","234674","235404","231452","49737","234674","NA","Sternberg Task","30","19347","30","yes","1024"
"100","100","640.419354839","640.419354839","black","experiment","legacy","legacy","legacy","0","uniform","1","undefined","1","left","30","30","30","0","0","30","30","0","0","30","30","30","0","30","0","Mon Oct  1 12:33:41 2018","The main experiment item","yes","SternbergTask.osexp","/Users/emorgan/Desktop","no","mono","no","18","no","white","no","yes","768","legacy","18","11","/Users/emorgan/Desktop/EM subject-1, f, 25.csv","legacy","9 1 7 2","Kafkaesque Koffka","3.2.5","2","y","0","left","right","right","left","NA","506","38806","6429","506","NA","2","legacy","4","1024","2","48000","-16","experiment","1","odd","1","238725","235416","236494","10857","129292","236505","NA","10879","122862","240736","241243","237515","49737","240736","NA","Sternberg Task","31","19853","31","yes","1024"
"100","100","635.78125","635.78125","black","experiment","legacy","legacy","legacy","0","uniform","1","undefined","1","left","31","31","31","0","0","31","31","0","0","31","31","31","0","31","0","Mon Oct  1 12:33:41 2018","The main experiment item","yes","SternbergTask.osexp","/Users/emorgan/Desktop","no","mono","no","18","no","white","no","yes","768","legacy","19","11","/Users/emorgan/Desktop/EM subject-1, f, 25.csv","legacy","8 1 6","Kafkaesque Koffka","3.2.5","3","y","0","left","right","right","left","NA","492","38806","6429","492","NA","2","legacy","3","1024","2","48000","-16","experiment","1","odd","6","244565","241257","242334","10857","129292","242345","NA","10879","122862","246577","247070","243355","49737","246577","NA","Sternberg Task","32","20345","32","yes","1024"
"100","100","634.060606061","634.060606061","black","experiment","legacy","legacy","legacy","0","uniform","1","undefined","1","right","32","32","32","0","0","32","32","0","0","32","32","32","0","32","0","Mon Oct  1 12:33:41 2018","The main experiment item","yes","SternbergTask.osexp","/Users/emorgan/Desktop","no","mono","no","18","no","white","no","yes","768","legacy","20","11","/Users/emorgan/Desktop/EM subject-1, f, 25.csv","legacy","1 3 2 6 9","Kafkaesque Koffka","3.2.5","0","n","0","right","right","right","right","NA","579","38806","6429","579","NA","2","legacy","5","1024","2","48000","-16","experiment","1","odd","5","250397","247083","248167","10857","129292","248177","NA","10879","122862","252408","252988","249187","49737","252407","NA","Sternberg Task","33","20924","33","yes","1024"
"100","100","632.558823529","632.558823529","black","experiment","legacy","legacy","legacy","0","uniform","1","undefined","1","right","33","33","33","0","0","33","33","0","0","33","33","33","0","33","0","Mon Oct  1 12:33:41 2018","The main experiment item","yes","SternbergTask.osexp","/Users/emorgan/Desktop","no","mono","no","18","no","white","no","yes","768","legacy","21","11","/Users/emorgan/Desktop/EM subject-1, f, 25.csv","legacy","8 2 1 4 5 9","Kafkaesque Koffka","3.2.5","0","n","0","right","right","right","right","NA","583","38806","6429","583","NA","2","legacy","6","1024","2","48000","-16","experiment","1","odd","7","256322","253012","254090","10857","129292","254101","NA","10879","122862","258333","258918","255112","49737","258333","NA","Sternberg Task","34","21507","34","yes","1024"
"100","100","628.885714286","628.885714286","black","experiment","legacy","legacy","legacy","0","uniform","1","undefined","1","right","34","34","34","0","0","34","34","0","0","34","34","34","0","34","0","Mon Oct  1 12:33:41 2018","The main experiment item","yes","SternbergTask.osexp","/Users/emorgan/Desktop","no","mono","no","18","no","white","no","yes","768","legacy","22","11","/Users/emorgan/Desktop/EM subject-1, f, 25.csv","legacy","7 8 6 1","Kafkaesque Koffka","3.2.5","0","n","0","right","right","right","right","NA","504","38806","6429","504","NA","2","legacy","4","1024","2","48000","-16","experiment","1","odd","3","262240","258930","260006","10857","129292","260017","NA","10879","122862","264251","264756","261027","49737","264251","NA","Sternberg Task","35","22011","35","yes","1024"
"100","100","625.111111111","625.111111111","black","experiment","legacy","legacy","legacy","0","uniform","1","undefined","1","left","35","35","35","0","0","35","35","0","0","35","35","35","0","35","0","Mon Oct  1 12:33:41 2018","The main experiment item","yes","SternbergTask.osexp","/Users/emorgan/Desktop","no","mono","no","18","no","white","no","yes","768","legacy","23","11","/Users/emorgan/Desktop/EM subject-1, f, 25.csv","legacy","9 5 8 1","Kafkaesque Koffka","3.2.5","2","y","0","left","right","right","left","NA","493","38806","6429","493","NA","2","legacy","4","1024","2","48000","-16","experiment","1","odd","5","268090","264780","265857","10857","129292","265868","NA","10879","122862","270101","270595","266880","49737","270101","NA","Sternberg Task","36","22504","36","yes","1024"
"100","100","620.972972973","620.972972973","black","experiment","legacy","legacy","legacy","0","uniform","1","undefined","1","left","36","36","36","0","0","36","36","0","0","36","36","36","0","36","0","Mon Oct  1 12:33:41 2018","The main experiment item","yes","SternbergTask.osexp","/Users/emorgan/Desktop","no","mono","no","18","no","white","no","yes","768","legacy","24","11","/Users/emorgan/Desktop/EM subject-1, f, 25.csv","legacy","7 6","Kafkaesque Koffka","3.2.5","2","y","0","left","right","right","left","NA","472","38806","6429","472","NA","2","legacy","2","1024","2","48000","-16","experiment","1","odd","6","273915","270607","271684","10857","129292","271695","NA","10879","122862","275927","276400","272705","49737","275926","NA","Sternberg Task","37","22976","37","yes","1024"
"100","100","619.157894737","619.157894737","black","experiment","legacy","legacy","legacy","0","uniform","1","undefined","1","left","37","37","37","0","0","37","37","0","0","37","37","37","0","37","0","Mon Oct  1 12:33:41 2018","The main experiment item","yes","SternbergTask.osexp","/Users/emorgan/Desktop","no","mono","no","18","no","white","no","yes","768","legacy","25","11","/Users/emorgan/Desktop/EM subject-1, f, 25.csv","legacy","9 5 3 8 4","Kafkaesque Koffka","3.2.5","1","y","0","left","right","right","left","NA","552","38806","6429","552","NA","2","legacy","5","1024","2","48000","-16","experiment","1","odd","9","279800","276491","277568","10857","129292","277580","NA","10879","122862","281810","282363","278590","49737","281810","NA","Sternberg Task","38","23528","38","yes","1024"
"100","100","616.128205128","616.128205128","black","experiment","legacy","legacy","legacy","0","uniform","1","undefined","1","right","38","38","38","0","0","38","38","0","0","38","38","38","0","38","0","Mon Oct  1 12:33:41 2018","The main experiment item","yes","SternbergTask.osexp","/Users/emorgan/Desktop","no","mono","no","18","no","white","no","yes","768","legacy","26","11","/Users/emorgan/Desktop/EM subject-1, f, 25.csv","legacy","2 8 6 3 1","Kafkaesque Koffka","3.2.5","0","n","0","right","right","right","right","NA","501","38806","6429","501","NA","2","legacy","5","1024","2","48000","-16","experiment","1","odd","7","285689","282375","283457","10857","129292","283468","NA","10879","122862","287700","288202","284479","49737","287700","NA","Sternberg Task","39","24029","39","yes","1024"
"100","100","612.525","612.525","black","experiment","legacy","legacy","legacy","0","uniform","1","undefined","1","right","39","39","39","0","0","39","39","0","0","39","39","39","0","39","0","Mon Oct  1 12:33:41 2018","The main experiment item","yes","SternbergTask.osexp","/Users/emorgan/Desktop","no","mono","no","18","no","white","no","yes","768","legacy","27","11","/Users/emorgan/Desktop/EM subject-1, f, 25.csv","legacy","8 4 3 5","Kafkaesque Koffka","3.2.5","0","n","0","right","right","right","right","NA","472","38806","6429","472","NA","2","legacy","4","1024","2","48000","-16","experiment","1","odd","6","291534","288225","289302","10857","129292","289313","NA","10879","122862","293544","294017","290324","49737","293544","NA","Sternberg Task","40","24501","40","yes","1024"
"100","100","611.146341463","611.146341463","black","experiment","legacy","legacy","legacy","0","uniform","1","undefined","1","right","40","40","40","0","0","40","40","0","0","40","40","40","0","40","0","Mon Oct  1 12:33:41 2018","The main experiment item","yes","SternbergTask.osexp","/Users/emorgan/Desktop","no","mono","no","18","no","white","no","yes","768","legacy","28","11","/Users/emorgan/Desktop/EM subject-1, f, 25.csv","legacy","3 9 8 1 6 4","Kafkaesque Koffka","3.2.5","0","n","0","right","right","right","right","NA","556","38806","6429","556","NA","2","legacy","6","1024","2","48000","-16","experiment","1","odd","7","297345","294029","295112","10857","129292","295124","NA","10879","122862","299356","299913","296135","49737","299356","NA","Sternberg Task","41","25057","41","yes","1024"
"100","100","611.404761905","611.404761905","black","experiment","legacy","legacy","legacy","0","uniform","1","undefined","1","left","41","41","41","0","0","41","41","0","0","41","41","41","0","41","0","Mon Oct  1 12:33:41 2018","The main experiment item","yes","SternbergTask.osexp","/Users/emorgan/Desktop","no","mono","no","18","no","white","no","yes","768","legacy","29","11","/Users/emorgan/Desktop/EM subject-1, f, 25.csv","legacy","4 6 2 5 1","Kafkaesque Koffka","3.2.5","5","y","0","left","right","right","left","NA","622","38806","6429","622","NA","2","legacy","5","1024","2","48000","-16","experiment","1","odd","1","303253","299937","301020","10857","129292","301032","NA","10879","122862","305264","305887","302042","49737","305264","NA","Sternberg Task","42","25679","42","yes","1024"
"100","100","608.860465116","608.860465116","black","experiment","legacy","legacy","legacy","0","uniform","1","undefined","1","right","42","42","42","0","0","42","42","0","0","42","42","42","0","42","0","Mon Oct  1 12:33:41 2018","The main experiment item","yes","SternbergTask.osexp","/Users/emorgan/Desktop","no","mono","no","18","no","white","no","yes","768","legacy","30","11","/Users/emorgan/Desktop/EM subject-1, f, 25.csv","legacy","1 4 9 3","Kafkaesque Koffka","3.2.5","0","n","0","right","right","right","right","NA","502","38806","6429","502","NA","2","legacy","4","1024","2","48000","-16","experiment","1","odd","5","309313","306000","307079","10857","129292","307090","NA","10879","122862","311324","311827","308102","49737","311323","NA","Sternberg Task","43","26181","43","yes","1024"
"100","100","605.909090909","605.909090909","black","experiment","legacy","legacy","legacy","0","uniform","1","undefined","1","right","43","43","43","0","0","43","43","0","0","43","43","43","0","43","0","Mon Oct  1 12:33:41 2018","The main experiment item","yes","SternbergTask.osexp","/Users/emorgan/Desktop","no","mono","no","18","no","white","no","yes","768","legacy","31","11","/Users/emorgan/Desktop/EM subject-1, f, 25.csv","legacy","7 1 5 6 3","Kafkaesque Koffka","3.2.5","0","n","0","right","right","right","right","NA","479","38806","6429","479","NA","2","legacy","5","1024","2","48000","-16","experiment","1","odd","8","315235","311923","313001","10857","129292","313013","NA","10879","122862","317246","317727","314024","49737","317246","NA","Sternberg Task","44","26660","44","yes","1024"
"100","100","606.866666667","606.866666667","black","experiment","legacy","legacy","legacy","0","uniform","1","undefined","1","left","44","44","44","0","0","44","44","0","0","44","44","44","0","44","0","Mon Oct  1 12:33:41 2018","The main experiment item","yes","SternbergTask.osexp","/Users/emorgan/Desktop","no","mono","no","18","no","white","no","yes","768","legacy","32","11","/Users/emorgan/Desktop/EM subject-1, f, 25.csv","legacy","2 5 4 8 7","Kafkaesque Koffka","3.2.5","3","y","0","left","right","right","left","NA","649","38806","6429","649","NA","2","legacy","5","1024","2","48000","-16","experiment","1","odd","4","321135","317823","318903","10857","129292","318914","NA","10879","122862","323147","323797","319924","49737","323147","NA","Sternberg Task","45","27309","45","yes","1024"
"100","100","607.02173913","607.02173913","black","experiment","legacy","legacy","legacy","0","uniform","1","undefined","1","right","45","45","45","0","0","45","45","0","0","45","45","45","0","45","0","Mon Oct  1 12:33:41 2018","The main experiment item","yes","SternbergTask.osexp","/Users/emorgan/Desktop","no","mono","no","18","no","white","no","yes","768","legacy","33","11","/Users/emorgan/Desktop/EM subject-1, f, 25.csv","legacy","1 7 5 2","Kafkaesque Koffka","3.2.5","0","n","0","right","right","right","right","NA","614","38806","6429","614","NA","2","legacy","4","1024","2","48000","-16","experiment","1","odd","3","327168","323857","324935","10857","129292","324946","NA","10879","122862","329179","329794","325957","49737","329179","NA","Sternberg Task","46","27923","46","yes","1024"
"100","100","605.29787234","605.29787234","black","experiment","legacy","legacy","legacy","0","uniform","1","undefined","1","left","46","46","46","0","0","46","46","0","0","46","46","46","0","46","0","Mon Oct  1 12:33:41 2018","The main experiment item","yes","SternbergTask.osexp","/Users/emorgan/Desktop","no","mono","no","18","no","white","no","yes","768","legacy","34","11","/Users/emorgan/Desktop/EM subject-1, f, 25.csv","legacy","9 8 4","Kafkaesque Koffka","3.2.5","1","y","0","left","right","right","left","NA","526","38806","6429","526","NA","2","legacy","3","1024","2","48000","-16","experiment","1","odd","9","333353","330031","331119","10857","129292","331132","NA","10879","122862","335364","335891","332143","49737","335364","NA","Sternberg Task","47","28449","47","yes","1024"
"100","100","603","603","black","experiment","legacy","legacy","legacy","0","uniform","1","undefined","1","right","47","47","47","0","0","47","47","0","0","47","47","47","0","47","0","Mon Oct  1 12:33:41 2018","The main experiment item","yes","SternbergTask.osexp","/Users/emorgan/Desktop","no","mono","no","18","no","white","no","yes","768","legacy","35","11","/Users/emorgan/Desktop/EM subject-1, f, 25.csv","legacy","2 5 1 4","Kafkaesque Koffka","3.2.5","0","n","0","right","right","right","right","NA","495","38806","6429","495","NA","2","legacy","4","1024","2","48000","-16","experiment","1","odd","6","339336","336024","337103","10857","129292","337113","NA","10879","122862","341347","341843","338125","49737","341346","NA","Sternberg Task","48","28944","48","yes","1024"
"100","100","602.081632653","602.081632653","black","experiment","legacy","legacy","legacy","0","uniform","1","undefined","1","right","48","48","48","0","0","48","48","0","0","48","48","48","0","48","0","Mon Oct  1 12:33:41 2018","The main experiment item","yes","SternbergTask.osexp","/Users/emorgan/Desktop","no","mono","no","18","no","white","no","yes","768","legacy","36","11","/Users/emorgan/Desktop/EM subject-1, f, 25.csv","legacy","2 8 9 4 1","Kafkaesque Koffka","3.2.5","0","n","0","right","right","right","right","NA","558","38806","6429","558","NA","2","legacy","5","1024","2","48000","-16","experiment","1","odd","5","345213","341903","342981","10857","129292","342992","NA","10879","122862","347224","347783","344002","49737","347224","NA","Sternberg Task","49","29502","49","yes","1024"
"100","100","601.88","601.88","black","experiment","legacy","legacy","legacy","0","uniform","1","undefined","1","left","49","49","49","0","0","49","49","0","0","49","49","49","0","49","0","Mon Oct  1 12:33:41 2018","The main experiment item","yes","SternbergTask.osexp","/Users/emorgan/Desktop","no","mono","no","18","no","white","no","yes","768","legacy","37","11","/Users/emorgan/Desktop/EM subject-1, f, 25.csv","legacy","5 7 3 6 2","Kafkaesque Koffka","3.2.5","5","y","0","left","right","right","left","NA","592","38806","6429","592","NA","2","legacy","5","1024","2","48000","-16","experiment","1","odd","2","351142","347825","348907","10857","129292","348918","NA","10879","122862","353152","353746","349931","49737","353152","NA","Sternberg Task","50","30094","50","yes","1024"
"100","100","599.941176471","599.941176471","black","experiment","legacy","legacy","legacy","0","uniform","1","undefined","1","right","50","50","50","0","0","50","50","0","0","50","50","50","0","50","0","Mon Oct  1 12:33:41 2018","The main experiment item","yes","SternbergTask.osexp","/Users/emorgan/Desktop","no","mono","no","18","no","white","no","yes","768","legacy","38","11","/Users/emorgan/Desktop/EM subject-1, f, 25.csv","legacy","7 4 2 8 1 9","Kafkaesque Koffka","3.2.5","0","n","0","right","right","right","right","NA","503","38806","6429","503","NA","2","legacy","6","1024","2","48000","-16","experiment","1","odd","5","357102","353792","354870","10857","129292","354881","NA","10879","122862","359114","359618","355891","49737","359114","NA","Sternberg Task","51","30597","51","yes","1024"
"100","100","598.576923077","598.576923077","black","experiment","legacy","legacy","legacy","0","uniform","1","undefined","1","right","51","51","51","0","0","51","51","0","0","51","51","51","0","51","0","Mon Oct  1 12:33:41 2018","The main experiment item","yes","SternbergTask.osexp","/Users/emorgan/Desktop","no","mono","no","18","no","white","no","yes","768","legacy","39","11","/Users/emorgan/Desktop/EM subject-1, f, 25.csv","legacy","7 6 4 8 1 2","Kafkaesque Koffka","3.2.5","0","n","0","right","right","right","right","NA","529","38806","6429","529","NA","2","legacy","6","1024","2","48000","-16","experiment","1","odd","9","362948","359637","360716","10857","129292","360727","NA","10879","122862","364960","365491","361738","49737","364959","NA","Sternberg Task","52","31126","52","yes","1024"
"100","100","596.79245283","596.79245283","black","experiment","legacy","legacy","legacy","0","uniform","1","undefined","1","right","52","52","52","0","0","52","52","0","0","52","52","52","0","52","0","Mon Oct  1 12:33:41 2018","The main experiment item","yes","SternbergTask.osexp","/Users/emorgan/Desktop","no","mono","no","18","no","white","no","yes","768","legacy","40","11","/Users/emorgan/Desktop/EM subject-1, f, 25.csv","legacy","1 6 4","Kafkaesque Koffka","3.2.5","0","n","0","right","right","right","right","NA","504","38806","6429","504","NA","2","legacy","3","1024","2","48000","-16","experiment","1","odd","7","368813","365503","366583","10857","129292","366593","NA","10879","122862","370824","371330","367603","49737","370824","NA","Sternberg Task","53","31630","53","yes","1024"
"100","100","594.388888889","594.388888889","black","experiment","legacy","legacy","legacy","0","uniform","1","undefined","1","right","53","53","53","0","0","53","53","0","0","53","53","53","0","53","0","Mon Oct  1 12:33:41 2018","The main experiment item","yes","SternbergTask.osexp","/Users/emorgan/Desktop","no","mono","no","18","no","white","no","yes","768","legacy","41","11","/Users/emorgan/Desktop/EM subject-1, f, 25.csv","legacy","4 8 1 2","Kafkaesque Koffka","3.2.5","0","n","0","right","right","right","right","NA","467","38806","6429","467","NA","2","legacy","4","1024","2","48000","-16","experiment","1","odd","7","374667","371351","372433","10857","129292","372445","NA","10879","122862","376678","377146","373456","49737","376678","NA","Sternberg Task","54","32097","54","yes","1024"
"100","100","593.490909091","593.490909091","black","experiment","legacy","legacy","legacy","0","uniform","1","undefined","1","left","54","54","54","0","0","54","54","0","0","54","54","54","0","54","0","Mon Oct  1 12:33:41 2018","The main experiment item","yes","SternbergTask.osexp","/Users/emorgan/Desktop","no","mono","no","18","no","white","no","yes","768","legacy","42","11","/Users/emorgan/Desktop/EM subject-1, f, 25.csv","legacy","3 5 7 1","Kafkaesque Koffka","3.2.5","3","y","0","left","right","right","left","NA","545","38806","6429","545","NA","2","legacy","4","1024","2","48000","-16","experiment","1","odd","7","380469","377158","378237","10857","129292","378248","NA","10879","122862","382483","383029","379259","49737","382483","NA","Sternberg Task","55","32642","55","yes","1024"
"100","100","591.875","591.875","black","experiment","legacy","legacy","legacy","0","uniform","1","undefined","1","right","55","55","55","0","0","55","55","0","0","55","55","55","0","55","0","Mon Oct  1 12:33:41 2018","The main experiment item","yes","SternbergTask.osexp","/Users/emorgan/Desktop","no","mono","no","18","no","white","no","yes","768","legacy","43","11","/Users/emorgan/Desktop/EM subject-1, f, 25.csv","legacy","7 1 8 4 9 3","Kafkaesque Koffka","3.2.5","0","n","0","right","right","right","right","NA","503","38806","6429","503","NA","2","legacy","6","1024","2","48000","-16","experiment","1","odd","6","386375","383061","384143","10857","129292","384154","NA","10879","122862","388387","388891","385165","49737","388387","NA","Sternberg Task","56","33145","56","yes","1024"
"100","100","590.456140351","590.456140351","black","experiment","legacy","legacy","legacy","0","uniform","1","undefined","1","left","56","56","56","0","0","56","56","0","0","56","56","56","0","56","0","Mon Oct  1 12:33:41 2018","The main experiment item","yes","SternbergTask.osexp","/Users/emorgan/Desktop","no","mono","no","18","no","white","no","yes","768","legacy","44","11","/Users/emorgan/Desktop/EM subject-1, f, 25.csv","legacy","6 1 2","Kafkaesque Koffka","3.2.5","3","y","0","left","right","right","left","NA","511","38806","6429","511","NA","2","legacy","3","1024","2","48000","-16","experiment","1","odd","2","392240","388925","390007","10857","129292","390018","NA","10879","122862","394251","394764","391028","49737","394251","NA","Sternberg Task","57","33656","57","yes","1024"
"100","100","589.913793103","589.913793103","black","experiment","legacy","legacy","legacy","0","uniform","1","undefined","1","left","57","57","57","0","0","57","57","0","0","57","57","57","0","57","0","Mon Oct  1 12:33:41 2018","The main experiment item","yes","SternbergTask.osexp","/Users/emorgan/Desktop","no","mono","no","18","no","white","no","yes","768","legacy","45","11","/Users/emorgan/Desktop/EM subject-1, f, 25.csv","legacy","7 1 8 5 6 2","Kafkaesque Koffka","3.2.5","2","y","0","left","right","right","left","NA","559","38806","6429","559","NA","2","legacy","6","1024","2","48000","-16","experiment","1","odd","1","398100","394790","395868","10857","129292","395879","NA","10879","122862","400110","400671","396890","49737","400110","NA","Sternberg Task","58","34215","58","yes","1024"
"100","100","586.949152542","586.949152542","black","experiment","legacy","legacy","legacy","0","uniform","1","undefined","1","left","58","58","58","0","0","58","58","0","0","58","58","58","0","58","0","Mon Oct  1 12:33:41 2018","The main experiment item","yes","SternbergTask.osexp","/Users/emorgan/Desktop","no","mono","no","18","no","white","no","yes","768","legacy","46","11","/Users/emorgan/Desktop/EM subject-1, f, 25.csv","legacy","6 5","Kafkaesque Koffka","3.2.5","2","y","0","left","right","right","left","NA","415","38806","6429","415","NA","2","legacy","2","1024","2","48000","-16","experiment","1","odd","5","404003","400692","401771","10857","129292","401782","NA","10879","122862","406014","406430","402793","49737","406014","NA","Sternberg Task","59","34630","59","yes","1024"
"100","100","589.3","589.3","black","experiment","legacy","legacy","legacy","0","uniform","1","undefined","1","right","59","59","59","0","0","59","59","0","0","59","59","59","0","59","0","Mon Oct  1 12:33:41 2018","The main experiment item","yes","SternbergTask.osexp","/Users/emorgan/Desktop","no","mono","no","18","no","white","no","yes","768","legacy","47","11","/Users/emorgan/Desktop/EM subject-1, f, 25.csv","legacy","5 9 2 3","Kafkaesque Koffka","3.2.5","0","n","0","right","right","right","right","NA","728","38806","6429","728","NA","2","legacy","4","1024","2","48000","-16","experiment","1","odd","8","409753","406442","407520","10857","129292","407531","NA","10879","122862","411765","412494","408542","49737","411765","NA","Sternberg Task","60","35358","60","yes","1024"
"100","100","587.704918033","587.704918033","black","experiment","legacy","legacy","legacy","0","uniform","1","undefined","1","right","60","60","60","0","0","60","60","0","0","60","60","60","0","60","0","Mon Oct  1 12:33:41 2018","The main experiment item","yes","SternbergTask.osexp","/Users/emorgan/Desktop","no","mono","no","18","no","white","no","yes","768","legacy","48","11","/Users/emorgan/Desktop/EM subject-1, f, 25.csv","legacy","3 4 9 6 7 8","Kafkaesque Koffka","3.2.5","0","n","0","right","right","right","right","NA","492","38806","6429","492","NA","2","legacy","6","1024","2","48000","-16","experiment","1","odd","2","415828","412510","413596","10857","129292","413607","NA","10879","122862","417840","418333","414617","49737","417840","NA","Sternberg Task","61","35850","61","yes","1024"
"100","100","588.548387097","588.548387097","black","experiment","legacy","legacy","legacy","0","uniform","1","undefined","1","right","61","61","61","0","0","61","61","0","0","61","61","61","0","61","0","Mon Oct  1 12:33:41 2018","The main experiment item","yes","SternbergTask.osexp","/Users/emorgan/Desktop","no","mono","no","18","no","white","no","yes","768","legacy","49","11","/Users/emorgan/Desktop/EM subject-1, f, 25.csv","legacy","8 6 3 4 7","Kafkaesque Koffka","3.2.5","0","n","0","right","right","right","right","NA","640","38806","6429","640","NA","2","legacy","5","1024","2","48000","-16","experiment","1","odd","1","421666","418352","419434","10857","129292","419445","NA","10879","122862","423677","424318","420455","49737","423677","NA","Sternberg Task","62","36490","62","yes","1024"
"100","100","591.349206349","591.349206349","black","experiment","legacy","legacy","legacy","0","uniform","1","undefined","1","left","62","62","62","0","0","62","62","0","0","62","62","62","0","62","0","Mon Oct  1 12:33:41 2018","The main experiment item","yes","SternbergTask.osexp","/Users/emorgan/Desktop","no","mono","no","18","no","white","no","yes","768","legacy","50","11","/Users/emorgan/Desktop/EM subject-1, f, 25.csv","legacy","5 2 6","Kafkaesque Koffka","3.2.5","2","y","0","left","right","right","left","NA","765","38806","6429","765","NA","2","legacy","3","1024","2","48000","-16","experiment","1","odd","2","427660","424350","425428","10857","129292","425439","NA","10879","122862","429672","430438","426449","49737","429672","NA","Sternberg Task","63","37255","63","yes","1024"
"100","100","589.859375","589.859375","black","experiment","legacy","legacy","legacy","0","uniform","1","undefined","1","right","63","63","63","0","0","63","63","0","0","63","63","63","0","63","0","Mon Oct  1 12:33:41 2018","The main experiment item","yes","SternbergTask.osexp","/Users/emorgan/Desktop","no","mono","no","18","no","white","no","yes","768","legacy","51","11","/Users/emorgan/Desktop/EM subject-1, f, 25.csv","legacy","1 6 4 3 9 7","Kafkaesque Koffka","3.2.5","0","n","0","right","right","right","right","NA","496","38806","6429","496","NA","2","legacy","6","1024","2","48000","-16","experiment","1","odd","8","433768","430455","431535","10857","129292","431546","NA","10879","122862","435780","436277","432557","49737","435779","NA","Sternberg Task","64","37751","64","yes","1024"
"100","100","590.969230769","590.969230769","black","experiment","legacy","legacy","legacy","0","uniform","1","undefined","1","right","64","64","64","0","0","64","64","0","0","64","64","64","0","64","0","Mon Oct  1 12:33:41 2018","The main experiment item","yes","SternbergTask.osexp","/Users/emorgan/Desktop","no","mono","no","18","no","white","no","yes","768","legacy","52","11","/Users/emorgan/Desktop/EM subject-1, f, 25.csv","legacy","1 5 3 2 8","Kafkaesque Koffka","3.2.5","0","n","0","right","right","right","right","NA","662","38806","6429","662","NA","2","legacy","5","1024","2","48000","-16","experiment","1","odd","4","439621","436309","437388","10857","129292","437399","NA","10879","122862","441633","442296","438409","49737","441633","NA","Sternberg Task","65","38413","65","yes","1024"
"100","100","590.636363636","590.636363636","black","experiment","legacy","legacy","legacy","0","uniform","1","undefined","1","right","65","65","65","0","0","65","65","0","0","65","65","65","0","65","0","Mon Oct  1 12:33:41 2018","The main experiment item","yes","SternbergTask.osexp","/Users/emorgan/Desktop","no","mono","no","18","no","white","no","yes","768","legacy","53","11","/Users/emorgan/Desktop/EM subject-1, f, 25.csv","legacy","5 7 3","Kafkaesque Koffka","3.2.5","0","n","0","right","right","right","right","NA","569","38806","6429","569","NA","2","legacy","3","1024","2","48000","-16","experiment","1","odd","9","445621","442311","443389","10857","129292","443400","NA","10879","122862","447632","448203","444410","49737","447632","NA","Sternberg Task","66","38982","66","yes","1024"
"98.5074626866","98.5074626866","589.029850746","589.029850746","black","experiment","legacy","legacy","legacy","0","uniform","0","undefined","0","left","66","66","66","0","0","66","66","0","0","66","66","66","0","66","0","Mon Oct  1 12:33:41 2018","The main experiment item","yes","SternbergTask.osexp","/Users/emorgan/Desktop","no","mono","no","18","no","white","no","yes","768","legacy","54","11","/Users/emorgan/Desktop/EM subject-1, f, 25.csv","legacy","8 3","Kafkaesque Koffka","3.2.5","2","y","0","right","right","right","right","NA","483","38806","6429","483","NA","2","legacy","2","1024","2","48000","-16","experiment","1","odd","3","451545","448229","449312","10857","129292","449323","NA","10879","122862","453556","454040","450334","49737","453556","NA","Sternberg Task","66","39465","67","yes","1024"
"98.5294117647","98.5294117647","588.397058824","588.397058824","black","experiment","legacy","legacy","legacy","0","uniform","1","undefined","1","right","67","67","67","0","0","67","67","0","0","67","67","67","0","67","0","Mon Oct  1 12:33:41 2018","The main experiment item","yes","SternbergTask.osexp","/Users/emorgan/Desktop","no","mono","no","18","no","white","no","yes","768","legacy","55","11","/Users/emorgan/Desktop/EM subject-1, f, 25.csv","legacy","1 7 5 2 9","Kafkaesque Koffka","3.2.5","0","n","0","right","right","right","right","NA","546","38806","6429","546","NA","2","legacy","5","1024","2","48000","-16","experiment","1","odd","3","457378","448229","455145","10857","129292","455156","454064","10879","122862","459389","459936","456167","49737","459388","NA","Sternberg Task","67","40011","68","yes","1024"
"98.5507246377","98.5507246377","588.043478261","588.043478261","black","experiment","legacy","legacy","legacy","0","uniform","1","undefined","1","right","68","68","68","0","0","68","68","0","0","68","68","68","0","68","0","Mon Oct  1 12:33:41 2018","The main experiment item","yes","SternbergTask.osexp","/Users/emorgan/Desktop","no","mono","no","18","no","white","no","yes","768","legacy","56","11","/Users/emorgan/Desktop/EM subject-1, f, 25.csv","legacy","3 9 1","Kafkaesque Koffka","3.2.5","0","n","0","right","right","right","right","NA","564","38806","6429","564","NA","2","legacy","3","1024","2","48000","-16","experiment","1","odd","7","463278","459968","461045","10857","129292","461056","454064","10879","122862","465289","465854","462067","49737","465289","NA","Sternberg Task","68","40575","69","yes","1024"
"98.5714285714","98.5714285714","587.828571429","587.828571429","black","experiment","legacy","legacy","legacy","0","uniform","1","undefined","1","left","69","69","69","0","0","69","69","0","0","69","69","69","0","69","0","Mon Oct  1 12:33:41 2018","The main experiment item","yes","SternbergTask.osexp","/Users/emorgan/Desktop","no","mono","no","18","no","white","no","yes","768","legacy","57","11","/Users/emorgan/Desktop/EM subject-1, f, 25.csv","legacy","6 8 9 3 4 9","Kafkaesque Koffka","3.2.5","5","y","0","left","right","right","left","NA","573","38806","6429","573","NA","2","legacy","6","1024","2","48000","-16","experiment","1","odd","4","469186","465876","466955","10857","129292","466966","454064","10879","122862","471197","471772","467976","49737","471197","NA","Sternberg Task","69","41148","70","yes","1024"
"98.5915492958","98.5915492958","587.366197183","587.366197183","black","experiment","legacy","legacy","legacy","0","uniform","1","undefined","1","left","70","70","70","0","0","70","70","0","0","70","70","70","0","70","0","Mon Oct  1 12:33:41 2018","The main experiment item","yes","SternbergTask.osexp","/Users/emorgan/Desktop","no","mono","no","18","no","white","no","yes","768","legacy","58","11","/Users/emorgan/Desktop/EM subject-1, f, 25.csv","legacy","4 1 5","Kafkaesque Koffka","3.2.5","2","y","0","left","right","right","left","NA","555","38806","6429","555","NA","2","legacy","3","1024","2","48000","-16","experiment","1","odd","1","475108","471798","472877","10857","129292","472888","454064","10879","122862","477121","477678","473898","49737","477121","NA","Sternberg Task","70","41703","71","yes","1024"
"98.6111111111","98.6111111111","588.180555556","588.180555556","black","experiment","legacy","legacy","legacy","0","uniform","1","undefined","1","left","71","71","71","0","0","71","71","0","0","71","71","71","0","71","0","Mon Oct  1 12:33:41 2018","The main experiment item","yes","SternbergTask.osexp","/Users/emorgan/Desktop","no","mono","no","18","no","white","no","yes","768","legacy","59","11","/Users/emorgan/Desktop/EM subject-1, f, 25.csv","legacy","8 9 5 7 1 6","Kafkaesque Koffka","3.2.5","4","y","0","left","right","right","left","NA","646","38806","6429","646","NA","2","legacy","6","1024","2","48000","-16","experiment","1","odd","7","481016","477700","478784","10857","129292","478795","454064","10879","122862","483027","483675","479805","49737","483027","NA","Sternberg Task","71","42349","72","yes","1024"
"98.6301369863","98.6301369863","587.273972603","587.273972603","black","experiment","legacy","legacy","legacy","0","uniform","1","undefined","1","left","72","72","72","0","0","72","72","0","0","72","72","72","0","72","0","Mon Oct  1 12:33:41 2018","The main experiment item","yes","SternbergTask.osexp","/Users/emorgan/Desktop","no","mono","no","18","no","white","no","yes","768","legacy","60","11","/Users/emorgan/Desktop/EM subject-1, f, 25.csv","legacy","2 8 5 1","Kafkaesque Koffka","3.2.5","4","y","0","left","right","right","left","NA","522","38806","6429","522","NA","2","legacy","4","1024","2","48000","-16","experiment","1","odd","1","487013","483700","484780","10857","129292","484792","454064","10879","122862","489024","489547","485803","49737","489024","NA","Sternberg Task","72","42871","73","yes","1024"
"97.2972972973","97.2972972973","588.040540541","588.040540541","black","experiment","legacy","legacy","legacy","0","uniform","0","undefined","0","left","73","73","73","0","0","73","73","0","0","73","73","73","0","73","0","Mon Oct  1 12:33:41 2018","The main experiment item","yes","SternbergTask.osexp","/Users/emorgan/Desktop","no","mono","no","18","no","white","no","yes","768","legacy","61","11","/Users/emorgan/Desktop/EM subject-1, f, 25.csv","legacy","3 5 9 6 2 4","Kafkaesque Koffka","3.2.5","1","y","0","right","right","right","right","NA","644","38806","6429","644","NA","2","legacy","6","1024","2","48000","-16","experiment","1","odd","3","492961","489649","490729","10857","129292","490740","454064","10879","122862","494977","495622","491751","49737","494977","NA","Sternberg Task","72","43515","74","yes","1024"
"97.3333333333","97.3333333333","587.906666667","587.906666667","black","experiment","legacy","legacy","legacy","0","uniform","1","undefined","1","right","74","74","74","0","0","74","74","0","0","74","74","74","0","74","0","Mon Oct  1 12:33:41 2018","The main experiment item","yes","SternbergTask.osexp","/Users/emorgan/Desktop","no","mono","no","18","no","white","no","yes","768","legacy","62","11","/Users/emorgan/Desktop/EM subject-1, f, 25.csv","legacy","1 4 3 6 5","Kafkaesque Koffka","3.2.5","0","n","0","right","right","right","right","NA","578","38806","6429","578","NA","2","legacy","5","1024","2","48000","-16","experiment","1","odd","8","498982","489649","496749","10857","129292","496760","495667","10879","122862","500994","501574","497771","49737","500994","NA","Sternberg Task","73","44093","75","yes","1024"
"96.0526315789","96.0526315789","586.513157895","586.513157895","black","experiment","legacy","legacy","legacy","0","uniform","0","undefined","0","left","75","75","75","0","0","75","75","0","0","75","75","75","0","75","0","Mon Oct  1 12:33:41 2018","The main experiment item","yes","SternbergTask.osexp","/Users/emorgan/Desktop","no","mono","no","18","no","white","no","yes","768","legacy","63","11","/Users/emorgan/Desktop/EM subject-1, f, 25.csv","legacy","1 4 9 3 2 5","Kafkaesque Koffka","3.2.5","3","y","0","right","right","right","right","NA","482","38806","6429","482","NA","2","legacy","6","1024","2","48000","-16","experiment","1","odd","9","504986","501670","502751","10857","129292","502762","495667","10879","122862","506996","507480","503773","49737","506996","NA","Sternberg Task","73","44575","76","yes","1024"
"96.1038961039","96.1038961039","584.506493506","584.506493506","black","experiment","legacy","legacy","legacy","0","uniform","1","undefined","1","left","76","76","76","0","0","76","76","0","0","76","76","76","0","76","0","Mon Oct  1 12:33:41 2018","The main experiment item","yes","SternbergTask.osexp","/Users/emorgan/Desktop","no","mono","no","18","no","white","no","yes","768","legacy","64","11","/Users/emorgan/Desktop/EM subject-1, f, 25.csv","legacy","9 3 8 2 1 4","Kafkaesque Koffka","3.2.5","3","y","0","left","right","right","left","NA","432","38806","6429","432","NA","2","legacy","6","1024","2","48000","-16","experiment","1","odd","8","510807","501670","508575","10857","129292","508586","507493","10879","122862","512818","513251","509597","49737","512818","NA","Sternberg Task","74","45007","77","yes","1024"
"96.1538461538","96.1538461538","583.730769231","583.730769231","black","experiment","legacy","legacy","legacy","0","uniform","1","undefined","1","left","77","77","77","0","0","77","77","0","0","77","77","77","0","77","0","Mon Oct  1 12:33:41 2018","The main experiment item","yes","SternbergTask.osexp","/Users/emorgan/Desktop","no","mono","no","18","no","white","no","yes","768","legacy","65","11","/Users/emorgan/Desktop/EM subject-1, f, 25.csv","legacy","4 7 6 8 2 3","Kafkaesque Koffka","3.2.5","6","y","0","left","right","right","left","NA","524","38806","6429","524","NA","2","legacy","6","1024","2","48000","-16","experiment","1","odd","3","516575","513264","514341","10857","129292","514352","507493","10879","122862","518586","519111","515364","49737","518586","NA","Sternberg Task","75","45531","78","yes","1024"
"96.2025316456","96.2025316456","581.886075949","581.886075949","black","experiment","legacy","legacy","legacy","0","uniform","1","undefined","1","left","78","78","78","0","0","78","78","0","0","78","78","78","0","78","0","Mon Oct  1 12:33:41 2018","The main experiment item","yes","SternbergTask.osexp","/Users/emorgan/Desktop","no","mono","no","18","no","white","no","yes","768","legacy","66","11","/Users/emorgan/Desktop/EM subject-1, f, 25.csv","legacy","3 4","Kafkaesque Koffka","3.2.5","1","y","0","left","right","right","left","NA","438","38806","6429","438","NA","2","legacy","2","1024","2","48000","-16","experiment","1","odd","3","522445","519135","520213","10857","129292","520224","507493","10879","122862","524456","524895","521234","49737","524456","NA","Sternberg Task","76","45969","79","yes","1024"
"96.25","96.25","580.6125","580.6125","black","experiment","legacy","legacy","legacy","0","uniform","1","undefined","1","left","79","79","79","0","0","79","79","0","0","79","79","79","0","79","0","Mon Oct  1 12:33:41 2018","The main experiment item","yes","SternbergTask.osexp","/Users/emorgan/Desktop","no","mono","no","18","no","white","no","yes","768","legacy","67","11","/Users/emorgan/Desktop/EM subject-1, f, 25.csv","legacy","9 6 2 4 1","Kafkaesque Koffka","3.2.5","4","y","0","left","right","right","left","NA","480","38806","6429","480","NA","2","legacy","5","1024","2","48000","-16","experiment","1","odd","4","528242","524931","526009","10857","129292","526020","507493","10879","122862","530253","530734","527031","49737","530253","NA","Sternberg Task","77","46449","80","yes","1024"
"96.2962962963","96.2962962963","583.086419753","583.086419753","black","experiment","legacy","legacy","legacy","0","uniform","1","undefined","1","left","80","80","80","0","0","80","80","0","0","80","80","80","0","80","0","Mon Oct  1 12:33:41 2018","The main experiment item","yes","SternbergTask.osexp","/Users/emorgan/Desktop","no","mono","no","18","no","white","no","yes","768","legacy","68","11","/Users/emorgan/Desktop/EM subject-1, f, 25.csv","legacy","7 8 4 6 9 5","Kafkaesque Koffka","3.2.5","4","y","0","left","right","right","left","NA","781","38806","6429","781","NA","2","legacy","6","1024","2","48000","-16","experiment","1","odd","6","534072","530758","531839","10857","129292","531850","507493","10879","122862","536083","536866","532860","49737","536083","NA","Sternberg Task","78","47230","81","yes","1024"
"96.3414634146","96.3414634146","580.865853659","580.865853659","black","experiment","legacy","legacy","legacy","0","uniform","1","undefined","1","left","81","81","81","0","0","81","81","0","0","81","81","81","0","81","0","Mon Oct  1 12:33:41 2018","The main experiment item","yes","SternbergTask.osexp","/Users/emorgan/Desktop","no","mono","no","18","no","white","no","yes","768","legacy","69","11","/Users/emorgan/Desktop/EM subject-1, f, 25.csv","legacy","8 5 3 7 4 6","Kafkaesque Koffka","3.2.5","6","y","0","left","right","right","left","NA","401","38806","6429","401","NA","2","legacy","6","1024","2","48000","-16","experiment","1","odd","6","540201","536891","537969","10857","129292","537980","507493","10879","122862","542212","542614","538991","49737","542211","NA","Sternberg Task","79","47631","82","yes","1024"
"96.3855421687","96.3855421687","580.662650602","580.662650602","black","experiment","legacy","legacy","legacy","0","uniform","1","undefined","1","right","82","82","82","0","0","82","82","0","0","82","82","82","0","82","0","Mon Oct  1 12:33:41 2018","The main experiment item","yes","SternbergTask.osexp","/Users/emorgan/Desktop","no","mono","no","18","no","white","no","yes","768","legacy","70","11","/Users/emorgan/Desktop/EM subject-1, f, 25.csv","legacy","6 8","Kafkaesque Koffka","3.2.5","0","n","0","right","right","right","right","NA","564","38806","6429","564","NA","2","legacy","2","1024","2","48000","-16","experiment","1","odd","9","545943","542626","543710","10857","129292","543722","507493","10879","122862","547955","548521","544732","49737","547954","NA","Sternberg Task","80","48195","83","yes","1024"
"96.4285714286","96.4285714286","581.428571429","581.428571429","black","experiment","legacy","legacy","legacy","0","uniform","1","undefined","1","right","83","83","83","0","0","83","83","0","0","83","83","83","0","83","0","Mon Oct  1 12:33:41 2018","The main experiment item","yes","SternbergTask.osexp","/Users/emorgan/Desktop","no","mono","no","18","no","white","no","yes","768","legacy","71","11","/Users/emorgan/Desktop/EM subject-1, f, 25.csv","legacy","1 7 8 3 9","Kafkaesque Koffka","3.2.5","0","n","0","right","right","right","right","NA","645","38806","6429","645","NA","2","legacy","5","1024","2","48000","-16","experiment","1","odd","2","551848","548535","549617","10857","129292","549628","507493","10879","122862","553859","554507","550638","49737","553859","NA","Sternberg Task","81","48840","84","yes","1024"
"96.4705882353","96.4705882353","580.070588235","580.070588235","black","experiment","legacy","legacy","legacy","0","uniform","1","undefined","1","right","84","84","84","0","0","84","84","0","0","84","84","84","0","84","0","Mon Oct  1 12:33:41 2018","The main experiment item","yes","SternbergTask.osexp","/Users/emorgan/Desktop","no","mono","no","18","no","white","no","yes","768","legacy","72","11","/Users/emorgan/Desktop/EM subject-1, f, 25.csv","legacy","1","Kafkaesque Koffka","3.2.5","0","n","0","right","right","right","right","NA","466","38806","6429","466","NA","2","legacy","1","1024","2","48000","-16","experiment","1","odd","7","557832","554520","555599","10857","129292","555610","507493","10879","122862","559843","560311","556620","49737","559843","NA","Sternberg Task","82","49306","85","yes","1024"
"96.511627907","96.511627907","579.709302326","579.709302326","black","experiment","legacy","legacy","legacy","0","uniform","1","undefined","1","right","85","85","85","0","0","85","85","0","0","85","85","85","0","85","0","Mon Oct  1 12:33:41 2018","The main experiment item","yes","SternbergTask.osexp","/Users/emorgan/Desktop","no","mono","no","18","no","white","no","yes","768","legacy","73","11","/Users/emorgan/Desktop/EM subject-1, f, 25.csv","legacy","6 9 4 5 3 2","Kafkaesque Koffka","3.2.5","0","n","0","right","right","right","right","NA","549","38806","6429","549","NA","2","legacy","6","1024","2","48000","-16","experiment","1","odd","8","563690","560381","561458","10857","129292","561469","507493","10879","122862","565701","566251","562479","49737","565700","NA","Sternberg Task","83","49855","86","yes","1024"
"96.5517241379","96.5517241379","578.83908046","578.83908046","black","experiment","legacy","legacy","legacy","0","uniform","1","undefined","1","right","86","86","86","0","0","86","86","0","0","86","86","86","0","86","0","Mon Oct  1 12:33:41 2018","The main experiment item","yes","SternbergTask.osexp","/Users/emorgan/Desktop","no","mono","no","18","no","white","no","yes","768","legacy","74","11","/Users/emorgan/Desktop/EM subject-1, f, 25.csv","legacy","9 8 2 7 4","Kafkaesque Koffka","3.2.5","0","n","0","right","right","right","right","NA","504","38806","6429","504","NA","2","legacy","5","1024","2","48000","-16","experiment","1","odd","5","569573","566263","567341","10857","129292","567352","507493","10879","122862","571584","572089","568362","49737","571584","NA","Sternberg Task","84","50359","87","yes","1024"
"96.5909090909","96.5909090909","580.147727273","580.147727273","black","experiment","legacy","legacy","legacy","0","uniform","1","undefined","1","left","87","87","87","0","0","87","87","0","0","87","87","87","0","87","0","Mon Oct  1 12:33:41 2018","The main experiment item","yes","SternbergTask.osexp","/Users/emorgan/Desktop","no","mono","no","18","no","white","no","yes","768","legacy","75","11","/Users/emorgan/Desktop/EM subject-1, f, 25.csv","legacy","6 7 8 5","Kafkaesque Koffka","3.2.5","3","y","0","left","right","right","left","NA","694","38806","6429","694","NA","2","legacy","4","1024","2","48000","-16","experiment","1","odd","8","575414","572101","573182","10857","129292","573192","507493","10879","122862","577425","578120","574203","49737","577424","NA","Sternberg Task","85","51053","88","yes","1024"
"96.6292134831","96.6292134831","581.887640449","581.887640449","black","experiment","legacy","legacy","legacy","0","uniform","1","undefined","1","right","88","88","88","0","0","88","88","0","0","88","88","88","0","88","0","Mon Oct  1 12:33:41 2018","The main experiment item","yes","SternbergTask.osexp","/Users/emorgan/Desktop","no","mono","no","18","no","white","no","yes","768","legacy","76","11","/Users/emorgan/Desktop/EM subject-1, f, 25.csv","legacy","4 2 7 6 1 3","Kafkaesque Koffka","3.2.5","0","n","0","right","right","right","right","NA","735","38806","6429","735","NA","2","legacy","6","1024","2","48000","-16","experiment","1","odd","8","581515","578204","579281","10857","129292","579293","507493","10879","122862","583526","584263","580304","49737","583526","NA","Sternberg Task","86","51788","89","yes","1024"
"96.6666666667","96.6666666667","582.577777778","582.577777778","black","experiment","legacy","legacy","legacy","0","uniform","1","undefined","1","left","89","89","89","0","0","89","89","0","0","89","89","89","0","89","0","Mon Oct  1 12:33:41 2018","The main experiment item","yes","SternbergTask.osexp","/Users/emorgan/Desktop","no","mono","no","18","no","white","no","yes","768","legacy","77","11","/Users/emorgan/Desktop/EM subject-1, f, 25.csv","legacy","3 9 7 6 4","Kafkaesque Koffka","3.2.5","3","y","0","left","right","right","left","NA","644","38806","6429","644","NA","2","legacy","5","1024","2","48000","-16","experiment","1","odd","7","587590","584275","585356","10857","129292","585369","507493","10879","122862","589602","590248","586380","49737","589601","NA","Sternberg Task","87","52432","90","yes","1024"
"96.7032967033","96.7032967033","583.791208791","583.791208791","black","experiment","legacy","legacy","legacy","0","uniform","1","undefined","1","left","90","90","90","0","0","90","90","0","0","90","90","90","0","90","0","Mon Oct  1 12:33:41 2018","The main experiment item","yes","SternbergTask.osexp","/Users/emorgan/Desktop","no","mono","no","18","no","white","no","yes","768","legacy","78","11","/Users/emorgan/Desktop/EM subject-1, f, 25.csv","legacy","6 7 9 3 1 2","Kafkaesque Koffka","3.2.5","1","y","0","left","right","right","left","NA","693","38806","6429","693","NA","2","legacy","6","1024","2","48000","-16","experiment","1","odd","6","593583","590270","591349","10857","129292","591360","507493","10879","122862","595595","596289","592371","49737","595595","NA","Sternberg Task","88","53125","91","yes","1024"
"96.7391304348","96.7391304348","582.086956522","582.086956522","black","experiment","legacy","legacy","legacy","0","uniform","1","undefined","1","left","91","91","91","0","0","91","91","0","0","91","91","91","0","91","0","Mon Oct  1 12:33:41 2018","The main experiment item","yes","SternbergTask.osexp","/Users/emorgan/Desktop","no","mono","no","18","no","white","no","yes","768","legacy","79","11","/Users/emorgan/Desktop/EM subject-1, f, 25.csv","legacy","9 1 6 7 8","Kafkaesque Koffka","3.2.5","1","y","0","left","right","right","left","NA","427","38806","6429","427","NA","2","legacy","5","1024","2","48000","-16","experiment","1","odd","9","599630","596315","597398","10857","129292","597409","507493","10879","122862","601642","602071","598420","49737","601641","NA","Sternberg Task","89","53552","92","yes","1024"
"96.7741935484","96.7741935484","580.516129032","580.516129032","black","experiment","legacy","legacy","legacy","0","uniform","1","undefined","1","left","92","92","92","0","0","92","92","0","0","92","92","92","0","92","0","Mon Oct  1 12:33:41 2018","The main experiment item","yes","SternbergTask.osexp","/Users/emorgan/Desktop","no","mono","no","18","no","white","no","yes","768","legacy","80","11","/Users/emorgan/Desktop/EM subject-1, f, 25.csv","legacy","8 5 1 3 9","Kafkaesque Koffka","3.2.5","4","y","0","left","right","right","left","NA","436","38806","6429","436","NA","2","legacy","5","1024","2","48000","-16","experiment","1","odd","3","605395","602084","603163","10857","129292","603174","507493","10879","122862","607406","607843","604184","49737","607406","NA","Sternberg Task","90","53988","93","yes","1024"
"96.8085106383","96.8085106383","579.489361702","579.489361702","black","experiment","legacy","legacy","legacy","0","uniform","1","undefined","1","right","93","93","93","0","0","93","93","0","0","93","93","93","0","93","0","Mon Oct  1 12:33:41 2018","The main experiment item","yes","SternbergTask.osexp","/Users/emorgan/Desktop","no","mono","no","18","no","white","no","yes","768","legacy","81","11","/Users/emorgan/Desktop/EM subject-1, f, 25.csv","legacy","5","Kafkaesque Koffka","3.2.5","0","n","0","right","right","right","right","NA","484","38806","6429","484","NA","2","legacy","1","1024","2","48000","-16","experiment","1","odd","8","611354","608043","609122","10857","129292","609133","507493","10879","122862","613365","613851","610144","49737","613364","NA","Sternberg Task","91","54472","94","yes","1024"
"96.8421052632","96.8421052632","579.284210526","579.284210526","black","experiment","legacy","legacy","legacy","0","uniform","1","undefined","1","right","94","94","94","0","0","94","94","0","0","94","94","94","0","94","0","Mon Oct  1 12:33:41 2018","The main experiment item","yes","SternbergTask.osexp","/Users/emorgan/Desktop","no","mono","no","18","no","white","no","yes","768","legacy","82","11","/Users/emorgan/Desktop/EM subject-1, f, 25.csv","legacy","9 7 4 5 8","Kafkaesque Koffka","3.2.5","0","n","0","right","right","right","right","NA","560","38806","6429","560","NA","2","legacy","5","1024","2","48000","-16","experiment","1","odd","6","617173","613863","614941","10857","129292","614952","507493","10879","122862","619184","619746","615962","49737","619184","NA","Sternberg Task","92","55032","95","yes","1024"
"96.875","96.875","578.364583333","578.364583333","black","experiment","legacy","legacy","legacy","0","uniform","1","undefined","1","right","95","95","95","0","0","95","95","0","0","95","95","95","0","95","0","Mon Oct  1 12:33:41 2018","The main experiment item","yes","SternbergTask.osexp","/Users/emorgan/Desktop","no","mono","no","18","no","white","no","yes","768","legacy","83","11","/Users/emorgan/Desktop/EM subject-1, f, 25.csv","legacy","6 7 5 9","Kafkaesque Koffka","3.2.5","0","n","0","right","right","right","right","NA","491","38806","6429","491","NA","2","legacy","4","1024","2","48000","-16","experiment","1","odd","2","623069","619758","620837","10857","129292","620847","507493","10879","122862","625081","625574","621859","49737","625081","NA","Sternberg Task","93","55523","96","yes","1024"
"96.9072164948","96.9072164948","576.896907216","576.896907216","black","experiment","legacy","legacy","legacy","0","uniform","1","undefined","1","right","96","96","96","0","0","96","96","0","0","96","96","96","0","96","0","Mon Oct  1 12:33:41 2018","The main experiment item","yes","SternbergTask.osexp","/Users/emorgan/Desktop","no","mono","no","18","no","white","no","yes","768","legacy","84","11","/Users/emorgan/Desktop/EM subject-1, f, 25.csv","legacy","2 7 5","Kafkaesque Koffka","3.2.5","0","n","0","right","right","right","right","NA","436","38806","6429","436","NA","2","legacy","3","1024","2","48000","-16","experiment","1","odd","8","628896","625587","626665","10857","129292","626676","507493","10879","122862","630907","631345","627686","49737","630907","NA","Sternberg Task","94","55959","97","yes","1024"
"96.9387755102","96.9387755102","576.051020408","576.051020408","black","experiment","legacy","legacy","legacy","0","uniform","1","undefined","1","right","97","97","97","0","0","97","97","0","0","97","97","97","0","97","0","Mon Oct  1 12:33:41 2018","The main experiment item","yes","SternbergTask.osexp","/Users/emorgan/Desktop","no","mono","no","18","no","white","no","yes","768","legacy","85","11","/Users/emorgan/Desktop/EM subject-1, f, 25.csv","legacy","7 9 1 6","Kafkaesque Koffka","3.2.5","0","n","0","right","right","right","right","NA","494","38806","6429","494","NA","2","legacy","4","1024","2","48000","-16","experiment","1","odd","4","634666","631357","632434","10857","129292","632446","507493","10879","122862","636677","637173","633456","49737","636677","NA","Sternberg Task","95","56453","98","yes","1024"
"96.9696969697","96.9696969697","577.262626263","577.262626263","black","experiment","legacy","legacy","legacy","0","uniform","1","undefined","1","left","98","98","98","0","0","98","98","0","0","98","98","98","0","98","0","Mon Oct  1 12:33:41 2018","The main experiment item","yes","SternbergTask.osexp","/Users/emorgan/Desktop","no","mono","no","18","no","white","no","yes","768","legacy","86","11","/Users/emorgan/Desktop/EM subject-1, f, 25.csv","legacy","2 6 1 7 4","Kafkaesque Koffka","3.2.5","2","y","0","left","right","right","left","NA","696","38806","6429","696","NA","2","legacy","5","1024","2","48000","-16","experiment","1","odd","6","640494","637185","638262","10857","129292","638274","507493","10879","122862","642505","643203","639284","49737","642505","NA","Sternberg Task","96","57149","99","yes","1024"
"97","97","577.87","577.87","black","experiment","legacy","legacy","legacy","0","uniform","1","undefined","1","right","99","99","99","0","0","99","99","0","0","99","99","99","0","99","0","Mon Oct  1 12:33:41 2018","The main experiment item","yes","SternbergTask.osexp","/Users/emorgan/Desktop","no","mono","no","18","no","white","no","yes","768","legacy","87","11","/Users/emorgan/Desktop/EM subject-1, f, 25.csv","legacy","5 3 8 7 2 4","Kafkaesque Koffka","3.2.5","0","n","0","right","right","right","right","NA","638","38806","6429","638","NA","2","legacy","6","1024","2","48000","-16","experiment","1","odd","9","646525","643215","644293","10857","129292","644303","507493","10879","122862","648537","649177","645314","49737","648536","NA","Sternberg Task","97","57787","100","yes","1024"
"97.0297029703","97.0297029703","578.356435644","578.356435644","black","experiment","legacy","legacy","legacy","0","uniform","1","undefined","1","left","100","100","100","0","0","100","100","0","0","100","100","100","0","100","0","Mon Oct  1 12:33:41 2018","The main experiment item","yes","SternbergTask.osexp","/Users/emorgan/Desktop","no","mono","no","18","no","white","no","yes","768","legacy","88","11","/Users/emorgan/Desktop/EM subject-1, f, 25.csv","legacy","4 3 2 5 8","Kafkaesque Koffka","3.2.5","2","y","0","left","right","right","left","NA","627","38806","6429","627","NA","2","legacy","5","1024","2","48000","-16","experiment","1","odd","3","652499","649189","650266","10857","129292","650277","507493","10879","122862","654511","655139","651287","49737","654511","NA","Sternberg Task","98","58414","101","yes","1024"
"97.0588235294","97.0588235294","576.960784314","576.960784314","black","experiment","legacy","legacy","legacy","0","uniform","1","undefined","1","right","101","101","101","0","0","101","101","0","0","101","101","101","0","101","0","Mon Oct  1 12:33:41 2018","The main experiment item","yes","SternbergTask.osexp","/Users/emorgan/Desktop","no","mono","no","18","no","white","no","yes","768","legacy","89","11","/Users/emorgan/Desktop/EM subject-1, f, 25.csv","legacy","6 9 5","Kafkaesque Koffka","3.2.5","0","n","0","right","right","right","right","NA","436","38806","6429","436","NA","2","legacy","3","1024","2","48000","-16","experiment","1","odd","8","658462","655151","656230","10857","129292","656241","507493","10879","122862","660473","660911","657251","49737","660473","NA","Sternberg Task","99","58850","102","yes","1024"
"97.0873786408","97.0873786408","574.970873786","574.970873786","black","experiment","legacy","legacy","legacy","0","uniform","1","undefined","1","left","102","102","102","0","0","102","102","0","0","102","102","102","0","102","0","Mon Oct  1 12:33:41 2018","The main experiment item","yes","SternbergTask.osexp","/Users/emorgan/Desktop","no","mono","no","18","no","white","no","yes","768","legacy","90","11","/Users/emorgan/Desktop/EM subject-1, f, 25.csv","legacy","8","Kafkaesque Koffka","3.2.5","1","y","0","left","right","right","left","NA","372","38806","6429","372","NA","2","legacy","1","1024","2","48000","-16","experiment","1","odd","8","664230","660922","661999","10857","129292","662009","507493","10879","122862","666241","666614","663019","49737","666241","NA","Sternberg Task","100","59222","103","yes","1024"
"97.1153846154","97.1153846154","574.807692308","574.807692308","black","experiment","legacy","legacy","legacy","0","uniform","1","undefined","1","left","103","103","103","0","0","103","103","0","0","103","103","103","0","103","0","Mon Oct  1 12:33:41 2018","The main experiment item","yes","SternbergTask.osexp","/Users/emorgan/Desktop","no","mono","no","18","no","white","no","yes","768","legacy","91","11","/Users/emorgan/Desktop/EM subject-1, f, 25.csv","legacy","3 9 6 2","Kafkaesque Koffka","3.2.5","4","y","0","left","right","right","left","NA","558","38806","6429","558","NA","2","legacy","4","1024","2","48000","-16","experiment","1","odd","2","669938","666627","667707","10857","129292","667718","507493","10879","122862","671950","672509","668728","49737","671950","NA","Sternberg Task","101","59780","104","yes","1024"
"97.1428571429","97.1428571429","573.247619048","573.247619048","black","experiment","legacy","legacy","legacy","0","uniform","1","undefined","1","right","104","104","104","0","0","104","104","0","0","104","104","104","0","104","0","Mon Oct  1 12:33:41 2018","The main experiment item","yes","SternbergTask.osexp","/Users/emorgan/Desktop","no","mono","no","18","no","white","no","yes","768","legacy","92","11","/Users/emorgan/Desktop/EM subject-1, f, 25.csv","legacy","9","Kafkaesque Koffka","3.2.5","0","n","0","right","right","right","right","NA","411","38806","6429","411","NA","2","legacy","1","1024","2","48000","-16","experiment","1","odd","6","675835","672521","673602","10857","129292","673613","507493","10879","122862","677846","678258","674624","49737","677846","NA","Sternberg Task","102","60191","105","yes","1024"
"97.1698113208","97.1698113208","574.820754717","574.820754717","black","experiment","legacy","legacy","legacy","0","uniform","1","undefined","1","right","105","105","105","0","0","105","105","0","0","105","105","105","0","105","0","Mon Oct  1 12:33:41 2018","The main experiment item","yes","SternbergTask.osexp","/Users/emorgan/Desktop","no","mono","no","18","no","white","no","yes","768","legacy","93","11","/Users/emorgan/Desktop/EM subject-1, f, 25.csv","legacy","1 4 9 2 5","Kafkaesque Koffka","3.2.5","0","n","0","right","right","right","right","NA","740","38806","6429","740","NA","2","legacy","5","1024","2","48000","-16","experiment","1","odd","7","681581","678270","679348","10857","129292","679359","507493","10879","122862","683592","684333","680370","49737","683591","NA","Sternberg Task","103","60931","106","yes","1024"
"97.1962616822","97.1962616822","573.401869159","573.401869159","black","experiment","legacy","legacy","legacy","0","uniform","1","undefined","1","left","106","106","106","0","0","106","106","0","0","106","106","106","0","106","0","Mon Oct  1 12:33:41 2018","The main experiment item","yes","SternbergTask.osexp","/Users/emorgan/Desktop","no","mono","no","18","no","white","no","yes","768","legacy","94","11","/Users/emorgan/Desktop/EM subject-1, f, 25.csv","legacy","7 1 3","Kafkaesque Koffka","3.2.5","2","y","0","left","right","right","left","NA","423","38806","6429","423","NA","2","legacy","3","1024","2","48000","-16","experiment","1","odd","1","687657","684346","685425","10857","129292","685435","507493","10879","122862","689668","690092","686447","49737","689668","NA","Sternberg Task","104","61354","107","yes","1024"
"97.2222222222","97.2222222222","573.490740741","573.490740741","black","experiment","legacy","legacy","legacy","0","uniform","1","undefined","1","left","107","107","107","0","0","107","107","0","0","107","107","107","0","107","0","Mon Oct  1 12:33:41 2018","The main experiment item","yes","SternbergTask.osexp","/Users/emorgan/Desktop","no","mono","no","18","no","white","no","yes","768","legacy","95","11","/Users/emorgan/Desktop/EM subject-1, f, 25.csv","legacy","8 7 3","Kafkaesque Koffka","3.2.5","1","y","0","left","right","right","left","NA","583","38806","6429","583","NA","2","legacy","3","1024","2","48000","-16","experiment","1","odd","8","693416","690104","691184","10857","129292","691195","507493","10879","122862","695426","696010","692205","49737","695426","NA","Sternberg Task","105","61937","108","yes","1024"
"97.247706422","97.247706422","574.275229358","574.275229358","black","experiment","legacy","legacy","legacy","0","uniform","1","undefined","1","right","108","108","108","0","0","108","108","0","0","108","108","108","0","108","0","Mon Oct  1 12:33:41 2018","The main experiment item","yes","SternbergTask.osexp","/Users/emorgan/Desktop","no","mono","no","18","no","white","no","yes","768","legacy","96","11","/Users/emorgan/Desktop/EM subject-1, f, 25.csv","legacy","8 4 3 9","Kafkaesque Koffka","3.2.5","0","n","0","right","right","right","right","NA","659","38806","6429","659","NA","2","legacy","4","1024","2","48000","-16","experiment","1","odd","5","699335","696023","697102","10857","129292","697113","507493","10879","122862","701346","702007","698125","49737","701346","NA","Sternberg Task","106","62596","109","yes","1024"
"97.2727272727","97.2727272727","574.045454545","574.045454545","black","experiment","legacy","legacy","legacy","0","uniform","1","undefined","1","right","109","109","109","0","0","109","109","0","0","109","109","109","0","109","0","Mon Oct  1 12:33:41 2018","The main experiment item","yes","SternbergTask.osexp","/Users/emorgan/Desktop","no","mono","no","18","no","white","no","yes","768","legacy","97","11","/Users/emorgan/Desktop/EM subject-1, f, 25.csv","legacy","6 2 9 3 8 4","Kafkaesque Koffka","3.2.5","0","n","0","right","right","right","right","NA","549","38806","6429","549","NA","2","legacy","6","1024","2","48000","-16","experiment","1","odd","1","705329","702019","703097","10857","129292","703108","507493","10879","122862","707341","707892","704119","49737","707341","NA","Sternberg Task","107","63145","110","yes","1024"
"97.2972972973","97.2972972973","573.405405405","573.405405405","black","experiment","legacy","legacy","legacy","0","uniform","1","undefined","1","right","110","110","110","0","0","110","110","0","0","110","110","110","0","110","0","Mon Oct  1 12:33:41 2018","The main experiment item","yes","SternbergTask.osexp","/Users/emorgan/Desktop","no","mono","no","18","no","white","no","yes","768","legacy","98","11","/Users/emorgan/Desktop/EM subject-1, f, 25.csv","legacy","9 5 3 2 8 6","Kafkaesque Koffka","3.2.5","0","n","0","right","right","right","right","NA","503","38806","6429","503","NA","2","legacy","6","1024","2","48000","-16","experiment","1","odd","7","711215","707904","708983","10857","129292","708994","507493","10879","122862","713226","713731","710004","49737","713226","NA","Sternberg Task","108","63648","111","yes","1024"
"97.3214285714","97.3214285714","572.0625","572.0625","black","experiment","legacy","legacy","legacy","0","uniform","1","undefined","1","right","111","111","111","0","0","111","111","0","0","111","111","111","0","111","0","Mon Oct  1 12:33:41 2018","The main experiment item","yes","SternbergTask.osexp","/Users/emorgan/Desktop","no","mono","no","18","no","white","no","yes","768","legacy","99","11","/Users/emorgan/Desktop/EM subject-1, f, 25.csv","legacy","4 2 6 9","Kafkaesque Koffka","3.2.5","0","n","0","right","right","right","right","NA","423","38806","6429","423","NA","2","legacy","4","1024","2","48000","-16","experiment","1","odd","7","717055","713745","714823","10857","129292","714834","507493","10879","122862","719066","719490","715844","49737","719066","NA","Sternberg Task","109","64071","112","yes","1024"
"97.3451327434","97.3451327434","572.345132743","572.345132743","black","experiment","legacy","legacy","legacy","0","uniform","1","undefined","1","left","112","112","112","0","0","112","112","0","0","112","112","112","0","112","0","Mon Oct  1 12:33:41 2018","The main experiment item","yes","SternbergTask.osexp","/Users/emorgan/Desktop","no","mono","no","18","no","white","no","yes","768","legacy","100","11","/Users/emorgan/Desktop/EM subject-1, f, 25.csv","legacy","8 9 5 6 7","Kafkaesque Koffka","3.2.5","1","y","0","left","right","right","left","NA","604","38806","6429","604","NA","2","legacy","5","1024","2","48000","-16","experiment","1","odd","8","722814","719502","720582","10857","129292","720593","507493","10879","122862","724825","725431","721603","49737","724825","NA","Sternberg Task","110","64675","113","yes","1024"
"97.3684210526","97.3684210526","571.368421053","571.368421053","black","experiment","legacy","legacy","legacy","0","uniform","1","undefined","1","right","113","113","113","0","0","113","113","0","0","113","113","113","0","113","0","Mon Oct  1 12:33:41 2018","The main experiment item","yes","SternbergTask.osexp","/Users/emorgan/Desktop","no","mono","no","18","no","white","no","yes","768","legacy","101","11","/Users/emorgan/Desktop/EM subject-1, f, 25.csv","legacy","2 8 9","Kafkaesque Koffka","3.2.5","0","n","0","right","right","right","right","NA","461","38806","6429","461","NA","2","legacy","3","1024","2","48000","-16","experiment","1","odd","6","728751","725443","726520","10857","129292","726531","507493","10879","122862","730762","731224","727541","49737","730762","NA","Sternberg Task","111","65136","114","yes","1024"
"97.3913043478","97.3913043478","570.382608696","570.382608696","black","experiment","legacy","legacy","legacy","0","uniform","1","undefined","1","right","114","114","114","0","0","114","114","0","0","114","114","114","0","114","0","Mon Oct  1 12:33:41 2018","The main experiment item","yes","SternbergTask.osexp","/Users/emorgan/Desktop","no","mono","no","18","no","white","no","yes","768","legacy","102","11","/Users/emorgan/Desktop/EM subject-1, f, 25.csv","legacy","2 6 4 3 9","Kafkaesque Koffka","3.2.5","0","n","0","right","right","right","right","NA","458","38806","6429","458","NA","2","legacy","5","1024","2","48000","-16","experiment","1","odd","1","734547","731236","732313","10857","129292","732324","507493","10879","122862","736558","737017","733335","49737","736558","NA","Sternberg Task","112","65594","115","yes","1024"
"97.4137931034","97.4137931034","569.293103448","569.293103448","black","experiment","legacy","legacy","legacy","0","uniform","1","undefined","1","right","115","115","115","0","0","115","115","0","0","115","115","115","0","115","0","Mon Oct  1 12:33:41 2018","The main experiment item","yes","SternbergTask.osexp","/Users/emorgan/Desktop","no","mono","no","18","no","white","no","yes","768","legacy","103","11","/Users/emorgan/Desktop/EM subject-1, f, 25.csv","legacy","6 3 1 7 9 8","Kafkaesque Koffka","3.2.5","0","n","0","right","right","right","right","NA","444","38806","6429","444","NA","2","legacy","6","1024","2","48000","-16","experiment","1","odd","4","740343","737029","738109","10857","129292","738122","507493","10879","122862","742355","742801","739132","49737","742354","NA","Sternberg Task","113","66038","116","yes","1024"
"97.4358974359","97.4358974359","568.735042735","568.735042735","black","experiment","legacy","legacy","legacy","0","uniform","1","undefined","1","left","116","116","116","0","0","116","116","0","0","116","116","116","0","116","0","Mon Oct  1 12:33:41 2018","The main experiment item","yes","SternbergTask.osexp","/Users/emorgan/Desktop","no","mono","no","18","no","white","no","yes","768","legacy","104","11","/Users/emorgan/Desktop/EM subject-1, f, 25.csv","legacy","2 4 6 9","Kafkaesque Koffka","3.2.5","3","y","0","left","right","right","left","NA","504","38806","6429","504","NA","2","legacy","4","1024","2","48000","-16","experiment","1","odd","6","746122","742813","743890","10857","129292","743901","507493","10879","122862","748134","748640","744911","49737","748134","NA","Sternberg Task","114","66542","117","yes","1024"
"97.4576271186","97.4576271186","568.822033898","568.822033898","black","experiment","legacy","legacy","legacy","0","uniform","1","undefined","1","right","117","117","117","0","0","117","117","0","0","117","117","117","0","117","0","Mon Oct  1 12:33:41 2018","The main experiment item","yes","SternbergTask.osexp","/Users/emorgan/Desktop","no","mono","no","18","no","white","no","yes","768","legacy","105","11","/Users/emorgan/Desktop/EM subject-1, f, 25.csv","legacy","7 9","Kafkaesque Koffka","3.2.5","0","n","0","right","right","right","right","NA","579","38806","6429","579","NA","2","legacy","2","1024","2","48000","-16","experiment","1","odd","1","751966","748652","749734","10857","129292","749744","507493","10879","122862","753977","754557","750756","49737","753977","NA","Sternberg Task","115","67121","118","yes","1024"
"97.4789915966","97.4789915966","569.193277311","569.193277311","black","experiment","legacy","legacy","legacy","0","uniform","1","undefined","1","right","118","118","118","0","0","118","118","0","0","118","118","118","0","118","0","Mon Oct  1 12:33:41 2018","The main experiment item","yes","SternbergTask.osexp","/Users/emorgan/Desktop","no","mono","no","18","no","white","no","yes","768","legacy","106","11","/Users/emorgan/Desktop/EM subject-1, f, 25.csv","legacy","1 8 7","Kafkaesque Koffka","3.2.5","0","n","0","right","right","right","right","NA","613","38806","6429","613","NA","2","legacy","3","1024","2","48000","-16","experiment","1","odd","4","757882","754569","755650","10857","129292","755661","507493","10879","122862","759894","760509","756672","49737","759894","NA","Sternberg Task","116","67734","119","yes","1024"
"97.5","97.5","568.55","568.55","black","experiment","legacy","legacy","legacy","0","uniform","1","undefined","1","right","119","119","119","0","0","119","119","0","0","119","119","119","0","119","0","Mon Oct  1 12:33:41 2018","The main experiment item","yes","SternbergTask.osexp","/Users/emorgan/Desktop","no","mono","no","18","no","white","no","yes","768","legacy","107","11","/Users/emorgan/Desktop/EM subject-1, f, 25.csv","legacy","3 4 2","Kafkaesque Koffka","3.2.5","0","n","0","right","right","right","right","NA","492","38806","6429","492","NA","2","legacy","3","1024","2","48000","-16","experiment","1","odd","5","763843","760524","761609","10857","129292","761620","507493","10879","122862","765854","766348","762631","49737","765853","NA","Sternberg Task","117","68226","120","yes","1024"
"97.520661157","97.520661157","568.47107438","568.47107438","black","experiment","legacy","legacy","legacy","0","uniform","1","undefined","1","right","120","120","120","0","0","120","120","0","0","120","120","120","0","120","0","Mon Oct  1 12:33:41 2018","The main experiment item","yes","SternbergTask.osexp","/Users/emorgan/Desktop","no","mono","no","18","no","white","no","yes","768","legacy","108","11","/Users/emorgan/Desktop/EM subject-1, f, 25.csv","legacy","2 8 7 9 5 3","Kafkaesque Koffka","3.2.5","0","n","0","right","right","right","right","NA","559","38806","6429","559","NA","2","legacy","6","1024","2","48000","-16","experiment","1","odd","6","769669","766360","767438","10857","129292","767448","507493","10879","122862","771682","772243","768459","49737","771682","NA","Sternberg Task","118","68785","121","yes","1024"
"97.5409836066","97.5409836066","566.844262295","566.844262295","black","experiment","legacy","legacy","legacy","0","uniform","1","undefined","1","left","121","121","121","0","0","121","121","0","0","121","121","121","0","121","0","Mon Oct  1 12:33:41 2018","The main experiment item","yes","SternbergTask.osexp","/Users/emorgan/Desktop","no","mono","no","18","no","white","no","yes","768","legacy","109","11","/Users/emorgan/Desktop/EM subject-1, f, 25.csv","legacy","4","Kafkaesque Koffka","3.2.5","1","y","0","left","right","right","left","NA","370","38806","6429","370","NA","2","legacy","1","1024","2","48000","-16","experiment","1","odd","4","775564","772255","773332","10857","129292","773343","507493","10879","122862","777575","777947","774353","49737","777575","NA","Sternberg Task","119","69155","122","yes","1024"
