"acc","accuracy","average_response_time","avg_rt","background","block","canvas_backend","clock_backend","color_backend","compensation","coordinates","correct","correct_instruction1","correct_keyboard_response","correct_response","count_ISI","count_correctFeedback","count_expSequence","count_experiment","count_experimentLoop","count_fixation","count_incorrectFeedback","count_instruction1","count_instructions2","count_keyboard_response","count_logger","count_memorySet","count_practiceLoop","count_probe","count_thankYou","datetime","description","disable_garbage_collection","experiment_file","experiment_path","font_bold","font_family","font_italic","font_size","font_underline","foreground","form_clicks","fullscreen","height","keyboard_backend","live_row","live_row_practiceLoop","logfile","mouse_backend","numberSet","opensesame_codename","opensesame_version","posInSet","present","repeat_cycle","response","response_instruction1","response_instructions2","response_keyboard_response","response_thankYou","response_time","response_time_instruction1","response_time_instructions2","response_time_keyboard_response","response_time_thankYou","round_decimals","sampler_backend","setSize","sound_buf_size","sound_channels","sound_freq","sound_sample_size","start","subject_nr","subject_parity","target","time_ISI","time_correctFeedback","time_expSequence","time_experiment","time_experimentLoop","time_fixation","time_incorrectFeedback","time_instruction1","time_instructions2","time_keyboard_response","time_logger","time_memorySet","time_practiceLoop","time_probe","time_thankYou","title","total_correct","total_response_time","total_responses","uniform_coordinates","width"
"0","0","656","656","black","practice","legacy","legacy","legacy","0","uniform","0","undefined","0","right","0","0","0","0","0","0","0","0","0","0","0","0","0","0","0","Wed Oct  3 13:42:13 2018","The main experiment item","yes","SternbergTask.osexp","/Users/abigailchristie/Desktop","no","mono","no","18","no","white","no","yes","768","legacy","0","0","/Users/abigailchristie/Desktop/2018/Faulkenberry/Lab2/subject-2.csv","legacy","4 1 5","Kafkaesque Koffka","3.2.5","0","n","0","left","left","NA","left","NA","656","139713","NA","656","NA","2","legacy","3","1024","2","48000","-16","experiment","2","even","2","144908","NA","142679","2647","NA","142687","NA","2660","NA","146917","147575","143696","142379","146917","NA","Sternberg Task","0","656","1","yes","1024"
"50","50","937","937","black","practice","legacy","legacy","legacy","0","uniform","1","undefined","1","left","1","1","1","0","0","1","1","0","0","1","1","1","0","1","0","Wed Oct  3 13:42:13 2018","The main experiment item","yes","SternbergTask.osexp","/Users/abigailchristie/Desktop","no","mono","no","18","no","white","no","yes","768","legacy","1","1","/Users/abigailchristie/Desktop/2018/Faulkenberry/Lab2/subject-2.csv","legacy","2 9 4","Kafkaesque Koffka","3.2.5","3","y","0","left","left","NA","left","NA","1218","139713","NA","1218","NA","2","legacy","3","1024","2","48000","-16","experiment","2","even","4","150955","NA","148727","2647","NA","148735","147630","2660","NA","152963","154183","149745","142379","152963","NA","Sternberg Task","1","1874","2","yes","1024"
"66.6666666667","66.6666666667","937.666666667","937.666666667","black","practice","legacy","legacy","legacy","0","uniform","1","undefined","1","left","2","2","2","0","0","2","2","0","0","2","2","2","0","2","0","Wed Oct  3 13:42:13 2018","The main experiment item","yes","SternbergTask.osexp","/Users/abigailchristie/Desktop","no","mono","no","18","no","white","no","yes","768","legacy","2","2","/Users/abigailchristie/Desktop/2018/Faulkenberry/Lab2/subject-2.csv","legacy","1 7 9 8 5","Kafkaesque Koffka","3.2.5","4","y","0","left","left","NA","left","NA","939","139713","NA","939","NA","2","legacy","5","1024","2","48000","-16","experiment","2","even","8","157505","154195","155277","2647","NA","155285","147630","2660","NA","159514","160454","156295","142379","159514","NA","Sternberg Task","2","2813","3","yes","1024"
"75","75","900.25","900.25","black","practice","legacy","legacy","legacy","0","uniform","1","undefined","1","right","3","3","3","0","0","3","3","0","0","3","3","3","0","3","0","Wed Oct  3 13:42:13 2018","The main experiment item","yes","SternbergTask.osexp","/Users/abigailchristie/Desktop","no","mono","no","18","no","white","no","yes","768","legacy","3","3","/Users/abigailchristie/Desktop/2018/Faulkenberry/Lab2/subject-2.csv","legacy","5","Kafkaesque Koffka","3.2.5","0","n","0","right","left","NA","right","NA","788","139713","NA","788","NA","2","legacy","1","1024","2","48000","-16","experiment","2","even","3","163777","160466","161550","2647","NA","161558","147630","2660","NA","165785","166575","162566","142379","165785","NA","Sternberg Task","3","3601","4","yes","1024"
"80","80","875.8","875.8","black","practice","legacy","legacy","legacy","0","uniform","1","undefined","1","left","4","4","4","0","0","4","4","0","0","4","4","4","0","4","0","Wed Oct  3 13:42:13 2018","The main experiment item","yes","SternbergTask.osexp","/Users/abigailchristie/Desktop","no","mono","no","18","no","white","no","yes","768","legacy","4","4","/Users/abigailchristie/Desktop/2018/Faulkenberry/Lab2/subject-2.csv","legacy","4 3 1 7 9 8","Kafkaesque Koffka","3.2.5","1","y","0","left","left","NA","left","NA","778","139713","NA","778","NA","2","legacy","6","1024","2","48000","-16","experiment","2","even","4","169897","166588","167668","2647","NA","167676","147630","2660","NA","171906","172686","168685","142379","171906","NA","Sternberg Task","4","4379","5","yes","1024"
"83.3333333333","83.3333333333","828.833333333","828.833333333","black","practice","legacy","legacy","legacy","0","uniform","1","undefined","1","right","5","5","5","0","0","5","5","0","0","5","5","5","0","5","0","Wed Oct  3 13:42:13 2018","The main experiment item","yes","SternbergTask.osexp","/Users/abigailchristie/Desktop","no","mono","no","18","no","white","no","yes","768","legacy","5","5","/Users/abigailchristie/Desktop/2018/Faulkenberry/Lab2/subject-2.csv","legacy","3 1 9 4","Kafkaesque Koffka","3.2.5","0","n","0","right","left","NA","right","NA","594","139713","NA","594","NA","2","legacy","4","1024","2","48000","-16","experiment","2","even","6","176002","172696","173779","2647","NA","173787","147630","2660","NA","178010","178606","174795","142379","178010","NA","Sternberg Task","5","4973","6","yes","1024"
"85.7142857143","85.7142857143","825","825","black","practice","legacy","legacy","legacy","0","uniform","1","undefined","1","left","6","6","6","0","0","6","6","0","0","6","6","6","0","6","0","Wed Oct  3 13:42:13 2018","The main experiment item","yes","SternbergTask.osexp","/Users/abigailchristie/Desktop","no","mono","no","18","no","white","no","yes","768","legacy","6","6","/Users/abigailchristie/Desktop/2018/Faulkenberry/Lab2/subject-2.csv","legacy","1 5 2 9","Kafkaesque Koffka","3.2.5","2","y","0","left","left","NA","left","NA","802","139713","NA","802","NA","2","legacy","4","1024","2","48000","-16","experiment","2","even","5","181929","178617","179700","2647","NA","179708","147630","2660","NA","183938","184742","180717","142379","183937","NA","Sternberg Task","6","5775","7","yes","1024"
"87.5","87.5","835","835","black","practice","legacy","legacy","legacy","0","uniform","1","undefined","1","left","7","7","7","0","0","7","7","0","0","7","7","7","0","7","0","Wed Oct  3 13:42:13 2018","The main experiment item","yes","SternbergTask.osexp","/Users/abigailchristie/Desktop","no","mono","no","18","no","white","no","yes","768","legacy","7","7","/Users/abigailchristie/Desktop/2018/Faulkenberry/Lab2/subject-2.csv","legacy","6","Kafkaesque Koffka","3.2.5","1","y","0","left","left","NA","left","NA","905","139713","NA","905","NA","2","legacy","1","1024","2","48000","-16","experiment","2","even","6","188067","184753","185838","2647","NA","185846","147630","2660","NA","190075","190982","186856","142379","190075","NA","Sternberg Task","7","6680","8","yes","1024"
"88.8888888889","88.8888888889","813","813","black","practice","legacy","legacy","legacy","0","uniform","1","undefined","1","left","8","8","8","0","0","8","8","0","0","8","8","8","0","8","0","Wed Oct  3 13:42:13 2018","The main experiment item","yes","SternbergTask.osexp","/Users/abigailchristie/Desktop","no","mono","no","18","no","white","no","yes","768","legacy","8","8","/Users/abigailchristie/Desktop/2018/Faulkenberry/Lab2/subject-2.csv","legacy","4 8","Kafkaesque Koffka","3.2.5","1","y","0","left","left","NA","left","NA","637","139713","NA","637","NA","2","legacy","2","1024","2","48000","-16","experiment","2","even","4","194301","190992","192073","2647","NA","192081","147630","2660","NA","196311","196949","193091","142379","196310","NA","Sternberg Task","8","7317","9","yes","1024"
"90","90","816.1","816.1","black","practice","legacy","legacy","legacy","0","uniform","1","undefined","1","right","9","9","9","0","0","9","9","0","0","9","9","9","0","9","0","Wed Oct  3 13:42:13 2018","The main experiment item","yes","SternbergTask.osexp","/Users/abigailchristie/Desktop","no","mono","no","18","no","white","no","yes","768","legacy","9","9","/Users/abigailchristie/Desktop/2018/Faulkenberry/Lab2/subject-2.csv","legacy","9 6 7 4 5","Kafkaesque Koffka","3.2.5","0","n","0","right","left","NA","right","NA","844","139713","NA","844","NA","2","legacy","5","1024","2","48000","-16","experiment","2","even","3","200271","196960","198042","2647","NA","198051","147630","2660","NA","202279","203125","199060","142379","202279","NA","Sternberg Task","9","8161","10","yes","1024"
"90.9090909091","90.9090909091","850","850","black","practice","legacy","legacy","legacy","0","uniform","1","undefined","1","right","10","10","10","0","0","10","10","0","0","10","10","10","0","10","0","Wed Oct  3 13:42:13 2018","The main experiment item","yes","SternbergTask.osexp","/Users/abigailchristie/Desktop","no","mono","no","18","no","white","no","yes","768","legacy","10","10","/Users/abigailchristie/Desktop/2018/Faulkenberry/Lab2/subject-2.csv","legacy","2 1","Kafkaesque Koffka","3.2.5","0","n","0","right","left","NA","right","NA","1189","139713","NA","1189","NA","2","legacy","2","1024","2","48000","-16","experiment","2","even","5","206445","203137","204218","2647","NA","204226","147630","2660","NA","208454","209645","205235","142379","208454","NA","Sternberg Task","10","9350","11","yes","1024"
"91.6666666667","91.6666666667","847.333333333","847.333333333","black","practice","legacy","legacy","legacy","0","uniform","1","undefined","1","right","11","11","11","0","0","11","11","0","0","11","11","11","0","11","0","Wed Oct  3 13:42:13 2018","The main experiment item","yes","SternbergTask.osexp","/Users/abigailchristie/Desktop","no","mono","no","18","no","white","no","yes","768","legacy","11","11","/Users/abigailchristie/Desktop/2018/Faulkenberry/Lab2/subject-2.csv","legacy","5 7 8 4 1 2","Kafkaesque Koffka","3.2.5","0","n","0","right","left","NA","right","NA","818","139713","NA","818","NA","2","legacy","6","1024","2","48000","-16","experiment","2","even","6","212968","209656","210738","2647","NA","210746","147630","2660","NA","214977","215797","211757","142379","214977","NA","Sternberg Task","11","10168","12","yes","1024"
"92.3076923077","92.3076923077","871.615384615","871.615384615","black","experiment","legacy","legacy","legacy","0","uniform","1","undefined","1","left","12","12","12","0","0","12","12","0","0","12","12","12","0","12","0","Wed Oct  3 13:42:13 2018","The main experiment item","yes","SternbergTask.osexp","/Users/abigailchristie/Desktop","no","mono","no","18","no","white","no","yes","768","legacy","0","11","/Users/abigailchristie/Desktop/2018/Faulkenberry/Lab2/subject-2.csv","legacy","7 1 3","Kafkaesque Koffka","3.2.5","2","y","0","left","left","right","left","NA","1163","139713","13305","1163","NA","2","legacy","3","1024","2","48000","-16","experiment","2","even","1","232465","215808","230236","2647","230142","230244","147630","2660","216835","234473","235638","231253","142379","234473","NA","Sternberg Task","12","11331","13","yes","1024"
"92.8571428571","92.8571428571","885.857142857","885.857142857","black","experiment","legacy","legacy","legacy","0","uniform","1","undefined","1","right","13","13","13","0","0","13","13","0","0","13","13","13","0","13","0","Wed Oct  3 13:42:13 2018","The main experiment item","yes","SternbergTask.osexp","/Users/abigailchristie/Desktop","no","mono","no","18","no","white","no","yes","768","legacy","1","11","/Users/abigailchristie/Desktop/2018/Faulkenberry/Lab2/subject-2.csv","legacy","2 6 4 3 9","Kafkaesque Koffka","3.2.5","0","n","0","right","left","right","right","NA","1071","139713","13305","1071","NA","2","legacy","5","1024","2","48000","-16","experiment","2","even","1","238963","235650","236735","2647","230142","236743","147630","2660","216835","240972","242045","237752","142379","240972","NA","Sternberg Task","13","12402","14","yes","1024"
"93.3333333333","93.3333333333","869.466666667","869.466666667","black","experiment","legacy","legacy","legacy","0","uniform","1","undefined","1","left","14","14","14","0","0","14","14","0","0","14","14","14","0","14","0","Wed Oct  3 13:42:13 2018","The main experiment item","yes","SternbergTask.osexp","/Users/abigailchristie/Desktop","no","mono","no","18","no","white","no","yes","768","legacy","2","11","/Users/abigailchristie/Desktop/2018/Faulkenberry/Lab2/subject-2.csv","legacy","6 7 9 3 1 2","Kafkaesque Koffka","3.2.5","1","y","0","left","left","right","left","NA","640","139713","13305","640","NA","2","legacy","6","1024","2","48000","-16","experiment","2","even","6","245370","242058","243142","2647","230142","243150","147630","2660","216835","247379","248021","244159","142379","247378","NA","Sternberg Task","14","13042","15","yes","1024"
"93.75","93.75","864.9375","864.9375","black","experiment","legacy","legacy","legacy","0","uniform","1","undefined","1","left","15","15","15","0","0","15","15","0","0","15","15","15","0","15","0","Wed Oct  3 13:42:13 2018","The main experiment item","yes","SternbergTask.osexp","/Users/abigailchristie/Desktop","no","mono","no","18","no","white","no","yes","768","legacy","3","11","/Users/abigailchristie/Desktop/2018/Faulkenberry/Lab2/subject-2.csv","legacy","8 5 1 3 9","Kafkaesque Koffka","3.2.5","4","y","0","left","left","right","left","NA","797","139713","13305","797","NA","2","legacy","5","1024","2","48000","-16","experiment","2","even","3","251349","248031","249120","2647","230142","249128","147630","2660","216835","253358","254157","250138","142379","253358","NA","Sternberg Task","15","13839","16","yes","1024"
"94.1176470588","94.1176470588","858.470588235","858.470588235","black","experiment","legacy","legacy","legacy","0","uniform","1","undefined","1","right","16","16","16","0","0","16","16","0","0","16","16","16","0","16","0","Wed Oct  3 13:42:13 2018","The main experiment item","yes","SternbergTask.osexp","/Users/abigailchristie/Desktop","no","mono","no","18","no","white","no","yes","768","legacy","4","11","/Users/abigailchristie/Desktop/2018/Faulkenberry/Lab2/subject-2.csv","legacy","4 8 1 2","Kafkaesque Koffka","3.2.5","0","n","0","right","left","right","right","NA","755","139713","13305","755","NA","2","legacy","4","1024","2","48000","-16","experiment","2","even","7","257480","254169","255253","2647","230142","255261","147630","2660","216835","259488","260245","256269","142379","259488","NA","Sternberg Task","16","14594","17","yes","1024"
"94.4444444444","94.4444444444","873.888888889","873.888888889","black","experiment","legacy","legacy","legacy","0","uniform","1","undefined","1","right","17","17","17","0","0","17","17","0","0","17","17","17","0","17","0","Wed Oct  3 13:42:13 2018","The main experiment item","yes","SternbergTask.osexp","/Users/abigailchristie/Desktop","no","mono","no","18","no","white","no","yes","768","legacy","5","11","/Users/abigailchristie/Desktop/2018/Faulkenberry/Lab2/subject-2.csv","legacy","7 4 2 8 1 9","Kafkaesque Koffka","3.2.5","0","n","0","right","left","right","right","NA","1136","139713","13305","1136","NA","2","legacy","6","1024","2","48000","-16","experiment","2","even","5","263569","260256","261339","2647","230142","261349","147630","2660","216835","265579","266717","262358","142379","265579","NA","Sternberg Task","17","15730","18","yes","1024"
"94.7368421053","94.7368421053","877","877","black","experiment","legacy","legacy","legacy","0","uniform","1","undefined","1","left","18","18","18","0","0","18","18","0","0","18","18","18","0","18","0","Wed Oct  3 13:42:13 2018","The main experiment item","yes","SternbergTask.osexp","/Users/abigailchristie/Desktop","no","mono","no","18","no","white","no","yes","768","legacy","6","11","/Users/abigailchristie/Desktop/2018/Faulkenberry/Lab2/subject-2.csv","legacy","5 7 8 2 3 8","Kafkaesque Koffka","3.2.5","5","y","0","left","left","right","left","NA","933","139713","13305","933","NA","2","legacy","6","1024","2","48000","-16","experiment","2","even","3","270038","266728","267811","2647","230142","267818","147630","2660","216835","272046","272981","268827","142379","272046","NA","Sternberg Task","18","16663","19","yes","1024"
"95","95","865.55","865.55","black","experiment","legacy","legacy","legacy","0","uniform","1","undefined","1","left","19","19","19","0","0","19","19","0","0","19","19","19","0","19","0","Wed Oct  3 13:42:13 2018","The main experiment item","yes","SternbergTask.osexp","/Users/abigailchristie/Desktop","no","mono","no","18","no","white","no","yes","768","legacy","7","11","/Users/abigailchristie/Desktop/2018/Faulkenberry/Lab2/subject-2.csv","legacy","8 9 5 7 1 6","Kafkaesque Koffka","3.2.5","4","y","0","left","left","right","left","NA","648","139713","13305","648","NA","2","legacy","6","1024","2","48000","-16","experiment","2","even","7","276306","272992","274075","2647","230142","274086","147630","2660","216835","278315","278965","275097","142379","278315","NA","Sternberg Task","19","17311","20","yes","1024"
"95.2380952381","95.2380952381","854.142857143","854.142857143","black","experiment","legacy","legacy","legacy","0","uniform","1","undefined","1","left","20","20","20","0","0","20","20","0","0","20","20","20","0","20","0","Wed Oct  3 13:42:13 2018","The main experiment item","yes","SternbergTask.osexp","/Users/abigailchristie/Desktop","no","mono","no","18","no","white","no","yes","768","legacy","8","11","/Users/abigailchristie/Desktop/2018/Faulkenberry/Lab2/subject-2.csv","legacy","8 5 3 7 4 6","Kafkaesque Koffka","3.2.5","6","y","0","left","left","right","left","NA","626","139713","13305","626","NA","2","legacy","6","1024","2","48000","-16","experiment","2","even","6","282287","278977","280059","2647","230142","280067","147630","2660","216835","284296","284924","281076","142379","284296","NA","Sternberg Task","20","17937","21","yes","1024"
"95.4545454545","95.4545454545","844.818181818","844.818181818","black","experiment","legacy","legacy","legacy","0","uniform","1","undefined","1","right","21","21","21","0","0","21","21","0","0","21","21","21","0","21","0","Wed Oct  3 13:42:13 2018","The main experiment item","yes","SternbergTask.osexp","/Users/abigailchristie/Desktop","no","mono","no","18","no","white","no","yes","768","legacy","9","11","/Users/abigailchristie/Desktop/2018/Faulkenberry/Lab2/subject-2.csv","legacy","3 4 9 6 7 8","Kafkaesque Koffka","3.2.5","0","n","0","right","left","right","right","NA","649","139713","13305","649","NA","2","legacy","6","1024","2","48000","-16","experiment","2","even","2","288247","284936","286018","2647","230142","286026","147630","2660","216835","290257","290908","287035","142379","290257","NA","Sternberg Task","21","18586","22","yes","1024"
"95.652173913","95.652173913","845.826086957","845.826086957","black","experiment","legacy","legacy","legacy","0","uniform","1","undefined","1","left","22","22","22","0","0","22","22","0","0","22","22","22","0","22","0","Wed Oct  3 13:42:13 2018","The main experiment item","yes","SternbergTask.osexp","/Users/abigailchristie/Desktop","no","mono","no","18","no","white","no","yes","768","legacy","10","11","/Users/abigailchristie/Desktop/2018/Faulkenberry/Lab2/subject-2.csv","legacy","5 2 6","Kafkaesque Koffka","3.2.5","2","y","0","left","left","right","left","NA","868","139713","13305","868","NA","2","legacy","3","1024","2","48000","-16","experiment","2","even","2","294229","290919","292000","2647","230142","292008","147630","2660","216835","296238","297108","293018","142379","296238","NA","Sternberg Task","22","19454","23","yes","1024"
"95.8333333333","95.8333333333","844.708333333","844.708333333","black","experiment","legacy","legacy","legacy","0","uniform","1","undefined","1","left","23","23","23","0","0","23","23","0","0","23","23","23","0","23","0","Wed Oct  3 13:42:13 2018","The main experiment item","yes","SternbergTask.osexp","/Users/abigailchristie/Desktop","no","mono","no","18","no","white","no","yes","768","legacy","11","11","/Users/abigailchristie/Desktop/2018/Faulkenberry/Lab2/subject-2.csv","legacy","7 4 2 6 3 5","Kafkaesque Koffka","3.2.5","6","y","0","left","left","right","left","NA","819","139713","13305","819","NA","2","legacy","6","1024","2","48000","-16","experiment","2","even","5","300430","297118","298202","2647","230142","298209","147630","2660","216835","302439","303260","299218","142379","302439","NA","Sternberg Task","23","20273","24","yes","1024"
"96","96","835.68","835.68","black","experiment","legacy","legacy","legacy","0","uniform","1","undefined","1","right","24","24","24","0","0","24","24","0","0","24","24","24","0","24","0","Wed Oct  3 13:42:13 2018","The main experiment item","yes","SternbergTask.osexp","/Users/abigailchristie/Desktop","no","mono","no","18","no","white","no","yes","768","legacy","12","11","/Users/abigailchristie/Desktop/2018/Faulkenberry/Lab2/subject-2.csv","legacy","5 2","Kafkaesque Koffka","3.2.5","0","n","0","right","left","right","right","NA","619","139713","13305","619","NA","2","legacy","2","1024","2","48000","-16","experiment","2","even","7","306582","303272","304354","2647","230142","304362","147630","2660","216835","308591","309212","305372","142379","308591","NA","Sternberg Task","24","20892","25","yes","1024"
"96.1538461538","96.1538461538","837.884615385","837.884615385","black","experiment","legacy","legacy","legacy","0","uniform","1","undefined","1","right","25","25","25","0","0","25","25","0","0","25","25","25","0","25","0","Wed Oct  3 13:42:13 2018","The main experiment item","yes","SternbergTask.osexp","/Users/abigailchristie/Desktop","no","mono","no","18","no","white","no","yes","768","legacy","13","11","/Users/abigailchristie/Desktop/2018/Faulkenberry/Lab2/subject-2.csv","legacy","3 9 1","Kafkaesque Koffka","3.2.5","0","n","0","right","left","right","right","NA","893","139713","13305","893","NA","2","legacy","3","1024","2","48000","-16","experiment","2","even","7","312532","309223","310305","2647","230142","310313","147630","2660","216835","314541","315435","311322","142379","314541","NA","Sternberg Task","25","21785","26","yes","1024"
"96.2962962963","96.2962962963","834.888888889","834.888888889","black","experiment","legacy","legacy","legacy","0","uniform","1","undefined","1","left","26","26","26","0","0","26","26","0","0","26","26","26","0","26","0","Wed Oct  3 13:42:13 2018","The main experiment item","yes","SternbergTask.osexp","/Users/abigailchristie/Desktop","no","mono","no","18","no","white","no","yes","768","legacy","14","11","/Users/abigailchristie/Desktop/2018/Faulkenberry/Lab2/subject-2.csv","legacy","2 3 7 4","Kafkaesque Koffka","3.2.5","1","y","0","left","left","right","left","NA","757","139713","13305","757","NA","2","legacy","4","1024","2","48000","-16","experiment","2","even","2","318756","315447","316531","2647","230142","316540","147630","2660","216835","320764","321523","317548","142379","320764","NA","Sternberg Task","26","22542","27","yes","1024"
"96.4285714286","96.4285714286","845.821428571","845.821428571","black","experiment","legacy","legacy","legacy","0","uniform","1","undefined","1","right","27","27","27","0","0","27","27","0","0","27","27","27","0","27","0","Wed Oct  3 13:42:13 2018","The main experiment item","yes","SternbergTask.osexp","/Users/abigailchristie/Desktop","no","mono","no","18","no","white","no","yes","768","legacy","15","11","/Users/abigailchristie/Desktop/2018/Faulkenberry/Lab2/subject-2.csv","legacy","7 6 4 8 1 2","Kafkaesque Koffka","3.2.5","0","n","0","right","left","right","right","NA","1141","139713","13305","1141","NA","2","legacy","6","1024","2","48000","-16","experiment","2","even","9","324844","321536","322617","2647","230142","322625","147630","2660","216835","326852","327995","323634","142379","326852","NA","Sternberg Task","27","23683","28","yes","1024"
"96.5517241379","96.5517241379","847.206896552","847.206896552","black","experiment","legacy","legacy","legacy","0","uniform","1","undefined","1","right","28","28","28","0","0","28","28","0","0","28","28","28","0","28","0","Wed Oct  3 13:42:13 2018","The main experiment item","yes","SternbergTask.osexp","/Users/abigailchristie/Desktop","no","mono","no","18","no","white","no","yes","768","legacy","16","11","/Users/abigailchristie/Desktop/2018/Faulkenberry/Lab2/subject-2.csv","legacy","5 7 3","Kafkaesque Koffka","3.2.5","0","n","0","right","left","right","right","NA","886","139713","13305","886","NA","2","legacy","3","1024","2","48000","-16","experiment","2","even","9","331314","328005","329088","2647","230142","329096","147630","2660","216835","333323","334211","330105","142379","333322","NA","Sternberg Task","28","24569","29","yes","1024"
"96.6666666667","96.6666666667","844.833333333","844.833333333","black","experiment","legacy","legacy","legacy","0","uniform","1","undefined","1","right","29","29","29","0","0","29","29","0","0","29","29","29","0","29","0","Wed Oct  3 13:42:13 2018","The main experiment item","yes","SternbergTask.osexp","/Users/abigailchristie/Desktop","no","mono","no","18","no","white","no","yes","768","legacy","17","11","/Users/abigailchristie/Desktop/2018/Faulkenberry/Lab2/subject-2.csv","legacy","9","Kafkaesque Koffka","3.2.5","0","n","0","right","left","right","right","NA","776","139713","13305","776","NA","2","legacy","1","1024","2","48000","-16","experiment","2","even","6","337529","334223","335302","2647","230142","335310","147630","2660","216835","339537","340315","336319","142379","339537","NA","Sternberg Task","29","25345","30","yes","1024"
"96.7741935484","96.7741935484","845.806451613","845.806451613","black","experiment","legacy","legacy","legacy","0","uniform","1","undefined","1","right","30","30","30","0","0","30","30","0","0","30","30","30","0","30","0","Wed Oct  3 13:42:13 2018","The main experiment item","yes","SternbergTask.osexp","/Users/abigailchristie/Desktop","no","mono","no","18","no","white","no","yes","768","legacy","18","11","/Users/abigailchristie/Desktop/2018/Faulkenberry/Lab2/subject-2.csv","legacy","6 9 4 5 2","Kafkaesque Koffka","3.2.5","0","n","0","right","left","right","right","NA","875","139713","13305","875","NA","2","legacy","5","1024","2","48000","-16","experiment","2","even","1","343637","340327","341409","2647","230142","341417","147630","2660","216835","345646","346523","342425","142379","345645","NA","Sternberg Task","30","26220","31","yes","1024"
"96.875","96.875","846.9375","846.9375","black","experiment","legacy","legacy","legacy","0","uniform","1","undefined","1","right","31","31","31","0","0","31","31","0","0","31","31","31","0","31","0","Wed Oct  3 13:42:13 2018","The main experiment item","yes","SternbergTask.osexp","/Users/abigailchristie/Desktop","no","mono","no","18","no","white","no","yes","768","legacy","19","11","/Users/abigailchristie/Desktop/2018/Faulkenberry/Lab2/subject-2.csv","legacy","1 4 3 6 5","Kafkaesque Koffka","3.2.5","0","n","0","right","left","right","right","NA","882","139713","13305","882","NA","2","legacy","5","1024","2","48000","-16","experiment","2","even","8","349846","346536","347618","2647","230142","347626","147630","2660","216835","351855","352739","348635","142379","351855","NA","Sternberg Task","31","27102","32","yes","1024"
"96.9696969697","96.9696969697","841.484848485","841.484848485","black","experiment","legacy","legacy","legacy","0","uniform","1","undefined","1","left","32","32","32","0","0","32","32","0","0","32","32","32","0","32","0","Wed Oct  3 13:42:13 2018","The main experiment item","yes","SternbergTask.osexp","/Users/abigailchristie/Desktop","no","mono","no","18","no","white","no","yes","768","legacy","20","11","/Users/abigailchristie/Desktop/2018/Faulkenberry/Lab2/subject-2.csv","legacy","9 3 8 2 1 4","Kafkaesque Koffka","3.2.5","3","y","0","left","left","right","left","NA","667","139713","13305","667","NA","2","legacy","6","1024","2","48000","-16","experiment","2","even","8","356060","352750","353832","2647","230142","353840","147630","2660","216835","358069","358738","354849","142379","358069","NA","Sternberg Task","32","27769","33","yes","1024"
"97.0588235294","97.0588235294","837.470588235","837.470588235","black","experiment","legacy","legacy","legacy","0","uniform","1","undefined","1","left","33","33","33","0","0","33","33","0","0","33","33","33","0","33","0","Wed Oct  3 13:42:13 2018","The main experiment item","yes","SternbergTask.osexp","/Users/abigailchristie/Desktop","no","mono","no","18","no","white","no","yes","768","legacy","21","11","/Users/abigailchristie/Desktop/2018/Faulkenberry/Lab2/subject-2.csv","legacy","2 5 4 8 7","Kafkaesque Koffka","3.2.5","3","y","0","left","left","right","left","NA","705","139713","13305","705","NA","2","legacy","5","1024","2","48000","-16","experiment","2","even","4","362062","358749","359835","2647","230142","359844","147630","2660","216835","364071","364778","360851","142379","364071","NA","Sternberg Task","33","28474","34","yes","1024"
"97.1428571429","97.1428571429","829.028571429","829.028571429","black","experiment","legacy","legacy","legacy","0","uniform","1","undefined","1","left","34","34","34","0","0","34","34","0","0","34","34","34","0","34","0","Wed Oct  3 13:42:13 2018","The main experiment item","yes","SternbergTask.osexp","/Users/abigailchristie/Desktop","no","mono","no","18","no","white","no","yes","768","legacy","22","11","/Users/abigailchristie/Desktop/2018/Faulkenberry/Lab2/subject-2.csv","legacy","8 7 3","Kafkaesque Koffka","3.2.5","1","y","0","left","left","right","left","NA","542","139713","13305","542","NA","2","legacy","3","1024","2","48000","-16","experiment","2","even","8","368098","364789","365870","2647","230142","365878","147630","2660","216835","370106","370650","366888","142379","370106","NA","Sternberg Task","34","29016","35","yes","1024"
"97.2222222222","97.2222222222","823.194444444","823.194444444","black","experiment","legacy","legacy","legacy","0","uniform","1","undefined","1","right","35","35","35","0","0","35","35","0","0","35","35","35","0","35","0","Wed Oct  3 13:42:13 2018","The main experiment item","yes","SternbergTask.osexp","/Users/abigailchristie/Desktop","no","mono","no","18","no","white","no","yes","768","legacy","23","11","/Users/abigailchristie/Desktop/2018/Faulkenberry/Lab2/subject-2.csv","legacy","6 7 5 9","Kafkaesque Koffka","3.2.5","0","n","0","right","left","right","right","NA","619","139713","13305","619","NA","2","legacy","4","1024","2","48000","-16","experiment","2","even","2","373972","370662","371743","2647","230142","371752","147630","2660","216835","375981","376602","372761","142379","375981","NA","Sternberg Task","35","29635","36","yes","1024"
"97.2972972973","97.2972972973","822.405405405","822.405405405","black","experiment","legacy","legacy","legacy","0","uniform","1","undefined","1","right","36","36","36","0","0","36","36","0","0","36","36","36","0","36","0","Wed Oct  3 13:42:13 2018","The main experiment item","yes","SternbergTask.osexp","/Users/abigailchristie/Desktop","no","mono","no","18","no","white","no","yes","768","legacy","24","11","/Users/abigailchristie/Desktop/2018/Faulkenberry/Lab2/subject-2.csv","legacy","4 2 7 6 1 3","Kafkaesque Koffka","3.2.5","0","n","0","right","left","right","right","NA","794","139713","13305","794","NA","2","legacy","6","1024","2","48000","-16","experiment","2","even","8","379926","376615","377696","2647","230142","377704","147630","2660","216835","381934","382730","378715","142379","381934","NA","Sternberg Task","36","30429","37","yes","1024"
"97.3684210526","97.3684210526","825.552631579","825.552631579","black","experiment","legacy","legacy","legacy","0","uniform","1","undefined","1","right","37","37","37","0","0","37","37","0","0","37","37","37","0","37","0","Wed Oct  3 13:42:13 2018","The main experiment item","yes","SternbergTask.osexp","/Users/abigailchristie/Desktop","no","mono","no","18","no","white","no","yes","768","legacy","25","11","/Users/abigailchristie/Desktop/2018/Faulkenberry/Lab2/subject-2.csv","legacy","3 4 2","Kafkaesque Koffka","3.2.5","0","n","0","right","left","right","right","NA","942","139713","13305","942","NA","2","legacy","3","1024","2","48000","-16","experiment","2","even","5","386055","382741","383826","2647","230142","383833","147630","2660","216835","388064","389008","384844","142379","388064","NA","Sternberg Task","37","31371","38","yes","1024"
"97.4358974359","97.4358974359","836.384615385","836.384615385","black","experiment","legacy","legacy","legacy","0","uniform","1","undefined","1","right","38","38","38","0","0","38","38","0","0","38","38","38","0","38","0","Wed Oct  3 13:42:13 2018","The main experiment item","yes","SternbergTask.osexp","/Users/abigailchristie/Desktop","no","mono","no","18","no","white","no","yes","768","legacy","26","11","/Users/abigailchristie/Desktop/2018/Faulkenberry/Lab2/subject-2.csv","legacy","8 5 4 2 9 6","Kafkaesque Koffka","3.2.5","0","n","0","right","left","right","right","NA","1248","139713","13305","1248","NA","2","legacy","6","1024","2","48000","-16","experiment","2","even","3","392334","389022","390106","2647","230142","390114","147630","2660","216835","394343","395593","391123","142379","394342","NA","Sternberg Task","38","32619","39","yes","1024"
"97.5","97.5","832.275","832.275","black","experiment","legacy","legacy","legacy","0","uniform","1","undefined","1","left","39","39","39","0","0","39","39","0","0","39","39","39","0","39","0","Wed Oct  3 13:42:13 2018","The main experiment item","yes","SternbergTask.osexp","/Users/abigailchristie/Desktop","no","mono","no","18","no","white","no","yes","768","legacy","27","11","/Users/abigailchristie/Desktop/2018/Faulkenberry/Lab2/subject-2.csv","legacy","4 1 8 7 5","Kafkaesque Koffka","3.2.5","3","y","0","left","left","right","left","NA","672","139713","13305","672","NA","2","legacy","5","1024","2","48000","-16","experiment","2","even","8","398910","395605","396686","2647","230142","396694","147630","2660","216835","400919","401593","397702","142379","400919","NA","Sternberg Task","39","33291","40","yes","1024"
"97.5609756098","97.5609756098","826.87804878","826.87804878","black","experiment","legacy","legacy","legacy","0","uniform","1","undefined","1","left","40","40","40","0","0","40","40","0","0","40","40","40","0","40","0","Wed Oct  3 13:42:13 2018","The main experiment item","yes","SternbergTask.osexp","/Users/abigailchristie/Desktop","no","mono","no","18","no","white","no","yes","768","legacy","28","11","/Users/abigailchristie/Desktop/2018/Faulkenberry/Lab2/subject-2.csv","legacy","8 9 5 6 7","Kafkaesque Koffka","3.2.5","1","y","0","left","left","right","left","NA","611","139713","13305","611","NA","2","legacy","5","1024","2","48000","-16","experiment","2","even","8","404916","401604","402686","2647","230142","402695","147630","2660","216835","406924","407537","403705","142379","406924","NA","Sternberg Task","40","33902","41","yes","1024"
"97.619047619","97.619047619","823.714285714","823.714285714","black","experiment","legacy","legacy","legacy","0","uniform","1","undefined","1","left","41","41","41","0","0","41","41","0","0","41","41","41","0","41","0","Wed Oct  3 13:42:13 2018","The main experiment item","yes","SternbergTask.osexp","/Users/abigailchristie/Desktop","no","mono","no","18","no","white","no","yes","768","legacy","29","11","/Users/abigailchristie/Desktop/2018/Faulkenberry/Lab2/subject-2.csv","legacy","6 9 3 1","Kafkaesque Koffka","3.2.5","4","y","0","left","left","right","left","NA","694","139713","13305","694","NA","2","legacy","4","1024","2","48000","-16","experiment","2","even","1","410857","407549","408631","2647","230142","408639","147630","2660","216835","412865","413561","409648","142379","412865","NA","Sternberg Task","41","34596","42","yes","1024"
"97.6744186047","97.6744186047","824.744186047","824.744186047","black","experiment","legacy","legacy","legacy","0","uniform","1","undefined","1","left","42","42","42","0","0","42","42","0","0","42","42","42","0","42","0","Wed Oct  3 13:42:13 2018","The main experiment item","yes","SternbergTask.osexp","/Users/abigailchristie/Desktop","no","mono","no","18","no","white","no","yes","768","legacy","30","11","/Users/abigailchristie/Desktop/2018/Faulkenberry/Lab2/subject-2.csv","legacy","8 9 6 1","Kafkaesque Koffka","3.2.5","2","y","0","left","left","right","left","NA","868","139713","13305","868","NA","2","legacy","4","1024","2","48000","-16","experiment","2","even","9","416883","413572","414655","2647","230142","414663","147630","2660","216835","418891","419761","415672","142379","418891","NA","Sternberg Task","42","35464","43","yes","1024"
"97.7272727273","97.7272727273","823.022727273","823.022727273","black","experiment","legacy","legacy","legacy","0","uniform","1","undefined","1","right","43","43","43","0","0","43","43","0","0","43","43","43","0","43","0","Wed Oct  3 13:42:13 2018","The main experiment item","yes","SternbergTask.osexp","/Users/abigailchristie/Desktop","no","mono","no","18","no","white","no","yes","768","legacy","31","11","/Users/abigailchristie/Desktop/2018/Faulkenberry/Lab2/subject-2.csv","legacy","7 9","Kafkaesque Koffka","3.2.5","0","n","0","right","left","right","right","NA","749","139713","13305","749","NA","2","legacy","2","1024","2","48000","-16","experiment","2","even","1","423081","419774","420856","2647","230142","420864","147630","2660","216835","425089","425840","421873","142379","425089","NA","Sternberg Task","43","36213","44","yes","1024"
"97.7777777778","97.7777777778","824.577777778","824.577777778","black","experiment","legacy","legacy","legacy","0","uniform","1","undefined","1","left","44","44","44","0","0","44","44","0","0","44","44","44","0","44","0","Wed Oct  3 13:42:13 2018","The main experiment item","yes","SternbergTask.osexp","/Users/abigailchristie/Desktop","no","mono","no","18","no","white","no","yes","768","legacy","32","11","/Users/abigailchristie/Desktop/2018/Faulkenberry/Lab2/subject-2.csv","legacy","9 3 1 2 5","Kafkaesque Koffka","3.2.5","4","y","0","left","left","right","left","NA","893","139713","13305","893","NA","2","legacy","5","1024","2","48000","-16","experiment","2","even","2","429161","425851","426935","2647","230142","426944","147630","2660","216835","431169","432064","427953","142379","431169","NA","Sternberg Task","44","37106","45","yes","1024"
"97.8260869565","97.8260869565","820.347826087","820.347826087","black","experiment","legacy","legacy","legacy","0","uniform","1","undefined","1","left","45","45","45","0","0","45","45","0","0","45","45","45","0","45","0","Wed Oct  3 13:42:13 2018","The main experiment item","yes","SternbergTask.osexp","/Users/abigailchristie/Desktop","no","mono","no","18","no","white","no","yes","768","legacy","33","11","/Users/abigailchristie/Desktop/2018/Faulkenberry/Lab2/subject-2.csv","legacy","2 3","Kafkaesque Koffka","3.2.5","1","y","0","left","left","right","left","NA","630","139713","13305","630","NA","2","legacy","2","1024","2","48000","-16","experiment","2","even","2","435390","432076","433163","2647","230142","433171","147630","2660","216835","437399","438031","434179","142379","437399","NA","Sternberg Task","45","37736","46","yes","1024"
"97.8723404255","97.8723404255","825.319148936","825.319148936","black","experiment","legacy","legacy","legacy","0","uniform","1","undefined","1","left","46","46","46","0","0","46","46","0","0","46","46","46","0","46","0","Wed Oct  3 13:42:13 2018","The main experiment item","yes","SternbergTask.osexp","/Users/abigailchristie/Desktop","no","mono","no","18","no","white","no","yes","768","legacy","34","11","/Users/abigailchristie/Desktop/2018/Faulkenberry/Lab2/subject-2.csv","legacy","8","Kafkaesque Koffka","3.2.5","1","y","0","left","left","right","left","NA","1054","139713","13305","1054","NA","2","legacy","1","1024","2","48000","-16","experiment","2","even","8","441351","438043","439125","2647","230142","439133","147630","2660","216835","443360","444416","440141","142379","443359","NA","Sternberg Task","46","38790","47","yes","1024"
"97.9166666667","97.9166666667","827.666666667","827.666666667","black","experiment","legacy","legacy","legacy","0","uniform","1","undefined","1","right","47","47","47","0","0","47","47","0","0","47","47","47","0","47","0","Wed Oct  3 13:42:13 2018","The main experiment item","yes","SternbergTask.osexp","/Users/abigailchristie/Desktop","no","mono","no","18","no","white","no","yes","768","legacy","35","11","/Users/abigailchristie/Desktop/2018/Faulkenberry/Lab2/subject-2.csv","legacy","4 1","Kafkaesque Koffka","3.2.5","0","n","0","right","left","right","right","NA","938","139713","13305","938","NA","2","legacy","2","1024","2","48000","-16","experiment","2","even","6","447738","444428","445510","2647","230142","445517","147630","2660","216835","449747","450688","446527","142379","449747","NA","Sternberg Task","47","39728","48","yes","1024"
"97.9591836735","97.9591836735","826.693877551","826.693877551","black","experiment","legacy","legacy","legacy","0","uniform","1","undefined","1","left","48","48","48","0","0","48","48","0","0","48","48","48","0","48","0","Wed Oct  3 13:42:13 2018","The main experiment item","yes","SternbergTask.osexp","/Users/abigailchristie/Desktop","no","mono","no","18","no","white","no","yes","768","legacy","36","11","/Users/abigailchristie/Desktop/2018/Faulkenberry/Lab2/subject-2.csv","legacy","3 9 6 2","Kafkaesque Koffka","3.2.5","4","y","0","left","left","right","left","NA","780","139713","13305","780","NA","2","legacy","4","1024","2","48000","-16","experiment","2","even","2","454009","450700","451781","2647","230142","451789","147630","2660","216835","456017","456799","452799","142379","456017","NA","Sternberg Task","48","40508","49","yes","1024"
"98","98","822.7","822.7","black","experiment","legacy","legacy","legacy","0","uniform","1","undefined","1","right","49","49","49","0","0","49","49","0","0","49","49","49","0","49","0","Wed Oct  3 13:42:13 2018","The main experiment item","yes","SternbergTask.osexp","/Users/abigailchristie/Desktop","no","mono","no","18","no","white","no","yes","768","legacy","37","11","/Users/abigailchristie/Desktop/2018/Faulkenberry/Lab2/subject-2.csv","legacy","1 7 5 2","Kafkaesque Koffka","3.2.5","0","n","0","right","left","right","right","NA","627","139713","13305","627","NA","2","legacy","4","1024","2","48000","-16","experiment","2","even","3","460121","456810","457893","2647","230142","457901","147630","2660","216835","462131","462760","458910","142379","462131","NA","Sternberg Task","49","41135","50","yes","1024"
"98.0392156863","98.0392156863","820.862745098","820.862745098","black","experiment","legacy","legacy","legacy","0","uniform","1","undefined","1","right","50","50","50","0","0","50","50","0","0","50","50","50","0","50","0","Wed Oct  3 13:42:13 2018","The main experiment item","yes","SternbergTask.osexp","/Users/abigailchristie/Desktop","no","mono","no","18","no","white","no","yes","768","legacy","38","11","/Users/abigailchristie/Desktop/2018/Faulkenberry/Lab2/subject-2.csv","legacy","1 5 3 2 8","Kafkaesque Koffka","3.2.5","0","n","0","right","left","right","right","NA","729","139713","13305","729","NA","2","legacy","5","1024","2","48000","-16","experiment","2","even","4","466083","462772","463855","2647","230142","463863","147630","2660","216835","468092","468823","464872","142379","468092","NA","Sternberg Task","50","41864","51","yes","1024"
"98.0769230769","98.0769230769","817.865384615","817.865384615","black","experiment","legacy","legacy","legacy","0","uniform","1","undefined","1","right","51","51","51","0","0","51","51","0","0","51","51","51","0","51","0","Wed Oct  3 13:42:13 2018","The main experiment item","yes","SternbergTask.osexp","/Users/abigailchristie/Desktop","no","mono","no","18","no","white","no","yes","768","legacy","39","11","/Users/abigailchristie/Desktop/2018/Faulkenberry/Lab2/subject-2.csv","legacy","9 7 4 5 8","Kafkaesque Koffka","3.2.5","0","n","0","right","left","right","right","NA","665","139713","13305","665","NA","2","legacy","5","1024","2","48000","-16","experiment","2","even","6","472147","468835","469919","2647","230142","469927","147630","2660","216835","474156","474823","470936","142379","474155","NA","Sternberg Task","51","42529","52","yes","1024"
"98.1132075472","98.1132075472","815.056603774","815.056603774","black","experiment","legacy","legacy","legacy","0","uniform","1","undefined","1","right","52","52","52","0","0","52","52","0","0","52","52","52","0","52","0","Wed Oct  3 13:42:13 2018","The main experiment item","yes","SternbergTask.osexp","/Users/abigailchristie/Desktop","no","mono","no","18","no","white","no","yes","768","legacy","40","11","/Users/abigailchristie/Desktop/2018/Faulkenberry/Lab2/subject-2.csv","legacy","6 2 9 3 8 4","Kafkaesque Koffka","3.2.5","0","n","0","right","left","right","right","NA","669","139713","13305","669","NA","2","legacy","6","1024","2","48000","-16","experiment","2","even","1","478144","474834","475916","2647","230142","475924","147630","2660","216835","480152","480823","476933","142379","480152","NA","Sternberg Task","52","43198","53","yes","1024"
"98.1481481481","98.1481481481","821.888888889","821.888888889","black","experiment","legacy","legacy","legacy","0","uniform","1","undefined","1","right","53","53","53","0","0","53","53","0","0","53","53","53","0","53","0","Wed Oct  3 13:42:13 2018","The main experiment item","yes","SternbergTask.osexp","/Users/abigailchristie/Desktop","no","mono","no","18","no","white","no","yes","768","legacy","41","11","/Users/abigailchristie/Desktop/2018/Faulkenberry/Lab2/subject-2.csv","legacy","3 9 8 1 6 4","Kafkaesque Koffka","3.2.5","0","n","0","right","left","right","right","NA","1184","139713","13305","1184","NA","2","legacy","6","1024","2","48000","-16","experiment","2","even","7","484149","480836","481922","2647","230142","481930","147630","2660","216835","486157","487343","482938","142379","486157","NA","Sternberg Task","53","44382","54","yes","1024"
"98.1818181818","98.1818181818","834.854545455","834.854545455","black","experiment","legacy","legacy","legacy","0","uniform","1","undefined","1","right","54","54","54","0","0","54","54","0","0","54","54","54","0","54","0","Wed Oct  3 13:42:13 2018","The main experiment item","yes","SternbergTask.osexp","/Users/abigailchristie/Desktop","no","mono","no","18","no","white","no","yes","768","legacy","42","11","/Users/abigailchristie/Desktop/2018/Faulkenberry/Lab2/subject-2.csv","legacy","2 8 7 9 5 3","Kafkaesque Koffka","3.2.5","0","n","0","right","left","right","right","NA","1535","139713","13305","1535","NA","2","legacy","6","1024","2","48000","-16","experiment","2","even","6","490668","487355","488440","2647","230142","488449","147630","2660","216835","492677","494214","489458","142379","492677","NA","Sternberg Task","54","45917","55","yes","1024"
"98.2142857143","98.2142857143","831.160714286","831.160714286","black","experiment","legacy","legacy","legacy","0","uniform","1","undefined","1","left","55","55","55","0","0","55","55","0","0","55","55","55","0","55","0","Wed Oct  3 13:42:13 2018","The main experiment item","yes","SternbergTask.osexp","/Users/abigailchristie/Desktop","no","mono","no","18","no","white","no","yes","768","legacy","43","11","/Users/abigailchristie/Desktop/2018/Faulkenberry/Lab2/subject-2.csv","legacy","4 1 5","Kafkaesque Koffka","3.2.5","2","y","0","left","left","right","left","NA","628","139713","13305","628","NA","2","legacy","3","1024","2","48000","-16","experiment","2","even","1","497536","494226","495307","2647","230142","495316","147630","2660","216835","499544","500174","496325","142379","499544","NA","Sternberg Task","55","46545","56","yes","1024"
"98.2456140351","98.2456140351","835.01754386","835.01754386","black","experiment","legacy","legacy","legacy","0","uniform","1","undefined","1","left","56","56","56","0","0","56","56","0","0","56","56","56","0","56","0","Wed Oct  3 13:42:13 2018","The main experiment item","yes","SternbergTask.osexp","/Users/abigailchristie/Desktop","no","mono","no","18","no","white","no","yes","768","legacy","44","11","/Users/abigailchristie/Desktop/2018/Faulkenberry/Lab2/subject-2.csv","legacy","4 9 7 8 5 3","Kafkaesque Koffka","3.2.5","4","y","0","left","left","right","left","NA","1051","139713","13305","1051","NA","2","legacy","6","1024","2","48000","-16","experiment","2","even","8","503496","500185","501268","2647","230142","501276","147630","2660","216835","505505","506558","502285","142379","505505","NA","Sternberg Task","56","47596","57","yes","1024"
"98.275862069","98.275862069","835.206896552","835.206896552","black","experiment","legacy","legacy","legacy","0","uniform","1","undefined","1","left","57","57","57","0","0","57","57","0","0","57","57","57","0","57","0","Wed Oct  3 13:42:13 2018","The main experiment item","yes","SternbergTask.osexp","/Users/abigailchristie/Desktop","no","mono","no","18","no","white","no","yes","768","legacy","45","11","/Users/abigailchristie/Desktop/2018/Faulkenberry/Lab2/subject-2.csv","legacy","5 7 3 6 2","Kafkaesque Koffka","3.2.5","5","y","0","left","left","right","left","NA","846","139713","13305","846","NA","2","legacy","5","1024","2","48000","-16","experiment","2","even","2","509878","506569","507653","2647","230142","507661","147630","2660","216835","511886","512734","508670","142379","511886","NA","Sternberg Task","57","48442","58","yes","1024"
"98.3050847458","98.3050847458","834.983050847","834.983050847","black","experiment","legacy","legacy","legacy","0","uniform","1","undefined","1","right","58","58","58","0","0","58","58","0","0","58","58","58","0","58","0","Wed Oct  3 13:42:13 2018","The main experiment item","yes","SternbergTask.osexp","/Users/abigailchristie/Desktop","no","mono","no","18","no","white","no","yes","768","legacy","46","11","/Users/abigailchristie/Desktop/2018/Faulkenberry/Lab2/subject-2.csv","legacy","2 8 9 4 1","Kafkaesque Koffka","3.2.5","0","n","0","right","left","right","right","NA","822","139713","13305","822","NA","2","legacy","5","1024","2","48000","-16","experiment","2","even","5","516053","512744","513826","2647","230142","513834","147630","2660","216835","518062","518887","514841","142379","518061","NA","Sternberg Task","58","49264","59","yes","1024"
"98.3333333333","98.3333333333","834.316666667","834.316666667","black","experiment","legacy","legacy","legacy","0","uniform","1","undefined","1","right","59","59","59","0","0","59","59","0","0","59","59","59","0","59","0","Wed Oct  3 13:42:13 2018","The main experiment item","yes","SternbergTask.osexp","/Users/abigailchristie/Desktop","no","mono","no","18","no","white","no","yes","768","legacy","47","11","/Users/abigailchristie/Desktop/2018/Faulkenberry/Lab2/subject-2.csv","legacy","7 8 6 1","Kafkaesque Koffka","3.2.5","0","n","0","right","left","right","right","NA","795","139713","13305","795","NA","2","legacy","4","1024","2","48000","-16","experiment","2","even","3","522206","518897","519978","2647","230142","519987","147630","2660","216835","524215","525013","520995","142379","524215","NA","Sternberg Task","59","50059","60","yes","1024"
"98.3606557377","98.3606557377","832.950819672","832.950819672","black","experiment","legacy","legacy","legacy","0","uniform","1","undefined","1","left","60","60","60","0","0","60","60","0","0","60","60","60","0","60","0","Wed Oct  3 13:42:13 2018","The main experiment item","yes","SternbergTask.osexp","/Users/abigailchristie/Desktop","no","mono","no","18","no","white","no","yes","768","legacy","48","11","/Users/abigailchristie/Desktop/2018/Faulkenberry/Lab2/subject-2.csv","legacy","2 4 8 5 1 3","Kafkaesque Koffka","3.2.5","1","y","0","left","left","right","left","NA","751","139713","13305","751","NA","2","legacy","6","1024","2","48000","-16","experiment","2","even","2","528339","525023","526112","2647","230142","526120","147630","2660","216835","530348","531101","527128","142379","530348","NA","Sternberg Task","60","50810","61","yes","1024"
"98.3870967742","98.3870967742","835","835","black","experiment","legacy","legacy","legacy","0","uniform","1","undefined","1","left","61","61","61","0","0","61","61","0","0","61","61","61","0","61","0","Wed Oct  3 13:42:13 2018","The main experiment item","yes","SternbergTask.osexp","/Users/abigailchristie/Desktop","no","mono","no","18","no","white","no","yes","768","legacy","49","11","/Users/abigailchristie/Desktop/2018/Faulkenberry/Lab2/subject-2.csv","legacy","4 7 6 8 2 3","Kafkaesque Koffka","3.2.5","6","y","0","left","left","right","left","NA","960","139713","13305","960","NA","2","legacy","6","1024","2","48000","-16","experiment","2","even","3","534426","531114","532198","2647","230142","532206","147630","2660","216835","536435","537398","533215","142379","536435","NA","Sternberg Task","61","51770","62","yes","1024"
"98.4126984127","98.4126984127","844.873015873","844.873015873","black","experiment","legacy","legacy","legacy","0","uniform","1","undefined","1","left","62","62","62","0","0","62","62","0","0","62","62","62","0","62","0","Wed Oct  3 13:42:13 2018","The main experiment item","yes","SternbergTask.osexp","/Users/abigailchristie/Desktop","no","mono","no","18","no","white","no","yes","768","legacy","50","11","/Users/abigailchristie/Desktop/2018/Faulkenberry/Lab2/subject-2.csv","legacy","5 2 9 6 1 7","Kafkaesque Koffka","3.2.5","3","y","0","left","left","right","left","NA","1457","139713","13305","1457","NA","2","legacy","6","1024","2","48000","-16","experiment","2","even","9","540722","537409","538494","2647","230142","538502","147630","2660","216835","542730","544190","539511","142379","542730","NA","Sternberg Task","62","53227","63","yes","1024"
"98.4375","98.4375","842.59375","842.59375","black","experiment","legacy","legacy","legacy","0","uniform","1","undefined","1","left","63","63","63","0","0","63","63","0","0","63","63","63","0","63","0","Wed Oct  3 13:42:13 2018","The main experiment item","yes","SternbergTask.osexp","/Users/abigailchristie/Desktop","no","mono","no","18","no","white","no","yes","768","legacy","51","11","/Users/abigailchristie/Desktop/2018/Faulkenberry/Lab2/subject-2.csv","legacy","7","Kafkaesque Koffka","3.2.5","1","y","0","left","left","right","left","NA","699","139713","13305","699","NA","2","legacy","1","1024","2","48000","-16","experiment","2","even","7","547511","544201","545282","2647","230142","545290","147630","2660","216835","549519","550221","546300","142379","549519","NA","Sternberg Task","63","53926","64","yes","1024"
"98.4615384615","98.4615384615","841.984615385","841.984615385","black","experiment","legacy","legacy","legacy","0","uniform","1","undefined","1","right","64","64","64","0","0","64","64","0","0","64","64","64","0","64","0","Wed Oct  3 13:42:13 2018","The main experiment item","yes","SternbergTask.osexp","/Users/abigailchristie/Desktop","no","mono","no","18","no","white","no","yes","768","legacy","52","11","/Users/abigailchristie/Desktop/2018/Faulkenberry/Lab2/subject-2.csv","legacy","8 6 3 4 7","Kafkaesque Koffka","3.2.5","0","n","0","right","left","right","right","NA","803","139713","13305","803","NA","2","legacy","5","1024","2","48000","-16","experiment","2","even","1","553543","550233","551316","2647","230142","551324","147630","2660","216835","555551","556357","552333","142379","555551","NA","Sternberg Task","64","54729","65","yes","1024"
"98.4848484848","98.4848484848","840.060606061","840.060606061","black","experiment","legacy","legacy","legacy","0","uniform","1","undefined","1","right","65","65","65","0","0","65","65","0","0","65","65","65","0","65","0","Wed Oct  3 13:42:13 2018","The main experiment item","yes","SternbergTask.osexp","/Users/abigailchristie/Desktop","no","mono","no","18","no","white","no","yes","768","legacy","53","11","/Users/abigailchristie/Desktop/2018/Faulkenberry/Lab2/subject-2.csv","legacy","6 8 4","Kafkaesque Koffka","3.2.5","0","n","0","right","left","right","right","NA","715","139713","13305","715","NA","2","legacy","3","1024","2","48000","-16","experiment","2","even","1","559677","556368","557449","2647","230142","557457","147630","2660","216835","561687","562404","558467","142379","561687","NA","Sternberg Task","65","55444","66","yes","1024"
"98.5074626866","98.5074626866","843.880597015","843.880597015","black","experiment","legacy","legacy","legacy","0","uniform","1","undefined","1","right","66","66","66","0","0","66","66","0","0","66","66","66","0","66","0","Wed Oct  3 13:42:13 2018","The main experiment item","yes","SternbergTask.osexp","/Users/abigailchristie/Desktop","no","mono","no","18","no","white","no","yes","768","legacy","54","11","/Users/abigailchristie/Desktop/2018/Faulkenberry/Lab2/subject-2.csv","legacy","4 2 6 9","Kafkaesque Koffka","3.2.5","0","n","0","right","left","right","right","NA","1096","139713","13305","1096","NA","2","legacy","4","1024","2","48000","-16","experiment","2","even","7","565729","562417","563501","2647","230142","563509","147630","2660","216835","567738","568836","564518","142379","567737","NA","Sternberg Task","66","56540","67","yes","1024"
"98.5294117647","98.5294117647","844.455882353","844.455882353","black","experiment","legacy","legacy","legacy","0","uniform","1","undefined","1","left","67","67","67","0","0","67","67","0","0","67","67","67","0","67","0","Wed Oct  3 13:42:13 2018","The main experiment item","yes","SternbergTask.osexp","/Users/abigailchristie/Desktop","no","mono","no","18","no","white","no","yes","768","legacy","55","11","/Users/abigailchristie/Desktop/2018/Faulkenberry/Lab2/subject-2.csv","legacy","3 5 7 1","Kafkaesque Koffka","3.2.5","3","y","0","left","left","right","left","NA","883","139713","13305","883","NA","2","legacy","4","1024","2","48000","-16","experiment","2","even","7","572158","568850","569930","2647","230142","569938","147630","2660","216835","574167","575052","570947","142379","574167","NA","Sternberg Task","67","57423","68","yes","1024"
"98.5507246377","98.5507246377","845.246376812","845.246376812","black","experiment","legacy","legacy","legacy","0","uniform","1","undefined","1","left","68","68","68","0","0","68","68","0","0","68","68","68","0","68","0","Wed Oct  3 13:42:13 2018","The main experiment item","yes","SternbergTask.osexp","/Users/abigailchristie/Desktop","no","mono","no","18","no","white","no","yes","768","legacy","56","11","/Users/abigailchristie/Desktop/2018/Faulkenberry/Lab2/subject-2.csv","legacy","2 4 6 9","Kafkaesque Koffka","3.2.5","3","y","0","left","left","right","left","NA","899","139713","13305","899","NA","2","legacy","4","1024","2","48000","-16","experiment","2","even","6","578374","575063","576146","2647","230142","576154","147630","2660","216835","580383","581284","577163","142379","580383","NA","Sternberg Task","68","58322","69","yes","1024"
"98.5714285714","98.5714285714","845.428571429","845.428571429","black","experiment","legacy","legacy","legacy","0","uniform","1","undefined","1","left","69","69","69","0","0","69","69","0","0","69","69","69","0","69","0","Wed Oct  3 13:42:13 2018","The main experiment item","yes","SternbergTask.osexp","/Users/abigailchristie/Desktop","no","mono","no","18","no","white","no","yes","768","legacy","57","11","/Users/abigailchristie/Desktop/2018/Faulkenberry/Lab2/subject-2.csv","legacy","7 8 6 3 1","Kafkaesque Koffka","3.2.5","5","y","0","left","left","right","left","NA","858","139713","13305","858","NA","2","legacy","5","1024","2","48000","-16","experiment","2","even","1","584607","581297","582380","2647","230142","582388","147630","2660","216835","586616","587476","583397","142379","586616","NA","Sternberg Task","69","59180","70","yes","1024"
"98.5915492958","98.5915492958","846.845070423","846.845070423","black","experiment","legacy","legacy","legacy","0","uniform","1","undefined","1","right","70","70","70","0","0","70","70","0","0","70","70","70","0","70","0","Wed Oct  3 13:42:13 2018","The main experiment item","yes","SternbergTask.osexp","/Users/abigailchristie/Desktop","no","mono","no","18","no","white","no","yes","768","legacy","58","11","/Users/abigailchristie/Desktop/2018/Faulkenberry/Lab2/subject-2.csv","legacy","6 9 5","Kafkaesque Koffka","3.2.5","0","n","0","right","left","right","right","NA","946","139713","13305","946","NA","2","legacy","3","1024","2","48000","-16","experiment","2","even","8","590798","587488","588570","2647","230142","588578","147630","2660","216835","592807","593756","589587","142379","592807","NA","Sternberg Task","70","60126","71","yes","1024"
"98.6111111111","98.6111111111","849.333333333","849.333333333","black","experiment","legacy","legacy","legacy","0","uniform","1","undefined","1","left","71","71","71","0","0","71","71","0","0","71","71","71","0","71","0","Wed Oct  3 13:42:13 2018","The main experiment item","yes","SternbergTask.osexp","/Users/abigailchristie/Desktop","no","mono","no","18","no","white","no","yes","768","legacy","59","11","/Users/abigailchristie/Desktop/2018/Faulkenberry/Lab2/subject-2.csv","legacy","9 5 8 1","Kafkaesque Koffka","3.2.5","2","y","0","left","left","right","left","NA","1026","139713","13305","1026","NA","2","legacy","4","1024","2","48000","-16","experiment","2","even","5","597077","593767","594851","2647","230142","594858","147630","2660","216835","599087","600115","595867","142379","599087","NA","Sternberg Task","71","61152","72","yes","1024"
"98.6301369863","98.6301369863","851.506849315","851.506849315","black","experiment","legacy","legacy","legacy","0","uniform","1","undefined","1","right","72","72","72","0","0","72","72","0","0","72","72","72","0","72","0","Wed Oct  3 13:42:13 2018","The main experiment item","yes","SternbergTask.osexp","/Users/abigailchristie/Desktop","no","mono","no","18","no","white","no","yes","768","legacy","60","11","/Users/abigailchristie/Desktop/2018/Faulkenberry/Lab2/subject-2.csv","legacy","1 4 9 3","Kafkaesque Koffka","3.2.5","0","n","0","right","left","right","right","NA","1008","139713","13305","1008","NA","2","legacy","4","1024","2","48000","-16","experiment","2","even","5","603440","600125","601212","2647","230142","601220","147630","2660","216835","605449","606459","602229","142379","605449","NA","Sternberg Task","72","62160","73","yes","1024"
"98.6486486486","98.6486486486","850.554054054","850.554054054","black","experiment","legacy","legacy","legacy","0","uniform","1","undefined","1","right","73","73","73","0","0","73","73","0","0","73","73","73","0","73","0","Wed Oct  3 13:42:13 2018","The main experiment item","yes","SternbergTask.osexp","/Users/abigailchristie/Desktop","no","mono","no","18","no","white","no","yes","768","legacy","61","11","/Users/abigailchristie/Desktop/2018/Faulkenberry/Lab2/subject-2.csv","legacy","7 1 8 4 9 3","Kafkaesque Koffka","3.2.5","0","n","0","right","left","right","right","NA","781","139713","13305","781","NA","2","legacy","6","1024","2","48000","-16","experiment","2","even","6","609779","606469","607551","2647","230142","607559","147630","2660","216835","611788","612571","608568","142379","611788","NA","Sternberg Task","73","62941","74","yes","1024"
"97.3333333333","97.3333333333","865.88","865.88","black","experiment","legacy","legacy","legacy","0","uniform","0","undefined","0","left","74","74","74","0","0","74","74","0","0","74","74","74","0","74","0","Wed Oct  3 13:42:13 2018","The main experiment item","yes","SternbergTask.osexp","/Users/abigailchristie/Desktop","no","mono","no","18","no","white","no","yes","768","legacy","62","11","/Users/abigailchristie/Desktop/2018/Faulkenberry/Lab2/subject-2.csv","legacy","3 4 9 6 2 9","Kafkaesque Koffka","3.2.5","5","y","0","None","left","right","None","NA","2000","139713","13305","2000","NA","2","legacy","6","1024","2","48000","-16","experiment","2","even","2","615888","612581","613662","2647","230142","613670","147630","2660","216835","617896","619897","614679","142379","617896","NA","Sternberg Task","73","64941","75","yes","1024"
"96.0526315789","96.0526315789","865.447368421","865.447368421","black","experiment","legacy","legacy","legacy","0","uniform","0","undefined","0","right","75","75","75","0","0","75","75","0","0","75","75","75","0","75","0","Wed Oct  3 13:42:13 2018","The main experiment item","yes","SternbergTask.osexp","/Users/abigailchristie/Desktop","no","mono","no","18","no","white","no","yes","768","legacy","63","11","/Users/abigailchristie/Desktop/2018/Faulkenberry/Lab2/subject-2.csv","legacy","6 3 1 7 9 8","Kafkaesque Koffka","3.2.5","0","n","0","left","left","right","left","NA","833","139713","13305","833","NA","2","legacy","6","1024","2","48000","-16","experiment","2","even","4","623223","612581","620997","2647","230142","621004","619910","2660","216835","625231","626067","622012","142379","625231","NA","Sternberg Task","73","65774","76","yes","1024"
"96.1038961039","96.1038961039","864.636363636","864.636363636","black","experiment","legacy","legacy","legacy","0","uniform","1","undefined","1","left","76","76","76","0","0","76","76","0","0","76","76","76","0","76","0","Wed Oct  3 13:42:13 2018","The main experiment item","yes","SternbergTask.osexp","/Users/abigailchristie/Desktop","no","mono","no","18","no","white","no","yes","768","legacy","64","11","/Users/abigailchristie/Desktop/2018/Faulkenberry/Lab2/subject-2.csv","legacy","9 6 2 4 1","Kafkaesque Koffka","3.2.5","4","y","0","left","left","right","left","NA","803","139713","13305","803","NA","2","legacy","5","1024","2","48000","-16","experiment","2","even","4","629388","612581","627161","2647","230142","627169","626077","2660","216835","631397","632203","628178","142379","631397","NA","Sternberg Task","74","66577","77","yes","1024"
"96.1538461538","96.1538461538","865.846153846","865.846153846","black","experiment","legacy","legacy","legacy","0","uniform","1","undefined","1","right","77","77","77","0","0","77","77","0","0","77","77","77","0","77","0","Wed Oct  3 13:42:13 2018","The main experiment item","yes","SternbergTask.osexp","/Users/abigailchristie/Desktop","no","mono","no","18","no","white","no","yes","768","legacy","65","11","/Users/abigailchristie/Desktop/2018/Faulkenberry/Lab2/subject-2.csv","legacy","7 9 1 6","Kafkaesque Koffka","3.2.5","0","n","0","right","left","right","right","NA","959","139713","13305","959","NA","2","legacy","4","1024","2","48000","-16","experiment","2","even","4","635528","632216","633299","2647","230142","633307","626077","2660","216835","637537","638498","634316","142379","637536","NA","Sternberg Task","75","67536","78","yes","1024"
"96.2025316456","96.2025316456","867.101265823","867.101265823","black","experiment","legacy","legacy","legacy","0","uniform","1","undefined","1","left","78","78","78","0","0","78","78","0","0","78","78","78","0","78","0","Wed Oct  3 13:42:13 2018","The main experiment item","yes","SternbergTask.osexp","/Users/abigailchristie/Desktop","no","mono","no","18","no","white","no","yes","768","legacy","66","11","/Users/abigailchristie/Desktop/2018/Faulkenberry/Lab2/subject-2.csv","legacy","9 4 2","Kafkaesque Koffka","3.2.5","1","y","0","left","left","right","left","NA","965","139713","13305","965","NA","2","legacy","3","1024","2","48000","-16","experiment","2","even","9","641819","638509","639592","2647","230142","639600","626077","2660","216835","643827","644794","640608","142379","643827","NA","Sternberg Task","76","68501","79","yes","1024"
"96.25","96.25","865.275","865.275","black","experiment","legacy","legacy","legacy","0","uniform","1","undefined","1","left","79","79","79","0","0","79","79","0","0","79","79","79","0","79","0","Wed Oct  3 13:42:13 2018","The main experiment item","yes","SternbergTask.osexp","/Users/abigailchristie/Desktop","no","mono","no","18","no","white","no","yes","768","legacy","67","11","/Users/abigailchristie/Desktop/2018/Faulkenberry/Lab2/subject-2.csv","legacy","3 9 7 6 4","Kafkaesque Koffka","3.2.5","3","y","0","left","left","right","left","NA","721","139713","13305","721","NA","2","legacy","5","1024","2","48000","-16","experiment","2","even","7","648118","644806","645889","2647","230142","645898","626077","2660","216835","650126","650850","646907","142379","650126","NA","Sternberg Task","77","69222","80","yes","1024"
"96.2962962963","96.2962962963","865.37037037","865.37037037","black","experiment","legacy","legacy","legacy","0","uniform","1","undefined","1","right","80","80","80","0","0","80","80","0","0","80","80","80","0","80","0","Wed Oct  3 13:42:13 2018","The main experiment item","yes","SternbergTask.osexp","/Users/abigailchristie/Desktop","no","mono","no","18","no","white","no","yes","768","legacy","68","11","/Users/abigailchristie/Desktop/2018/Faulkenberry/Lab2/subject-2.csv","legacy","6 9 7 3 8 2","Kafkaesque Koffka","3.2.5","0","n","0","right","left","right","right","NA","873","139713","13305","873","NA","2","legacy","6","1024","2","48000","-16","experiment","2","even","5","654175","650864","651949","2647","230142","651957","626077","2660","216835","656183","657058","652965","142379","656183","NA","Sternberg Task","78","70095","81","yes","1024"
"96.3414634146","96.3414634146","863.426829268","863.426829268","black","experiment","legacy","legacy","legacy","0","uniform","1","undefined","1","left","81","81","81","0","0","81","81","0","0","81","81","81","0","81","0","Wed Oct  3 13:42:13 2018","The main experiment item","yes","SternbergTask.osexp","/Users/abigailchristie/Desktop","no","mono","no","18","no","white","no","yes","768","legacy","69","11","/Users/abigailchristie/Desktop/2018/Faulkenberry/Lab2/subject-2.csv","legacy","4 6 2 5 1","Kafkaesque Koffka","3.2.5","5","y","0","left","left","right","left","NA","706","139713","13305","706","NA","2","legacy","5","1024","2","48000","-16","experiment","2","even","1","660380","657069","658151","2647","230142","658159","626077","2660","216835","662389","663098","659170","142379","662389","NA","Sternberg Task","79","70801","82","yes","1024"
"96.3855421687","96.3855421687","864.481927711","864.481927711","black","experiment","legacy","legacy","legacy","0","uniform","1","undefined","1","left","82","82","82","0","0","82","82","0","0","82","82","82","0","82","0","Wed Oct  3 13:42:13 2018","The main experiment item","yes","SternbergTask.osexp","/Users/abigailchristie/Desktop","no","mono","no","18","no","white","no","yes","768","legacy","70","11","/Users/abigailchristie/Desktop/2018/Faulkenberry/Lab2/subject-2.csv","legacy","9 5 3 8 4","Kafkaesque Koffka","3.2.5","1","y","0","left","left","right","left","NA","951","139713","13305","951","NA","2","legacy","5","1024","2","48000","-16","experiment","2","even","9","666423","663110","664195","2647","230142","664203","626077","2660","216835","668432","669386","665212","142379","668432","NA","Sternberg Task","80","71752","83","yes","1024"
"96.4285714286","96.4285714286","862.345238095","862.345238095","black","experiment","legacy","legacy","legacy","0","uniform","1","undefined","1","left","83","83","83","0","0","83","83","0","0","83","83","83","0","83","0","Wed Oct  3 13:42:13 2018","The main experiment item","yes","SternbergTask.osexp","/Users/abigailchristie/Desktop","no","mono","no","18","no","white","no","yes","768","legacy","71","11","/Users/abigailchristie/Desktop/2018/Faulkenberry/Lab2/subject-2.csv","legacy","9 1 7 2","Kafkaesque Koffka","3.2.5","2","y","0","left","left","right","left","NA","685","139713","13305","685","NA","2","legacy","4","1024","2","48000","-16","experiment","2","even","1","672706","669397","670479","2647","230142","670487","626077","2660","216835","674714","675401","671496","142379","674714","NA","Sternberg Task","81","72437","84","yes","1024"
"96.4705882353","96.4705882353","861.588235294","861.588235294","black","experiment","legacy","legacy","legacy","0","uniform","1","undefined","1","left","84","84","84","0","0","84","84","0","0","84","84","84","0","84","0","Wed Oct  3 13:42:13 2018","The main experiment item","yes","SternbergTask.osexp","/Users/abigailchristie/Desktop","no","mono","no","18","no","white","no","yes","768","legacy","72","11","/Users/abigailchristie/Desktop/2018/Faulkenberry/Lab2/subject-2.csv","legacy","7 6","Kafkaesque Koffka","3.2.5","2","y","0","left","left","right","left","NA","798","139713","13305","798","NA","2","legacy","2","1024","2","48000","-16","experiment","2","even","6","678721","675413","676494","2647","230142","676501","626077","2660","216835","680729","681529","677510","142379","680729","NA","Sternberg Task","82","73235","85","yes","1024"
"96.511627907","96.511627907","859.755813953","859.755813953","black","experiment","legacy","legacy","legacy","0","uniform","1","undefined","1","left","85","85","85","0","0","85","85","0","0","85","85","85","0","85","0","Wed Oct  3 13:42:13 2018","The main experiment item","yes","SternbergTask.osexp","/Users/abigailchristie/Desktop","no","mono","no","18","no","white","no","yes","768","legacy","73","11","/Users/abigailchristie/Desktop/2018/Faulkenberry/Lab2/subject-2.csv","legacy","8 5 4 7 3 1","Kafkaesque Koffka","3.2.5","2","y","0","left","left","right","left","NA","704","139713","13305","704","NA","2","legacy","6","1024","2","48000","-16","experiment","2","even","5","684853","681542","682625","2647","230142","682633","626077","2660","216835","686862","687569","683642","142379","686862","NA","Sternberg Task","83","73939","86","yes","1024"
"96.5517241379","96.5517241379","860.287356322","860.287356322","black","experiment","legacy","legacy","legacy","0","uniform","1","undefined","1","left","86","86","86","0","0","86","86","0","0","86","86","86","0","86","0","Wed Oct  3 13:42:13 2018","The main experiment item","yes","SternbergTask.osexp","/Users/abigailchristie/Desktop","no","mono","no","18","no","white","no","yes","768","legacy","74","11","/Users/abigailchristie/Desktop/2018/Faulkenberry/Lab2/subject-2.csv","legacy","6 2","Kafkaesque Koffka","3.2.5","1","y","0","left","left","right","left","NA","906","139713","13305","906","NA","2","legacy","2","1024","2","48000","-16","experiment","2","even","6","690891","687581","688663","2647","230142","688671","626077","2660","216835","692900","693809","689681","142379","692900","NA","Sternberg Task","84","74845","87","yes","1024"
"96.5909090909","96.5909090909","858.193181818","858.193181818","black","experiment","legacy","legacy","legacy","0","uniform","1","undefined","1","left","87","87","87","0","0","87","87","0","0","87","87","87","0","87","0","Wed Oct  3 13:42:13 2018","The main experiment item","yes","SternbergTask.osexp","/Users/abigailchristie/Desktop","no","mono","no","18","no","white","no","yes","768","legacy","75","11","/Users/abigailchristie/Desktop/2018/Faulkenberry/Lab2/subject-2.csv","legacy","9 8 4","Kafkaesque Koffka","3.2.5","1","y","0","left","left","right","left","NA","676","139713","13305","676","NA","2","legacy","3","1024","2","48000","-16","experiment","2","even","9","697130","693821","694902","2647","230142","694910","626077","2660","216835","699138","699816","695919","142379","699138","NA","Sternberg Task","85","75521","88","yes","1024"
"96.6292134831","96.6292134831","858.528089888","858.528089888","black","experiment","legacy","legacy","legacy","0","uniform","1","undefined","1","right","88","88","88","0","0","88","88","0","0","88","88","88","0","88","0","Wed Oct  3 13:42:13 2018","The main experiment item","yes","SternbergTask.osexp","/Users/abigailchristie/Desktop","no","mono","no","18","no","white","no","yes","768","legacy","76","11","/Users/abigailchristie/Desktop/2018/Faulkenberry/Lab2/subject-2.csv","legacy","8 2 1 4 5 9","Kafkaesque Koffka","3.2.5","0","n","0","right","left","right","right","NA","888","139713","13305","888","NA","2","legacy","6","1024","2","48000","-16","experiment","2","even","7","703140","699826","700909","2647","230142","700919","626077","2660","216835","705149","706040","701929","142379","705149","NA","Sternberg Task","86","76409","89","yes","1024"
"96.6666666667","96.6666666667","859.555555556","859.555555556","black","experiment","legacy","legacy","legacy","0","uniform","1","undefined","1","left","89","89","89","0","0","89","89","0","0","89","89","89","0","89","0","Wed Oct  3 13:42:13 2018","The main experiment item","yes","SternbergTask.osexp","/Users/abigailchristie/Desktop","no","mono","no","18","no","white","no","yes","768","legacy","77","11","/Users/abigailchristie/Desktop/2018/Faulkenberry/Lab2/subject-2.csv","legacy","1 4 9 3 2 5","Kafkaesque Koffka","3.2.5","3","y","0","left","left","right","left","NA","951","139713","13305","951","NA","2","legacy","6","1024","2","48000","-16","experiment","2","even","9","709367","706054","707139","2647","230142","707147","626077","2660","216835","711375","712328","708156","142379","711375","NA","Sternberg Task","87","77360","90","yes","1024"
"96.7032967033","96.7032967033","859.978021978","859.978021978","black","experiment","legacy","legacy","legacy","0","uniform","1","undefined","1","right","90","90","90","0","0","90","90","0","0","90","90","90","0","90","0","Wed Oct  3 13:42:13 2018","The main experiment item","yes","SternbergTask.osexp","/Users/abigailchristie/Desktop","no","mono","no","18","no","white","no","yes","768","legacy","78","11","/Users/abigailchristie/Desktop/2018/Faulkenberry/Lab2/subject-2.csv","legacy","1 7 8 3 9","Kafkaesque Koffka","3.2.5","0","n","0","right","left","right","right","NA","898","139713","13305","898","NA","2","legacy","5","1024","2","48000","-16","experiment","2","even","2","715650","712341","713422","2647","230142","713430","626077","2660","216835","717659","718560","714439","142379","717659","NA","Sternberg Task","88","78258","91","yes","1024"
"96.7391304348","96.7391304348","863.77173913","863.77173913","black","experiment","legacy","legacy","legacy","0","uniform","1","undefined","1","right","91","91","91","0","0","91","91","0","0","91","91","91","0","91","0","Wed Oct  3 13:42:13 2018","The main experiment item","yes","SternbergTask.osexp","/Users/abigailchristie/Desktop","no","mono","no","18","no","white","no","yes","768","legacy","79","11","/Users/abigailchristie/Desktop/2018/Faulkenberry/Lab2/subject-2.csv","legacy","2 8 6 3 1","Kafkaesque Koffka","3.2.5","0","n","0","right","left","right","right","NA","1209","139713","13305","1209","NA","2","legacy","5","1024","2","48000","-16","experiment","2","even","7","721884","718571","719657","2647","230142","719664","626077","2660","216835","723892","725104","720673","142379","723892","NA","Sternberg Task","89","79467","92","yes","1024"
"96.7741935484","96.7741935484","865.129032258","865.129032258","black","experiment","legacy","legacy","legacy","0","uniform","1","undefined","1","right","92","92","92","0","0","92","92","0","0","92","92","92","0","92","0","Wed Oct  3 13:42:13 2018","The main experiment item","yes","SternbergTask.osexp","/Users/abigailchristie/Desktop","no","mono","no","18","no","white","no","yes","768","legacy","80","11","/Users/abigailchristie/Desktop/2018/Faulkenberry/Lab2/subject-2.csv","legacy","5 9 2 3","Kafkaesque Koffka","3.2.5","0","n","0","right","left","right","right","NA","990","139713","13305","990","NA","2","legacy","4","1024","2","48000","-16","experiment","2","even","8","728429","725116","726200","2647","230142","726208","626077","2660","216835","730439","731432","727219","142379","730438","NA","Sternberg Task","90","80457","93","yes","1024"
"96.8085106383","96.8085106383","864.489361702","864.489361702","black","experiment","legacy","legacy","legacy","0","uniform","1","undefined","1","right","93","93","93","0","0","93","93","0","0","93","93","93","0","93","0","Wed Oct  3 13:42:13 2018","The main experiment item","yes","SternbergTask.osexp","/Users/abigailchristie/Desktop","no","mono","no","18","no","white","no","yes","768","legacy","81","11","/Users/abigailchristie/Desktop/2018/Faulkenberry/Lab2/subject-2.csv","legacy","5 3 2 6 9 8","Kafkaesque Koffka","3.2.5","0","n","0","right","left","right","right","NA","805","139713","13305","805","NA","2","legacy","6","1024","2","48000","-16","experiment","2","even","4","734751","731443","732525","2647","230142","732533","626077","2660","216835","736760","737568","733543","142379","736759","NA","Sternberg Task","91","81262","94","yes","1024"
"96.8421052632","96.8421052632","862.526315789","862.526315789","black","experiment","legacy","legacy","legacy","0","uniform","1","undefined","1","left","94","94","94","0","0","94","94","0","0","94","94","94","0","94","0","Wed Oct  3 13:42:13 2018","The main experiment item","yes","SternbergTask.osexp","/Users/abigailchristie/Desktop","no","mono","no","18","no","white","no","yes","768","legacy","82","11","/Users/abigailchristie/Desktop/2018/Faulkenberry/Lab2/subject-2.csv","legacy","6 8 9 3 4 9","Kafkaesque Koffka","3.2.5","5","y","0","left","left","right","left","NA","678","139713","13305","678","NA","2","legacy","6","1024","2","48000","-16","experiment","2","even","4","740894","737581","738666","2647","230142","738674","626077","2660","216835","742903","743584","739683","142379","742903","NA","Sternberg Task","92","81940","95","yes","1024"
"96.875","96.875","862.947916667","862.947916667","black","experiment","legacy","legacy","legacy","0","uniform","1","undefined","1","right","95","95","95","0","0","95","95","0","0","95","95","95","0","95","0","Wed Oct  3 13:42:13 2018","The main experiment item","yes","SternbergTask.osexp","/Users/abigailchristie/Desktop","no","mono","no","18","no","white","no","yes","768","legacy","83","11","/Users/abigailchristie/Desktop/2018/Faulkenberry/Lab2/subject-2.csv","legacy","8 5 7 3 6","Kafkaesque Koffka","3.2.5","0","n","0","right","left","right","right","NA","903","139713","13305","903","NA","2","legacy","5","1024","2","48000","-16","experiment","2","even","9","746902","743593","744675","2647","230142","744683","626077","2660","216835","748910","749815","745693","142379","748910","NA","Sternberg Task","93","82843","96","yes","1024"
"96.9072164948","96.9072164948","869.329896907","869.329896907","black","experiment","legacy","legacy","legacy","0","uniform","1","undefined","1","left","96","96","96","0","0","96","96","0","0","96","96","96","0","96","0","Wed Oct  3 13:42:13 2018","The main experiment item","yes","SternbergTask.osexp","/Users/abigailchristie/Desktop","no","mono","no","18","no","white","no","yes","768","legacy","84","11","/Users/abigailchristie/Desktop/2018/Faulkenberry/Lab2/subject-2.csv","legacy","6 9 7 4 5 1","Kafkaesque Koffka","3.2.5","2","y","0","left","left","right","left","NA","1482","139713","13305","1482","NA","2","legacy","6","1024","2","48000","-16","experiment","2","even","9","753137","749825","750910","2647","230142","750918","626077","2660","216835","755146","756631","751928","142379","755146","NA","Sternberg Task","94","84325","97","yes","1024"
"96.9387755102","96.9387755102","867.530612245","867.530612245","black","experiment","legacy","legacy","legacy","0","uniform","1","undefined","1","right","97","97","97","0","0","97","97","0","0","97","97","97","0","97","0","Wed Oct  3 13:42:13 2018","The main experiment item","yes","SternbergTask.osexp","/Users/abigailchristie/Desktop","no","mono","no","18","no","white","no","yes","768","legacy","85","11","/Users/abigailchristie/Desktop/2018/Faulkenberry/Lab2/subject-2.csv","legacy","8 9","Kafkaesque Koffka","3.2.5","0","n","0","right","left","right","right","NA","693","139713","13305","693","NA","2","legacy","2","1024","2","48000","-16","experiment","2","even","5","759951","756643","757724","2647","230142","757732","626077","2660","216835","761959","762655","758741","142379","761959","NA","Sternberg Task","95","85018","98","yes","1024"
"96.9696969697","96.9696969697","867.393939394","867.393939394","black","experiment","legacy","legacy","legacy","0","uniform","1","undefined","1","right","98","98","98","0","0","98","98","0","0","98","98","98","0","98","0","Wed Oct  3 13:42:13 2018","The main experiment item","yes","SternbergTask.osexp","/Users/abigailchristie/Desktop","no","mono","no","18","no","white","no","yes","768","legacy","86","11","/Users/abigailchristie/Desktop/2018/Faulkenberry/Lab2/subject-2.csv","legacy","6 9 4 5 3 2","Kafkaesque Koffka","3.2.5","0","n","0","right","left","right","right","NA","854","139713","13305","854","NA","2","legacy","6","1024","2","48000","-16","experiment","2","even","8","765981","762667","763752","2647","230142","763760","626077","2660","216835","767990","768847","764770","142379","767990","NA","Sternberg Task","96","85872","99","yes","1024"
"96","96","867.51","867.51","black","experiment","legacy","legacy","legacy","0","uniform","0","undefined","0","left","99","99","99","0","0","99","99","0","0","99","99","99","0","99","0","Wed Oct  3 13:42:13 2018","The main experiment item","yes","SternbergTask.osexp","/Users/abigailchristie/Desktop","no","mono","no","18","no","white","no","yes","768","legacy","87","11","/Users/abigailchristie/Desktop/2018/Faulkenberry/Lab2/subject-2.csv","legacy","6 1 2","Kafkaesque Koffka","3.2.5","3","y","0","right","left","right","right","NA","879","139713","13305","879","NA","2","legacy","3","1024","2","48000","-16","experiment","2","even","2","772172","768860","769943","2647","230142","769952","626077","2660","216835","774181","775062","770961","142379","774181","NA","Sternberg Task","96","86751","100","yes","1024"
"95.0495049505","95.0495049505","875.396039604","875.396039604","black","experiment","legacy","legacy","legacy","0","uniform","0","undefined","0","left","100","100","100","0","0","100","100","0","0","100","100","100","0","100","0","Wed Oct  3 13:42:13 2018","The main experiment item","yes","SternbergTask.osexp","/Users/abigailchristie/Desktop","no","mono","no","18","no","white","no","yes","768","legacy","88","11","/Users/abigailchristie/Desktop/2018/Faulkenberry/Lab2/subject-2.csv","legacy","4","Kafkaesque Koffka","3.2.5","1","y","0","right","left","right","right","NA","1664","139713","13305","1664","NA","2","legacy","1","1024","2","48000","-16","experiment","2","even","4","778379","768860","776153","2647","230142","776161","775073","2660","216835","780388","782055","777170","142379","780388","NA","Sternberg Task","96","88415","101","yes","1024"
"95.0980392157","95.0980392157","874.62745098","874.62745098","black","experiment","legacy","legacy","legacy","0","uniform","1","undefined","1","left","101","101","101","0","0","101","101","0","0","101","101","101","0","101","0","Wed Oct  3 13:42:13 2018","The main experiment item","yes","SternbergTask.osexp","/Users/abigailchristie/Desktop","no","mono","no","18","no","white","no","yes","768","legacy","89","11","/Users/abigailchristie/Desktop/2018/Faulkenberry/Lab2/subject-2.csv","legacy","4 3 2 5 8","Kafkaesque Koffka","3.2.5","2","y","0","left","left","right","left","NA","797","139713","13305","797","NA","2","legacy","5","1024","2","48000","-16","experiment","2","even","3","785381","768860","783149","2647","230142","783159","782068","2660","216835","787390","788190","784170","142379","787390","NA","Sternberg Task","97","89212","102","yes","1024"
"95.145631068","95.145631068","872.796116505","872.796116505","black","experiment","legacy","legacy","legacy","0","uniform","1","undefined","1","right","102","102","102","0","0","102","102","0","0","102","102","102","0","102","0","Wed Oct  3 13:42:13 2018","The main experiment item","yes","SternbergTask.osexp","/Users/abigailchristie/Desktop","no","mono","no","18","no","white","no","yes","768","legacy","90","11","/Users/abigailchristie/Desktop/2018/Faulkenberry/Lab2/subject-2.csv","legacy","7 1 5 6 3","Kafkaesque Koffka","3.2.5","0","n","0","right","left","right","right","NA","686","139713","13305","686","NA","2","legacy","5","1024","2","48000","-16","experiment","2","even","8","791509","788201","789283","2647","230142","789291","782068","2660","216835","793517","794206","790300","142379","793517","NA","Sternberg Task","98","89898","103","yes","1024"
"95.1923076923","95.1923076923","872.740384615","872.740384615","black","experiment","legacy","legacy","legacy","0","uniform","1","undefined","1","right","103","103","103","0","0","103","103","0","0","103","103","103","0","103","0","Wed Oct  3 13:42:13 2018","The main experiment item","yes","SternbergTask.osexp","/Users/abigailchristie/Desktop","no","mono","no","18","no","white","no","yes","768","legacy","91","11","/Users/abigailchristie/Desktop/2018/Faulkenberry/Lab2/subject-2.csv","legacy","1 7 5 2 9","Kafkaesque Koffka","3.2.5","0","n","0","right","left","right","right","NA","867","139713","13305","867","NA","2","legacy","5","1024","2","48000","-16","experiment","2","even","3","797528","794216","795300","2647","230142","795308","782068","2660","216835","799536","800406","796317","142379","799536","NA","Sternberg Task","99","90765","104","yes","1024"
"95.2380952381","95.2380952381","871.428571429","871.428571429","black","experiment","legacy","legacy","legacy","0","uniform","1","undefined","1","left","104","104","104","0","0","104","104","0","0","104","104","104","0","104","0","Wed Oct  3 13:42:13 2018","The main experiment item","yes","SternbergTask.osexp","/Users/abigailchristie/Desktop","no","mono","no","18","no","white","no","yes","768","legacy","92","11","/Users/abigailchristie/Desktop/2018/Faulkenberry/Lab2/subject-2.csv","legacy","7 2 3","Kafkaesque Koffka","3.2.5","3","y","0","left","left","right","left","NA","735","139713","13305","735","NA","2","legacy","3","1024","2","48000","-16","experiment","2","even","3","803732","800417","801503","2647","230142","801512","782068","2660","216835","805740","806478","802521","142379","805740","NA","Sternberg Task","100","91500","105","yes","1024"
"95.2830188679","95.2830188679","869.198113208","869.198113208","black","experiment","legacy","legacy","legacy","0","uniform","1","undefined","1","left","105","105","105","0","0","105","105","0","0","105","105","105","0","105","0","Wed Oct  3 13:42:13 2018","The main experiment item","yes","SternbergTask.osexp","/Users/abigailchristie/Desktop","no","mono","no","18","no","white","no","yes","768","legacy","93","11","/Users/abigailchristie/Desktop/2018/Faulkenberry/Lab2/subject-2.csv","legacy","4 6 5 8","Kafkaesque Koffka","3.2.5","1","y","0","left","left","right","left","NA","635","139713","13305","635","NA","2","legacy","4","1024","2","48000","-16","experiment","2","even","4","809799","806491","807572","2647","230142","807580","782068","2660","216835","811808","812445","808588","142379","811807","NA","Sternberg Task","101","92135","106","yes","1024"
"95.3271028037","95.3271028037","869.85046729","869.85046729","black","experiment","legacy","legacy","legacy","0","uniform","1","undefined","1","right","106","106","106","0","0","106","106","0","0","106","106","106","0","106","0","Wed Oct  3 13:42:13 2018","The main experiment item","yes","SternbergTask.osexp","/Users/abigailchristie/Desktop","no","mono","no","18","no","white","no","yes","768","legacy","94","11","/Users/abigailchristie/Desktop/2018/Faulkenberry/Lab2/subject-2.csv","legacy","1 6 4","Kafkaesque Koffka","3.2.5","0","n","0","right","left","right","right","NA","939","139713","13305","939","NA","2","legacy","3","1024","2","48000","-16","experiment","2","even","7","815766","812456","813538","2647","230142","813546","782068","2660","216835","817775","818717","814555","142379","817774","NA","Sternberg Task","102","93074","107","yes","1024"
"95.3703703704","95.3703703704","873.805555556","873.805555556","black","experiment","legacy","legacy","legacy","0","uniform","1","undefined","1","right","107","107","107","0","0","107","107","0","0","107","107","107","0","107","0","Wed Oct  3 13:42:13 2018","The main experiment item","yes","SternbergTask.osexp","/Users/abigailchristie/Desktop","no","mono","no","18","no","white","no","yes","768","legacy","95","11","/Users/abigailchristie/Desktop/2018/Faulkenberry/Lab2/subject-2.csv","legacy","5 3 8 7 2 4","Kafkaesque Koffka","3.2.5","0","n","0","right","left","right","right","NA","1297","139713","13305","1297","NA","2","legacy","6","1024","2","48000","-16","experiment","2","even","9","822039","818727","819811","2647","230142","819820","782068","2660","216835","824049","825349","820828","142379","824049","NA","Sternberg Task","103","94371","108","yes","1024"
"95.4128440367","95.4128440367","876.018348624","876.018348624","black","experiment","legacy","legacy","legacy","0","uniform","1","undefined","1","right","108","108","108","0","0","108","108","0","0","108","108","108","0","108","0","Wed Oct  3 13:42:13 2018","The main experiment item","yes","SternbergTask.osexp","/Users/abigailchristie/Desktop","no","mono","no","18","no","white","no","yes","768","legacy","96","11","/Users/abigailchristie/Desktop/2018/Faulkenberry/Lab2/subject-2.csv","legacy","8 4 3 9","Kafkaesque Koffka","3.2.5","0","n","0","right","left","right","right","NA","1115","139713","13305","1115","NA","2","legacy","4","1024","2","48000","-16","experiment","2","even","5","828670","825361","826441","2647","230142","826449","782068","2660","216835","830679","831797","827459","142379","830679","NA","Sternberg Task","104","95486","109","yes","1024"
"95.4545454545","95.4545454545","874.309090909","874.309090909","black","experiment","legacy","legacy","legacy","0","uniform","1","undefined","1","right","109","109","109","0","0","109","109","0","0","109","109","109","0","109","0","Wed Oct  3 13:42:13 2018","The main experiment item","yes","SternbergTask.osexp","/Users/abigailchristie/Desktop","no","mono","no","18","no","white","no","yes","768","legacy","97","11","/Users/abigailchristie/Desktop/2018/Faulkenberry/Lab2/subject-2.csv","legacy","2 7 5","Kafkaesque Koffka","3.2.5","0","n","0","right","left","right","right","NA","688","139713","13305","688","NA","2","legacy","3","1024","2","48000","-16","experiment","2","even","8","835122","831810","832895","2647","230142","832903","782068","2660","216835","837130","837821","833912","142379","837130","NA","Sternberg Task","105","96174","110","yes","1024"
"95.4954954955","95.4954954955","872.774774775","872.774774775","black","experiment","legacy","legacy","legacy","0","uniform","1","undefined","1","right","110","110","110","0","0","110","110","0","0","110","110","110","0","110","0","Wed Oct  3 13:42:13 2018","The main experiment item","yes","SternbergTask.osexp","/Users/abigailchristie/Desktop","no","mono","no","18","no","white","no","yes","768","legacy","98","11","/Users/abigailchristie/Desktop/2018/Faulkenberry/Lab2/subject-2.csv","legacy","1","Kafkaesque Koffka","3.2.5","0","n","0","right","left","right","right","NA","704","139713","13305","704","NA","2","legacy","1","1024","2","48000","-16","experiment","2","even","7","841145","837836","838917","2647","230142","838925","782068","2660","216835","843154","843860","839934","142379","843154","NA","Sternberg Task","106","96878","111","yes","1024"
"95.5357142857","95.5357142857","873.089285714","873.089285714","black","experiment","legacy","legacy","legacy","0","uniform","1","undefined","1","left","111","111","111","0","0","111","111","0","0","111","111","111","0","111","0","Wed Oct  3 13:42:13 2018","The main experiment item","yes","SternbergTask.osexp","/Users/abigailchristie/Desktop","no","mono","no","18","no","white","no","yes","768","legacy","99","11","/Users/abigailchristie/Desktop/2018/Faulkenberry/Lab2/subject-2.csv","legacy","7 8 4 6 9 5","Kafkaesque Koffka","3.2.5","4","y","0","left","left","right","left","NA","908","139713","13305","908","NA","2","legacy","6","1024","2","48000","-16","experiment","2","even","6","847182","843872","844954","2647","230142","844962","782068","2660","216835","849190","850100","845971","142379","849190","NA","Sternberg Task","107","97786","112","yes","1024"
"95.5752212389","95.5752212389","879.159292035","879.159292035","black","experiment","legacy","legacy","legacy","0","uniform","1","undefined","1","left","112","112","112","0","0","112","112","0","0","112","112","112","0","112","0","Wed Oct  3 13:42:13 2018","The main experiment item","yes","SternbergTask.osexp","/Users/abigailchristie/Desktop","no","mono","no","18","no","white","no","yes","768","legacy","100","11","/Users/abigailchristie/Desktop/2018/Faulkenberry/Lab2/subject-2.csv","legacy","6 7 8 5","Kafkaesque Koffka","3.2.5","3","y","0","left","left","right","left","NA","1559","139713","13305","1559","NA","2","legacy","4","1024","2","48000","-16","experiment","2","even","8","853425","850113","851196","2647","230142","851205","782068","2660","216835","855434","856997","852214","142379","855434","NA","Sternberg Task","108","99345","113","yes","1024"
"95.6140350877","95.6140350877","877.824561404","877.824561404","black","experiment","legacy","legacy","legacy","0","uniform","1","undefined","1","right","113","113","113","0","0","113","113","0","0","113","113","113","0","113","0","Wed Oct  3 13:42:13 2018","The main experiment item","yes","SternbergTask.osexp","/Users/abigailchristie/Desktop","no","mono","no","18","no","white","no","yes","768","legacy","101","11","/Users/abigailchristie/Desktop/2018/Faulkenberry/Lab2/subject-2.csv","legacy","6 8","Kafkaesque Koffka","3.2.5","0","n","0","right","left","right","right","NA","727","139713","13305","727","NA","2","legacy","2","1024","2","48000","-16","experiment","2","even","9","860321","857009","858093","2647","230142","858101","782068","2660","216835","862330","863061","859110","142379","862329","NA","Sternberg Task","109","100072","114","yes","1024"
"95.652173913","95.652173913","877.017391304","877.017391304","black","experiment","legacy","legacy","legacy","0","uniform","1","undefined","1","left","114","114","114","0","0","114","114","0","0","114","114","114","0","114","0","Wed Oct  3 13:42:13 2018","The main experiment item","yes","SternbergTask.osexp","/Users/abigailchristie/Desktop","no","mono","no","18","no","white","no","yes","768","legacy","102","11","/Users/abigailchristie/Desktop/2018/Faulkenberry/Lab2/subject-2.csv","legacy","9 1 6 7 8","Kafkaesque Koffka","3.2.5","1","y","0","left","left","right","left","NA","785","139713","13305","785","NA","2","legacy","5","1024","2","48000","-16","experiment","2","even","9","866383","863072","864154","2647","230142","864162","782068","2660","216835","868392","869180","865172","142379","868392","NA","Sternberg Task","110","100857","115","yes","1024"
"95.6896551724","95.6896551724","875.137931034","875.137931034","black","experiment","legacy","legacy","legacy","0","uniform","1","undefined","1","left","115","115","115","0","0","115","115","0","0","115","115","115","0","115","0","Wed Oct  3 13:42:13 2018","The main experiment item","yes","SternbergTask.osexp","/Users/abigailchristie/Desktop","no","mono","no","18","no","white","no","yes","768","legacy","103","11","/Users/abigailchristie/Desktop/2018/Faulkenberry/Lab2/subject-2.csv","legacy","3 2 1 4 7","Kafkaesque Koffka","3.2.5","2","y","0","left","left","right","left","NA","659","139713","13305","659","NA","2","legacy","5","1024","2","48000","-16","experiment","2","even","2","872502","869190","870274","2647","230142","870281","782068","2660","216835","874510","875172","871291","142379","874510","NA","Sternberg Task","111","101516","116","yes","1024"
