"acc","accuracy","average_response_time","avg_rt","background","bidi","block","canvas_backend","clock_backend","color_backend","compensation","coordinates","correct","correct_Instruction1","correct_keyboard_response","correct_response","count_Fixation","count_ISI","count_Instruction1","count_Instructions2","count_ThankYou","count_correctFeedback","count_expSequence","count_experiment","count_experimentLoop","count_incorrectFeedback","count_keyboard_response","count_memorySet","count_new_logger","count_practiceLoop","count_probe","datetime","description","disable_garbage_collection","empty_column","experiment_file","experiment_path","font_bold","font_family","font_italic","font_size","font_underline","foreground","form_clicks","fullscreen","height","keyboard_backend","live_row","live_row_practiceLoop","logfile","mouse_backend","numberSet","opensesame_codename","opensesame_version","posInSet","present","repeat_cycle","response","response_Instruction1","response_Instructions2","response_ThankYou","response_keyboard_response","response_time","response_time_Instruction1","response_time_Instructions2","response_time_ThankYou","response_time_keyboard_response","round_decimals","sampler_backend","setSize","sound_buf_size","sound_channels","sound_freq","sound_sample_size","start","subject_nr","subject_parity","target","time_Fixation","time_ISI","time_Instruction1","time_Instructions2","time_ThankYou","time_correctFeedback","time_expSequence","time_experiment","time_experimentLoop","time_incorrectFeedback","time_keyboard_response","time_memorySet","time_new_logger","time_practiceLoop","time_probe","title","total_correct","total_response_time","total_responses","uniform_coordinates","width"
"100","100","37983","37983","black","no","practice","legacy","legacy","legacy","0","uniform","1","undefined","1","right","0","0","0","0","0","0","0","0","0","0","0","0","0","0","0","10/02/18 21:35:16","The main experiment item","yes","NA","SternbergTask.osexp","C:/Users/Anabel/Desktop","no","mono","no","18","no","white","no","yes","768","legacy","0","0","C:/Users/Anabel/Desktop/subject-3.csv","legacy","4 1 5","Jazzy James","3.1.9","0","n","0","right","right","NA","NA","right","37983","43734","NA","NA","37983","2","legacy","3","1024","2","48000","-16","experiment","3","odd","2","51723","53925","1753","NA","NA","NA","51721","1749","NA","NA","55926","52724","93909","45488","55926","Sternberg Task","1","37983","1","yes","1024"
"50","50","24075.5","24075.5","black","no","practice","legacy","legacy","legacy","0","uniform","0","undefined","0","left","1","1","0","0","0","1","1","0","0","1","1","1","1","0","1","10/02/18 21:35:16","The main experiment item","yes","NA","SternbergTask.osexp","C:/Users/Anabel/Desktop","no","mono","no","18","no","white","no","yes","768","legacy","1","1","C:/Users/Anabel/Desktop/subject-3.csv","legacy","6","Jazzy James","3.1.9","1","y","0","right","right","NA","NA","right","10168","43734","NA","NA","10168","2","legacy","1","1024","2","48000","-16","experiment","3","odd","6","95085","97290","1753","NA","NA","94008","95084","1749","NA","NA","99292","96088","109460","45488","99292","Sternberg Task","1","48151","2","yes","1024"
"66.6666666667","66.6666666667","16410","16410","black","no","practice","legacy","legacy","legacy","0","uniform","1","undefined","1","left","2","2","0","0","0","2","2","0","0","2","2","2","2","0","2","10/02/18 21:35:16","The main experiment item","yes","NA","SternbergTask.osexp","C:/Users/Anabel/Desktop","no","mono","no","18","no","white","no","yes","768","legacy","2","2","C:/Users/Anabel/Desktop/subject-3.csv","legacy","4 3 1 7 9 8","Jazzy James","3.1.9","1","y","0","left","right","NA","NA","left","1079","43734","NA","NA","1079","2","legacy","6","1024","2","48000","-16","experiment","3","odd","4","110597","112801","1753","NA","NA","94008","110595","1749","NA","109519","114803","111599","115883","45488","114803","Sternberg Task","2","49230","3","yes","1024"
"75","75","12558","12558","black","no","practice","legacy","legacy","legacy","0","uniform","1","undefined","1","right","3","3","0","0","0","3","3","0","0","3","3","3","3","0","3","10/02/18 21:35:16","The main experiment item","yes","NA","SternbergTask.osexp","C:/Users/Anabel/Desktop","no","mono","no","18","no","white","no","yes","768","legacy","3","3","C:/Users/Anabel/Desktop/subject-3.csv","legacy","9 6 7 4 5","Jazzy James","3.1.9","0","n","0","right","right","NA","NA","right","1002","43734","NA","NA","1002","2","legacy","5","1024","2","48000","-16","experiment","3","odd","3","117004","119208","1753","NA","NA","115918","117002","1749","NA","109519","121210","118006","122213","45488","121210","Sternberg Task","3","50232","4","yes","1024"
"80","80","10726.8","10726.8","black","no","practice","legacy","legacy","legacy","0","uniform","1","undefined","1","left","4","4","0","0","0","4","4","0","0","4","4","4","4","0","4","10/02/18 21:35:16","The main experiment item","yes","NA","SternbergTask.osexp","C:/Users/Anabel/Desktop","no","mono","no","18","no","white","no","yes","768","legacy","4","4","C:/Users/Anabel/Desktop/subject-3.csv","legacy","2 9 4","Jazzy James","3.1.9","3","y","0","left","right","NA","NA","left","3402","43734","NA","NA","3402","2","legacy","3","1024","2","48000","-16","experiment","3","odd","4","123349","125553","1753","NA","NA","122273","123347","1749","NA","109519","127555","124351","130958","45488","127555","Sternberg Task","4","53634","5","yes","1024"
"83.3333333333","83.3333333333","9204","9204","black","no","practice","legacy","legacy","legacy","0","uniform","1","undefined","1","left","5","5","0","0","0","5","5","0","0","5","5","5","5","0","5","10/02/18 21:35:16","The main experiment item","yes","NA","SternbergTask.osexp","C:/Users/Anabel/Desktop","no","mono","no","18","no","white","no","yes","768","legacy","5","5","C:/Users/Anabel/Desktop/subject-3.csv","legacy","4 8","Jazzy James","3.1.9","1","y","0","left","right","NA","NA","left","1590","43734","NA","NA","1590","2","legacy","2","1024","2","48000","-16","experiment","3","odd","4","132097","134301","1753","NA","NA","131017","132095","1749","NA","109519","136303","133099","137894","45488","136303","Sternberg Task","5","55224","6","yes","1024"
"85.7142857143","85.7142857143","8032.42857143","8032.42857143","black","no","practice","legacy","legacy","legacy","0","uniform","1","undefined","1","right","6","6","0","0","0","6","6","0","0","6","6","6","6","0","6","10/02/18 21:35:16","The main experiment item","yes","NA","SternbergTask.osexp","C:/Users/Anabel/Desktop","no","mono","no","18","no","white","no","yes","768","legacy","6","6","C:/Users/Anabel/Desktop/subject-3.csv","legacy","5 7 8 4 1 2","Jazzy James","3.1.9","0","n","0","right","right","NA","NA","right","1003","43734","NA","NA","1003","2","legacy","6","1024","2","48000","-16","experiment","3","odd","6","139004","141208","1753","NA","NA","137929","139002","1749","NA","109519","143210","140006","144214","45488","143210","Sternberg Task","6","56227","7","yes","1024"
"87.5","87.5","7112.125","7112.125","black","no","practice","legacy","legacy","legacy","0","uniform","1","undefined","1","left","7","7","0","0","0","7","7","0","0","7","7","7","7","0","7","10/02/18 21:35:16","The main experiment item","yes","NA","SternbergTask.osexp","C:/Users/Anabel/Desktop","no","mono","no","18","no","white","no","yes","768","legacy","7","7","C:/Users/Anabel/Desktop/subject-3.csv","legacy","1 5 2 9","Jazzy James","3.1.9","2","y","0","left","right","NA","NA","left","670","43734","NA","NA","670","2","legacy","4","1024","2","48000","-16","experiment","3","odd","5","145356","147560","1753","NA","NA","144274","145354","1749","NA","109519","149562","146358","150233","45488","149562","Sternberg Task","7","56897","8","yes","1024"
"88.8888888889","88.8888888889","6388.11111111","6388.11111111","black","no","practice","legacy","legacy","legacy","0","uniform","1","undefined","1","right","8","8","0","0","0","8","8","0","0","8","8","8","8","0","8","10/02/18 21:35:16","The main experiment item","yes","NA","SternbergTask.osexp","C:/Users/Anabel/Desktop","no","mono","no","18","no","white","no","yes","768","legacy","8","8","C:/Users/Anabel/Desktop/subject-3.csv","legacy","3 1 9 4","Jazzy James","3.1.9","0","n","0","right","right","NA","NA","right","596","43734","NA","NA","596","2","legacy","4","1024","2","48000","-16","experiment","3","odd","6","151362","153566","1753","NA","NA","150285","151360","1749","NA","109519","155568","152364","156165","45488","155568","Sternberg Task","8","57493","9","yes","1024"
"90","90","5811.8","5811.8","black","no","practice","legacy","legacy","legacy","0","uniform","1","undefined","1","right","9","9","0","0","0","9","9","0","0","9","9","9","9","0","9","10/02/18 21:35:16","The main experiment item","yes","NA","SternbergTask.osexp","C:/Users/Anabel/Desktop","no","mono","no","18","no","white","no","yes","768","legacy","9","9","C:/Users/Anabel/Desktop/subject-3.csv","legacy","5","Jazzy James","3.1.9","0","n","0","right","right","NA","NA","right","625","43734","NA","NA","625","2","legacy","1","1024","2","48000","-16","experiment","3","odd","3","157297","159501","1753","NA","NA","156218","157295","1749","NA","109519","161503","158299","162129","45488","161503","Sternberg Task","9","58118","10","yes","1024"
"90.9090909091","90.9090909091","5340.27272727","5340.27272727","black","no","practice","legacy","legacy","legacy","0","uniform","1","undefined","1","right","10","10","0","0","0","10","10","0","0","10","10","10","10","0","10","10/02/18 21:35:16","The main experiment item","yes","NA","SternbergTask.osexp","C:/Users/Anabel/Desktop","no","mono","no","18","no","white","no","yes","768","legacy","10","10","C:/Users/Anabel/Desktop/subject-3.csv","legacy","2 1","Jazzy James","3.1.9","0","n","0","right","right","NA","NA","right","625","43734","NA","NA","625","2","legacy","2","1024","2","48000","-16","experiment","3","odd","5","163266","165470","1753","NA","NA","162185","163264","1749","NA","109519","167472","164268","168098","45488","167472","Sternberg Task","10","58743","11","yes","1024"
"91.6666666667","91.6666666667","4965.83333333","4965.83333333","black","no","practice","legacy","legacy","legacy","0","uniform","1","undefined","1","left","11","11","0","0","0","11","11","0","0","11","11","11","11","0","11","10/02/18 21:35:16","The main experiment item","yes","NA","SternbergTask.osexp","C:/Users/Anabel/Desktop","no","mono","no","18","no","white","no","yes","768","legacy","11","11","C:/Users/Anabel/Desktop/subject-3.csv","legacy","1 7 9 8 5","Jazzy James","3.1.9","4","y","0","left","right","NA","NA","left","847","43734","NA","NA","847","2","legacy","5","1024","2","48000","-16","experiment","3","odd","8","169234","171438","1753","NA","NA","168152","169232","1749","NA","109519","173440","170236","174288","45488","173440","Sternberg Task","11","59590","12","yes","1024"
"92.3076923077","92.3076923077","4646.61538462","4646.61538462","black","no","experiment","legacy","legacy","legacy","0","uniform","1","undefined","1","right","12","12","0","0","0","12","12","0","0","12","12","12","12","0","12","10/02/18 21:35:16","The main experiment item","yes","NA","SternbergTask.osexp","C:/Users/Anabel/Desktop","no","mono","no","18","no","white","no","yes","768","legacy","0","11","C:/Users/Anabel/Desktop/subject-3.csv","legacy","1 8 7","Jazzy James","3.1.9","0","n","0","right","right","right","NA","right","816","43734","37193","NA","816","2","legacy","3","1024","2","48000","-16","experiment","3","odd","4","212671","214875","1753","175367","NA","174341","212669","1749","212561","109519","216877","213673","217694","45488","216877","Sternberg Task","12","60406","13","yes","1024"
"92.8571428571","92.8571428571","4369.85714286","4369.85714286","black","no","experiment","legacy","legacy","legacy","0","uniform","1","undefined","1","left","13","13","0","0","0","13","13","0","0","13","13","13","13","0","13","10/02/18 21:35:16","The main experiment item","yes","NA","SternbergTask.osexp","C:/Users/Anabel/Desktop","no","mono","no","18","no","white","no","yes","768","legacy","1","11","C:/Users/Anabel/Desktop/subject-3.csv","legacy","9 3 1 2 5","Jazzy James","3.1.9","4","y","0","left","right","right","NA","left","772","43734","37193","NA","772","2","legacy","5","1024","2","48000","-16","experiment","3","odd","2","218830","221034","1753","175367","NA","217751","218828","1749","212561","109519","223036","219832","223809","45488","223036","Sternberg Task","13","61178","14","yes","1024"
"93.3333333333","93.3333333333","4113.06666667","4113.06666667","black","no","experiment","legacy","legacy","legacy","0","uniform","1","undefined","1","left","14","14","0","0","0","14","14","0","0","14","14","14","14","0","14","10/02/18 21:35:16","The main experiment item","yes","NA","SternbergTask.osexp","C:/Users/Anabel/Desktop","no","mono","no","18","no","white","no","yes","768","legacy","2","11","C:/Users/Anabel/Desktop/subject-3.csv","legacy","8 5 1 3 9","Jazzy James","3.1.9","4","y","0","left","right","right","NA","left","518","43734","37193","NA","518","2","legacy","5","1024","2","48000","-16","experiment","3","odd","3","224945","227149","1753","175367","NA","223863","224943","1749","212561","109519","229151","225947","229670","45488","229151","Sternberg Task","14","61696","15","yes","1024"
"93.75","93.75","3896.8125","3896.8125","black","no","experiment","legacy","legacy","legacy","0","uniform","1","undefined","1","right","15","15","0","0","0","15","15","0","0","15","15","15","15","0","15","10/02/18 21:35:16","The main experiment item","yes","NA","SternbergTask.osexp","C:/Users/Anabel/Desktop","no","mono","no","18","no","white","no","yes","768","legacy","3","11","C:/Users/Anabel/Desktop/subject-3.csv","legacy","1 5 3 2 8","Jazzy James","3.1.9","0","n","0","right","right","right","NA","right","653","43734","37193","NA","653","2","legacy","5","1024","2","48000","-16","experiment","3","odd","4","230804","233008","1753","175367","NA","229730","230802","1749","212561","109519","235010","231807","235664","45488","235010","Sternberg Task","15","62349","16","yes","1024"
"94.1176470588","94.1176470588","3699.88235294","3699.88235294","black","no","experiment","legacy","legacy","legacy","0","uniform","1","undefined","1","left","16","16","0","0","0","16","16","0","0","16","16","16","16","0","16","10/02/18 21:35:16","The main experiment item","yes","NA","SternbergTask.osexp","C:/Users/Anabel/Desktop","no","mono","no","18","no","white","no","yes","768","legacy","4","11","C:/Users/Anabel/Desktop/subject-3.csv","legacy","3 5 4 7","Jazzy James","3.1.9","1","y","0","left","right","right","NA","left","549","43734","37193","NA","549","2","legacy","4","1024","2","48000","-16","experiment","3","odd","3","236798","239002","1753","175367","NA","235718","236796","1749","212561","109519","241004","237800","241554","45488","241004","Sternberg Task","16","62898","17","yes","1024"
"94.4444444444","94.4444444444","3529.5","3529.5","black","no","experiment","legacy","legacy","legacy","0","uniform","1","undefined","1","right","17","17","0","0","0","17","17","0","0","17","17","17","17","0","17","10/02/18 21:35:16","The main experiment item","yes","NA","SternbergTask.osexp","C:/Users/Anabel/Desktop","no","mono","no","18","no","white","no","yes","768","legacy","5","11","C:/Users/Anabel/Desktop/subject-3.csv","legacy","8 5 7 3 6","Jazzy James","3.1.9","0","n","0","right","right","right","NA","right","633","43734","37193","NA","633","2","legacy","5","1024","2","48000","-16","experiment","3","odd","9","242686","244890","1753","175367","NA","241607","242683","1749","212561","109519","246892","243688","247526","45488","246892","Sternberg Task","17","63531","18","yes","1024"
"94.7368421053","94.7368421053","3398.42105263","3398.42105263","black","no","experiment","legacy","legacy","legacy","0","uniform","1","undefined","1","left","18","18","0","0","0","18","18","0","0","18","18","18","18","0","18","10/02/18 21:35:16","The main experiment item","yes","NA","SternbergTask.osexp","C:/Users/Anabel/Desktop","no","mono","no","18","no","white","no","yes","768","legacy","6","11","C:/Users/Anabel/Desktop/subject-3.csv","legacy","7","Jazzy James","3.1.9","1","y","0","left","right","right","NA","left","1039","43734","37193","NA","1039","2","legacy","1","1024","2","48000","-16","experiment","3","odd","7","248681","250886","1753","175367","NA","247607","248680","1749","212561","109519","252888","249684","253927","45488","252888","Sternberg Task","18","64570","19","yes","1024"
"95","95","3258.65","3258.65","black","no","experiment","legacy","legacy","legacy","0","uniform","1","undefined","1","right","19","19","0","0","0","19","19","0","0","19","19","19","19","0","19","10/02/18 21:35:16","The main experiment item","yes","NA","SternbergTask.osexp","C:/Users/Anabel/Desktop","no","mono","no","18","no","white","no","yes","768","legacy","7","11","C:/Users/Anabel/Desktop/subject-3.csv","legacy","5 3 2 6 9 8","Jazzy James","3.1.9","0","n","0","right","right","right","NA","right","603","43734","37193","NA","603","2","legacy","6","1024","2","48000","-16","experiment","3","odd","4","255091","257296","1753","175367","NA","254007","255089","1749","212561","109519","259298","256094","259901","45488","259298","Sternberg Task","19","65173","20","yes","1024"
"95.2380952381","95.2380952381","3138.61904762","3138.61904762","black","no","experiment","legacy","legacy","legacy","0","uniform","1","undefined","1","left","20","20","0","0","0","20","20","0","0","20","20","20","20","0","20","10/02/18 21:35:16","The main experiment item","yes","NA","SternbergTask.osexp","C:/Users/Anabel/Desktop","no","mono","no","18","no","white","no","yes","768","legacy","8","11","C:/Users/Anabel/Desktop/subject-3.csv","legacy","5 2 9 6 1 7","Jazzy James","3.1.9","3","y","0","left","right","right","NA","left","738","43734","37193","NA","738","2","legacy","6","1024","2","48000","-16","experiment","3","odd","9","261034","263238","1753","175367","NA","259952","261032","1749","212561","109519","265240","262036","265979","45488","265240","Sternberg Task","20","65911","21","yes","1024"
"95.4545454545","95.4545454545","3024.90909091","3024.90909091","black","no","experiment","legacy","legacy","legacy","0","uniform","1","undefined","1","right","21","21","0","0","0","21","21","0","0","21","21","21","21","0","21","10/02/18 21:35:16","The main experiment item","yes","NA","SternbergTask.osexp","C:/Users/Anabel/Desktop","no","mono","no","18","no","white","no","yes","768","legacy","9","11","C:/Users/Anabel/Desktop/subject-3.csv","legacy","6 9 4 5 3 2","Jazzy James","3.1.9","0","n","0","right","right","right","NA","right","637","43734","37193","NA","637","2","legacy","6","1024","2","48000","-16","experiment","3","odd","8","267104","269309","1753","175367","NA","266030","267103","1749","212561","109519","271311","268107","271949","45488","271311","Sternberg Task","21","66548","22","yes","1024"
"95.652173913","95.652173913","2919.65217391","2919.65217391","black","no","experiment","legacy","legacy","legacy","0","uniform","1","undefined","1","left","22","22","0","0","0","22","22","0","0","22","22","22","22","0","22","10/02/18 21:35:16","The main experiment item","yes","NA","SternbergTask.osexp","C:/Users/Anabel/Desktop","no","mono","no","18","no","white","no","yes","768","legacy","10","11","C:/Users/Anabel/Desktop/subject-3.csv","legacy","2 6 1 7 4","Jazzy James","3.1.9","2","y","0","left","right","right","NA","left","604","43734","37193","NA","604","2","legacy","5","1024","2","48000","-16","experiment","3","odd","6","273092","275296","1753","175367","NA","272008","273090","1749","212561","109519","277298","274094","277903","45488","277298","Sternberg Task","22","67152","23","yes","1024"
"95.8333333333","95.8333333333","2824.875","2824.875","black","no","experiment","legacy","legacy","legacy","0","uniform","1","undefined","1","left","23","23","0","0","0","23","23","0","0","23","23","23","23","0","23","10/02/18 21:35:16","The main experiment item","yes","NA","SternbergTask.osexp","C:/Users/Anabel/Desktop","no","mono","no","18","no","white","no","yes","768","legacy","11","11","C:/Users/Anabel/Desktop/subject-3.csv","legacy","3 9 7 6 4","Jazzy James","3.1.9","3","y","0","left","right","right","NA","left","645","43734","37193","NA","645","2","legacy","5","1024","2","48000","-16","experiment","3","odd","7","279031","281235","1753","175367","NA","277952","279029","1749","212561","109519","283237","280033","283883","45488","283237","Sternberg Task","23","67797","24","yes","1024"
"96","96","2737.36","2737.36","black","no","experiment","legacy","legacy","legacy","0","uniform","1","undefined","1","right","24","24","0","0","0","24","24","0","0","24","24","24","24","0","24","10/02/18 21:35:16","The main experiment item","yes","NA","SternbergTask.osexp","C:/Users/Anabel/Desktop","no","mono","no","18","no","white","no","yes","768","legacy","12","11","C:/Users/Anabel/Desktop/subject-3.csv","legacy","5","Jazzy James","3.1.9","0","n","0","right","right","right","NA","right","637","43734","37193","NA","637","2","legacy","1","1024","2","48000","-16","experiment","3","odd","8","285002","287206","1753","175367","NA","283918","285000","1749","212561","109519","289208","286004","289846","45488","289208","Sternberg Task","24","68434","25","yes","1024"
"96.1538461538","96.1538461538","2663.30769231","2663.30769231","black","no","experiment","legacy","legacy","legacy","0","uniform","1","undefined","1","left","25","25","0","0","0","25","25","0","0","25","25","25","25","0","25","10/02/18 21:35:16","The main experiment item","yes","NA","SternbergTask.osexp","C:/Users/Anabel/Desktop","no","mono","no","18","no","white","no","yes","768","legacy","13","11","C:/Users/Anabel/Desktop/subject-3.csv","legacy","4 3 2 5 8","Jazzy James","3.1.9","2","y","0","left","right","right","NA","left","812","43734","37193","NA","812","2","legacy","5","1024","2","48000","-16","experiment","3","odd","3","290983","293187","1753","175367","NA","289908","290981","1749","212561","109519","295189","291985","296002","45488","295189","Sternberg Task","25","69246","26","yes","1024"
"96.2962962963","96.2962962963","2587.74074074","2587.74074074","black","no","experiment","legacy","legacy","legacy","0","uniform","1","undefined","1","right","26","26","0","0","0","26","26","0","0","26","26","26","26","0","26","10/02/18 21:35:16","The main experiment item","yes","NA","SternbergTask.osexp","C:/Users/Anabel/Desktop","no","mono","no","18","no","white","no","yes","768","legacy","14","11","C:/Users/Anabel/Desktop/subject-3.csv","legacy","7 9","Jazzy James","3.1.9","0","n","0","right","right","right","NA","right","623","43734","37193","NA","623","2","legacy","2","1024","2","48000","-16","experiment","3","odd","1","297123","299327","1753","175367","NA","296041","297121","1749","212561","109519","301329","298125","301953","45488","301329","Sternberg Task","26","69869","27","yes","1024"
"96.4285714286","96.4285714286","2516.89285714","2516.89285714","black","no","experiment","legacy","legacy","legacy","0","uniform","1","undefined","1","left","27","27","0","0","0","27","27","0","0","27","27","27","27","0","27","10/02/18 21:35:16","The main experiment item","yes","NA","SternbergTask.osexp","C:/Users/Anabel/Desktop","no","mono","no","18","no","white","no","yes","768","legacy","15","11","C:/Users/Anabel/Desktop/subject-3.csv","legacy","5 7 8 2 3 8","Jazzy James","3.1.9","5","y","0","left","right","right","NA","left","604","43734","37193","NA","604","2","legacy","6","1024","2","48000","-16","experiment","3","odd","3","303068","305272","1753","175367","NA","301985","303066","1749","212561","109519","307274","304070","307879","45488","307274","Sternberg Task","27","70473","28","yes","1024"
"96.5517241379","96.5517241379","2452.96551724","2452.96551724","black","no","experiment","legacy","legacy","legacy","0","uniform","1","undefined","1","right","28","28","0","0","0","28","28","0","0","28","28","28","28","0","28","10/02/18 21:35:16","The main experiment item","yes","NA","SternbergTask.osexp","C:/Users/Anabel/Desktop","no","mono","no","18","no","white","no","yes","768","legacy","16","11","C:/Users/Anabel/Desktop/subject-3.csv","legacy","8 6 3 4 7","Jazzy James","3.1.9","0","n","0","right","right","right","NA","right","663","43734","37193","NA","663","2","legacy","5","1024","2","48000","-16","experiment","3","odd","1","309017","311221","1753","175367","NA","307942","309015","1749","212561","109519","313223","310019","313887","45488","313223","Sternberg Task","28","71136","29","yes","1024"
"96.6666666667","96.6666666667","2389.73333333","2389.73333333","black","no","experiment","legacy","legacy","legacy","0","uniform","1","undefined","1","left","29","29","0","0","0","29","29","0","0","29","29","29","29","0","29","10/02/18 21:35:16","The main experiment item","yes","NA","SternbergTask.osexp","C:/Users/Anabel/Desktop","no","mono","no","18","no","white","no","yes","768","legacy","17","11","C:/Users/Anabel/Desktop/subject-3.csv","legacy","9 4 2","Jazzy James","3.1.9","1","y","0","left","right","right","NA","left","556","43734","37193","NA","556","2","legacy","3","1024","2","48000","-16","experiment","3","odd","9","315004","317209","1753","175367","NA","313918","315003","1749","212561","109519","319211","316007","319768","45488","319211","Sternberg Task","29","71692","30","yes","1024"
"96.7741935484","96.7741935484","2339.41935484","2339.41935484","black","no","experiment","legacy","legacy","legacy","0","uniform","1","undefined","1","right","30","30","0","0","0","30","30","0","0","30","30","30","30","0","30","10/02/18 21:35:16","The main experiment item","yes","NA","SternbergTask.osexp","C:/Users/Anabel/Desktop","no","mono","no","18","no","white","no","yes","768","legacy","18","11","C:/Users/Anabel/Desktop/subject-3.csv","legacy","9","Jazzy James","3.1.9","0","n","0","right","right","right","NA","right","830","43734","37193","NA","830","2","legacy","1","1024","2","48000","-16","experiment","3","odd","6","320894","323098","1753","175367","NA","319819","320892","1749","212561","109519","325100","321896","325931","45488","325100","Sternberg Task","30","72522","31","yes","1024"
"96.875","96.875","2288.5625","2288.5625","black","no","experiment","legacy","legacy","legacy","0","uniform","1","undefined","1","right","31","31","0","0","0","31","31","0","0","31","31","31","31","0","31","10/02/18 21:35:16","The main experiment item","yes","NA","SternbergTask.osexp","C:/Users/Anabel/Desktop","no","mono","no","18","no","white","no","yes","768","legacy","19","11","C:/Users/Anabel/Desktop/subject-3.csv","legacy","4 2 6 9","Jazzy James","3.1.9","0","n","0","right","right","right","NA","right","712","43734","37193","NA","712","2","legacy","4","1024","2","48000","-16","experiment","3","odd","7","327075","329279","1753","175367","NA","325985","327073","1749","212561","109519","331281","328077","331994","45488","331281","Sternberg Task","31","73234","32","yes","1024"
"96.9696969697","96.9696969697","2236.63636364","2236.63636364","black","no","experiment","legacy","legacy","legacy","0","uniform","1","undefined","1","left","32","32","0","0","0","32","32","0","0","32","32","32","32","0","32","10/02/18 21:35:16","The main experiment item","yes","NA","SternbergTask.osexp","C:/Users/Anabel/Desktop","no","mono","no","18","no","white","no","yes","768","legacy","20","11","C:/Users/Anabel/Desktop/subject-3.csv","legacy","3 4","Jazzy James","3.1.9","1","y","0","left","right","right","NA","left","575","43734","37193","NA","575","2","legacy","2","1024","2","48000","-16","experiment","3","odd","3","333104","335308","1753","175367","NA","332029","333102","1749","212561","109519","337310","334106","337886","45488","337310","Sternberg Task","32","73809","33","yes","1024"
"97.0588235294","97.0588235294","2190.26470588","2190.26470588","black","no","experiment","legacy","legacy","legacy","0","uniform","1","undefined","1","right","33","33","0","0","0","33","33","0","0","33","33","33","33","0","33","10/02/18 21:35:16","The main experiment item","yes","NA","SternbergTask.osexp","C:/Users/Anabel/Desktop","no","mono","no","18","no","white","no","yes","768","legacy","21","11","C:/Users/Anabel/Desktop/subject-3.csv","legacy","6 3 1 7 9 8","Jazzy James","3.1.9","0","n","0","right","right","right","NA","right","660","43734","37193","NA","660","2","legacy","6","1024","2","48000","-16","experiment","3","odd","4","339015","341219","1753","175367","NA","337941","339013","1749","212561","109519","343221","340017","343882","45488","343221","Sternberg Task","33","74469","34","yes","1024"
"97.1428571429","97.1428571429","2149.14285714","2149.14285714","black","no","experiment","legacy","legacy","legacy","0","uniform","1","undefined","1","left","34","34","0","0","0","34","34","0","0","34","34","34","34","0","34","10/02/18 21:35:16","The main experiment item","yes","NA","SternbergTask.osexp","C:/Users/Anabel/Desktop","no","mono","no","18","no","white","no","yes","768","legacy","22","11","C:/Users/Anabel/Desktop/subject-3.csv","legacy","4 7 6 8 2 3","Jazzy James","3.1.9","6","y","0","left","right","right","NA","left","751","43734","37193","NA","751","2","legacy","6","1024","2","48000","-16","experiment","3","odd","3","345016","347220","1753","175367","NA","343940","345014","1749","212561","109519","349222","346018","349974","45488","349222","Sternberg Task","34","75220","35","yes","1024"
"97.2222222222","97.2222222222","2114.88888889","2114.88888889","black","no","experiment","legacy","legacy","legacy","0","uniform","1","undefined","1","right","35","35","0","0","0","35","35","0","0","35","35","35","35","0","35","10/02/18 21:35:16","The main experiment item","yes","NA","SternbergTask.osexp","C:/Users/Anabel/Desktop","no","mono","no","18","no","white","no","yes","768","legacy","23","11","C:/Users/Anabel/Desktop/subject-3.csv","legacy","3 9 8 1 6 4","Jazzy James","3.1.9","0","n","0","right","right","right","NA","right","916","43734","37193","NA","916","2","legacy","6","1024","2","48000","-16","experiment","3","odd","7","351104","353308","1753","175367","NA","350030","351102","1749","212561","109519","355310","352106","356227","45488","355310","Sternberg Task","35","76136","36","yes","1024"
"97.2972972973","97.2972972973","2078.40540541","2078.40540541","black","no","experiment","legacy","legacy","legacy","0","uniform","1","undefined","1","right","36","36","0","0","0","36","36","0","0","36","36","36","36","0","36","10/02/18 21:35:16","The main experiment item","yes","NA","SternbergTask.osexp","C:/Users/Anabel/Desktop","no","mono","no","18","no","white","no","yes","768","legacy","24","11","C:/Users/Anabel/Desktop/subject-3.csv","legacy","1 7 8 3 9","Jazzy James","3.1.9","0","n","0","right","right","right","NA","right","765","43734","37193","NA","765","2","legacy","5","1024","2","48000","-16","experiment","3","odd","2","357367","359571","1753","175367","NA","356285","357365","1749","212561","109519","361573","358369","362339","45488","361573","Sternberg Task","36","76901","37","yes","1024"
"97.3684210526","97.3684210526","2039.84210526","2039.84210526","black","no","experiment","legacy","legacy","legacy","0","uniform","1","undefined","1","right","37","37","0","0","0","37","37","0","0","37","37","37","37","0","37","10/02/18 21:35:16","The main experiment item","yes","NA","SternbergTask.osexp","C:/Users/Anabel/Desktop","no","mono","no","18","no","white","no","yes","768","legacy","25","11","C:/Users/Anabel/Desktop/subject-3.csv","legacy","5 2","Jazzy James","3.1.9","0","n","0","right","right","right","NA","right","613","43734","37193","NA","613","2","legacy","2","1024","2","48000","-16","experiment","3","odd","7","363481","365685","1753","175367","NA","362396","363479","1749","212561","109519","367687","364483","368301","45488","367687","Sternberg Task","37","77514","38","yes","1024"
"97.4358974359","97.4358974359","2008.41025641","2008.41025641","black","no","experiment","legacy","legacy","legacy","0","uniform","1","undefined","1","left","38","38","0","0","0","38","38","0","0","38","38","38","38","0","38","10/02/18 21:35:16","The main experiment item","yes","NA","SternbergTask.osexp","C:/Users/Anabel/Desktop","no","mono","no","18","no","white","no","yes","768","legacy","26","11","C:/Users/Anabel/Desktop/subject-3.csv","legacy","4 1 5","Jazzy James","3.1.9","2","y","0","left","right","right","NA","left","814","43734","37193","NA","814","2","legacy","3","1024","2","48000","-16","experiment","3","odd","1","369405","371609","1753","175367","NA","368330","369403","1749","212561","109519","373611","370407","374426","45488","373611","Sternberg Task","38","78328","39","yes","1024"
"97.5","97.5","1974.55","1974.55","black","no","experiment","legacy","legacy","legacy","0","uniform","1","undefined","1","right","39","39","0","0","0","39","39","0","0","39","39","39","39","0","39","10/02/18 21:35:16","The main experiment item","yes","NA","SternbergTask.osexp","C:/Users/Anabel/Desktop","no","mono","no","18","no","white","no","yes","768","legacy","27","11","C:/Users/Anabel/Desktop/subject-3.csv","legacy","8 2 1 4 5 9","Jazzy James","3.1.9","0","n","0","right","right","right","NA","right","654","43734","37193","NA","654","2","legacy","6","1024","2","48000","-16","experiment","3","odd","7","375570","377774","1753","175367","NA","374485","375568","1749","212561","109519","379776","376572","380431","45488","379776","Sternberg Task","39","78982","40","yes","1024"
"97.5609756098","97.5609756098","1940.90243902","1940.90243902","black","no","experiment","legacy","legacy","legacy","0","uniform","1","undefined","1","right","40","40","0","0","0","40","40","0","0","40","40","40","40","0","40","10/02/18 21:35:16","The main experiment item","yes","NA","SternbergTask.osexp","C:/Users/Anabel/Desktop","no","mono","no","18","no","white","no","yes","768","legacy","28","11","C:/Users/Anabel/Desktop/subject-3.csv","legacy","2 8 6 3 1","Jazzy James","3.1.9","0","n","0","right","right","right","NA","right","595","43734","37193","NA","595","2","legacy","5","1024","2","48000","-16","experiment","3","odd","7","381570","383775","1753","175367","NA","380486","381569","1749","212561","109519","385777","382573","386373","45488","385777","Sternberg Task","40","79577","41","yes","1024"
"97.619047619","97.619047619","1909.73809524","1909.73809524","black","no","experiment","legacy","legacy","legacy","0","uniform","1","undefined","1","right","41","41","0","0","0","41","41","0","0","41","41","41","41","0","41","10/02/18 21:35:16","The main experiment item","yes","NA","SternbergTask.osexp","C:/Users/Anabel/Desktop","no","mono","no","18","no","white","no","yes","768","legacy","29","11","C:/Users/Anabel/Desktop/subject-3.csv","legacy","1 4 3 6 5","Jazzy James","3.1.9","0","n","0","right","right","right","NA","right","632","43734","37193","NA","632","2","legacy","5","1024","2","48000","-16","experiment","3","odd","8","387512","389717","1753","175367","NA","386430","387511","1749","212561","109519","391719","388515","392352","45488","391719","Sternberg Task","41","80209","42","yes","1024"
"95.3488372093","95.3488372093","1886.8372093","1886.8372093","black","no","experiment","legacy","legacy","legacy","0","uniform","0","undefined","0","left","42","42","0","0","0","42","42","0","0","42","42","42","42","0","42","10/02/18 21:35:16","The main experiment item","yes","NA","SternbergTask.osexp","C:/Users/Anabel/Desktop","no","mono","no","18","no","white","no","yes","768","legacy","30","11","C:/Users/Anabel/Desktop/subject-3.csv","legacy","8 5 4 7 3 1","Jazzy James","3.1.9","2","y","0","right","right","right","NA","right","925","43734","37193","NA","925","2","legacy","6","1024","2","48000","-16","experiment","3","odd","5","393461","395666","1753","175367","NA","392384","393460","1749","212561","109519","397668","394464","398595","45488","397668","Sternberg Task","41","81134","43","yes","1024"
"95.4545454545","95.4545454545","1866.54545455","1866.54545455","black","no","experiment","legacy","legacy","legacy","0","uniform","1","undefined","1","right","43","43","0","0","0","43","43","0","0","43","43","43","43","0","43","10/02/18 21:35:16","The main experiment item","yes","NA","SternbergTask.osexp","C:/Users/Anabel/Desktop","no","mono","no","18","no","white","no","yes","768","legacy","31","11","C:/Users/Anabel/Desktop/subject-3.csv","legacy","3 4 2","Jazzy James","3.1.9","0","n","0","right","right","right","NA","right","994","43734","37193","NA","994","2","legacy","3","1024","2","48000","-16","experiment","3","odd","5","399729","401933","1753","175367","NA","392384","399727","1749","212561","398652","403934","400731","404929","45488","403934","Sternberg Task","42","82128","44","yes","1024"
"95.5555555556","95.5555555556","1848.77777778","1848.77777778","black","no","experiment","legacy","legacy","legacy","0","uniform","1","undefined","1","right","44","44","0","0","0","44","44","0","0","44","44","44","44","0","44","10/02/18 21:35:16","The main experiment item","yes","NA","SternbergTask.osexp","C:/Users/Anabel/Desktop","no","mono","no","18","no","white","no","yes","768","legacy","32","11","C:/Users/Anabel/Desktop/subject-3.csv","legacy","3 4 9 6 7 8","Jazzy James","3.1.9","0","n","0","right","right","right","NA","right","1067","43734","37193","NA","1067","2","legacy","6","1024","2","48000","-16","experiment","3","odd","2","406152","408356","1753","175367","NA","405076","406150","1749","212561","398652","410358","407154","411426","45488","410358","Sternberg Task","43","83195","45","yes","1024"
"95.652173913","95.652173913","1833.69565217","1833.69565217","black","no","experiment","legacy","legacy","legacy","0","uniform","1","undefined","1","right","45","45","0","0","0","45","45","0","0","45","45","45","45","0","45","10/02/18 21:35:16","The main experiment item","yes","NA","SternbergTask.osexp","C:/Users/Anabel/Desktop","no","mono","no","18","no","white","no","yes","768","legacy","33","11","C:/Users/Anabel/Desktop/subject-3.csv","legacy","4 1","Jazzy James","3.1.9","0","n","0","right","right","right","NA","right","1155","43734","37193","NA","1155","2","legacy","2","1024","2","48000","-16","experiment","3","odd","6","412567","414771","1753","175367","NA","411486","412565","1749","212561","398652","416773","413569","417929","45488","416773","Sternberg Task","44","84350","46","yes","1024"
"95.7446808511","95.7446808511","1816","1816","black","no","experiment","legacy","legacy","legacy","0","uniform","1","undefined","1","left","46","46","0","0","0","46","46","0","0","46","46","46","46","0","46","10/02/18 21:35:16","The main experiment item","yes","NA","SternbergTask.osexp","C:/Users/Anabel/Desktop","no","mono","no","18","no","white","no","yes","768","legacy","34","11","C:/Users/Anabel/Desktop/subject-3.csv","legacy","7 8 6 3 1","Jazzy James","3.1.9","5","y","0","left","right","right","NA","left","1002","43734","37193","NA","1002","2","legacy","5","1024","2","48000","-16","experiment","3","odd","1","419071","421275","1753","175367","NA","417986","419069","1749","212561","398652","423277","420073","424280","45488","423277","Sternberg Task","45","85352","47","yes","1024"
"95.8333333333","95.8333333333","1797.39583333","1797.39583333","black","no","experiment","legacy","legacy","legacy","0","uniform","1","undefined","1","right","47","47","0","0","0","47","47","0","0","47","47","47","47","0","47","10/02/18 21:35:16","The main experiment item","yes","NA","SternbergTask.osexp","C:/Users/Anabel/Desktop","no","mono","no","18","no","white","no","yes","768","legacy","35","11","C:/Users/Anabel/Desktop/subject-3.csv","legacy","1 6 4 3 9 7","Jazzy James","3.1.9","0","n","0","right","right","right","NA","right","923","43734","37193","NA","923","2","legacy","6","1024","2","48000","-16","experiment","3","odd","8","425409","427613","1753","175367","NA","424330","425407","1749","212561","398652","429615","426411","430540","45488","429615","Sternberg Task","46","86275","48","yes","1024"
"95.9183673469","95.9183673469","1777.63265306","1777.63265306","black","no","experiment","legacy","legacy","legacy","0","uniform","1","undefined","1","right","48","48","0","0","0","48","48","0","0","48","48","48","48","0","48","10/02/18 21:35:16","The main experiment item","yes","NA","SternbergTask.osexp","C:/Users/Anabel/Desktop","no","mono","no","18","no","white","no","yes","768","legacy","36","11","C:/Users/Anabel/Desktop/subject-3.csv","legacy","2 7 5","Jazzy James","3.1.9","0","n","0","right","right","right","NA","right","829","43734","37193","NA","829","2","legacy","3","1024","2","48000","-16","experiment","3","odd","8","431677","433881","1753","175367","NA","430596","431675","1749","212561","398652","435883","432679","436713","45488","435883","Sternberg Task","47","87104","49","yes","1024"
"96","96","1761.38","1761.38","black","no","experiment","legacy","legacy","legacy","0","uniform","1","undefined","1","right","49","49","0","0","0","49","49","0","0","49","49","49","49","0","49","10/02/18 21:35:16","The main experiment item","yes","NA","SternbergTask.osexp","C:/Users/Anabel/Desktop","no","mono","no","18","no","white","no","yes","768","legacy","37","11","C:/Users/Anabel/Desktop/subject-3.csv","legacy","2 8 7 9 5 3","Jazzy James","3.1.9","0","n","0","right","right","right","NA","right","965","43734","37193","NA","965","2","legacy","6","1024","2","48000","-16","experiment","3","odd","6","437855","440059","1753","175367","NA","436774","437853","1749","212561","398652","442061","438857","443027","45488","442061","Sternberg Task","48","88069","50","yes","1024"
"96.0784313725","96.0784313725","1742.66666667","1742.66666667","black","no","experiment","legacy","legacy","legacy","0","uniform","1","undefined","1","right","50","50","0","0","0","50","50","0","0","50","50","50","50","0","50","10/02/18 21:35:16","The main experiment item","yes","NA","SternbergTask.osexp","C:/Users/Anabel/Desktop","no","mono","no","18","no","white","no","yes","768","legacy","38","11","C:/Users/Anabel/Desktop/subject-3.csv","legacy","6 7 5 9","Jazzy James","3.1.9","0","n","0","right","right","right","NA","right","807","43734","37193","NA","807","2","legacy","4","1024","2","48000","-16","experiment","3","odd","2","444163","446367","1753","175367","NA","443088","444161","1749","212561","398652","448369","445165","449177","45488","448369","Sternberg Task","49","88876","51","yes","1024"
"96.1538461538","96.1538461538","1721","1721","black","no","experiment","legacy","legacy","legacy","0","uniform","1","undefined","1","left","51","51","0","0","0","51","51","0","0","51","51","51","51","0","51","10/02/18 21:35:16","The main experiment item","yes","NA","SternbergTask.osexp","C:/Users/Anabel/Desktop","no","mono","no","18","no","white","no","yes","768","legacy","39","11","C:/Users/Anabel/Desktop/subject-3.csv","legacy","9 1 7 2","Jazzy James","3.1.9","2","y","0","left","right","right","NA","left","616","43734","37193","NA","616","2","legacy","4","1024","2","48000","-16","experiment","3","odd","1","450309","452513","1753","175367","NA","449230","450307","1749","212561","398652","454515","451311","455132","45488","454515","Sternberg Task","50","89492","52","yes","1024"
"94.3396226415","94.3396226415","1701.54716981","1701.54716981","black","no","experiment","legacy","legacy","legacy","0","uniform","0","undefined","0","left","52","52","0","0","0","52","52","0","0","52","52","52","52","0","52","10/02/18 21:35:16","The main experiment item","yes","NA","SternbergTask.osexp","C:/Users/Anabel/Desktop","no","mono","no","18","no","white","no","yes","768","legacy","40","11","C:/Users/Anabel/Desktop/subject-3.csv","legacy","7 4 2 6 3 5","Jazzy James","3.1.9","6","y","0","right","right","right","NA","right","690","43734","37193","NA","690","2","legacy","6","1024","2","48000","-16","experiment","3","odd","5","456270","458474","1753","175367","NA","455186","456268","1749","212561","398652","460476","457272","461168","45488","460476","Sternberg Task","50","90182","53","yes","1024"
"94.4444444444","94.4444444444","1745.85185185","1745.85185185","black","no","experiment","legacy","legacy","legacy","0","uniform","1","undefined","1","right","53","53","0","0","0","53","53","0","0","53","53","53","53","0","53","10/02/18 21:35:16","The main experiment item","yes","NA","SternbergTask.osexp","C:/Users/Anabel/Desktop","no","mono","no","18","no","white","no","yes","768","legacy","41","11","C:/Users/Anabel/Desktop/subject-3.csv","legacy","2 8 9","Jazzy James","3.1.9","0","n","0","right","right","right","NA","right","4094","43734","37193","NA","4094","2","legacy","3","1024","2","48000","-16","experiment","3","odd","6","462302","464506","1753","175367","NA","455186","462300","1749","212561","461219","466508","463304","470603","45488","466508","Sternberg Task","51","94276","54","yes","1024"
"94.5454545455","94.5454545455","1727.03636364","1727.03636364","black","no","experiment","legacy","legacy","legacy","0","uniform","1","undefined","1","left","54","54","0","0","0","54","54","0","0","54","54","54","54","0","54","10/02/18 21:35:16","The main experiment item","yes","NA","SternbergTask.osexp","C:/Users/Anabel/Desktop","no","mono","no","18","no","white","no","yes","768","legacy","42","11","C:/Users/Anabel/Desktop/subject-3.csv","legacy","7 6","Jazzy James","3.1.9","2","y","0","left","right","right","NA","left","711","43734","37193","NA","711","2","legacy","2","1024","2","48000","-16","experiment","3","odd","6","471749","473953","1753","175367","NA","470663","471747","1749","212561","461219","475955","472751","476668","45488","475955","Sternberg Task","52","94987","55","yes","1024"
"94.6428571429","94.6428571429","1710.625","1710.625","black","no","experiment","legacy","legacy","legacy","0","uniform","1","undefined","1","left","55","55","0","0","0","55","55","0","0","55","55","55","55","0","55","10/02/18 21:35:16","The main experiment item","yes","NA","SternbergTask.osexp","C:/Users/Anabel/Desktop","no","mono","no","18","no","white","no","yes","768","legacy","43","11","C:/Users/Anabel/Desktop/subject-3.csv","legacy","3 5 9 6 2 4","Jazzy James","3.1.9","1","y","0","left","right","right","NA","left","808","43734","37193","NA","808","2","legacy","6","1024","2","48000","-16","experiment","3","odd","3","477813","480017","1753","175367","NA","476730","477811","1749","212561","461219","482019","478815","482829","45488","482019","Sternberg Task","53","95795","56","yes","1024"
"94.7368421053","94.7368421053","1692.12280702","1692.12280702","black","no","experiment","legacy","legacy","legacy","0","uniform","1","undefined","1","left","56","56","0","0","0","56","56","0","0","56","56","56","56","0","56","10/02/18 21:35:16","The main experiment item","yes","NA","SternbergTask.osexp","C:/Users/Anabel/Desktop","no","mono","no","18","no","white","no","yes","768","legacy","44","11","C:/Users/Anabel/Desktop/subject-3.csv","legacy","2 3 7 4","Jazzy James","3.1.9","1","y","0","left","right","right","NA","left","656","43734","37193","NA","656","2","legacy","4","1024","2","48000","-16","experiment","3","odd","2","483940","486144","1753","175367","NA","482862","483938","1749","212561","461219","488146","484942","488803","45488","488146","Sternberg Task","54","96451","57","yes","1024"
"94.8275862069","94.8275862069","1672.48275862","1672.48275862","black","no","experiment","legacy","legacy","legacy","0","uniform","1","undefined","1","left","57","57","0","0","0","57","57","0","0","57","57","57","57","0","57","10/02/18 21:35:16","The main experiment item","yes","NA","SternbergTask.osexp","C:/Users/Anabel/Desktop","no","mono","no","18","no","white","no","yes","768","legacy","45","11","C:/Users/Anabel/Desktop/subject-3.csv","legacy","7 1 3","Jazzy James","3.1.9","2","y","0","left","right","right","NA","left","553","43734","37193","NA","553","2","legacy","3","1024","2","48000","-16","experiment","3","odd","1","489935","492139","1753","175367","NA","488853","489933","1749","212561","461219","494141","490937","494696","45488","494141","Sternberg Task","55","97004","58","yes","1024"
"93.2203389831","93.2203389831","1662.05084746","1662.05084746","black","no","experiment","legacy","legacy","legacy","0","uniform","0","undefined","0","right","58","58","0","0","0","58","58","0","0","58","58","58","58","0","58","10/02/18 21:35:16","The main experiment item","yes","NA","SternbergTask.osexp","C:/Users/Anabel/Desktop","no","mono","no","18","no","white","no","yes","768","legacy","46","11","C:/Users/Anabel/Desktop/subject-3.csv","legacy","5 3 8 7 2 4","Jazzy James","3.1.9","0","n","0","left","right","right","NA","left","1057","43734","37193","NA","1057","2","legacy","6","1024","2","48000","-16","experiment","3","odd","9","495839","498043","1753","175367","NA","494752","495837","1749","212561","461219","500045","496841","501102","45488","500045","Sternberg Task","55","98061","59","yes","1024"
"93.3333333333","93.3333333333","1648.83333333","1648.83333333","black","no","experiment","legacy","legacy","legacy","0","uniform","1","undefined","1","right","59","59","0","0","0","59","59","0","0","59","59","59","59","0","59","10/02/18 21:35:16","The main experiment item","yes","NA","SternbergTask.osexp","C:/Users/Anabel/Desktop","no","mono","no","18","no","white","no","yes","768","legacy","47","11","C:/Users/Anabel/Desktop/subject-3.csv","legacy","1 4 9 2 5","Jazzy James","3.1.9","0","n","0","right","right","right","NA","right","869","43734","37193","NA","869","2","legacy","5","1024","2","48000","-16","experiment","3","odd","7","502241","504445","1753","175367","NA","494752","502239","1749","212561","501164","506447","503243","507317","45488","506447","Sternberg Task","56","98930","60","yes","1024"
"93.4426229508","93.4426229508","1634.63934426","1634.63934426","black","no","experiment","legacy","legacy","legacy","0","uniform","1","undefined","1","right","60","60","0","0","0","60","60","0","0","60","60","60","60","0","60","10/02/18 21:35:16","The main experiment item","yes","NA","SternbergTask.osexp","C:/Users/Anabel/Desktop","no","mono","no","18","no","white","no","yes","768","legacy","48","11","C:/Users/Anabel/Desktop/subject-3.csv","legacy","6 9 4 5 2","Jazzy James","3.1.9","0","n","0","right","right","right","NA","right","783","43734","37193","NA","783","2","legacy","5","1024","2","48000","-16","experiment","3","odd","1","508455","510659","1753","175367","NA","507375","508453","1749","212561","501164","512661","509457","513446","45488","512661","Sternberg Task","57","99713","61","yes","1024"
"93.5483870968","93.5483870968","1628.01612903","1628.01612903","black","no","experiment","legacy","legacy","legacy","0","uniform","1","undefined","1","right","61","61","0","0","0","61","61","0","0","61","61","61","61","0","61","10/02/18 21:35:16","The main experiment item","yes","NA","SternbergTask.osexp","C:/Users/Anabel/Desktop","no","mono","no","18","no","white","no","yes","768","legacy","49","11","C:/Users/Anabel/Desktop/subject-3.csv","legacy","2 8 9 4 1","Jazzy James","3.1.9","0","n","0","right","right","right","NA","right","1224","43734","37193","NA","1224","2","legacy","5","1024","2","48000","-16","experiment","3","odd","5","514573","516777","1753","175367","NA","513497","514571","1749","212561","501164","518779","515575","520005","45488","518779","Sternberg Task","58","100937","62","yes","1024"
"93.6507936508","93.6507936508","1612.76190476","1612.76190476","black","no","experiment","legacy","legacy","legacy","0","uniform","1","undefined","1","left","62","62","0","0","0","62","62","0","0","62","62","62","62","0","62","10/02/18 21:35:16","The main experiment item","yes","NA","SternbergTask.osexp","C:/Users/Anabel/Desktop","no","mono","no","18","no","white","no","yes","768","legacy","50","11","C:/Users/Anabel/Desktop/subject-3.csv","legacy","3 5 7 1","Jazzy James","3.1.9","3","y","0","left","right","right","NA","left","667","43734","37193","NA","667","2","legacy","4","1024","2","48000","-16","experiment","3","odd","7","521167","523371","1753","175367","NA","520086","521165","1749","212561","501164","525373","522169","526041","45488","525373","Sternberg Task","59","101604","63","yes","1024"
"93.75","93.75","1597.8125","1597.8125","black","no","experiment","legacy","legacy","legacy","0","uniform","1","undefined","1","left","63","63","0","0","0","63","63","0","0","63","63","63","63","0","63","10/02/18 21:35:16","The main experiment item","yes","NA","SternbergTask.osexp","C:/Users/Anabel/Desktop","no","mono","no","18","no","white","no","yes","768","legacy","51","11","C:/Users/Anabel/Desktop/subject-3.csv","legacy","7 8 4 6 9 5","Jazzy James","3.1.9","4","y","0","left","right","right","NA","left","656","43734","37193","NA","656","2","legacy","6","1024","2","48000","-16","experiment","3","odd","6","527192","529396","1753","175367","NA","526107","527190","1749","212561","501164","531398","528194","532056","45488","531398","Sternberg Task","60","102260","64","yes","1024"
"93.8461538462","93.8461538462","1584.49230769","1584.49230769","black","no","experiment","legacy","legacy","legacy","0","uniform","1","undefined","1","right","64","64","0","0","0","64","64","0","0","64","64","64","64","0","64","10/02/18 21:35:16","The main experiment item","yes","NA","SternbergTask.osexp","C:/Users/Anabel/Desktop","no","mono","no","18","no","white","no","yes","768","legacy","52","11","C:/Users/Anabel/Desktop/subject-3.csv","legacy","3 9 1","Jazzy James","3.1.9","0","n","0","right","right","right","NA","right","732","43734","37193","NA","732","2","legacy","3","1024","2","48000","-16","experiment","3","odd","7","533193","535397","1753","175367","NA","532108","533191","1749","212561","501164","537399","534195","538133","45488","537399","Sternberg Task","61","102992","65","yes","1024"
"93.9393939394","93.9393939394","1576.46969697","1576.46969697","black","no","experiment","legacy","legacy","legacy","0","uniform","1","undefined","1","right","65","65","0","0","0","65","65","0","0","65","65","65","65","0","65","10/02/18 21:35:16","The main experiment item","yes","NA","SternbergTask.osexp","C:/Users/Anabel/Desktop","no","mono","no","18","no","white","no","yes","768","legacy","53","11","C:/Users/Anabel/Desktop/subject-3.csv","legacy","5 7 3","Jazzy James","3.1.9","0","n","0","right","right","right","NA","right","1055","43734","37193","NA","1055","2","legacy","3","1024","2","48000","-16","experiment","3","odd","9","539262","541466","1753","175367","NA","538185","539260","1749","212561","501164","543468","540264","544524","45488","543468","Sternberg Task","62","104047","66","yes","1024"
"94.0298507463","94.0298507463","1562.11940299","1562.11940299","black","no","experiment","legacy","legacy","legacy","0","uniform","1","undefined","1","left","66","66","0","0","0","66","66","0","0","66","66","66","66","0","66","10/02/18 21:35:16","The main experiment item","yes","NA","SternbergTask.osexp","C:/Users/Anabel/Desktop","no","mono","no","18","no","white","no","yes","768","legacy","54","11","C:/Users/Anabel/Desktop/subject-3.csv","legacy","6 1 2","Jazzy James","3.1.9","3","y","0","left","right","right","NA","left","615","43734","37193","NA","615","2","legacy","3","1024","2","48000","-16","experiment","3","odd","2","545671","547875","1753","175367","NA","544586","545669","1749","212561","501164","549877","546673","550493","45488","549877","Sternberg Task","63","104662","67","yes","1024"
"94.1176470588","94.1176470588","1548.82352941","1548.82352941","black","no","experiment","legacy","legacy","legacy","0","uniform","1","undefined","1","left","67","67","0","0","0","67","67","0","0","67","67","67","67","0","67","10/02/18 21:35:16","The main experiment item","yes","NA","SternbergTask.osexp","C:/Users/Anabel/Desktop","no","mono","no","18","no","white","no","yes","768","legacy","55","11","C:/Users/Anabel/Desktop/subject-3.csv","legacy","9 5 3 8 4","Jazzy James","3.1.9","1","y","0","left","right","right","NA","left","658","43734","37193","NA","658","2","legacy","5","1024","2","48000","-16","experiment","3","odd","9","551627","553831","1753","175367","NA","550552","551625","1749","212561","501164","555833","552629","556493","45488","555833","Sternberg Task","64","105320","68","yes","1024"
"94.2028985507","94.2028985507","1536.72463768","1536.72463768","black","no","experiment","legacy","legacy","legacy","0","uniform","1","undefined","1","left","68","68","0","0","0","68","68","0","0","68","68","68","68","0","68","10/02/18 21:35:16","The main experiment item","yes","NA","SternbergTask.osexp","C:/Users/Anabel/Desktop","no","mono","no","18","no","white","no","yes","768","legacy","56","11","C:/Users/Anabel/Desktop/subject-3.csv","legacy","6 7 8 5","Jazzy James","3.1.9","3","y","0","left","right","right","NA","left","714","43734","37193","NA","714","2","legacy","4","1024","2","48000","-16","experiment","3","odd","8","557639","559843","1753","175367","NA","556552","557637","1749","212561","501164","561845","558641","562561","45488","561845","Sternberg Task","65","106034","69","yes","1024"
"94.2857142857","94.2857142857","1524.65714286","1524.65714286","black","no","experiment","legacy","legacy","legacy","0","uniform","1","undefined","1","left","69","69","0","0","0","69","69","0","0","69","69","69","69","0","69","10/02/18 21:35:16","The main experiment item","yes","NA","SternbergTask.osexp","C:/Users/Anabel/Desktop","no","mono","no","18","no","white","no","yes","768","legacy","57","11","C:/Users/Anabel/Desktop/subject-3.csv","legacy","4","Jazzy James","3.1.9","1","y","0","left","right","right","NA","left","692","43734","37193","NA","692","2","legacy","1","1024","2","48000","-16","experiment","3","odd","4","563703","565907","1753","175367","NA","562619","563701","1749","212561","501164","567909","564705","568604","45488","567909","Sternberg Task","66","106726","70","yes","1024"
"94.3661971831","94.3661971831","1512.70422535","1512.70422535","black","no","experiment","legacy","legacy","legacy","0","uniform","1","undefined","1","left","70","70","0","0","0","70","70","0","0","70","70","70","70","0","70","10/02/18 21:35:16","The main experiment item","yes","NA","SternbergTask.osexp","C:/Users/Anabel/Desktop","no","mono","no","18","no","white","no","yes","768","legacy","58","11","C:/Users/Anabel/Desktop/subject-3.csv","legacy","2 8 5 1","Jazzy James","3.1.9","4","y","0","left","right","right","NA","left","676","43734","37193","NA","676","2","legacy","4","1024","2","48000","-16","experiment","3","odd","1","569741","571945","1753","175367","NA","568663","569739","1749","212561","501164","573947","570743","574625","45488","573947","Sternberg Task","67","107402","71","yes","1024"
"94.4444444444","94.4444444444","1499.77777778","1499.77777778","black","no","experiment","legacy","legacy","legacy","0","uniform","1","undefined","1","left","71","71","0","0","0","71","71","0","0","71","71","71","71","0","71","10/02/18 21:35:16","The main experiment item","yes","NA","SternbergTask.osexp","C:/Users/Anabel/Desktop","no","mono","no","18","no","white","no","yes","768","legacy","59","11","C:/Users/Anabel/Desktop/subject-3.csv","legacy","2 4 8 5 1 3","Jazzy James","3.1.9","1","y","0","left","right","right","NA","left","582","43734","37193","NA","582","2","legacy","6","1024","2","48000","-16","experiment","3","odd","2","575741","577945","1753","175367","NA","574663","575739","1749","212561","501164","579947","576743","580532","45488","579947","Sternberg Task","68","107984","72","yes","1024"
"94.5205479452","94.5205479452","1489.16438356","1489.16438356","black","no","experiment","legacy","legacy","legacy","0","uniform","1","undefined","1","right","72","72","0","0","0","72","72","0","0","72","72","72","72","0","72","10/02/18 21:35:16","The main experiment item","yes","NA","SternbergTask.osexp","C:/Users/Anabel/Desktop","no","mono","no","18","no","white","no","yes","768","legacy","60","11","C:/Users/Anabel/Desktop/subject-3.csv","legacy","4 8 1 2","Jazzy James","3.1.9","0","n","0","right","right","right","NA","right","725","43734","37193","NA","725","2","legacy","4","1024","2","48000","-16","experiment","3","odd","7","581646","583850","1753","175367","NA","580563","581645","1749","212561","501164","585852","582648","586579","45488","585852","Sternberg Task","69","108709","73","yes","1024"
"94.5945945946","94.5945945946","1477.09459459","1477.09459459","black","no","experiment","legacy","legacy","legacy","0","uniform","1","undefined","1","left","73","73","0","0","0","73","73","0","0","73","73","73","73","0","73","10/02/18 21:35:16","The main experiment item","yes","NA","SternbergTask.osexp","C:/Users/Anabel/Desktop","no","mono","no","18","no","white","no","yes","768","legacy","61","11","C:/Users/Anabel/Desktop/subject-3.csv","legacy","6 7 9 3 1 2","Jazzy James","3.1.9","1","y","0","left","right","right","NA","left","596","43734","37193","NA","596","2","legacy","6","1024","2","48000","-16","experiment","3","odd","6","587710","589915","1753","175367","NA","586630","587708","1749","212561","501164","591917","588713","592514","45488","591917","Sternberg Task","70","109305","74","yes","1024"
"94.6666666667","94.6666666667","1466.33333333","1466.33333333","black","no","experiment","legacy","legacy","legacy","0","uniform","1","undefined","1","right","74","74","0","0","0","74","74","0","0","74","74","74","74","0","74","10/02/18 21:35:16","The main experiment item","yes","NA","SternbergTask.osexp","C:/Users/Anabel/Desktop","no","mono","no","18","no","white","no","yes","768","legacy","62","11","C:/Users/Anabel/Desktop/subject-3.csv","legacy","1 4 9 3","Jazzy James","3.1.9","0","n","0","right","right","right","NA","right","670","43734","37193","NA","670","2","legacy","4","1024","2","48000","-16","experiment","3","odd","5","593648","595852","1753","175367","NA","592564","593646","1749","212561","501164","597854","594650","598526","45488","597854","Sternberg Task","71","109975","75","yes","1024"
"94.7368421053","94.7368421053","1456.15789474","1456.15789474","black","no","experiment","legacy","legacy","legacy","0","uniform","1","undefined","1","right","75","75","0","0","0","75","75","0","0","75","75","75","75","0","75","10/02/18 21:35:16","The main experiment item","yes","NA","SternbergTask.osexp","C:/Users/Anabel/Desktop","no","mono","no","18","no","white","no","yes","768","legacy","63","11","C:/Users/Anabel/Desktop/subject-3.csv","legacy","8 4 3 9","Jazzy James","3.1.9","0","n","0","right","right","right","NA","right","693","43734","37193","NA","693","2","legacy","4","1024","2","48000","-16","experiment","3","odd","5","599672","601876","1753","175367","NA","598586","599670","1749","212561","501164","603878","600674","604572","45488","603878","Sternberg Task","72","110668","76","yes","1024"
"94.8051948052","94.8051948052","1443.22077922","1443.22077922","black","no","experiment","legacy","legacy","legacy","0","uniform","1","undefined","1","left","76","76","0","0","0","76","76","0","0","76","76","76","76","0","76","10/02/18 21:35:16","The main experiment item","yes","NA","SternbergTask.osexp","C:/Users/Anabel/Desktop","no","mono","no","18","no","white","no","yes","768","legacy","64","11","C:/Users/Anabel/Desktop/subject-3.csv","legacy","4 6 5 8","Jazzy James","3.1.9","1","y","0","left","right","right","NA","left","460","43734","37193","NA","460","2","legacy","4","1024","2","48000","-16","experiment","3","odd","4","605683","607887","1753","175367","NA","604605","605681","1749","212561","501164","609889","606685","610351","45488","609889","Sternberg Task","73","111128","77","yes","1024"
"94.8717948718","94.8717948718","1433.35897436","1433.35897436","black","no","experiment","legacy","legacy","legacy","0","uniform","1","undefined","1","left","77","77","0","0","0","77","77","0","0","77","77","77","77","0","77","10/02/18 21:35:16","The main experiment item","yes","NA","SternbergTask.osexp","C:/Users/Anabel/Desktop","no","mono","no","18","no","white","no","yes","768","legacy","65","11","C:/Users/Anabel/Desktop/subject-3.csv","legacy","8 1 6","Jazzy James","3.1.9","3","y","0","left","right","right","NA","left","674","43734","37193","NA","674","2","legacy","3","1024","2","48000","-16","experiment","3","odd","6","611493","613697","1753","175367","NA","610408","611491","1749","212561","501164","615699","612495","616375","45488","615699","Sternberg Task","74","111802","78","yes","1024"
"94.9367088608","94.9367088608","1420.86075949","1420.86075949","black","no","experiment","legacy","legacy","legacy","0","uniform","1","undefined","1","left","78","78","0","0","0","78","78","0","0","78","78","78","78","0","78","10/02/18 21:35:16","The main experiment item","yes","NA","SternbergTask.osexp","C:/Users/Anabel/Desktop","no","mono","no","18","no","white","no","yes","768","legacy","66","11","C:/Users/Anabel/Desktop/subject-3.csv","legacy","2 5 4 8 7","Jazzy James","3.1.9","3","y","0","left","right","right","NA","left","446","43734","37193","NA","446","2","legacy","5","1024","2","48000","-16","experiment","3","odd","4","617505","619709","1753","175367","NA","616430","617503","1749","212561","501164","621711","618507","622158","45488","621711","Sternberg Task","75","112248","79","yes","1024"
"95","95","1410.525","1410.525","black","no","experiment","legacy","legacy","legacy","0","uniform","1","undefined","1","right","79","79","0","0","0","79","79","0","0","79","79","79","79","0","79","10/02/18 21:35:16","The main experiment item","yes","NA","SternbergTask.osexp","C:/Users/Anabel/Desktop","no","mono","no","18","no","white","no","yes","768","legacy","67","11","C:/Users/Anabel/Desktop/subject-3.csv","legacy","9 8 2 7 4","Jazzy James","3.1.9","0","n","0","right","right","right","NA","right","594","43734","37193","NA","594","2","legacy","5","1024","2","48000","-16","experiment","3","odd","5","623288","625493","1753","175367","NA","622207","623287","1749","212561","501164","627495","624291","628090","45488","627495","Sternberg Task","76","112842","80","yes","1024"
"95.0617283951","95.0617283951","1399.41975309","1399.41975309","black","no","experiment","legacy","legacy","legacy","0","uniform","1","undefined","1","left","80","80","0","0","0","80","80","0","0","80","80","80","80","0","80","10/02/18 21:35:16","The main experiment item","yes","NA","SternbergTask.osexp","C:/Users/Anabel/Desktop","no","mono","no","18","no","white","no","yes","768","legacy","68","11","C:/Users/Anabel/Desktop/subject-3.csv","legacy","3 2 1 4 7","Jazzy James","3.1.9","2","y","0","left","right","right","NA","left","511","43734","37193","NA","511","2","legacy","5","1024","2","48000","-16","experiment","3","odd","2","629231","631435","1753","175367","NA","628152","629229","1749","212561","501164","633437","630233","633950","45488","633437","Sternberg Task","77","113353","81","yes","1024"
"93.9024390244","93.9024390244","1388.26829268","1388.26829268","black","no","experiment","legacy","legacy","legacy","0","uniform","0","undefined","0","right","81","81","0","0","0","81","81","0","0","81","81","81","81","0","81","10/02/18 21:35:16","The main experiment item","yes","NA","SternbergTask.osexp","C:/Users/Anabel/Desktop","no","mono","no","18","no","white","no","yes","768","legacy","69","11","C:/Users/Anabel/Desktop/subject-3.csv","legacy","7 3 2 8","Jazzy James","3.1.9","0","n","0","left","right","right","NA","left","485","43734","37193","NA","485","2","legacy","4","1024","2","48000","-16","experiment","3","odd","4","635084","637289","1753","175367","NA","634009","635083","1749","212561","501164","639291","636087","639778","45488","639291","Sternberg Task","77","113838","82","yes","1024"
"93.9759036145","93.9759036145","1378.43373494","1378.43373494","black","no","experiment","legacy","legacy","legacy","0","uniform","1","undefined","1","right","82","82","0","0","0","82","82","0","0","82","82","82","82","0","82","10/02/18 21:35:16","The main experiment item","yes","NA","SternbergTask.osexp","C:/Users/Anabel/Desktop","no","mono","no","18","no","white","no","yes","768","legacy","70","11","C:/Users/Anabel/Desktop/subject-3.csv","legacy","7 4 2 8 1 9","Jazzy James","3.1.9","0","n","0","right","right","right","NA","right","572","43734","37193","NA","572","2","legacy","6","1024","2","48000","-16","experiment","3","odd","5","640907","643111","1753","175367","NA","634009","640904","1749","212561","639831","645113","641909","645686","45488","645113","Sternberg Task","78","114410","83","yes","1024"
"94.0476190476","94.0476190476","1367.80952381","1367.80952381","black","no","experiment","legacy","legacy","legacy","0","uniform","1","undefined","1","left","83","83","0","0","0","83","83","0","0","83","83","83","83","0","83","10/02/18 21:35:16","The main experiment item","yes","NA","SternbergTask.osexp","C:/Users/Anabel/Desktop","no","mono","no","18","no","white","no","yes","768","legacy","71","11","C:/Users/Anabel/Desktop/subject-3.csv","legacy","8 9 5 7 1 6","Jazzy James","3.1.9","4","y","0","left","right","right","NA","left","486","43734","37193","NA","486","2","legacy","6","1024","2","48000","-16","experiment","3","odd","7","646817","649021","1753","175367","NA","645742","646815","1749","212561","639831","651023","647819","651510","45488","651023","Sternberg Task","79","114896","84","yes","1024"
"92.9411764706","92.9411764706","1376.12941176","1376.12941176","black","no","experiment","legacy","legacy","legacy","0","uniform","0","undefined","0","left","84","84","0","0","0","84","84","0","0","84","84","84","84","0","84","10/02/18 21:35:16","The main experiment item","yes","NA","SternbergTask.osexp","C:/Users/Anabel/Desktop","no","mono","no","18","no","white","no","yes","768","legacy","72","11","C:/Users/Anabel/Desktop/subject-3.csv","legacy","6 9 7 4 5 1","Jazzy James","3.1.9","2","y","0","right","right","right","NA","right","2075","43734","37193","NA","2075","2","legacy","6","1024","2","48000","-16","experiment","3","odd","9","652625","654829","1753","175367","NA","651542","652623","1749","212561","639831","656831","653627","658907","45488","656831","Sternberg Task","79","116971","85","yes","1024"
"93.023255814","93.023255814","1367.6744186","1367.6744186","black","no","experiment","legacy","legacy","legacy","0","uniform","1","undefined","1","right","85","85","0","0","0","85","85","0","0","85","85","85","85","0","85","10/02/18 21:35:16","The main experiment item","yes","NA","SternbergTask.osexp","C:/Users/Anabel/Desktop","no","mono","no","18","no","white","no","yes","768","legacy","73","11","C:/Users/Anabel/Desktop/subject-3.csv","legacy","1","Jazzy James","3.1.9","0","n","0","right","right","right","NA","right","649","43734","37193","NA","649","2","legacy","1","1024","2","48000","-16","experiment","3","odd","7","660041","662245","1753","175367","NA","651542","660039","1749","212561","658964","664247","661043","664898","45488","664247","Sternberg Task","80","117620","86","yes","1024"
"93.1034482759","93.1034482759","1361.18390805","1361.18390805","black","no","experiment","legacy","legacy","legacy","0","uniform","1","undefined","1","left","86","86","0","0","0","86","86","0","0","86","86","86","86","0","86","10/02/18 21:35:16","The main experiment item","yes","NA","SternbergTask.osexp","C:/Users/Anabel/Desktop","no","mono","no","18","no","white","no","yes","768","legacy","74","11","C:/Users/Anabel/Desktop/subject-3.csv","legacy","6 5","Jazzy James","3.1.9","2","y","0","left","right","right","NA","left","803","43734","37193","NA","803","2","legacy","2","1024","2","48000","-16","experiment","3","odd","5","666067","668271","1753","175367","NA","664986","666065","1749","212561","658964","670273","667069","671077","45488","670273","Sternberg Task","81","118423","87","yes","1024"
"93.1818181818","93.1818181818","1353.97727273","1353.97727273","black","no","experiment","legacy","legacy","legacy","0","uniform","1","undefined","1","right","87","87","0","0","0","87","87","0","0","87","87","87","87","0","87","10/02/18 21:35:16","The main experiment item","yes","NA","SternbergTask.osexp","C:/Users/Anabel/Desktop","no","mono","no","18","no","white","no","yes","768","legacy","75","11","C:/Users/Anabel/Desktop/subject-3.csv","legacy","1 6 4","Jazzy James","3.1.9","0","n","0","right","right","right","NA","right","727","43734","37193","NA","727","2","legacy","3","1024","2","48000","-16","experiment","3","odd","7","672214","674418","1753","175367","NA","671131","672211","1749","212561","658964","676420","673216","677149","45488","676420","Sternberg Task","82","119150","88","yes","1024"
"93.2584269663","93.2584269663","1345.79775281","1345.79775281","black","no","experiment","legacy","legacy","legacy","0","uniform","1","undefined","1","right","88","88","0","0","0","88","88","0","0","88","88","88","88","0","88","10/02/18 21:35:16","The main experiment item","yes","NA","SternbergTask.osexp","C:/Users/Anabel/Desktop","no","mono","no","18","no","white","no","yes","768","legacy","76","11","C:/Users/Anabel/Desktop/subject-3.csv","legacy","7 1 5 6 3","Jazzy James","3.1.9","0","n","0","right","right","right","NA","right","626","43734","37193","NA","626","2","legacy","5","1024","2","48000","-16","experiment","3","odd","8","678284","680488","1753","175367","NA","677207","678282","1749","212561","658964","682490","679286","683118","45488","682490","Sternberg Task","83","119776","89","yes","1024"
"92.2222222222","92.2222222222","1338.04444444","1338.04444444","black","no","experiment","legacy","legacy","legacy","0","uniform","0","undefined","0","left","89","89","0","0","0","89","89","0","0","89","89","89","89","0","89","10/02/18 21:35:16","The main experiment item","yes","NA","SternbergTask.osexp","C:/Users/Anabel/Desktop","no","mono","no","18","no","white","no","yes","768","legacy","77","11","C:/Users/Anabel/Desktop/subject-3.csv","legacy","4 9 7 8 5 3","Jazzy James","3.1.9","4","y","0","right","right","right","NA","right","648","43734","37193","NA","648","2","legacy","6","1024","2","48000","-16","experiment","3","odd","8","684252","686456","1753","175367","NA","683175","684250","1749","212561","658964","688458","685254","689108","45488","688458","Sternberg Task","83","120424","90","yes","1024"
"92.3076923077","92.3076923077","1336.10989011","1336.10989011","black","no","experiment","legacy","legacy","legacy","0","uniform","1","undefined","1","left","90","90","0","0","0","90","90","0","0","90","90","90","90","0","90","10/02/18 21:35:16","The main experiment item","yes","NA","SternbergTask.osexp","C:/Users/Anabel/Desktop","no","mono","no","18","no","white","no","yes","768","legacy","78","11","C:/Users/Anabel/Desktop/subject-3.csv","legacy","8 9 6 1","Jazzy James","3.1.9","2","y","0","left","right","right","NA","left","1162","43734","37193","NA","1162","2","legacy","4","1024","2","48000","-16","experiment","3","odd","9","690227","692431","1753","175367","NA","683175","690225","1749","212561","689152","694433","691229","695597","45488","694433","Sternberg Task","84","121586","91","yes","1024"
"92.3913043478","92.3913043478","1327.91304348","1327.91304348","black","no","experiment","legacy","legacy","legacy","0","uniform","1","undefined","1","left","91","91","0","0","0","91","91","0","0","91","91","91","91","0","91","10/02/18 21:35:16","The main experiment item","yes","NA","SternbergTask.osexp","C:/Users/Anabel/Desktop","no","mono","no","18","no","white","no","yes","768","legacy","79","11","C:/Users/Anabel/Desktop/subject-3.csv","legacy","8 9 5 6 7","Jazzy James","3.1.9","1","y","0","left","right","right","NA","left","582","43734","37193","NA","582","2","legacy","5","1024","2","48000","-16","experiment","3","odd","8","696731","698935","1753","175367","NA","695653","696729","1749","212561","689152","700937","697733","701521","45488","700937","Sternberg Task","85","122168","92","yes","1024"
"92.4731182796","92.4731182796","1322.43010753","1322.43010753","black","no","experiment","legacy","legacy","legacy","0","uniform","1","undefined","1","right","92","92","0","0","0","92","92","0","0","92","92","92","92","0","92","10/02/18 21:35:16","The main experiment item","yes","NA","SternbergTask.osexp","C:/Users/Anabel/Desktop","no","mono","no","18","no","white","no","yes","768","legacy","80","11","C:/Users/Anabel/Desktop/subject-3.csv","legacy","1 7 5 2","Jazzy James","3.1.9","0","n","0","right","right","right","NA","right","818","43734","37193","NA","818","2","legacy","4","1024","2","48000","-16","experiment","3","odd","3","702661","704865","1753","175367","NA","701575","702659","1749","212561","689152","706867","703663","707687","45488","706867","Sternberg Task","86","122986","93","yes","1024"
"92.5531914894","92.5531914894","1317.15957447","1317.15957447","black","no","experiment","legacy","legacy","legacy","0","uniform","1","undefined","1","right","93","93","0","0","0","93","93","0","0","93","93","93","93","0","93","10/02/18 21:35:16","The main experiment item","yes","NA","SternbergTask.osexp","C:/Users/Anabel/Desktop","no","mono","no","18","no","white","no","yes","768","legacy","81","11","C:/Users/Anabel/Desktop/subject-3.csv","legacy","6 9 5","Jazzy James","3.1.9","0","n","0","right","right","right","NA","right","827","43734","37193","NA","827","2","legacy","3","1024","2","48000","-16","experiment","3","odd","8","708820","711024","1753","175367","NA","707741","708818","1749","212561","689152","713026","709822","713854","45488","713026","Sternberg Task","87","123813","94","yes","1024"
"92.6315789474","92.6315789474","1318.47368421","1318.47368421","black","no","experiment","legacy","legacy","legacy","0","uniform","1","undefined","1","right","94","94","0","0","0","94","94","0","0","94","94","94","94","0","94","10/02/18 21:35:16","The main experiment item","yes","NA","SternbergTask.osexp","C:/Users/Anabel/Desktop","no","mono","no","18","no","white","no","yes","768","legacy","82","11","C:/Users/Anabel/Desktop/subject-3.csv","legacy","6 2 9 3 8 4","Jazzy James","3.1.9","0","n","0","right","right","right","NA","right","1442","43734","37193","NA","1442","2","legacy","6","1024","2","48000","-16","experiment","3","odd","1","714993","717197","1753","175367","NA","713909","714991","1749","212561","689152","719199","715995","720643","45488","719199","Sternberg Task","88","125255","95","yes","1024"
"91.6666666667","91.6666666667","1316.46875","1316.46875","black","no","experiment","legacy","legacy","legacy","0","uniform","0","undefined","0","left","95","95","0","0","0","95","95","0","0","95","95","95","95","0","95","10/02/18 21:35:16","The main experiment item","yes","NA","SternbergTask.osexp","C:/Users/Anabel/Desktop","no","mono","no","18","no","white","no","yes","768","legacy","83","11","C:/Users/Anabel/Desktop/subject-3.csv","legacy","8 5 3 7 4 6","Jazzy James","3.1.9","6","y","0","right","right","right","NA","right","1126","43734","37193","NA","1126","2","legacy","6","1024","2","48000","-16","experiment","3","odd","6","721778","723982","1753","175367","NA","720698","721776","1749","212561","689152","725984","722780","727112","45488","725984","Sternberg Task","88","126381","96","yes","1024"
"91.7525773196","91.7525773196","1314.39175258","1314.39175258","black","no","experiment","legacy","legacy","legacy","0","uniform","1","undefined","1","right","96","96","0","0","0","96","96","0","0","96","96","96","96","0","96","10/02/18 21:35:16","The main experiment item","yes","NA","SternbergTask.osexp","C:/Users/Anabel/Desktop","no","mono","no","18","no","white","no","yes","768","legacy","84","11","C:/Users/Anabel/Desktop/subject-3.csv","legacy","6 9 7 3 8 2","Jazzy James","3.1.9","0","n","0","right","right","right","NA","right","1115","43734","37193","NA","1115","2","legacy","6","1024","2","48000","-16","experiment","3","odd","5","728229","730433","1753","175367","NA","720698","728227","1749","212561","727152","732435","729231","733552","45488","732435","Sternberg Task","89","127496","97","yes","1024"
"91.8367346939","91.8367346939","1311.2244898","1311.2244898","black","no","experiment","legacy","legacy","legacy","0","uniform","1","undefined","1","left","97","97","0","0","0","97","97","0","0","97","97","97","97","0","97","10/02/18 21:35:16","The main experiment item","yes","NA","SternbergTask.osexp","C:/Users/Anabel/Desktop","no","mono","no","18","no","white","no","yes","768","legacy","85","11","C:/Users/Anabel/Desktop/subject-3.csv","legacy","3 4 9 6 2 9","Jazzy James","3.1.9","5","y","0","left","right","right","NA","left","1004","43734","37193","NA","1004","2","legacy","6","1024","2","48000","-16","experiment","3","odd","2","734670","736875","1753","175367","NA","733585","734668","1749","212561","727152","738877","735673","739883","45488","738877","Sternberg Task","90","128500","98","yes","1024"
"91.9191919192","91.9191919192","1304.96969697","1304.96969697","black","no","experiment","legacy","legacy","legacy","0","uniform","1","undefined","1","left","98","98","0","0","0","98","98","0","0","98","98","98","98","0","98","10/02/18 21:35:16","The main experiment item","yes","NA","SternbergTask.osexp","C:/Users/Anabel/Desktop","no","mono","no","18","no","white","no","yes","768","legacy","86","11","C:/Users/Anabel/Desktop/subject-3.csv","legacy","7 2 3","Jazzy James","3.1.9","3","y","0","left","right","right","NA","left","692","43734","37193","NA","692","2","legacy","3","1024","2","48000","-16","experiment","3","odd","3","741016","743220","1753","175367","NA","739942","741014","1749","212561","727152","745222","742018","745916","45488","745222","Sternberg Task","91","129192","99","yes","1024"
"92","92","1299.99","1299.99","black","no","experiment","legacy","legacy","legacy","0","uniform","1","undefined","1","right","99","99","0","0","0","99","99","0","0","99","99","99","99","0","99","10/02/18 21:35:16","The main experiment item","yes","NA","SternbergTask.osexp","C:/Users/Anabel/Desktop","no","mono","no","18","no","white","no","yes","768","legacy","87","11","C:/Users/Anabel/Desktop/subject-3.csv","legacy","9 5 3 2 8 6","Jazzy James","3.1.9","0","n","0","right","right","right","NA","right","807","43734","37193","NA","807","2","legacy","6","1024","2","48000","-16","experiment","3","odd","7","747060","749264","1753","175367","NA","745975","747058","1749","212561","727152","751266","748062","752074","45488","751266","Sternberg Task","92","129999","100","yes","1024"
"92.0792079208","92.0792079208","1294.16831683","1294.16831683","black","no","experiment","legacy","legacy","legacy","0","uniform","1","undefined","1","right","100","100","0","0","0","100","100","0","0","100","100","100","100","0","100","10/02/18 21:35:16","The main experiment item","yes","NA","SternbergTask.osexp","C:/Users/Anabel/Desktop","no","mono","no","18","no","white","no","yes","768","legacy","88","11","C:/Users/Anabel/Desktop/subject-3.csv","legacy","6 8 4","Jazzy James","3.1.9","0","n","0","right","right","right","NA","right","712","43734","37193","NA","712","2","legacy","3","1024","2","48000","-16","experiment","3","odd","1","753213","755417","1753","175367","NA","752130","753211","1749","212561","727152","757419","754215","758133","45488","757419","Sternberg Task","93","130711","101","yes","1024"
"92.1568627451","92.1568627451","1287.50980392","1287.50980392","black","no","experiment","legacy","legacy","legacy","0","uniform","1","undefined","1","right","101","101","0","0","0","101","101","0","0","101","101","101","101","0","101","10/02/18 21:35:16","The main experiment item","yes","NA","SternbergTask.osexp","C:/Users/Anabel/Desktop","no","mono","no","18","no","white","no","yes","768","legacy","89","11","C:/Users/Anabel/Desktop/subject-3.csv","legacy","7 1","Jazzy James","3.1.9","0","n","0","right","right","right","NA","right","615","43734","37193","NA","615","2","legacy","2","1024","2","48000","-16","experiment","3","odd","8","759270","761474","1753","175367","NA","758186","759268","1749","212561","727152","763476","760272","764094","45488","763476","Sternberg Task","94","131326","102","yes","1024"
"92.2330097087","92.2330097087","1281.00970874","1281.00970874","black","no","experiment","legacy","legacy","legacy","0","uniform","1","undefined","1","left","102","102","0","0","0","102","102","0","0","102","102","102","102","0","102","10/02/18 21:35:16","The main experiment item","yes","NA","SternbergTask.osexp","C:/Users/Anabel/Desktop","no","mono","no","18","no","white","no","yes","768","legacy","90","11","C:/Users/Anabel/Desktop/subject-3.csv","legacy","6 9 3 1","Jazzy James","3.1.9","4","y","0","left","right","right","NA","left","618","43734","37193","NA","618","2","legacy","4","1024","2","48000","-16","experiment","3","odd","1","765238","767442","1753","175367","NA","764152","765236","1749","212561","727152","769444","766240","770064","45488","769444","Sternberg Task","95","131944","103","yes","1024"
"92.3076923077","92.3076923077","1273.15384615","1273.15384615","black","no","experiment","legacy","legacy","legacy","0","uniform","1","undefined","1","left","103","103","0","0","0","103","103","0","0","103","103","103","103","0","103","10/02/18 21:35:16","The main experiment item","yes","NA","SternbergTask.osexp","C:/Users/Anabel/Desktop","no","mono","no","18","no","white","no","yes","768","legacy","91","11","C:/Users/Anabel/Desktop/subject-3.csv","legacy","8","Jazzy James","3.1.9","1","y","0","left","right","right","NA","left","464","43734","37193","NA","464","2","legacy","1","1024","2","48000","-16","experiment","3","odd","8","771193","773397","1753","175367","NA","770119","771191","1749","212561","727152","775399","772195","775865","45488","775399","Sternberg Task","96","132408","104","yes","1024"
"92.380952381","92.380952381","1266.13333333","1266.13333333","black","no","experiment","legacy","legacy","legacy","0","uniform","1","undefined","1","left","104","104","0","0","0","104","104","0","0","104","104","104","104","0","104","10/02/18 21:35:16","The main experiment item","yes","NA","SternbergTask.osexp","C:/Users/Anabel/Desktop","no","mono","no","18","no","white","no","yes","768","legacy","92","11","C:/Users/Anabel/Desktop/subject-3.csv","legacy","2 3","Jazzy James","3.1.9","1","y","0","left","right","right","NA","left","536","43734","37193","NA","536","2","legacy","2","1024","2","48000","-16","experiment","3","odd","2","777003","779207","1753","175367","NA","775919","777001","1749","212561","727152","781209","778005","781747","45488","781209","Sternberg Task","97","132944","105","yes","1024"
"92.4528301887","92.4528301887","1269.02830189","1269.02830189","black","no","experiment","legacy","legacy","legacy","0","uniform","1","undefined","1","right","105","105","0","0","0","105","105","0","0","105","105","105","105","0","105","10/02/18 21:35:16","The main experiment item","yes","NA","SternbergTask.osexp","C:/Users/Anabel/Desktop","no","mono","no","18","no","white","no","yes","768","legacy","93","11","C:/Users/Anabel/Desktop/subject-3.csv","legacy","1 7 5 2 9","Jazzy James","3.1.9","0","n","0","right","right","right","NA","right","1573","43734","37193","NA","1573","2","legacy","5","1024","2","48000","-16","experiment","3","odd","3","782888","785092","1753","175367","NA","781809","782886","1749","212561","727152","787094","783890","788668","45488","787094","Sternberg Task","98","134517","106","yes","1024"
"92.523364486","92.523364486","1262.47663551","1262.47663551","black","no","experiment","legacy","legacy","legacy","0","uniform","1","undefined","1","left","106","106","0","0","0","106","106","0","0","106","106","106","106","0","106","10/02/18 21:35:16","The main experiment item","yes","NA","SternbergTask.osexp","C:/Users/Anabel/Desktop","no","mono","no","18","no","white","no","yes","768","legacy","94","11","C:/Users/Anabel/Desktop/subject-3.csv","legacy","9 3 8 2 1 4","Jazzy James","3.1.9","3","y","0","left","right","right","NA","left","568","43734","37193","NA","568","2","legacy","6","1024","2","48000","-16","experiment","3","odd","8","789813","792017","1753","175367","NA","788730","789811","1749","212561","727152","794019","790815","794589","45488","794019","Sternberg Task","99","135085","107","yes","1024"
"92.5925925926","92.5925925926","1258.35185185","1258.35185185","black","no","experiment","legacy","legacy","legacy","0","uniform","1","undefined","1","left","107","107","0","0","0","107","107","0","0","107","107","107","107","0","107","10/02/18 21:35:16","The main experiment item","yes","NA","SternbergTask.osexp","C:/Users/Anabel/Desktop","no","mono","no","18","no","white","no","yes","768","legacy","95","11","C:/Users/Anabel/Desktop/subject-3.csv","legacy","9 6 2 4 1","Jazzy James","3.1.9","4","y","0","left","right","right","NA","left","817","43734","37193","NA","817","2","legacy","5","1024","2","48000","-16","experiment","3","odd","4","795724","797928","1753","175367","NA","794642","795722","1749","212561","727152","799930","796726","800749","45488","799930","Sternberg Task","100","135902","108","yes","1024"
"92.6605504587","92.6605504587","1252.40366972","1252.40366972","black","no","experiment","legacy","legacy","legacy","0","uniform","1","undefined","1","left","108","108","0","0","0","108","108","0","0","108","108","108","108","0","108","10/02/18 21:35:16","The main experiment item","yes","NA","SternbergTask.osexp","C:/Users/Anabel/Desktop","no","mono","no","18","no","white","no","yes","768","legacy","96","11","C:/Users/Anabel/Desktop/subject-3.csv","legacy","9 5 8 1","Jazzy James","3.1.9","2","y","0","left","right","right","NA","left","610","43734","37193","NA","610","2","legacy","4","1024","2","48000","-16","experiment","3","odd","5","801884","804088","1753","175367","NA","800809","801882","1749","212561","727152","806090","802886","806702","45488","806090","Sternberg Task","101","136512","109","yes","1024"
"92.7272727273","92.7272727273","1248.05454545","1248.05454545","black","no","experiment","legacy","legacy","legacy","0","uniform","1","undefined","1","right","109","109","0","0","0","109","109","0","0","109","109","109","109","0","109","10/02/18 21:35:16","The main experiment item","yes","NA","SternbergTask.osexp","C:/Users/Anabel/Desktop","no","mono","no","18","no","white","no","yes","768","legacy","97","11","C:/Users/Anabel/Desktop/subject-3.csv","legacy","2 5 1 4","Jazzy James","3.1.9","0","n","0","right","right","right","NA","right","774","43734","37193","NA","774","2","legacy","4","1024","2","48000","-16","experiment","3","odd","6","807846","810050","1753","175367","NA","806764","807844","1749","212561","727152","812052","808848","812828","45488","812052","Sternberg Task","102","137286","110","yes","1024"
"92.7927927928","92.7927927928","1250.09009009","1250.09009009","black","no","experiment","legacy","legacy","legacy","0","uniform","1","undefined","1","left","110","110","0","0","0","110","110","0","0","110","110","110","110","0","110","10/02/18 21:35:16","The main experiment item","yes","NA","SternbergTask.osexp","C:/Users/Anabel/Desktop","no","mono","no","18","no","white","no","yes","768","legacy","98","11","C:/Users/Anabel/Desktop/subject-3.csv","legacy","5 2 6","Jazzy James","3.1.9","2","y","0","left","right","right","NA","left","1474","43734","37193","NA","1474","2","legacy","3","1024","2","48000","-16","experiment","3","odd","2","813940","816144","1753","175367","NA","812863","813938","1749","212561","727152","818146","814942","819622","45488","818146","Sternberg Task","103","138760","111","yes","1024"
"92.8571428571","92.8571428571","1244.74107143","1244.74107143","black","no","experiment","legacy","legacy","legacy","0","uniform","1","undefined","1","right","111","111","0","0","0","111","111","0","0","111","111","111","111","0","111","10/02/18 21:35:16","The main experiment item","yes","NA","SternbergTask.osexp","C:/Users/Anabel/Desktop","no","mono","no","18","no","white","no","yes","768","legacy","99","11","C:/Users/Anabel/Desktop/subject-3.csv","legacy","7 6 4 8 1 2","Jazzy James","3.1.9","0","n","0","right","right","right","NA","right","651","43734","37193","NA","651","2","legacy","6","1024","2","48000","-16","experiment","3","odd","9","820752","822956","1753","175367","NA","819675","820750","1749","212561","727152","824958","821754","825611","45488","824958","Sternberg Task","104","139411","112","yes","1024"
"92.9203539823","92.9203539823","1238.77876106","1238.77876106","black","no","experiment","legacy","legacy","legacy","0","uniform","1","undefined","1","left","112","112","0","0","0","112","112","0","0","112","112","112","112","0","112","10/02/18 21:35:16","The main experiment item","yes","NA","SternbergTask.osexp","C:/Users/Anabel/Desktop","no","mono","no","18","no","white","no","yes","768","legacy","100","11","C:/Users/Anabel/Desktop/subject-3.csv","legacy","8 7 3","Jazzy James","3.1.9","1","y","0","left","right","right","NA","left","571","43734","37193","NA","571","2","legacy","3","1024","2","48000","-16","experiment","3","odd","8","826746","828950","1753","175367","NA","825664","826744","1749","212561","727152","830952","827748","831525","45488","830952","Sternberg Task","105","139982","113","yes","1024"
"92.9824561404","92.9824561404","1232.64912281","1232.64912281","black","no","experiment","legacy","legacy","legacy","0","uniform","1","undefined","1","right","113","113","0","0","0","113","113","0","0","113","113","113","113","0","113","10/02/18 21:35:16","The main experiment item","yes","NA","SternbergTask.osexp","C:/Users/Anabel/Desktop","no","mono","no","18","no","white","no","yes","768","legacy","101","11","C:/Users/Anabel/Desktop/subject-3.csv","legacy","8 9","Jazzy James","3.1.9","0","n","0","right","right","right","NA","right","540","43734","37193","NA","540","2","legacy","2","1024","2","48000","-16","experiment","3","odd","5","832662","834866","1753","175367","NA","831586","832660","1749","212561","727152","836868","833664","837410","45488","836868","Sternberg Task","106","140522","114","yes","1024"
"93.0434782609","93.0434782609","1225.75652174","1225.75652174","black","no","experiment","legacy","legacy","legacy","0","uniform","1","undefined","1","left","114","114","0","0","0","114","114","0","0","114","114","114","114","0","114","10/02/18 21:35:16","The main experiment item","yes","NA","SternbergTask.osexp","C:/Users/Anabel/Desktop","no","mono","no","18","no","white","no","yes","768","legacy","102","11","C:/Users/Anabel/Desktop/subject-3.csv","legacy","7 1 8 5 6 2","Jazzy James","3.1.9","2","y","0","left","right","right","NA","left","440","43734","37193","NA","440","2","legacy","6","1024","2","48000","-16","experiment","3","odd","1","838541","840745","1753","175367","NA","837463","838539","1749","212561","727152","842747","839543","843190","45488","842747","Sternberg Task","107","140962","115","yes","1024"
"93.1034482759","93.1034482759","1219.24137931","1219.24137931","black","no","experiment","legacy","legacy","legacy","0","uniform","1","undefined","1","left","115","115","0","0","0","115","115","0","0","115","115","115","115","0","115","10/02/18 21:35:16","The main experiment item","yes","NA","SternbergTask.osexp","C:/Users/Anabel/Desktop","no","mono","no","18","no","white","no","yes","768","legacy","103","11","C:/Users/Anabel/Desktop/subject-3.csv","legacy","4 6 2 5 1","Jazzy James","3.1.9","5","y","0","left","right","right","NA","left","470","43734","37193","NA","470","2","legacy","5","1024","2","48000","-16","experiment","3","odd","1","844352","846556","1753","175367","NA","843264","844350","1749","212561","727152","848558","845354","849030","45488","848558","Sternberg Task","108","141432","116","yes","1024"
"93.1623931624","93.1623931624","1215.71794872","1215.71794872","black","no","experiment","legacy","legacy","legacy","0","uniform","1","undefined","1","right","116","116","0","0","0","116","116","0","0","116","116","116","116","0","116","10/02/18 21:35:16","The main experiment item","yes","NA","SternbergTask.osexp","C:/Users/Anabel/Desktop","no","mono","no","18","no","white","no","yes","768","legacy","104","11","C:/Users/Anabel/Desktop/subject-3.csv","legacy","4 2 7 6 1 3","Jazzy James","3.1.9","0","n","0","right","right","right","NA","right","807","43734","37193","NA","807","2","legacy","6","1024","2","48000","-16","experiment","3","odd","8","850171","852375","1753","175367","NA","849087","850169","1749","212561","727152","854377","851173","855186","45488","854377","Sternberg Task","109","142239","117","yes","1024"
"93.2203389831","93.2203389831","1212.93220339","1212.93220339","black","no","experiment","legacy","legacy","legacy","0","uniform","1","undefined","1","right","117","117","0","0","0","117","117","0","0","117","117","117","117","0","117","10/02/18 21:35:16","The main experiment item","yes","NA","SternbergTask.osexp","C:/Users/Anabel/Desktop","no","mono","no","18","no","white","no","yes","768","legacy","105","11","C:/Users/Anabel/Desktop/subject-3.csv","legacy","5 9 2 3","Jazzy James","3.1.9","0","n","0","right","right","right","NA","right","887","43734","37193","NA","887","2","legacy","4","1024","2","48000","-16","experiment","3","odd","8","856324","858529","1753","175367","NA","855242","856322","1749","212561","727152","860531","857327","861421","45488","860531","Sternberg Task","110","143126","118","yes","1024"
"93.2773109244","93.2773109244","1207.98319328","1207.98319328","black","no","experiment","legacy","legacy","legacy","0","uniform","1","undefined","1","right","118","118","0","0","0","118","118","0","0","118","118","118","118","0","118","10/02/18 21:35:16","The main experiment item","yes","NA","SternbergTask.osexp","C:/Users/Anabel/Desktop","no","mono","no","18","no","white","no","yes","768","legacy","106","11","C:/Users/Anabel/Desktop/subject-3.csv","legacy","6 8","Jazzy James","3.1.9","0","n","0","right","right","right","NA","right","624","43734","37193","NA","624","2","legacy","2","1024","2","48000","-16","experiment","3","odd","9","862560","864764","1753","175367","NA","861475","862558","1749","212561","727152","866766","863562","867392","45488","866766","Sternberg Task","111","143750","119","yes","1024"
"93.3333333333","93.3333333333","1202.175","1202.175","black","no","experiment","legacy","legacy","legacy","0","uniform","1","undefined","1","left","119","119","0","0","0","119","119","0","0","119","119","119","119","0","119","10/02/18 21:35:16","The main experiment item","yes","NA","SternbergTask.osexp","C:/Users/Anabel/Desktop","no","mono","no","18","no","white","no","yes","768","legacy","107","11","C:/Users/Anabel/Desktop/subject-3.csv","legacy","6 8 9 3 4 9","Jazzy James","3.1.9","5","y","0","left","right","right","NA","left","511","43734","37193","NA","511","2","legacy","6","1024","2","48000","-16","experiment","3","odd","4","868535","870739","1753","175367","NA","867453","868533","1749","212561","727152","872741","869537","873256","45488","872741","Sternberg Task","112","144261","120","yes","1024"
"93.3884297521","93.3884297521","1197.63636364","1197.63636364","black","no","experiment","legacy","legacy","legacy","0","uniform","1","undefined","1","left","120","120","0","0","0","120","120","0","0","120","120","120","120","0","120","10/02/18 21:35:16","The main experiment item","yes","NA","SternbergTask.osexp","C:/Users/Anabel/Desktop","no","mono","no","18","no","white","no","yes","768","legacy","108","11","C:/Users/Anabel/Desktop/subject-3.csv","legacy","9 8 4","Jazzy James","3.1.9","1","y","0","left","right","right","NA","left","653","43734","37193","NA","653","2","legacy","3","1024","2","48000","-16","experiment","3","odd","9","874394","876598","1753","175367","NA","873320","874392","1749","212561","727152","878600","875396","879255","45488","878600","Sternberg Task","113","144914","121","yes","1024"
