"acc","accuracy","average_response_time","avg_rt","background","block","canvas_backend","clock_backend","color_backend","compensation","coordinates","correct","correct_instruction1","correct_keyboardResponse","correct_response","count_ISI","count_Practiceloop","count_correctFeedback","count_expSequence","count_experiment","count_experimentLoop","count_fixation","count_incorrect","count_instruction1","count_instructions2","count_keyboardResponse","count_logger","count_memorySet","count_probe","count_thankYou","datetime","description","disable_garbage_collection","experiment_file","experiment_path","font_bold","font_family","font_italic","font_size","font_underline","foreground","form_clicks","fullscreen","height","keyboard_backend","live_row","live_row_Practiceloop","logfile","mouse_backend","numberSet","opensesame_codename","opensesame_version","posInSet","present","repeat_cycle","response","response_instruction1","response_instructions2","response_keyboardResponse","response_thankYou","response_time","response_time_instruction1","response_time_instructions2","response_time_keyboardResponse","response_time_thankYou","round_decimals","sampler_backend","setSize","sound_buf_size","sound_channels","sound_freq","sound_sample_size","start","subject_nr","subject_parity","target","time_ISI","time_Practiceloop","time_correctFeedback","time_expSequence","time_experiment","time_experimentLoop","time_fixation","time_incorrect","time_instruction1","time_instructions2","time_keyboardResponse","time_logger","time_memorySet","time_probe","time_thankYou","title","total_correct","total_response_time","total_responses","uniform_coordinates","width"
"0","0","2000","2000","black","practice","legacy","legacy","legacy","0","uniform","0","undefined","0","right","0","0","0","0","0","0","0","0","0","0","0","0","0","0","0","10/02/18 14:26:58","The main experiment item","yes","Sternbergtask.osexp","C:/Users/hawkm/OneDrive/Desktop/Tarleton school stuff/Fall 2018/Advanced Quantitative Methods/Lab 2","no","mono","no","18","no","white","no","yes","768","legacy","0","0","C:/Users/hawkm/OneDrive/Desktop/Tarleton school stuff/Fall 2018/Advanced Quantitative Methods/Lab 2/Hawk-subject-1.csv","legacy","5","Kafkaesque Koffka","3.2.5","0","n","0","None","space","NA","None","NA","2000","243778","NA","2000","NA","2","legacy","1","1024","2","48000","-16","experiment","1","odd","3","257512","248379","NA","255295","4586","NA","255302","NA","4590","NA","259519","261519","256308","259519","NA","Sternberg task","0","2000","1","yes","1024"
"0","0","2000","2000","black","practice","legacy","legacy","legacy","0","uniform","0","undefined","0","right","1","0","1","1","0","0","1","1","0","0","1","1","1","1","0","10/02/18 14:26:58","The main experiment item","yes","Sternbergtask.osexp","C:/Users/hawkm/OneDrive/Desktop/Tarleton school stuff/Fall 2018/Advanced Quantitative Methods/Lab 2","no","mono","no","18","no","white","no","yes","768","legacy","1","1","C:/Users/hawkm/OneDrive/Desktop/Tarleton school stuff/Fall 2018/Advanced Quantitative Methods/Lab 2/Hawk-subject-1.csv","legacy","5 7 8 4 1 2","Kafkaesque Koffka","3.2.5","0","n","0","None","space","NA","None","NA","2000","243778","NA","2000","NA","2","legacy","6","1024","2","48000","-16","experiment","1","odd","6","265039","248379","NA","262823","4586","NA","262826","261608","4590","NA","267045","269045","263834","267045","NA","Sternberg task","0","4000","2","yes","1024"
"33.3333333333","33.3333333333","1751.66666667","1751.66666667","black","practice","legacy","legacy","legacy","0","uniform","1","undefined","1","left","2","0","2","2","0","0","2","2","0","0","2","2","2","2","0","10/02/18 14:26:58","The main experiment item","yes","Sternbergtask.osexp","C:/Users/hawkm/OneDrive/Desktop/Tarleton school stuff/Fall 2018/Advanced Quantitative Methods/Lab 2","no","mono","no","18","no","white","no","yes","768","legacy","2","2","C:/Users/hawkm/OneDrive/Desktop/Tarleton school stuff/Fall 2018/Advanced Quantitative Methods/Lab 2/Hawk-subject-1.csv","legacy","6","Kafkaesque Koffka","3.2.5","1","y","0","left","space","NA","left","NA","1255","243778","NA","1255","NA","2","legacy","1","1024","2","48000","-16","experiment","1","odd","6","272710","248379","NA","270498","4586","NA","270500","269217","4590","NA","274713","275968","271505","274713","NA","Sternberg task","1","5255","3","yes","1024"
"50","50","1740.25","1740.25","black","practice","legacy","legacy","legacy","0","uniform","1","undefined","1","right","3","0","3","3","0","0","3","3","0","0","3","3","3","3","0","10/02/18 14:26:58","The main experiment item","yes","Sternbergtask.osexp","C:/Users/hawkm/OneDrive/Desktop/Tarleton school stuff/Fall 2018/Advanced Quantitative Methods/Lab 2","no","mono","no","18","no","white","no","yes","768","legacy","3","3","C:/Users/hawkm/OneDrive/Desktop/Tarleton school stuff/Fall 2018/Advanced Quantitative Methods/Lab 2/Hawk-subject-1.csv","legacy","2 1","Kafkaesque Koffka","3.2.5","0","n","0","right","space","NA","right","NA","1706","243778","NA","1706","NA","2","legacy","2","1024","2","48000","-16","experiment","1","odd","5","279309","248379","275979","277101","4586","NA","277103","269217","4590","NA","281312","283018","278106","281312","NA","Sternberg task","2","6961","4","yes","1024"
"60","60","1745.2","1745.2","black","practice","legacy","legacy","legacy","0","uniform","1","undefined","1","left","4","0","4","4","0","0","4","4","0","0","4","4","4","4","0","10/02/18 14:26:58","The main experiment item","yes","Sternbergtask.osexp","C:/Users/hawkm/OneDrive/Desktop/Tarleton school stuff/Fall 2018/Advanced Quantitative Methods/Lab 2","no","mono","no","18","no","white","no","yes","768","legacy","4","4","C:/Users/hawkm/OneDrive/Desktop/Tarleton school stuff/Fall 2018/Advanced Quantitative Methods/Lab 2/Hawk-subject-1.csv","legacy","1 5 2 9","Kafkaesque Koffka","3.2.5","2","y","0","left","space","NA","left","NA","1765","243778","NA","1765","NA","2","legacy","4","1024","2","48000","-16","experiment","1","odd","5","286360","248379","283038","284152","4586","NA","284153","269217","4590","NA","288363","290128","285157","288363","NA","Sternberg task","3","8726","5","yes","1024"
"66.6666666667","66.6666666667","1694.83333333","1694.83333333","black","practice","legacy","legacy","legacy","0","uniform","1","undefined","1","right","5","0","5","5","0","0","5","5","0","0","5","5","5","5","0","10/02/18 14:26:58","The main experiment item","yes","Sternbergtask.osexp","C:/Users/hawkm/OneDrive/Desktop/Tarleton school stuff/Fall 2018/Advanced Quantitative Methods/Lab 2","no","mono","no","18","no","white","no","yes","768","legacy","5","5","C:/Users/hawkm/OneDrive/Desktop/Tarleton school stuff/Fall 2018/Advanced Quantitative Methods/Lab 2/Hawk-subject-1.csv","legacy","3 1 9 4","Kafkaesque Koffka","3.2.5","0","n","0","right","space","NA","right","NA","1443","243778","NA","1443","NA","2","legacy","4","1024","2","48000","-16","experiment","1","odd","6","293523","248379","290155","291317","4586","NA","291319","269217","4590","NA","295526","296970","292321","295526","NA","Sternberg task","4","10169","6","yes","1024"
"71.4285714286","71.4285714286","1659.57142857","1659.57142857","black","practice","legacy","legacy","legacy","0","uniform","1","undefined","1","left","6","0","6","6","0","0","6","6","0","0","6","6","6","6","0","10/02/18 14:26:58","The main experiment item","yes","Sternbergtask.osexp","C:/Users/hawkm/OneDrive/Desktop/Tarleton school stuff/Fall 2018/Advanced Quantitative Methods/Lab 2","no","mono","no","18","no","white","no","yes","768","legacy","6","6","C:/Users/hawkm/OneDrive/Desktop/Tarleton school stuff/Fall 2018/Advanced Quantitative Methods/Lab 2/Hawk-subject-1.csv","legacy","4 8","Kafkaesque Koffka","3.2.5","1","y","0","left","space","NA","left","NA","1448","243778","NA","1448","NA","2","legacy","2","1024","2","48000","-16","experiment","1","odd","4","300288","248379","296979","298081","4586","NA","298082","269217","4590","NA","302291","303739","299086","302291","NA","Sternberg task","5","11617","7","yes","1024"
"62.5","62.5","1495.375","1495.375","black","practice","legacy","legacy","legacy","0","uniform","0","undefined","0","left","7","0","7","7","0","0","7","7","0","0","7","7","7","7","0","10/02/18 14:26:58","The main experiment item","yes","Sternbergtask.osexp","C:/Users/hawkm/OneDrive/Desktop/Tarleton school stuff/Fall 2018/Advanced Quantitative Methods/Lab 2","no","mono","no","18","no","white","no","yes","768","legacy","7","7","C:/Users/hawkm/OneDrive/Desktop/Tarleton school stuff/Fall 2018/Advanced Quantitative Methods/Lab 2/Hawk-subject-1.csv","legacy","2 9 4","Kafkaesque Koffka","3.2.5","3","y","0","right","space","NA","right","NA","346","243778","NA","346","NA","2","legacy","3","1024","2","48000","-16","experiment","1","odd","4","307096","248379","303758","304888","4586","NA","304889","269217","4590","NA","309103","309450","305893","309102","NA","Sternberg task","5","11963","8","yes","1024"
"66.6666666667","66.6666666667","1395","1395","black","practice","legacy","legacy","legacy","0","uniform","1","undefined","1","left","8","0","8","8","0","0","8","8","0","0","8","8","8","8","0","10/02/18 14:26:58","The main experiment item","yes","Sternbergtask.osexp","C:/Users/hawkm/OneDrive/Desktop/Tarleton school stuff/Fall 2018/Advanced Quantitative Methods/Lab 2","no","mono","no","18","no","white","no","yes","768","legacy","8","8","C:/Users/hawkm/OneDrive/Desktop/Tarleton school stuff/Fall 2018/Advanced Quantitative Methods/Lab 2/Hawk-subject-1.csv","legacy","4 3 1 7 9 8","Kafkaesque Koffka","3.2.5","1","y","0","left","space","NA","left","NA","592","243778","NA","592","NA","2","legacy","6","1024","2","48000","-16","experiment","1","odd","4","312945","248379","303758","310738","4586","NA","310740","309542","4590","NA","314947","315539","311742","314947","NA","Sternberg task","6","12555","9","yes","1024"
"70","70","1368.8","1368.8","black","practice","legacy","legacy","legacy","0","uniform","1","undefined","1","right","9","0","9","9","0","0","9","9","0","0","9","9","9","9","0","10/02/18 14:26:58","The main experiment item","yes","Sternbergtask.osexp","C:/Users/hawkm/OneDrive/Desktop/Tarleton school stuff/Fall 2018/Advanced Quantitative Methods/Lab 2","no","mono","no","18","no","white","no","yes","768","legacy","9","9","C:/Users/hawkm/OneDrive/Desktop/Tarleton school stuff/Fall 2018/Advanced Quantitative Methods/Lab 2/Hawk-subject-1.csv","legacy","9 6 7 4 5","Kafkaesque Koffka","3.2.5","0","n","0","right","space","NA","right","NA","1133","243778","NA","1133","NA","2","legacy","5","1024","2","48000","-16","experiment","1","odd","3","318951","248379","315554","316741","4586","NA","316742","309542","4590","NA","320955","322089","317746","320954","NA","Sternberg task","7","13688","10","yes","1024"
"72.7272727273","72.7272727273","1343.09090909","1343.09090909","black","practice","legacy","legacy","legacy","0","uniform","1","undefined","1","right","10","0","10","10","0","0","10","10","0","0","10","10","10","10","0","10/02/18 14:26:58","The main experiment item","yes","Sternbergtask.osexp","C:/Users/hawkm/OneDrive/Desktop/Tarleton school stuff/Fall 2018/Advanced Quantitative Methods/Lab 2","no","mono","no","18","no","white","no","yes","768","legacy","10","10","C:/Users/hawkm/OneDrive/Desktop/Tarleton school stuff/Fall 2018/Advanced Quantitative Methods/Lab 2/Hawk-subject-1.csv","legacy","4 1 5","Kafkaesque Koffka","3.2.5","0","n","0","right","space","NA","right","NA","1086","243778","NA","1086","NA","2","legacy","3","1024","2","48000","-16","experiment","1","odd","2","325520","248379","322124","323311","4586","NA","323314","309542","4590","NA","327523","328610","324317","327523","NA","Sternberg task","8","14774","11","yes","1024"
"75","75","1287.91666667","1287.91666667","black","practice","legacy","legacy","legacy","0","uniform","1","undefined","1","left","11","0","11","11","0","0","11","11","0","0","11","11","11","11","0","10/02/18 14:26:58","The main experiment item","yes","Sternbergtask.osexp","C:/Users/hawkm/OneDrive/Desktop/Tarleton school stuff/Fall 2018/Advanced Quantitative Methods/Lab 2","no","mono","no","18","no","white","no","yes","768","legacy","11","11","C:/Users/hawkm/OneDrive/Desktop/Tarleton school stuff/Fall 2018/Advanced Quantitative Methods/Lab 2/Hawk-subject-1.csv","legacy","1 7 9 8 5","Kafkaesque Koffka","3.2.5","4","y","0","left","space","NA","left","NA","681","243778","NA","681","NA","2","legacy","5","1024","2","48000","-16","experiment","1","odd","8","331954","248379","328619","329747","4586","NA","329749","309542","4590","NA","333958","334639","330752","333957","NA","Sternberg task","9","15455","12","yes","1024"
"76.9230769231","76.9230769231","1263.46153846","1263.46153846","black","experiment","legacy","legacy","legacy","0","uniform","1","undefined","1","left","12","0","12","12","0","0","12","12","0","0","12","12","12","12","0","10/02/18 14:26:58","The main experiment item","yes","Sternbergtask.osexp","C:/Users/hawkm/OneDrive/Desktop/Tarleton school stuff/Fall 2018/Advanced Quantitative Methods/Lab 2","no","mono","no","18","no","white","no","yes","768","legacy","0","11","C:/Users/hawkm/OneDrive/Desktop/Tarleton school stuff/Fall 2018/Advanced Quantitative Methods/Lab 2/Hawk-subject-1.csv","legacy","8 3","Kafkaesque Koffka","3.2.5","2","y","0","left","space","left","left","NA","970","243778","22718","970","NA","2","legacy","2","1024","2","48000","-16","experiment","1","odd","3","360757","248379","334651","358550","4586","358421","358552","309542","4590","335702","362760","363731","359554","362760","NA","Sternberg task","10","16425","13","yes","1024"
"71.4285714286","71.4285714286","1215.42857143","1215.42857143","black","experiment","legacy","legacy","legacy","0","uniform","0","undefined","0","left","13","0","13","13","0","0","13","13","0","0","13","13","13","13","0","10/02/18 14:26:58","The main experiment item","yes","Sternbergtask.osexp","C:/Users/hawkm/OneDrive/Desktop/Tarleton school stuff/Fall 2018/Advanced Quantitative Methods/Lab 2","no","mono","no","18","no","white","no","yes","768","legacy","1","11","C:/Users/hawkm/OneDrive/Desktop/Tarleton school stuff/Fall 2018/Advanced Quantitative Methods/Lab 2/Hawk-subject-1.csv","legacy","6 9 3 1","Kafkaesque Koffka","3.2.5","4","y","0","right","space","left","right","NA","591","243778","22718","591","NA","2","legacy","4","1024","2","48000","-16","experiment","1","odd","1","367037","248379","363738","364830","4586","358421","364832","309542","4590","335702","369039","369631","365835","369039","NA","Sternberg task","10","17016","14","yes","1024"
"73.3333333333","73.3333333333","1175.6","1175.6","black","experiment","legacy","legacy","legacy","0","uniform","1","undefined","1","left","14","0","14","14","0","0","14","14","0","0","14","14","14","14","0","10/02/18 14:26:58","The main experiment item","yes","Sternbergtask.osexp","C:/Users/hawkm/OneDrive/Desktop/Tarleton school stuff/Fall 2018/Advanced Quantitative Methods/Lab 2","no","mono","no","18","no","white","no","yes","768","legacy","2","11","C:/Users/hawkm/OneDrive/Desktop/Tarleton school stuff/Fall 2018/Advanced Quantitative Methods/Lab 2/Hawk-subject-1.csv","legacy","6 7 9 3 1 2","Kafkaesque Koffka","3.2.5","1","y","0","left","space","left","left","NA","618","243778","22718","618","NA","2","legacy","6","1024","2","48000","-16","experiment","1","odd","6","372979","248379","363738","370772","4586","358421","370774","369638","4590","335702","374982","375600","371777","374982","NA","Sternberg task","11","17634","15","yes","1024"
"75","75","1159","1159","black","experiment","legacy","legacy","legacy","0","uniform","1","undefined","1","right","15","0","15","15","0","0","15","15","0","0","15","15","15","15","0","10/02/18 14:26:58","The main experiment item","yes","Sternbergtask.osexp","C:/Users/hawkm/OneDrive/Desktop/Tarleton school stuff/Fall 2018/Advanced Quantitative Methods/Lab 2","no","mono","no","18","no","white","no","yes","768","legacy","3","11","C:/Users/hawkm/OneDrive/Desktop/Tarleton school stuff/Fall 2018/Advanced Quantitative Methods/Lab 2/Hawk-subject-1.csv","legacy","6 9 7 3 8 2","Kafkaesque Koffka","3.2.5","0","n","0","right","space","left","right","NA","910","243778","22718","910","NA","2","legacy","6","1024","2","48000","-16","experiment","1","odd","5","378956","248379","375618","376748","4586","358421","376749","369638","4590","335702","380960","381871","377753","380959","NA","Sternberg task","12","18544","16","yes","1024"
"76.4705882353","76.4705882353","1149.23529412","1149.23529412","black","experiment","legacy","legacy","legacy","0","uniform","1","undefined","1","right","16","0","16","16","0","0","16","16","0","0","16","16","16","16","0","10/02/18 14:26:58","The main experiment item","yes","Sternbergtask.osexp","C:/Users/hawkm/OneDrive/Desktop/Tarleton school stuff/Fall 2018/Advanced Quantitative Methods/Lab 2","no","mono","no","18","no","white","no","yes","768","legacy","4","11","C:/Users/hawkm/OneDrive/Desktop/Tarleton school stuff/Fall 2018/Advanced Quantitative Methods/Lab 2/Hawk-subject-1.csv","legacy","3 9 1","Kafkaesque Koffka","3.2.5","0","n","0","right","space","left","right","NA","993","243778","22718","993","NA","2","legacy","3","1024","2","48000","-16","experiment","1","odd","7","385214","248379","381892","383006","4586","358421","383008","369638","4590","335702","387217","388211","384011","387217","NA","Sternberg task","13","19537","17","yes","1024"
"77.7777777778","77.7777777778","1135.77777778","1135.77777778","black","experiment","legacy","legacy","legacy","0","uniform","1","undefined","1","right","17","0","17","17","0","0","17","17","0","0","17","17","17","17","0","10/02/18 14:26:58","The main experiment item","yes","Sternbergtask.osexp","C:/Users/hawkm/OneDrive/Desktop/Tarleton school stuff/Fall 2018/Advanced Quantitative Methods/Lab 2","no","mono","no","18","no","white","no","yes","768","legacy","5","11","C:/Users/hawkm/OneDrive/Desktop/Tarleton school stuff/Fall 2018/Advanced Quantitative Methods/Lab 2/Hawk-subject-1.csv","legacy","7 1","Kafkaesque Koffka","3.2.5","0","n","0","right","space","left","right","NA","907","243778","22718","907","NA","2","legacy","2","1024","2","48000","-16","experiment","1","odd","8","391569","248379","388233","389361","4586","358421","389363","369638","4590","335702","393573","394481","390366","393571","NA","Sternberg task","14","20444","18","yes","1024"
"73.6842105263","73.6842105263","1100.52631579","1100.52631579","black","experiment","legacy","legacy","legacy","0","uniform","0","undefined","0","right","18","0","18","18","0","0","18","18","0","0","18","18","18","18","0","10/02/18 14:26:58","The main experiment item","yes","Sternbergtask.osexp","C:/Users/hawkm/OneDrive/Desktop/Tarleton school stuff/Fall 2018/Advanced Quantitative Methods/Lab 2","no","mono","no","18","no","white","no","yes","768","legacy","6","11","C:/Users/hawkm/OneDrive/Desktop/Tarleton school stuff/Fall 2018/Advanced Quantitative Methods/Lab 2/Hawk-subject-1.csv","legacy","1 6 4 3 9 7","Kafkaesque Koffka","3.2.5","0","n","0","left","space","left","left","NA","466","243778","22718","466","NA","2","legacy","6","1024","2","48000","-16","experiment","1","odd","8","397832","248379","394497","395624","4586","358421","395626","369638","4590","335702","399834","400301","396629","399834","NA","Sternberg task","14","20910","19","yes","1024"
"75","75","1110.35","1110.35","black","experiment","legacy","legacy","legacy","0","uniform","1","undefined","1","left","19","0","19","19","0","0","19","19","0","0","19","19","19","19","0","10/02/18 14:26:58","The main experiment item","yes","Sternbergtask.osexp","C:/Users/hawkm/OneDrive/Desktop/Tarleton school stuff/Fall 2018/Advanced Quantitative Methods/Lab 2","no","mono","no","18","no","white","no","yes","768","legacy","7","11","C:/Users/hawkm/OneDrive/Desktop/Tarleton school stuff/Fall 2018/Advanced Quantitative Methods/Lab 2/Hawk-subject-1.csv","legacy","7 6","Kafkaesque Koffka","3.2.5","2","y","0","left","space","left","left","NA","1297","243778","22718","1297","NA","2","legacy","2","1024","2","48000","-16","experiment","1","odd","6","403660","248379","394497","401452","4586","358421","401454","400323","4590","335702","405664","406962","402456","405664","NA","Sternberg task","15","22207","20","yes","1024"
"76.1904761905","76.1904761905","1108.28571429","1108.28571429","black","experiment","legacy","legacy","legacy","0","uniform","1","undefined","1","left","20","0","20","20","0","0","20","20","0","0","20","20","20","20","0","10/02/18 14:26:58","The main experiment item","yes","Sternbergtask.osexp","C:/Users/hawkm/OneDrive/Desktop/Tarleton school stuff/Fall 2018/Advanced Quantitative Methods/Lab 2","no","mono","no","18","no","white","no","yes","768","legacy","8","11","C:/Users/hawkm/OneDrive/Desktop/Tarleton school stuff/Fall 2018/Advanced Quantitative Methods/Lab 2/Hawk-subject-1.csv","legacy","2 5 4 8 7","Kafkaesque Koffka","3.2.5","3","y","0","left","space","left","left","NA","1067","243778","22718","1067","NA","2","legacy","5","1024","2","48000","-16","experiment","1","odd","4","410342","248379","407012","408135","4586","358421","408137","400323","4590","335702","412344","413411","409140","412344","NA","Sternberg task","16","23274","21","yes","1024"
"77.2727272727","77.2727272727","1081.81818182","1081.81818182","black","experiment","legacy","legacy","legacy","0","uniform","1","undefined","1","left","21","0","21","21","0","0","21","21","0","0","21","21","21","21","0","10/02/18 14:26:58","The main experiment item","yes","Sternbergtask.osexp","C:/Users/hawkm/OneDrive/Desktop/Tarleton school stuff/Fall 2018/Advanced Quantitative Methods/Lab 2","no","mono","no","18","no","white","no","yes","768","legacy","9","11","C:/Users/hawkm/OneDrive/Desktop/Tarleton school stuff/Fall 2018/Advanced Quantitative Methods/Lab 2/Hawk-subject-1.csv","legacy","3 5 4 7","Kafkaesque Koffka","3.2.5","1","y","0","left","space","left","left","NA","526","243778","22718","526","NA","2","legacy","4","1024","2","48000","-16","experiment","1","odd","3","416742","248379","413427","414535","4586","358421","414537","400323","4590","335702","418745","419271","415540","418744","NA","Sternberg task","17","23800","22","yes","1024"
"78.2608695652","78.2608695652","1062.08695652","1062.08695652","black","experiment","legacy","legacy","legacy","0","uniform","1","undefined","1","right","22","0","22","22","0","0","22","22","0","0","22","22","22","22","0","10/02/18 14:26:58","The main experiment item","yes","Sternbergtask.osexp","C:/Users/hawkm/OneDrive/Desktop/Tarleton school stuff/Fall 2018/Advanced Quantitative Methods/Lab 2","no","mono","no","18","no","white","no","yes","768","legacy","10","11","C:/Users/hawkm/OneDrive/Desktop/Tarleton school stuff/Fall 2018/Advanced Quantitative Methods/Lab 2/Hawk-subject-1.csv","legacy","1 4 3 6 5","Kafkaesque Koffka","3.2.5","0","n","0","right","space","left","right","NA","628","243778","22718","628","NA","2","legacy","5","1024","2","48000","-16","experiment","1","odd","8","422610","248379","419279","420403","4586","358421","420405","400323","4590","335702","424613","425241","421407","424613","NA","Sternberg task","18","24428","23","yes","1024"
"75","75","1061.58333333","1061.58333333","black","experiment","legacy","legacy","legacy","0","uniform","0","undefined","0","left","23","0","23","23","0","0","23","23","0","0","23","23","23","23","0","10/02/18 14:26:58","The main experiment item","yes","Sternbergtask.osexp","C:/Users/hawkm/OneDrive/Desktop/Tarleton school stuff/Fall 2018/Advanced Quantitative Methods/Lab 2","no","mono","no","18","no","white","no","yes","768","legacy","11","11","C:/Users/hawkm/OneDrive/Desktop/Tarleton school stuff/Fall 2018/Advanced Quantitative Methods/Lab 2/Hawk-subject-1.csv","legacy","2 3","Kafkaesque Koffka","3.2.5","1","y","0","right","space","left","right","NA","1050","243778","22718","1050","NA","2","legacy","2","1024","2","48000","-16","experiment","1","odd","2","428598","248379","425272","426389","4586","358421","426391","400323","4590","335702","430601","431652","427395","430601","NA","Sternberg task","18","25478","24","yes","1024"
"72","72","1042.12","1042.12","black","experiment","legacy","legacy","legacy","0","uniform","0","undefined","0","right","24","0","24","24","0","0","24","24","0","0","24","24","24","24","0","10/02/18 14:26:58","The main experiment item","yes","Sternbergtask.osexp","C:/Users/hawkm/OneDrive/Desktop/Tarleton school stuff/Fall 2018/Advanced Quantitative Methods/Lab 2","no","mono","no","18","no","white","no","yes","768","legacy","12","11","C:/Users/hawkm/OneDrive/Desktop/Tarleton school stuff/Fall 2018/Advanced Quantitative Methods/Lab 2/Hawk-subject-1.csv","legacy","7 9 1 6","Kafkaesque Koffka","3.2.5","0","n","0","left","space","left","left","NA","575","243778","22718","575","NA","2","legacy","4","1024","2","48000","-16","experiment","1","odd","4","435013","248379","425272","432806","4586","358421","432808","431660","4590","335702","437016","437592","433810","437016","NA","Sternberg task","18","26053","25","yes","1024"
"69.2307692308","69.2307692308","1078.96153846","1078.96153846","black","experiment","legacy","legacy","legacy","0","uniform","0","undefined","0","right","25","0","25","25","0","0","25","25","0","0","25","25","25","25","0","10/02/18 14:26:58","The main experiment item","yes","Sternbergtask.osexp","C:/Users/hawkm/OneDrive/Desktop/Tarleton school stuff/Fall 2018/Advanced Quantitative Methods/Lab 2","no","mono","no","18","no","white","no","yes","768","legacy","13","11","C:/Users/hawkm/OneDrive/Desktop/Tarleton school stuff/Fall 2018/Advanced Quantitative Methods/Lab 2/Hawk-subject-1.csv","legacy","7 1 8 4 9 3","Kafkaesque Koffka","3.2.5","0","n","0","None","space","left","None","NA","2000","243778","22718","2000","NA","2","legacy","6","1024","2","48000","-16","experiment","1","odd","6","440945","248379","425272","438739","4586","358421","438741","437600","4590","335702","442947","444947","439743","442947","NA","Sternberg task","18","28053","26","yes","1024"
"70.3703703704","70.3703703704","1071.07407407","1071.07407407","black","experiment","legacy","legacy","legacy","0","uniform","1","undefined","1","left","26","0","26","26","0","0","26","26","0","0","26","26","26","26","0","10/02/18 14:26:58","The main experiment item","yes","Sternbergtask.osexp","C:/Users/hawkm/OneDrive/Desktop/Tarleton school stuff/Fall 2018/Advanced Quantitative Methods/Lab 2","no","mono","no","18","no","white","no","yes","768","legacy","14","11","C:/Users/hawkm/OneDrive/Desktop/Tarleton school stuff/Fall 2018/Advanced Quantitative Methods/Lab 2/Hawk-subject-1.csv","legacy","7 2 3","Kafkaesque Koffka","3.2.5","3","y","0","left","space","left","left","NA","866","243778","22718","866","NA","2","legacy","3","1024","2","48000","-16","experiment","1","odd","3","448273","248379","425272","446068","4586","358421","446069","444955","4590","335702","450275","451142","447071","450275","NA","Sternberg task","19","28919","27","yes","1024"
"71.4285714286","71.4285714286","1054","1054","black","experiment","legacy","legacy","legacy","0","uniform","1","undefined","1","right","27","0","27","27","0","0","27","27","0","0","27","27","27","27","0","10/02/18 14:26:58","The main experiment item","yes","Sternbergtask.osexp","C:/Users/hawkm/OneDrive/Desktop/Tarleton school stuff/Fall 2018/Advanced Quantitative Methods/Lab 2","no","mono","no","18","no","white","no","yes","768","legacy","15","11","C:/Users/hawkm/OneDrive/Desktop/Tarleton school stuff/Fall 2018/Advanced Quantitative Methods/Lab 2/Hawk-subject-1.csv","legacy","5 7 3","Kafkaesque Koffka","3.2.5","0","n","0","right","space","left","right","NA","593","243778","22718","593","NA","2","legacy","3","1024","2","48000","-16","experiment","1","odd","9","454477","248379","451160","452271","4586","358421","452273","444955","4590","335702","456479","457072","453275","456479","NA","Sternberg task","20","29512","28","yes","1024"
"72.4137931034","72.4137931034","1049.13793103","1049.13793103","black","experiment","legacy","legacy","legacy","0","uniform","1","undefined","1","right","28","0","28","28","0","0","28","28","0","0","28","28","28","28","0","10/02/18 14:26:58","The main experiment item","yes","Sternbergtask.osexp","C:/Users/hawkm/OneDrive/Desktop/Tarleton school stuff/Fall 2018/Advanced Quantitative Methods/Lab 2","no","mono","no","18","no","white","no","yes","768","legacy","16","11","C:/Users/hawkm/OneDrive/Desktop/Tarleton school stuff/Fall 2018/Advanced Quantitative Methods/Lab 2/Hawk-subject-1.csv","legacy","2 8 9 4 1","Kafkaesque Koffka","3.2.5","0","n","0","right","space","left","right","NA","913","243778","22718","913","NA","2","legacy","5","1024","2","48000","-16","experiment","1","odd","5","460414","248379","457119","458207","4586","358421","458208","444955","4590","335702","462418","463332","459211","462417","NA","Sternberg task","21","30425","29","yes","1024"
"70","70","1080.83333333","1080.83333333","black","experiment","legacy","legacy","legacy","0","uniform","0","undefined","0","left","29","0","29","29","0","0","29","29","0","0","29","29","29","29","0","10/02/18 14:26:58","The main experiment item","yes","Sternbergtask.osexp","C:/Users/hawkm/OneDrive/Desktop/Tarleton school stuff/Fall 2018/Advanced Quantitative Methods/Lab 2","no","mono","no","18","no","white","no","yes","768","legacy","17","11","C:/Users/hawkm/OneDrive/Desktop/Tarleton school stuff/Fall 2018/Advanced Quantitative Methods/Lab 2/Hawk-subject-1.csv","legacy","8","Kafkaesque Koffka","3.2.5","1","y","0","None","space","left","None","NA","2000","243778","22718","2000","NA","2","legacy","1","1024","2","48000","-16","experiment","1","odd","8","466760","248379","463353","464548","4586","358421","464550","444955","4590","335702","468762","470762","465554","468762","NA","Sternberg task","21","32425","30","yes","1024"
"70.9677419355","70.9677419355","1069.58064516","1069.58064516","black","experiment","legacy","legacy","legacy","0","uniform","1","undefined","1","right","30","0","30","30","0","0","30","30","0","0","30","30","30","30","0","10/02/18 14:26:58","The main experiment item","yes","Sternbergtask.osexp","C:/Users/hawkm/OneDrive/Desktop/Tarleton school stuff/Fall 2018/Advanced Quantitative Methods/Lab 2","no","mono","no","18","no","white","no","yes","768","legacy","18","11","C:/Users/hawkm/OneDrive/Desktop/Tarleton school stuff/Fall 2018/Advanced Quantitative Methods/Lab 2/Hawk-subject-1.csv","legacy","8 4 3 5","Kafkaesque Koffka","3.2.5","0","n","0","right","space","left","right","NA","732","243778","22718","732","NA","2","legacy","4","1024","2","48000","-16","experiment","1","odd","6","474128","248379","463353","471923","4586","358421","471925","470803","4590","335702","476130","476862","472926","476130","NA","Sternberg task","22","33157","31","yes","1024"
"71.875","71.875","1082.4375","1082.4375","black","experiment","legacy","legacy","legacy","0","uniform","1","undefined","1","left","31","0","31","31","0","0","31","31","0","0","31","31","31","31","0","10/02/18 14:26:58","The main experiment item","yes","Sternbergtask.osexp","C:/Users/hawkm/OneDrive/Desktop/Tarleton school stuff/Fall 2018/Advanced Quantitative Methods/Lab 2","no","mono","no","18","no","white","no","yes","768","legacy","19","11","C:/Users/hawkm/OneDrive/Desktop/Tarleton school stuff/Fall 2018/Advanced Quantitative Methods/Lab 2/Hawk-subject-1.csv","legacy","4 9 7 8 5 3","Kafkaesque Koffka","3.2.5","4","y","0","left","space","left","left","NA","1481","243778","22718","1481","NA","2","legacy","6","1024","2","48000","-16","experiment","1","odd","8","480226","248379","476907","478014","4586","358421","478016","470803","4590","335702","482231","483713","479021","482231","NA","Sternberg task","23","34638","32","yes","1024"
"72.7272727273","72.7272727273","1072.36363636","1072.36363636","black","experiment","legacy","legacy","legacy","0","uniform","1","undefined","1","right","32","0","32","32","0","0","32","32","0","0","32","32","32","32","0","10/02/18 14:26:58","The main experiment item","yes","Sternbergtask.osexp","C:/Users/hawkm/OneDrive/Desktop/Tarleton school stuff/Fall 2018/Advanced Quantitative Methods/Lab 2","no","mono","no","18","no","white","no","yes","768","legacy","20","11","C:/Users/hawkm/OneDrive/Desktop/Tarleton school stuff/Fall 2018/Advanced Quantitative Methods/Lab 2/Hawk-subject-1.csv","legacy","4 2 6 9","Kafkaesque Koffka","3.2.5","0","n","0","right","space","left","right","NA","750","243778","22718","750","NA","2","legacy","4","1024","2","48000","-16","experiment","1","odd","7","487137","248379","483756","484926","4586","358421","484928","470803","4590","335702","489142","489892","485932","489142","NA","Sternberg task","24","35388","33","yes","1024"
"73.5294117647","73.5294117647","1059.88235294","1059.88235294","black","experiment","legacy","legacy","legacy","0","uniform","1","undefined","1","right","33","0","33","33","0","0","33","33","0","0","33","33","33","33","0","10/02/18 14:26:58","The main experiment item","yes","Sternbergtask.osexp","C:/Users/hawkm/OneDrive/Desktop/Tarleton school stuff/Fall 2018/Advanced Quantitative Methods/Lab 2","no","mono","no","18","no","white","no","yes","768","legacy","21","11","C:/Users/hawkm/OneDrive/Desktop/Tarleton school stuff/Fall 2018/Advanced Quantitative Methods/Lab 2/Hawk-subject-1.csv","legacy","6 8 4","Kafkaesque Koffka","3.2.5","0","n","0","right","space","left","right","NA","648","243778","22718","648","NA","2","legacy","3","1024","2","48000","-16","experiment","1","odd","1","493280","248379","489900","491068","4586","358421","491070","470803","4590","335702","495284","495933","492074","495284","NA","Sternberg task","25","36036","34","yes","1024"
"74.2857142857","74.2857142857","1055.28571429","1055.28571429","black","experiment","legacy","legacy","legacy","0","uniform","1","undefined","1","left","34","0","34","34","0","0","34","34","0","0","34","34","34","34","0","10/02/18 14:26:58","The main experiment item","yes","Sternbergtask.osexp","C:/Users/hawkm/OneDrive/Desktop/Tarleton school stuff/Fall 2018/Advanced Quantitative Methods/Lab 2","no","mono","no","18","no","white","no","yes","768","legacy","22","11","C:/Users/hawkm/OneDrive/Desktop/Tarleton school stuff/Fall 2018/Advanced Quantitative Methods/Lab 2/Hawk-subject-1.csv","legacy","8 9 6 1","Kafkaesque Koffka","3.2.5","2","y","0","left","space","left","left","NA","899","243778","22718","899","NA","2","legacy","4","1024","2","48000","-16","experiment","1","odd","9","499337","248379","495980","497125","4586","358421","497126","470803","4590","335702","501343","502243","498131","501343","NA","Sternberg task","26","36935","35","yes","1024"
"72.2222222222","72.2222222222","1050.83333333","1050.83333333","black","experiment","legacy","legacy","legacy","0","uniform","0","undefined","0","left","35","0","35","35","0","0","35","35","0","0","35","35","35","35","0","10/02/18 14:26:58","The main experiment item","yes","Sternbergtask.osexp","C:/Users/hawkm/OneDrive/Desktop/Tarleton school stuff/Fall 2018/Advanced Quantitative Methods/Lab 2","no","mono","no","18","no","white","no","yes","768","legacy","23","11","C:/Users/hawkm/OneDrive/Desktop/Tarleton school stuff/Fall 2018/Advanced Quantitative Methods/Lab 2/Hawk-subject-1.csv","legacy","9 6 2 4 1","Kafkaesque Koffka","3.2.5","4","y","0","right","space","left","right","NA","895","243778","22718","895","NA","2","legacy","5","1024","2","48000","-16","experiment","1","odd","4","505613","248379","502248","503403","4586","358421","503404","470803","4590","335702","507618","508514","504408","507618","NA","Sternberg task","26","37830","36","yes","1024"
"70.2702702703","70.2702702703","1044.64864865","1044.64864865","black","experiment","legacy","legacy","legacy","0","uniform","0","undefined","0","right","36","0","36","36","0","0","36","36","0","0","36","36","36","36","0","10/02/18 14:26:58","The main experiment item","yes","Sternbergtask.osexp","C:/Users/hawkm/OneDrive/Desktop/Tarleton school stuff/Fall 2018/Advanced Quantitative Methods/Lab 2","no","mono","no","18","no","white","no","yes","768","legacy","24","11","C:/Users/hawkm/OneDrive/Desktop/Tarleton school stuff/Fall 2018/Advanced Quantitative Methods/Lab 2/Hawk-subject-1.csv","legacy","2 8 6 3 1","Kafkaesque Koffka","3.2.5","0","n","0","left","space","left","left","NA","822","243778","22718","822","NA","2","legacy","5","1024","2","48000","-16","experiment","1","odd","7","511905","248379","502248","509693","4586","358421","509694","508559","4590","335702","513911","514734","510700","513911","NA","Sternberg task","26","38652","37","yes","1024"
"71.0526315789","71.0526315789","1031.57894737","1031.57894737","black","experiment","legacy","legacy","legacy","0","uniform","1","undefined","1","left","37","0","37","37","0","0","37","37","0","0","37","37","37","37","0","10/02/18 14:26:58","The main experiment item","yes","Sternbergtask.osexp","C:/Users/hawkm/OneDrive/Desktop/Tarleton school stuff/Fall 2018/Advanced Quantitative Methods/Lab 2","no","mono","no","18","no","white","no","yes","768","legacy","25","11","C:/Users/hawkm/OneDrive/Desktop/Tarleton school stuff/Fall 2018/Advanced Quantitative Methods/Lab 2/Hawk-subject-1.csv","legacy","3 5 9 6 2 4","Kafkaesque Koffka","3.2.5","1","y","0","left","space","left","left","NA","548","243778","22718","548","NA","2","legacy","6","1024","2","48000","-16","experiment","1","odd","3","518150","248379","502248","515940","4586","358421","515941","514775","4590","335702","520155","520703","516946","520155","NA","Sternberg task","27","39200","38","yes","1024"
"69.2307692308","69.2307692308","1023.38461538","1023.38461538","black","experiment","legacy","legacy","legacy","0","uniform","0","undefined","0","right","38","0","38","38","0","0","38","38","0","0","38","38","38","38","0","10/02/18 14:26:58","The main experiment item","yes","Sternbergtask.osexp","C:/Users/hawkm/OneDrive/Desktop/Tarleton school stuff/Fall 2018/Advanced Quantitative Methods/Lab 2","no","mono","no","18","no","white","no","yes","768","legacy","26","11","C:/Users/hawkm/OneDrive/Desktop/Tarleton school stuff/Fall 2018/Advanced Quantitative Methods/Lab 2/Hawk-subject-1.csv","legacy","9","Kafkaesque Koffka","3.2.5","0","n","0","left","space","left","left","NA","712","243778","22718","712","NA","2","legacy","1","1024","2","48000","-16","experiment","1","odd","6","524157","248379","520750","521945","4586","358421","521947","514775","4590","335702","526161","526874","522951","526161","NA","Sternberg task","27","39912","39","yes","1024"
"67.5","67.5","1021.75","1021.75","black","experiment","legacy","legacy","legacy","0","uniform","0","undefined","0","right","39","0","39","39","0","0","39","39","0","0","39","39","39","39","0","10/02/18 14:26:58","The main experiment item","yes","Sternbergtask.osexp","C:/Users/hawkm/OneDrive/Desktop/Tarleton school stuff/Fall 2018/Advanced Quantitative Methods/Lab 2","no","mono","no","18","no","white","no","yes","768","legacy","27","11","C:/Users/hawkm/OneDrive/Desktop/Tarleton school stuff/Fall 2018/Advanced Quantitative Methods/Lab 2/Hawk-subject-1.csv","legacy","2 8 9","Kafkaesque Koffka","3.2.5","0","n","0","left","space","left","left","NA","958","243778","22718","958","NA","2","legacy","3","1024","2","48000","-16","experiment","1","odd","6","530270","248379","520750","528061","4586","358421","528063","526921","4590","335702","532275","533234","529067","532275","NA","Sternberg task","27","40870","40","yes","1024"
"68.2926829268","68.2926829268","1020.3902439","1020.3902439","black","experiment","legacy","legacy","legacy","0","uniform","1","undefined","1","right","40","0","40","40","0","0","40","40","0","0","40","40","40","40","0","10/02/18 14:26:58","The main experiment item","yes","Sternbergtask.osexp","C:/Users/hawkm/OneDrive/Desktop/Tarleton school stuff/Fall 2018/Advanced Quantitative Methods/Lab 2","no","mono","no","18","no","white","no","yes","768","legacy","28","11","C:/Users/hawkm/OneDrive/Desktop/Tarleton school stuff/Fall 2018/Advanced Quantitative Methods/Lab 2/Hawk-subject-1.csv","legacy","5 9 2 3","Kafkaesque Koffka","3.2.5","0","n","0","right","space","left","right","NA","966","243778","22718","966","NA","2","legacy","4","1024","2","48000","-16","experiment","1","odd","8","536631","248379","520750","534419","4586","358421","534421","533276","4590","335702","538637","539604","535426","538636","NA","Sternberg task","28","41836","41","yes","1024"
"69.0476190476","69.0476190476","1023.28571429","1023.28571429","black","experiment","legacy","legacy","legacy","0","uniform","1","undefined","1","left","41","0","41","41","0","0","41","41","0","0","41","41","41","41","0","10/02/18 14:26:58","The main experiment item","yes","Sternbergtask.osexp","C:/Users/hawkm/OneDrive/Desktop/Tarleton school stuff/Fall 2018/Advanced Quantitative Methods/Lab 2","no","mono","no","18","no","white","no","yes","768","legacy","29","11","C:/Users/hawkm/OneDrive/Desktop/Tarleton school stuff/Fall 2018/Advanced Quantitative Methods/Lab 2/Hawk-subject-1.csv","legacy","5 2 6","Kafkaesque Koffka","3.2.5","2","y","0","left","space","left","left","NA","1142","243778","22718","1142","NA","2","legacy","3","1024","2","48000","-16","experiment","1","odd","2","543007","248379","539649","540795","4586","358421","540797","533276","4590","335702","545011","546154","541802","545011","NA","Sternberg task","29","42978","42","yes","1024"
"69.7674418605","69.7674418605","1014.02325581","1014.02325581","black","experiment","legacy","legacy","legacy","0","uniform","1","undefined","1","left","42","0","42","42","0","0","42","42","0","0","42","42","42","42","0","10/02/18 14:26:58","The main experiment item","yes","Sternbergtask.osexp","C:/Users/hawkm/OneDrive/Desktop/Tarleton school stuff/Fall 2018/Advanced Quantitative Methods/Lab 2","no","mono","no","18","no","white","no","yes","768","legacy","30","11","C:/Users/hawkm/OneDrive/Desktop/Tarleton school stuff/Fall 2018/Advanced Quantitative Methods/Lab 2/Hawk-subject-1.csv","legacy","4","Kafkaesque Koffka","3.2.5","1","y","0","left","space","left","left","NA","625","243778","22718","625","NA","2","legacy","1","1024","2","48000","-16","experiment","1","odd","4","549563","248379","546202","547352","4586","358421","547353","533276","4590","335702","551568","552194","548357","551568","NA","Sternberg task","30","43603","43","yes","1024"
"70.4545454545","70.4545454545","1009.02272727","1009.02272727","black","experiment","legacy","legacy","legacy","0","uniform","1","undefined","1","right","43","0","43","43","0","0","43","43","0","0","43","43","43","43","0","10/02/18 14:26:58","The main experiment item","yes","Sternbergtask.osexp","C:/Users/hawkm/OneDrive/Desktop/Tarleton school stuff/Fall 2018/Advanced Quantitative Methods/Lab 2","no","mono","no","18","no","white","no","yes","768","legacy","31","11","C:/Users/hawkm/OneDrive/Desktop/Tarleton school stuff/Fall 2018/Advanced Quantitative Methods/Lab 2/Hawk-subject-1.csv","legacy","1","Kafkaesque Koffka","3.2.5","0","n","0","right","space","left","right","NA","794","243778","22718","794","NA","2","legacy","1","1024","2","48000","-16","experiment","1","odd","7","555644","248379","552238","553431","4586","358421","553433","533276","4590","335702","557649","558444","554438","557649","NA","Sternberg task","31","44397","44","yes","1024"
"71.1111111111","71.1111111111","1000.26666667","1000.26666667","black","experiment","legacy","legacy","legacy","0","uniform","1","undefined","1","right","44","0","44","44","0","0","44","44","0","0","44","44","44","44","0","10/02/18 14:26:58","The main experiment item","yes","Sternbergtask.osexp","C:/Users/hawkm/OneDrive/Desktop/Tarleton school stuff/Fall 2018/Advanced Quantitative Methods/Lab 2","no","mono","no","18","no","white","no","yes","768","legacy","32","11","C:/Users/hawkm/OneDrive/Desktop/Tarleton school stuff/Fall 2018/Advanced Quantitative Methods/Lab 2/Hawk-subject-1.csv","legacy","2 7 5","Kafkaesque Koffka","3.2.5","0","n","0","right","space","left","right","NA","615","243778","22718","615","NA","2","legacy","3","1024","2","48000","-16","experiment","1","odd","8","561854","248379","558493","559641","4586","358421","559643","533276","4590","335702","563859","564475","560647","563859","NA","Sternberg task","32","45012","45","yes","1024"
"71.7391304348","71.7391304348","994.413043478","994.413043478","black","experiment","legacy","legacy","legacy","0","uniform","1","undefined","1","right","45","0","45","45","0","0","45","45","0","0","45","45","45","45","0","10/02/18 14:26:58","The main experiment item","yes","Sternbergtask.osexp","C:/Users/hawkm/OneDrive/Desktop/Tarleton school stuff/Fall 2018/Advanced Quantitative Methods/Lab 2","no","mono","no","18","no","white","no","yes","768","legacy","33","11","C:/Users/hawkm/OneDrive/Desktop/Tarleton school stuff/Fall 2018/Advanced Quantitative Methods/Lab 2/Hawk-subject-1.csv","legacy","2 6 4 3 9","Kafkaesque Koffka","3.2.5","0","n","0","right","space","left","right","NA","731","243778","22718","731","NA","2","legacy","5","1024","2","48000","-16","experiment","1","odd","1","567888","248379","564520","565676","4586","358421","565677","533276","4590","335702","569893","570624","566681","569893","NA","Sternberg task","33","45743","46","yes","1024"
"72.3404255319","72.3404255319","988.723404255","988.723404255","black","experiment","legacy","legacy","legacy","0","uniform","1","undefined","1","right","46","0","46","46","0","0","46","46","0","0","46","46","46","46","0","10/02/18 14:26:58","The main experiment item","yes","Sternbergtask.osexp","C:/Users/hawkm/OneDrive/Desktop/Tarleton school stuff/Fall 2018/Advanced Quantitative Methods/Lab 2","no","mono","no","18","no","white","no","yes","768","legacy","34","11","C:/Users/hawkm/OneDrive/Desktop/Tarleton school stuff/Fall 2018/Advanced Quantitative Methods/Lab 2/Hawk-subject-1.csv","legacy","5 2","Kafkaesque Koffka","3.2.5","0","n","0","right","space","left","right","NA","727","243778","22718","727","NA","2","legacy","2","1024","2","48000","-16","experiment","1","odd","7","574053","248379","570668","571841","4586","358421","571843","533276","4590","335702","576057","576785","572848","576057","NA","Sternberg task","34","46470","47","yes","1024"
"72.9166666667","72.9166666667","985.166666667","985.166666667","black","experiment","legacy","legacy","legacy","0","uniform","1","undefined","1","left","47","0","47","47","0","0","47","47","0","0","47","47","47","47","0","10/02/18 14:26:58","The main experiment item","yes","Sternbergtask.osexp","C:/Users/hawkm/OneDrive/Desktop/Tarleton school stuff/Fall 2018/Advanced Quantitative Methods/Lab 2","no","mono","no","18","no","white","no","yes","768","legacy","35","11","C:/Users/hawkm/OneDrive/Desktop/Tarleton school stuff/Fall 2018/Advanced Quantitative Methods/Lab 2/Hawk-subject-1.csv","legacy","9 4 2","Kafkaesque Koffka","3.2.5","1","y","0","left","space","left","left","NA","818","243778","22718","818","NA","2","legacy","3","1024","2","48000","-16","experiment","1","odd","9","580181","248379","576830","577969","4586","358421","577971","533276","4590","335702","582186","583005","578976","582186","NA","Sternberg task","35","47288","48","yes","1024"
"73.4693877551","73.4693877551","979.408163265","979.408163265","black","experiment","legacy","legacy","legacy","0","uniform","1","undefined","1","right","48","0","48","48","0","0","48","48","0","0","48","48","48","48","0","10/02/18 14:26:58","The main experiment item","yes","Sternbergtask.osexp","C:/Users/hawkm/OneDrive/Desktop/Tarleton school stuff/Fall 2018/Advanced Quantitative Methods/Lab 2","no","mono","no","18","no","white","no","yes","768","legacy","36","11","C:/Users/hawkm/OneDrive/Desktop/Tarleton school stuff/Fall 2018/Advanced Quantitative Methods/Lab 2/Hawk-subject-1.csv","legacy","9 5 3 2 8 6","Kafkaesque Koffka","3.2.5","0","n","0","right","space","left","right","NA","703","243778","22718","703","NA","2","legacy","6","1024","2","48000","-16","experiment","1","odd","7","586455","248379","583051","584242","4586","358421","584245","533276","4590","335702","588461","589165","585249","588460","NA","Sternberg task","36","47991","49","yes","1024"
"72","72","973.7","973.7","black","experiment","legacy","legacy","legacy","0","uniform","0","undefined","0","right","49","0","49","49","0","0","49","49","0","0","49","49","49","49","0","10/02/18 14:26:58","The main experiment item","yes","Sternbergtask.osexp","C:/Users/hawkm/OneDrive/Desktop/Tarleton school stuff/Fall 2018/Advanced Quantitative Methods/Lab 2","no","mono","no","18","no","white","no","yes","768","legacy","37","11","C:/Users/hawkm/OneDrive/Desktop/Tarleton school stuff/Fall 2018/Advanced Quantitative Methods/Lab 2/Hawk-subject-1.csv","legacy","3 9 8 1 6 4","Kafkaesque Koffka","3.2.5","0","n","0","left","space","left","left","NA","694","243778","22718","694","NA","2","legacy","6","1024","2","48000","-16","experiment","1","odd","7","592575","248379","589211","590363","4586","358421","590365","533276","4590","335702","594580","595274","591370","594580","NA","Sternberg task","36","48685","50","yes","1024"
"70.5882352941","70.5882352941","965.68627451","965.68627451","black","experiment","legacy","legacy","legacy","0","uniform","0","undefined","0","right","50","0","50","50","0","0","50","50","0","0","50","50","50","50","0","10/02/18 14:26:58","The main experiment item","yes","Sternbergtask.osexp","C:/Users/hawkm/OneDrive/Desktop/Tarleton school stuff/Fall 2018/Advanced Quantitative Methods/Lab 2","no","mono","no","18","no","white","no","yes","768","legacy","38","11","C:/Users/hawkm/OneDrive/Desktop/Tarleton school stuff/Fall 2018/Advanced Quantitative Methods/Lab 2/Hawk-subject-1.csv","legacy","3 4 9 6 7 8","Kafkaesque Koffka","3.2.5","0","n","0","left","space","left","left","NA","565","243778","22718","565","NA","2","legacy","6","1024","2","48000","-16","experiment","1","odd","2","598694","248379","589211","596482","4586","358421","596484","595317","4590","335702","600699","601265","597488","600699","NA","Sternberg task","36","49250","51","yes","1024"
"71.1538461538","71.1538461538","957.115384615","957.115384615","black","experiment","legacy","legacy","legacy","0","uniform","1","undefined","1","left","51","0","51","51","0","0","51","51","0","0","51","51","51","51","0","10/02/18 14:26:58","The main experiment item","yes","Sternbergtask.osexp","C:/Users/hawkm/OneDrive/Desktop/Tarleton school stuff/Fall 2018/Advanced Quantitative Methods/Lab 2","no","mono","no","18","no","white","no","yes","768","legacy","39","11","C:/Users/hawkm/OneDrive/Desktop/Tarleton school stuff/Fall 2018/Advanced Quantitative Methods/Lab 2/Hawk-subject-1.csv","legacy","7","Kafkaesque Koffka","3.2.5","1","y","0","left","space","left","left","NA","520","243778","22718","520","NA","2","legacy","1","1024","2","48000","-16","experiment","1","odd","7","604639","248379","589211","602427","4586","358421","602428","601285","4590","335702","606644","607165","603433","606643","NA","Sternberg task","37","49770","52","yes","1024"
"69.8113207547","69.8113207547","952","952","black","experiment","legacy","legacy","legacy","0","uniform","0","undefined","0","left","52","0","52","52","0","0","52","52","0","0","52","52","52","52","0","10/02/18 14:26:58","The main experiment item","yes","Sternbergtask.osexp","C:/Users/hawkm/OneDrive/Desktop/Tarleton school stuff/Fall 2018/Advanced Quantitative Methods/Lab 2","no","mono","no","18","no","white","no","yes","768","legacy","40","11","C:/Users/hawkm/OneDrive/Desktop/Tarleton school stuff/Fall 2018/Advanced Quantitative Methods/Lab 2/Hawk-subject-1.csv","legacy","2 4 8 5 1 3","Kafkaesque Koffka","3.2.5","1","y","0","right","space","left","right","NA","686","243778","22718","686","NA","2","legacy","6","1024","2","48000","-16","experiment","1","odd","2","610653","248379","607295","608440","4586","358421","608442","601285","4590","335702","612659","613346","609447","612659","NA","Sternberg task","37","50456","53","yes","1024"
"70.3703703704","70.3703703704","946.333333333","946.333333333","black","experiment","legacy","legacy","legacy","0","uniform","1","undefined","1","right","53","0","53","53","0","0","53","53","0","0","53","53","53","53","0","10/02/18 14:26:58","The main experiment item","yes","Sternbergtask.osexp","C:/Users/hawkm/OneDrive/Desktop/Tarleton school stuff/Fall 2018/Advanced Quantitative Methods/Lab 2","no","mono","no","18","no","white","no","yes","768","legacy","41","11","C:/Users/hawkm/OneDrive/Desktop/Tarleton school stuff/Fall 2018/Advanced Quantitative Methods/Lab 2/Hawk-subject-1.csv","legacy","1 8 7","Kafkaesque Koffka","3.2.5","0","n","0","right","space","left","right","NA","646","243778","22718","646","NA","2","legacy","3","1024","2","48000","-16","experiment","1","odd","4","616824","248379","607295","614614","4586","358421","614616","613469","4590","335702","618829","619476","615620","618829","NA","Sternberg task","38","51102","54","yes","1024"
"70.9090909091","70.9090909091","945.036363636","945.036363636","black","experiment","legacy","legacy","legacy","0","uniform","1","undefined","1","left","54","0","54","54","0","0","54","54","0","0","54","54","54","54","0","10/02/18 14:26:58","The main experiment item","yes","Sternbergtask.osexp","C:/Users/hawkm/OneDrive/Desktop/Tarleton school stuff/Fall 2018/Advanced Quantitative Methods/Lab 2","no","mono","no","18","no","white","no","yes","768","legacy","42","11","C:/Users/hawkm/OneDrive/Desktop/Tarleton school stuff/Fall 2018/Advanced Quantitative Methods/Lab 2/Hawk-subject-1.csv","legacy","6 9 7 4 5 1","Kafkaesque Koffka","3.2.5","2","y","0","left","space","left","left","NA","875","243778","22718","875","NA","2","legacy","6","1024","2","48000","-16","experiment","1","odd","9","622905","248379","619522","620694","4586","358421","620695","613469","4590","335702","624910","625786","621700","624910","NA","Sternberg task","39","51977","55","yes","1024"
"71.4285714286","71.4285714286","951.982142857","951.982142857","black","experiment","legacy","legacy","legacy","0","uniform","1","undefined","1","right","55","0","55","55","0","0","55","55","0","0","55","55","55","55","0","10/02/18 14:26:58","The main experiment item","yes","Sternbergtask.osexp","C:/Users/hawkm/OneDrive/Desktop/Tarleton school stuff/Fall 2018/Advanced Quantitative Methods/Lab 2","no","mono","no","18","no","white","no","yes","768","legacy","43","11","C:/Users/hawkm/OneDrive/Desktop/Tarleton school stuff/Fall 2018/Advanced Quantitative Methods/Lab 2/Hawk-subject-1.csv","legacy","1 5 3 2 8","Kafkaesque Koffka","3.2.5","0","n","0","right","space","left","right","NA","1334","243778","22718","1334","NA","2","legacy","5","1024","2","48000","-16","experiment","1","odd","4","629185","248379","625831","626972","4586","358421","626974","613469","4590","335702","631191","632526","627980","631191","NA","Sternberg task","40","53311","56","yes","1024"
"70.1754385965","70.1754385965","955.473684211","955.473684211","black","experiment","legacy","legacy","legacy","0","uniform","0","undefined","0","right","56","0","56","56","0","0","56","56","0","0","56","56","56","56","0","10/02/18 14:26:58","The main experiment item","yes","Sternbergtask.osexp","C:/Users/hawkm/OneDrive/Desktop/Tarleton school stuff/Fall 2018/Advanced Quantitative Methods/Lab 2","no","mono","no","18","no","white","no","yes","768","legacy","44","11","C:/Users/hawkm/OneDrive/Desktop/Tarleton school stuff/Fall 2018/Advanced Quantitative Methods/Lab 2/Hawk-subject-1.csv","legacy","1 7 5 2","Kafkaesque Koffka","3.2.5","0","n","0","left","space","left","left","NA","1151","243778","22718","1151","NA","2","legacy","4","1024","2","48000","-16","experiment","1","odd","3","635929","248379","632573","633719","4586","358421","633720","613469","4590","335702","637934","639086","634724","637934","NA","Sternberg task","40","54462","57","yes","1024"
"68.9655172414","68.9655172414","956.396551724","956.396551724","black","experiment","legacy","legacy","legacy","0","uniform","0","undefined","0","left","57","0","57","57","0","0","57","57","0","0","57","57","57","57","0","10/02/18 14:26:58","The main experiment item","yes","Sternbergtask.osexp","C:/Users/hawkm/OneDrive/Desktop/Tarleton school stuff/Fall 2018/Advanced Quantitative Methods/Lab 2","no","mono","no","18","no","white","no","yes","768","legacy","45","11","C:/Users/hawkm/OneDrive/Desktop/Tarleton school stuff/Fall 2018/Advanced Quantitative Methods/Lab 2/Hawk-subject-1.csv","legacy","2 4 6 9","Kafkaesque Koffka","3.2.5","3","y","0","right","space","left","right","NA","1009","243778","22718","1009","NA","2","legacy","4","1024","2","48000","-16","experiment","1","odd","6","642491","248379","632573","640280","4586","358421","640281","639134","4590","335702","644496","645506","641286","644496","NA","Sternberg task","40","55471","58","yes","1024"
"69.4915254237","69.4915254237","955.338983051","955.338983051","black","experiment","legacy","legacy","legacy","0","uniform","1","undefined","1","right","58","0","58","58","0","0","58","58","0","0","58","58","58","58","0","10/02/18 14:26:58","The main experiment item","yes","Sternbergtask.osexp","C:/Users/hawkm/OneDrive/Desktop/Tarleton school stuff/Fall 2018/Advanced Quantitative Methods/Lab 2","no","mono","no","18","no","white","no","yes","768","legacy","46","11","C:/Users/hawkm/OneDrive/Desktop/Tarleton school stuff/Fall 2018/Advanced Quantitative Methods/Lab 2/Hawk-subject-1.csv","legacy","6 8","Kafkaesque Koffka","3.2.5","0","n","0","right","space","left","right","NA","894","243778","22718","894","NA","2","legacy","2","1024","2","48000","-16","experiment","1","odd","9","648917","248379","632573","646705","4586","358421","646707","645557","4590","335702","650921","651815","647712","650921","NA","Sternberg task","41","56365","59","yes","1024"
"70","70","954.833333333","954.833333333","black","experiment","legacy","legacy","legacy","0","uniform","1","undefined","1","left","59","0","59","59","0","0","59","59","0","0","59","59","59","59","0","10/02/18 14:26:58","The main experiment item","yes","Sternbergtask.osexp","C:/Users/hawkm/OneDrive/Desktop/Tarleton school stuff/Fall 2018/Advanced Quantitative Methods/Lab 2","no","mono","no","18","no","white","no","yes","768","legacy","47","11","C:/Users/hawkm/OneDrive/Desktop/Tarleton school stuff/Fall 2018/Advanced Quantitative Methods/Lab 2/Hawk-subject-1.csv","legacy","8 7 3","Kafkaesque Koffka","3.2.5","1","y","0","left","space","left","left","NA","925","243778","22718","925","NA","2","legacy","3","1024","2","48000","-16","experiment","1","odd","8","655177","248379","651821","652966","4586","358421","652967","645557","4590","335702","657181","658107","653972","657181","NA","Sternberg task","42","57290","60","yes","1024"
"70.4918032787","70.4918032787","952.131147541","952.131147541","black","experiment","legacy","legacy","legacy","0","uniform","1","undefined","1","right","60","0","60","60","0","0","60","60","0","0","60","60","60","60","0","10/02/18 14:26:58","The main experiment item","yes","Sternbergtask.osexp","C:/Users/hawkm/OneDrive/Desktop/Tarleton school stuff/Fall 2018/Advanced Quantitative Methods/Lab 2","no","mono","no","18","no","white","no","yes","768","legacy","48","11","C:/Users/hawkm/OneDrive/Desktop/Tarleton school stuff/Fall 2018/Advanced Quantitative Methods/Lab 2/Hawk-subject-1.csv","legacy","3 4 2","Kafkaesque Koffka","3.2.5","0","n","0","right","space","left","right","NA","790","243778","22718","790","NA","2","legacy","3","1024","2","48000","-16","experiment","1","odd","5","661601","248379","658245","659391","4586","358421","659393","645557","4590","335702","663606","664397","660398","663606","NA","Sternberg task","43","58080","61","yes","1024"
"70.9677419355","70.9677419355","948.838709677","948.838709677","black","experiment","legacy","legacy","legacy","0","uniform","1","undefined","1","left","61","0","61","61","0","0","61","61","0","0","61","61","61","61","0","10/02/18 14:26:58","The main experiment item","yes","Sternbergtask.osexp","C:/Users/hawkm/OneDrive/Desktop/Tarleton school stuff/Fall 2018/Advanced Quantitative Methods/Lab 2","no","mono","no","18","no","white","no","yes","768","legacy","49","11","C:/Users/hawkm/OneDrive/Desktop/Tarleton school stuff/Fall 2018/Advanced Quantitative Methods/Lab 2/Hawk-subject-1.csv","legacy","8 5 1 3 9","Kafkaesque Koffka","3.2.5","4","y","0","left","space","left","left","NA","748","243778","22718","748","NA","2","legacy","5","1024","2","48000","-16","experiment","1","odd","3","667833","248379","664442","665621","4586","358421","665623","645557","4590","335702","669838","670588","666628","669838","NA","Sternberg task","44","58828","62","yes","1024"
"71.4285714286","71.4285714286","944.619047619","944.619047619","black","experiment","legacy","legacy","legacy","0","uniform","1","undefined","1","right","62","0","62","62","0","0","62","62","0","0","62","62","62","62","0","10/02/18 14:26:58","The main experiment item","yes","Sternbergtask.osexp","C:/Users/hawkm/OneDrive/Desktop/Tarleton school stuff/Fall 2018/Advanced Quantitative Methods/Lab 2","no","mono","no","18","no","white","no","yes","768","legacy","50","11","C:/Users/hawkm/OneDrive/Desktop/Tarleton school stuff/Fall 2018/Advanced Quantitative Methods/Lab 2/Hawk-subject-1.csv","legacy","4 8 1 2","Kafkaesque Koffka","3.2.5","0","n","0","right","space","left","right","NA","683","243778","22718","683","NA","2","legacy","4","1024","2","48000","-16","experiment","1","odd","7","674037","248379","670634","671826","4586","358421","671828","645557","4590","335702","676043","676727","672832","676042","NA","Sternberg task","45","59511","63","yes","1024"
"71.875","71.875","945.734375","945.734375","black","experiment","legacy","legacy","legacy","0","uniform","1","undefined","1","left","63","0","63","63","0","0","63","63","0","0","63","63","63","63","0","10/02/18 14:26:58","The main experiment item","yes","Sternbergtask.osexp","C:/Users/hawkm/OneDrive/Desktop/Tarleton school stuff/Fall 2018/Advanced Quantitative Methods/Lab 2","no","mono","no","18","no","white","no","yes","768","legacy","51","11","C:/Users/hawkm/OneDrive/Desktop/Tarleton school stuff/Fall 2018/Advanced Quantitative Methods/Lab 2/Hawk-subject-1.csv","legacy","4 6 2 5 1","Kafkaesque Koffka","3.2.5","5","y","0","left","space","left","left","NA","1016","243778","22718","1016","NA","2","legacy","5","1024","2","48000","-16","experiment","1","odd","1","680124","248379","676772","677912","4586","358421","677913","645557","4590","335702","682130","683147","678918","682129","NA","Sternberg task","46","60527","64","yes","1024"
"70.7692307692","70.7692307692","945.769230769","945.769230769","black","experiment","legacy","legacy","legacy","0","uniform","0","undefined","0","left","64","0","64","64","0","0","64","64","0","0","64","64","64","64","0","10/02/18 14:26:58","The main experiment item","yes","Sternbergtask.osexp","C:/Users/hawkm/OneDrive/Desktop/Tarleton school stuff/Fall 2018/Advanced Quantitative Methods/Lab 2","no","mono","no","18","no","white","no","yes","768","legacy","52","11","C:/Users/hawkm/OneDrive/Desktop/Tarleton school stuff/Fall 2018/Advanced Quantitative Methods/Lab 2/Hawk-subject-1.csv","legacy","9 5 8 1","Kafkaesque Koffka","3.2.5","2","y","0","right","space","left","right","NA","948","243778","22718","948","NA","2","legacy","4","1024","2","48000","-16","experiment","1","odd","5","686553","248379","683193","684341","4586","358421","684342","645557","4590","335702","688557","689507","685348","688557","NA","Sternberg task","46","61475","65","yes","1024"
"71.2121212121","71.2121212121","937.106060606","937.106060606","black","experiment","legacy","legacy","legacy","0","uniform","1","undefined","1","left","65","0","65","65","0","0","65","65","0","0","65","65","65","65","0","10/02/18 14:26:58","The main experiment item","yes","Sternbergtask.osexp","C:/Users/hawkm/OneDrive/Desktop/Tarleton school stuff/Fall 2018/Advanced Quantitative Methods/Lab 2","no","mono","no","18","no","white","no","yes","768","legacy","53","11","C:/Users/hawkm/OneDrive/Desktop/Tarleton school stuff/Fall 2018/Advanced Quantitative Methods/Lab 2/Hawk-subject-1.csv","legacy","8 1 6","Kafkaesque Koffka","3.2.5","3","y","0","left","space","left","left","NA","374","243778","22718","374","NA","2","legacy","3","1024","2","48000","-16","experiment","1","odd","6","692957","248379","683193","690746","4586","358421","690747","689556","4590","335702","694962","695338","691752","694961","NA","Sternberg task","47","61849","66","yes","1024"
"71.6417910448","71.6417910448","931.626865672","931.626865672","black","experiment","legacy","legacy","legacy","0","uniform","1","undefined","1","right","66","0","66","66","0","0","66","66","0","0","66","66","66","66","0","10/02/18 14:26:58","The main experiment item","yes","Sternbergtask.osexp","C:/Users/hawkm/OneDrive/Desktop/Tarleton school stuff/Fall 2018/Advanced Quantitative Methods/Lab 2","no","mono","no","18","no","white","no","yes","768","legacy","54","11","C:/Users/hawkm/OneDrive/Desktop/Tarleton school stuff/Fall 2018/Advanced Quantitative Methods/Lab 2/Hawk-subject-1.csv","legacy","5","Kafkaesque Koffka","3.2.5","0","n","0","right","space","left","right","NA","570","243778","22718","570","NA","2","legacy","1","1024","2","48000","-16","experiment","1","odd","8","698741","248379","695382","696529","4586","358421","696530","689556","4590","335702","700746","701318","697535","700746","NA","Sternberg task","48","62419","67","yes","1024"
"70.5882352941","70.5882352941","940.617647059","940.617647059","black","experiment","legacy","legacy","legacy","0","uniform","0","undefined","0","right","67","0","67","67","0","0","67","67","0","0","67","67","67","67","0","10/02/18 14:26:58","The main experiment item","yes","Sternbergtask.osexp","C:/Users/hawkm/OneDrive/Desktop/Tarleton school stuff/Fall 2018/Advanced Quantitative Methods/Lab 2","no","mono","no","18","no","white","no","yes","768","legacy","55","11","C:/Users/hawkm/OneDrive/Desktop/Tarleton school stuff/Fall 2018/Advanced Quantitative Methods/Lab 2/Hawk-subject-1.csv","legacy","7 6 4 8 1 2","Kafkaesque Koffka","3.2.5","0","n","0","left","space","left","left","NA","1543","243778","22718","1543","NA","2","legacy","6","1024","2","48000","-16","experiment","1","odd","9","704729","248379","701365","702516","4586","358421","702517","689556","4590","335702","706734","708278","703523","706733","NA","Sternberg task","48","63962","68","yes","1024"
"71.0144927536","71.0144927536","941.434782609","941.434782609","black","experiment","legacy","legacy","legacy","0","uniform","1","undefined","1","right","68","0","68","68","0","0","68","68","0","0","68","68","68","68","0","10/02/18 14:26:58","The main experiment item","yes","Sternbergtask.osexp","C:/Users/hawkm/OneDrive/Desktop/Tarleton school stuff/Fall 2018/Advanced Quantitative Methods/Lab 2","no","mono","no","18","no","white","no","yes","768","legacy","56","11","C:/Users/hawkm/OneDrive/Desktop/Tarleton school stuff/Fall 2018/Advanced Quantitative Methods/Lab 2/Hawk-subject-1.csv","legacy","1 7 5 2 9","Kafkaesque Koffka","3.2.5","0","n","0","right","space","left","right","NA","997","243778","22718","997","NA","2","legacy","5","1024","2","48000","-16","experiment","1","odd","3","711685","248379","701365","709474","4586","358421","709475","708326","4590","335702","713690","714688","710480","713690","NA","Sternberg task","49","64959","69","yes","1024"
"71.4285714286","71.4285714286","941.442857143","941.442857143","black","experiment","legacy","legacy","legacy","0","uniform","1","undefined","1","right","69","0","69","69","0","0","69","69","0","0","69","69","69","69","0","10/02/18 14:26:58","The main experiment item","yes","Sternbergtask.osexp","C:/Users/hawkm/OneDrive/Desktop/Tarleton school stuff/Fall 2018/Advanced Quantitative Methods/Lab 2","no","mono","no","18","no","white","no","yes","768","legacy","57","11","C:/Users/hawkm/OneDrive/Desktop/Tarleton school stuff/Fall 2018/Advanced Quantitative Methods/Lab 2/Hawk-subject-1.csv","legacy","2 5 1 4","Kafkaesque Koffka","3.2.5","0","n","0","right","space","left","right","NA","942","243778","22718","942","NA","2","legacy","4","1024","2","48000","-16","experiment","1","odd","6","718090","248379","714736","715877","4586","358421","715879","708326","4590","335702","720095","721038","716884","720094","NA","Sternberg task","50","65901","70","yes","1024"
"71.8309859155","71.8309859155","937.746478873","937.746478873","black","experiment","legacy","legacy","legacy","0","uniform","1","undefined","1","left","70","0","70","70","0","0","70","70","0","0","70","70","70","70","0","10/02/18 14:26:58","The main experiment item","yes","Sternbergtask.osexp","C:/Users/hawkm/OneDrive/Desktop/Tarleton school stuff/Fall 2018/Advanced Quantitative Methods/Lab 2","no","mono","no","18","no","white","no","yes","768","legacy","58","11","C:/Users/hawkm/OneDrive/Desktop/Tarleton school stuff/Fall 2018/Advanced Quantitative Methods/Lab 2/Hawk-subject-1.csv","legacy","9 5 3 8 4","Kafkaesque Koffka","3.2.5","1","y","0","left","space","left","left","NA","679","243778","22718","679","NA","2","legacy","5","1024","2","48000","-16","experiment","1","odd","9","724473","248379","721054","722259","4586","358421","722261","708326","4590","335702","726478","727158","723267","726477","NA","Sternberg task","51","66580","71","yes","1024"
"70.8333333333","70.8333333333","939.361111111","939.361111111","black","experiment","legacy","legacy","legacy","0","uniform","0","undefined","0","right","71","0","71","71","0","0","71","71","0","0","71","71","71","71","0","10/02/18 14:26:58","The main experiment item","yes","Sternbergtask.osexp","C:/Users/hawkm/OneDrive/Desktop/Tarleton school stuff/Fall 2018/Advanced Quantitative Methods/Lab 2","no","mono","no","18","no","white","no","yes","768","legacy","59","11","C:/Users/hawkm/OneDrive/Desktop/Tarleton school stuff/Fall 2018/Advanced Quantitative Methods/Lab 2/Hawk-subject-1.csv","legacy","5 3 2 6 9 8","Kafkaesque Koffka","3.2.5","0","n","0","left","space","left","left","NA","1054","243778","22718","1054","NA","2","legacy","6","1024","2","48000","-16","experiment","1","odd","4","730548","248379","727200","728337","4586","358421","728338","708326","4590","335702","732553","733608","729343","732553","NA","Sternberg task","51","67634","72","yes","1024"
"69.8630136986","69.8630136986","933.342465753","933.342465753","black","experiment","legacy","legacy","legacy","0","uniform","0","undefined","0","right","72","0","72","72","0","0","72","72","0","0","72","72","72","72","0","10/02/18 14:26:58","The main experiment item","yes","Sternbergtask.osexp","C:/Users/hawkm/OneDrive/Desktop/Tarleton school stuff/Fall 2018/Advanced Quantitative Methods/Lab 2","no","mono","no","18","no","white","no","yes","768","legacy","60","11","C:/Users/hawkm/OneDrive/Desktop/Tarleton school stuff/Fall 2018/Advanced Quantitative Methods/Lab 2/Hawk-subject-1.csv","legacy","4 2 7 6 1 3","Kafkaesque Koffka","3.2.5","0","n","0","left","space","left","left","NA","500","243778","22718","500","NA","2","legacy","6","1024","2","48000","-16","experiment","1","odd","8","737002","248379","727200","734790","4586","358421","734792","733652","4590","335702","739007","739509","735797","739007","NA","Sternberg task","51","68134","73","yes","1024"
"70.2702702703","70.2702702703","926.972972973","926.972972973","black","experiment","legacy","legacy","legacy","0","uniform","1","undefined","1","left","73","0","73","73","0","0","73","73","0","0","73","73","73","73","0","10/02/18 14:26:58","The main experiment item","yes","Sternbergtask.osexp","C:/Users/hawkm/OneDrive/Desktop/Tarleton school stuff/Fall 2018/Advanced Quantitative Methods/Lab 2","no","mono","no","18","no","white","no","yes","768","legacy","61","11","C:/Users/hawkm/OneDrive/Desktop/Tarleton school stuff/Fall 2018/Advanced Quantitative Methods/Lab 2/Hawk-subject-1.csv","legacy","7 1 8 5 6 2","Kafkaesque Koffka","3.2.5","2","y","0","left","space","left","left","NA","462","243778","22718","462","NA","2","legacy","6","1024","2","48000","-16","experiment","1","odd","1","742917","248379","727200","740706","4586","358421","740708","739558","4590","335702","744925","745388","741713","744923","NA","Sternberg task","52","68596","74","yes","1024"
"69.3333333333","69.3333333333","926.826666667","926.826666667","black","experiment","legacy","legacy","legacy","0","uniform","0","undefined","0","right","74","0","74","74","0","0","74","74","0","0","74","74","74","74","0","10/02/18 14:26:58","The main experiment item","yes","Sternbergtask.osexp","C:/Users/hawkm/OneDrive/Desktop/Tarleton school stuff/Fall 2018/Advanced Quantitative Methods/Lab 2","no","mono","no","18","no","white","no","yes","768","legacy","62","11","C:/Users/hawkm/OneDrive/Desktop/Tarleton school stuff/Fall 2018/Advanced Quantitative Methods/Lab 2/Hawk-subject-1.csv","legacy","8 5 4 2 9 6","Kafkaesque Koffka","3.2.5","0","n","0","left","space","left","left","NA","916","243778","22718","916","NA","2","legacy","6","1024","2","48000","-16","experiment","1","odd","3","748826","248379","745438","746615","4586","358421","746617","739558","4590","335702","750831","751748","747622","750831","NA","Sternberg task","52","69512","75","yes","1024"
"69.7368421053","69.7368421053","924.697368421","924.697368421","black","experiment","legacy","legacy","legacy","0","uniform","1","undefined","1","left","75","0","75","75","0","0","75","75","0","0","75","75","75","75","0","10/02/18 14:26:58","The main experiment item","yes","Sternbergtask.osexp","C:/Users/hawkm/OneDrive/Desktop/Tarleton school stuff/Fall 2018/Advanced Quantitative Methods/Lab 2","no","mono","no","18","no","white","no","yes","768","legacy","63","11","C:/Users/hawkm/OneDrive/Desktop/Tarleton school stuff/Fall 2018/Advanced Quantitative Methods/Lab 2/Hawk-subject-1.csv","legacy","7 8 6 3 1","Kafkaesque Koffka","3.2.5","5","y","0","left","space","left","left","NA","765","243778","22718","765","NA","2","legacy","5","1024","2","48000","-16","experiment","1","odd","1","755178","248379","745438","752967","4586","358421","752968","751793","4590","335702","757183","757948","753973","757183","NA","Sternberg task","53","70277","76","yes","1024"
"70.1298701299","70.1298701299","922.779220779","922.779220779","black","experiment","legacy","legacy","legacy","0","uniform","1","undefined","1","left","76","0","76","76","0","0","76","76","0","0","76","76","76","76","0","10/02/18 14:26:58","The main experiment item","yes","Sternbergtask.osexp","C:/Users/hawkm/OneDrive/Desktop/Tarleton school stuff/Fall 2018/Advanced Quantitative Methods/Lab 2","no","mono","no","18","no","white","no","yes","768","legacy","64","11","C:/Users/hawkm/OneDrive/Desktop/Tarleton school stuff/Fall 2018/Advanced Quantitative Methods/Lab 2/Hawk-subject-1.csv","legacy","4 1 5","Kafkaesque Koffka","3.2.5","2","y","0","left","space","left","left","NA","777","243778","22718","777","NA","2","legacy","3","1024","2","48000","-16","experiment","1","odd","1","761356","248379","757995","759142","4586","358421","759144","751793","4590","335702","763361","764139","760150","763361","NA","Sternberg task","54","71054","77","yes","1024"
"70.5128205128","70.5128205128","921.91025641","921.91025641","black","experiment","legacy","legacy","legacy","0","uniform","1","undefined","1","left","77","0","77","77","0","0","77","77","0","0","77","77","77","77","0","10/02/18 14:26:58","The main experiment item","yes","Sternbergtask.osexp","C:/Users/hawkm/OneDrive/Desktop/Tarleton school stuff/Fall 2018/Advanced Quantitative Methods/Lab 2","no","mono","no","18","no","white","no","yes","768","legacy","65","11","C:/Users/hawkm/OneDrive/Desktop/Tarleton school stuff/Fall 2018/Advanced Quantitative Methods/Lab 2/Hawk-subject-1.csv","legacy","5 2 9 6 1 7","Kafkaesque Koffka","3.2.5","3","y","0","left","space","left","left","NA","855","243778","22718","855","NA","2","legacy","6","1024","2","48000","-16","experiment","1","odd","9","767539","248379","764182","765328","4586","358421","765330","751793","4590","335702","769543","770398","766334","769543","NA","Sternberg task","55","71909","78","yes","1024"
"70.8860759494","70.8860759494","920.113924051","920.113924051","black","experiment","legacy","legacy","legacy","0","uniform","1","undefined","1","right","78","0","78","78","0","0","78","78","0","0","78","78","78","78","0","10/02/18 14:26:58","The main experiment item","yes","Sternbergtask.osexp","C:/Users/hawkm/OneDrive/Desktop/Tarleton school stuff/Fall 2018/Advanced Quantitative Methods/Lab 2","no","mono","no","18","no","white","no","yes","768","legacy","66","11","C:/Users/hawkm/OneDrive/Desktop/Tarleton school stuff/Fall 2018/Advanced Quantitative Methods/Lab 2/Hawk-subject-1.csv","legacy","7 3 2 8","Kafkaesque Koffka","3.2.5","0","n","0","right","space","left","right","NA","780","243778","22718","780","NA","2","legacy","4","1024","2","48000","-16","experiment","1","odd","4","773793","248379","770443","771581","4586","358421","771583","751793","4590","335702","775798","776580","772588","775797","NA","Sternberg task","56","72689","79","yes","1024"
"70","70","922.7375","922.7375","black","experiment","legacy","legacy","legacy","0","uniform","0","undefined","0","right","79","0","79","79","0","0","79","79","0","0","79","79","79","79","0","10/02/18 14:26:58","The main experiment item","yes","Sternbergtask.osexp","C:/Users/hawkm/OneDrive/Desktop/Tarleton school stuff/Fall 2018/Advanced Quantitative Methods/Lab 2","no","mono","no","18","no","white","no","yes","768","legacy","67","11","C:/Users/hawkm/OneDrive/Desktop/Tarleton school stuff/Fall 2018/Advanced Quantitative Methods/Lab 2/Hawk-subject-1.csv","legacy","6 9 4 5 2","Kafkaesque Koffka","3.2.5","0","n","0","left","space","left","left","NA","1130","243778","22718","1130","NA","2","legacy","5","1024","2","48000","-16","experiment","1","odd","1","779993","248379","776627","777781","4586","358421","777783","751793","4590","335702","781998","783129","778788","781998","NA","Sternberg task","56","73819","80","yes","1024"
"70.3703703704","70.3703703704","916.012345679","916.012345679","black","experiment","legacy","legacy","legacy","0","uniform","1","undefined","1","left","80","0","80","80","0","0","80","80","0","0","80","80","80","80","0","10/02/18 14:26:58","The main experiment item","yes","Sternbergtask.osexp","C:/Users/hawkm/OneDrive/Desktop/Tarleton school stuff/Fall 2018/Advanced Quantitative Methods/Lab 2","no","mono","no","18","no","white","no","yes","768","legacy","68","11","C:/Users/hawkm/OneDrive/Desktop/Tarleton school stuff/Fall 2018/Advanced Quantitative Methods/Lab 2/Hawk-subject-1.csv","legacy","7 4 2 6 3 5","Kafkaesque Koffka","3.2.5","6","y","0","left","space","left","left","NA","378","243778","22718","378","NA","2","legacy","6","1024","2","48000","-16","experiment","1","odd","5","786524","248379","776627","784313","4586","358421","784314","783176","4590","335702","788529","788909","785319","788529","NA","Sternberg task","57","74197","81","yes","1024"
"70.7317073171","70.7317073171","916.817073171","916.817073171","black","experiment","legacy","legacy","legacy","0","uniform","1","undefined","1","right","81","0","81","81","0","0","81","81","0","0","81","81","81","81","0","10/02/18 14:26:58","The main experiment item","yes","Sternbergtask.osexp","C:/Users/hawkm/OneDrive/Desktop/Tarleton school stuff/Fall 2018/Advanced Quantitative Methods/Lab 2","no","mono","no","18","no","white","no","yes","768","legacy","69","11","C:/Users/hawkm/OneDrive/Desktop/Tarleton school stuff/Fall 2018/Advanced Quantitative Methods/Lab 2/Hawk-subject-1.csv","legacy","2 3 8 5 6 7","Kafkaesque Koffka","3.2.5","0","n","0","right","space","left","right","NA","982","243778","22718","982","NA","2","legacy","6","1024","2","48000","-16","experiment","1","odd","1","792331","248379","788956","790119","4586","358421","790121","783176","4590","335702","794336","795319","791125","794335","NA","Sternberg task","58","75179","82","yes","1024"
"69.8795180723","69.8795180723","914.072289157","914.072289157","black","experiment","legacy","legacy","legacy","0","uniform","0","undefined","0","right","82","0","82","82","0","0","82","82","0","0","82","82","82","82","0","10/02/18 14:26:58","The main experiment item","yes","Sternbergtask.osexp","C:/Users/hawkm/OneDrive/Desktop/Tarleton school stuff/Fall 2018/Advanced Quantitative Methods/Lab 2","no","mono","no","18","no","white","no","yes","768","legacy","70","11","C:/Users/hawkm/OneDrive/Desktop/Tarleton school stuff/Fall 2018/Advanced Quantitative Methods/Lab 2/Hawk-subject-1.csv","legacy","8 2 1 4 5 9","Kafkaesque Koffka","3.2.5","0","n","0","left","space","left","left","NA","689","243778","22718","689","NA","2","legacy","6","1024","2","48000","-16","experiment","1","odd","7","798715","248379","795365","796504","4586","358421","796506","783176","4590","335702","800720","801410","797510","800720","NA","Sternberg task","58","75868","83","yes","1024"
"69.0476190476","69.0476190476","920.416666667","920.416666667","black","experiment","legacy","legacy","legacy","0","uniform","0","undefined","0","left","83","0","83","83","0","0","83","83","0","0","83","83","83","83","0","10/02/18 14:26:58","The main experiment item","yes","Sternbergtask.osexp","C:/Users/hawkm/OneDrive/Desktop/Tarleton school stuff/Fall 2018/Advanced Quantitative Methods/Lab 2","no","mono","no","18","no","white","no","yes","768","legacy","71","11","C:/Users/hawkm/OneDrive/Desktop/Tarleton school stuff/Fall 2018/Advanced Quantitative Methods/Lab 2/Hawk-subject-1.csv","legacy","3 2 1 4 7","Kafkaesque Koffka","3.2.5","2","y","0","right","space","left","right","NA","1447","243778","22718","1447","NA","2","legacy","5","1024","2","48000","-16","experiment","1","odd","2","804857","248379","795365","802646","4586","358421","802648","801497","4590","335702","806862","808310","803652","806862","NA","Sternberg task","58","77315","84","yes","1024"
"69.4117647059","69.4117647059","915.517647059","915.517647059","black","experiment","legacy","legacy","legacy","0","uniform","1","undefined","1","left","84","0","84","84","0","0","84","84","0","0","84","84","84","84","0","10/02/18 14:26:58","The main experiment item","yes","Sternbergtask.osexp","C:/Users/hawkm/OneDrive/Desktop/Tarleton school stuff/Fall 2018/Advanced Quantitative Methods/Lab 2","no","mono","no","18","no","white","no","yes","768","legacy","72","11","C:/Users/hawkm/OneDrive/Desktop/Tarleton school stuff/Fall 2018/Advanced Quantitative Methods/Lab 2/Hawk-subject-1.csv","legacy","9 1 6 7 8","Kafkaesque Koffka","3.2.5","1","y","0","left","space","left","left","NA","504","243778","22718","504","NA","2","legacy","5","1024","2","48000","-16","experiment","1","odd","9","811779","248379","795365","809568","4586","358421","809569","808393","4590","335702","813785","814290","810574","813785","NA","Sternberg task","59","77819","85","yes","1024"
"68.6046511628","68.6046511628","913.302325581","913.302325581","black","experiment","legacy","legacy","legacy","0","uniform","0","undefined","0","right","85","0","85","85","0","0","85","85","0","0","85","85","85","85","0","10/02/18 14:26:58","The main experiment item","yes","Sternbergtask.osexp","C:/Users/hawkm/OneDrive/Desktop/Tarleton school stuff/Fall 2018/Advanced Quantitative Methods/Lab 2","no","mono","no","18","no","white","no","yes","768","legacy","73","11","C:/Users/hawkm/OneDrive/Desktop/Tarleton school stuff/Fall 2018/Advanced Quantitative Methods/Lab 2/Hawk-subject-1.csv","legacy","5 3 8 7 2 4","Kafkaesque Koffka","3.2.5","0","n","0","left","space","left","left","NA","725","243778","22718","725","NA","2","legacy","6","1024","2","48000","-16","experiment","1","odd","9","817659","248379","814316","815448","4586","358421","815449","808393","4590","335702","819664","820390","816454","819664","NA","Sternberg task","59","78544","86","yes","1024"
"68.9655172414","68.9655172414","912.310344828","912.310344828","black","experiment","legacy","legacy","legacy","0","uniform","1","undefined","1","left","86","0","86","86","0","0","86","86","0","0","86","86","86","86","0","10/02/18 14:26:58","The main experiment item","yes","Sternbergtask.osexp","C:/Users/hawkm/OneDrive/Desktop/Tarleton school stuff/Fall 2018/Advanced Quantitative Methods/Lab 2","no","mono","no","18","no","white","no","yes","768","legacy","74","11","C:/Users/hawkm/OneDrive/Desktop/Tarleton school stuff/Fall 2018/Advanced Quantitative Methods/Lab 2/Hawk-subject-1.csv","legacy","6 7 8 5","Kafkaesque Koffka","3.2.5","3","y","0","left","space","left","left","NA","827","243778","22718","827","NA","2","legacy","4","1024","2","48000","-16","experiment","1","odd","8","823787","248379","814316","821574","4586","358421","821576","820432","4590","335702","825792","826620","822582","825792","NA","Sternberg task","60","79371","87","yes","1024"
"69.3181818182","69.3181818182","910.693181818","910.693181818","black","experiment","legacy","legacy","legacy","0","uniform","1","undefined","1","left","87","0","87","87","0","0","87","87","0","0","87","87","87","87","0","10/02/18 14:26:58","The main experiment item","yes","Sternbergtask.osexp","C:/Users/hawkm/OneDrive/Desktop/Tarleton school stuff/Fall 2018/Advanced Quantitative Methods/Lab 2","no","mono","no","18","no","white","no","yes","768","legacy","75","11","C:/Users/hawkm/OneDrive/Desktop/Tarleton school stuff/Fall 2018/Advanced Quantitative Methods/Lab 2/Hawk-subject-1.csv","legacy","3 4 9 6 2 9","Kafkaesque Koffka","3.2.5","5","y","0","left","space","left","left","NA","770","243778","22718","770","NA","2","legacy","6","1024","2","48000","-16","experiment","1","odd","2","830014","248379","826664","827805","4586","358421","827807","820432","4590","335702","832019","832791","828812","832019","NA","Sternberg task","61","80141","88","yes","1024"
"69.6629213483","69.6629213483","909.786516854","909.786516854","black","experiment","legacy","legacy","legacy","0","uniform","1","undefined","1","right","88","0","88","88","0","0","88","88","0","0","88","88","88","88","0","10/02/18 14:26:58","The main experiment item","yes","Sternbergtask.osexp","C:/Users/hawkm/OneDrive/Desktop/Tarleton school stuff/Fall 2018/Advanced Quantitative Methods/Lab 2","no","mono","no","18","no","white","no","yes","768","legacy","76","11","C:/Users/hawkm/OneDrive/Desktop/Tarleton school stuff/Fall 2018/Advanced Quantitative Methods/Lab 2/Hawk-subject-1.csv","legacy","7 8 6 1","Kafkaesque Koffka","3.2.5","0","n","0","right","space","left","right","NA","830","243778","22718","830","NA","2","legacy","4","1024","2","48000","-16","experiment","1","odd","3","836243","248379","832850","834031","4586","358421","834033","820432","4590","335702","838249","839080","835038","838249","NA","Sternberg task","62","80971","89","yes","1024"
"70","70","906.9","906.9","black","experiment","legacy","legacy","legacy","0","uniform","1","undefined","1","right","89","0","89","89","0","0","89","89","0","0","89","89","89","89","0","10/02/18 14:26:58","The main experiment item","yes","Sternbergtask.osexp","C:/Users/hawkm/OneDrive/Desktop/Tarleton school stuff/Fall 2018/Advanced Quantitative Methods/Lab 2","no","mono","no","18","no","white","no","yes","768","legacy","77","11","C:/Users/hawkm/OneDrive/Desktop/Tarleton school stuff/Fall 2018/Advanced Quantitative Methods/Lab 2/Hawk-subject-1.csv","legacy","1 7 8 3 9","Kafkaesque Koffka","3.2.5","0","n","0","right","space","left","right","NA","650","243778","22718","650","NA","2","legacy","5","1024","2","48000","-16","experiment","1","odd","2","842543","248379","839125","840330","4586","358421","840332","820432","4590","335702","844549","845200","841338","844548","NA","Sternberg task","63","81621","90","yes","1024"
"69.2307692308","69.2307692308","903.78021978","903.78021978","black","experiment","legacy","legacy","legacy","0","uniform","0","undefined","0","right","90","0","90","90","0","0","90","90","0","0","90","90","90","90","0","10/02/18 14:26:58","The main experiment item","yes","Sternbergtask.osexp","C:/Users/hawkm/OneDrive/Desktop/Tarleton school stuff/Fall 2018/Advanced Quantitative Methods/Lab 2","no","mono","no","18","no","white","no","yes","768","legacy","78","11","C:/Users/hawkm/OneDrive/Desktop/Tarleton school stuff/Fall 2018/Advanced Quantitative Methods/Lab 2/Hawk-subject-1.csv","legacy","7 1 5 6 3","Kafkaesque Koffka","3.2.5","0","n","0","left","space","left","left","NA","623","243778","22718","623","NA","2","legacy","5","1024","2","48000","-16","experiment","1","odd","8","848612","248379","845257","846402","4586","358421","846403","820432","4590","335702","850617","851241","847407","850617","NA","Sternberg task","63","82244","91","yes","1024"
"69.5652173913","69.5652173913","901.097826087","901.097826087","black","experiment","legacy","legacy","legacy","0","uniform","1","undefined","1","right","91","0","91","91","0","0","91","91","0","0","91","91","91","91","0","10/02/18 14:26:58","The main experiment item","yes","Sternbergtask.osexp","C:/Users/hawkm/OneDrive/Desktop/Tarleton school stuff/Fall 2018/Advanced Quantitative Methods/Lab 2","no","mono","no","18","no","white","no","yes","768","legacy","79","11","C:/Users/hawkm/OneDrive/Desktop/Tarleton school stuff/Fall 2018/Advanced Quantitative Methods/Lab 2/Hawk-subject-1.csv","legacy","1 4 9 3","Kafkaesque Koffka","3.2.5","0","n","0","right","space","left","right","NA","657","243778","22718","657","NA","2","legacy","4","1024","2","48000","-16","experiment","1","odd","5","854648","248379","845257","852436","4586","358421","852437","851287","4590","335702","856653","857312","853442","856653","NA","Sternberg task","64","82901","92","yes","1024"
"69.8924731183","69.8924731183","898.677419355","898.677419355","black","experiment","legacy","legacy","legacy","0","uniform","1","undefined","1","left","92","0","92","92","0","0","92","92","0","0","92","92","92","92","0","10/02/18 14:26:58","The main experiment item","yes","Sternbergtask.osexp","C:/Users/hawkm/OneDrive/Desktop/Tarleton school stuff/Fall 2018/Advanced Quantitative Methods/Lab 2","no","mono","no","18","no","white","no","yes","768","legacy","80","11","C:/Users/hawkm/OneDrive/Desktop/Tarleton school stuff/Fall 2018/Advanced Quantitative Methods/Lab 2/Hawk-subject-1.csv","legacy","5 7 8 2 3 8","Kafkaesque Koffka","3.2.5","5","y","0","left","space","left","left","NA","676","243778","22718","676","NA","2","legacy","6","1024","2","48000","-16","experiment","1","odd","3","860708","248379","857359","858496","4586","358421","858498","851287","4590","335702","862714","863391","859503","862714","NA","Sternberg task","65","83577","93","yes","1024"
"70.2127659574","70.2127659574","895.574468085","895.574468085","black","experiment","legacy","legacy","legacy","0","uniform","1","undefined","1","left","93","0","93","93","0","0","93","93","0","0","93","93","93","93","0","10/02/18 14:26:58","The main experiment item","yes","Sternbergtask.osexp","C:/Users/hawkm/OneDrive/Desktop/Tarleton school stuff/Fall 2018/Advanced Quantitative Methods/Lab 2","no","mono","no","18","no","white","no","yes","768","legacy","81","11","C:/Users/hawkm/OneDrive/Desktop/Tarleton school stuff/Fall 2018/Advanced Quantitative Methods/Lab 2/Hawk-subject-1.csv","legacy","9 3 1 2 5","Kafkaesque Koffka","3.2.5","4","y","0","left","space","left","left","NA","607","243778","22718","607","NA","2","legacy","5","1024","2","48000","-16","experiment","1","odd","2","866767","248379","863413","864553","4586","358421","864556","851287","4590","335702","868773","869381","865560","868772","NA","Sternberg task","66","84184","94","yes","1024"
"69.4736842105","69.4736842105","895.084210526","895.084210526","black","experiment","legacy","legacy","legacy","0","uniform","0","undefined","0","right","94","0","94","94","0","0","94","94","0","0","94","94","94","94","0","10/02/18 14:26:58","The main experiment item","yes","Sternbergtask.osexp","C:/Users/hawkm/OneDrive/Desktop/Tarleton school stuff/Fall 2018/Advanced Quantitative Methods/Lab 2","no","mono","no","18","no","white","no","yes","768","legacy","82","11","C:/Users/hawkm/OneDrive/Desktop/Tarleton school stuff/Fall 2018/Advanced Quantitative Methods/Lab 2/Hawk-subject-1.csv","legacy","1 3 2 6 9","Kafkaesque Koffka","3.2.5","0","n","0","left","space","left","left","NA","849","243778","22718","849","NA","2","legacy","5","1024","2","48000","-16","experiment","1","odd","5","872795","248379","869429","870583","4586","358421","870584","851287","4590","335702","874801","875652","871589","874800","NA","Sternberg task","66","85033","95","yes","1024"
"69.7916666667","69.7916666667","898.1875","898.1875","black","experiment","legacy","legacy","legacy","0","uniform","1","undefined","1","right","95","0","95","95","0","0","95","95","0","0","95","95","95","95","0","10/02/18 14:26:58","The main experiment item","yes","Sternbergtask.osexp","C:/Users/hawkm/OneDrive/Desktop/Tarleton school stuff/Fall 2018/Advanced Quantitative Methods/Lab 2","no","mono","no","18","no","white","no","yes","768","legacy","83","11","C:/Users/hawkm/OneDrive/Desktop/Tarleton school stuff/Fall 2018/Advanced Quantitative Methods/Lab 2/Hawk-subject-1.csv","legacy","7 4 2 8 1 9","Kafkaesque Koffka","3.2.5","0","n","0","right","space","left","right","NA","1193","243778","22718","1193","NA","2","legacy","6","1024","2","48000","-16","experiment","1","odd","5","879091","248379","869429","876881","4586","358421","876882","875700","4590","335702","881097","882291","877886","881097","NA","Sternberg task","67","86226","96","yes","1024"
"70.1030927835","70.1030927835","899.515463918","899.515463918","black","experiment","legacy","legacy","legacy","0","uniform","1","undefined","1","right","96","0","96","96","0","0","96","96","0","0","96","96","96","96","0","10/02/18 14:26:58","The main experiment item","yes","Sternbergtask.osexp","C:/Users/hawkm/OneDrive/Desktop/Tarleton school stuff/Fall 2018/Advanced Quantitative Methods/Lab 2","no","mono","no","18","no","white","no","yes","768","legacy","84","11","C:/Users/hawkm/OneDrive/Desktop/Tarleton school stuff/Fall 2018/Advanced Quantitative Methods/Lab 2/Hawk-subject-1.csv","legacy","6 7 5 9","Kafkaesque Koffka","3.2.5","0","n","0","right","space","left","right","NA","1027","243778","22718","1027","NA","2","legacy","4","1024","2","48000","-16","experiment","1","odd","2","885737","248379","882337","883524","4586","358421","883527","875700","4590","335702","887743","888771","884532","887743","NA","Sternberg task","68","87253","97","yes","1024"
"70.4081632653","70.4081632653","899.336734694","899.336734694","black","experiment","legacy","legacy","legacy","0","uniform","1","undefined","1","left","97","0","97","97","0","0","97","97","0","0","97","97","97","97","0","10/02/18 14:26:58","The main experiment item","yes","Sternbergtask.osexp","C:/Users/hawkm/OneDrive/Desktop/Tarleton school stuff/Fall 2018/Advanced Quantitative Methods/Lab 2","no","mono","no","18","no","white","no","yes","768","legacy","85","11","C:/Users/hawkm/OneDrive/Desktop/Tarleton school stuff/Fall 2018/Advanced Quantitative Methods/Lab 2/Hawk-subject-1.csv","legacy","8 9 5 7 1 6","Kafkaesque Koffka","3.2.5","4","y","0","left","space","left","left","NA","882","243778","22718","882","NA","2","legacy","6","1024","2","48000","-16","experiment","1","odd","7","892175","248379","888817","889962","4586","358421","889964","875700","4590","335702","894179","895063","890969","894179","NA","Sternberg task","69","88135","98","yes","1024"
"70.7070707071","70.7070707071","896.878787879","896.878787879","black","experiment","legacy","legacy","legacy","0","uniform","1","undefined","1","right","98","0","98","98","0","0","98","98","0","0","98","98","98","98","0","10/02/18 14:26:58","The main experiment item","yes","Sternbergtask.osexp","C:/Users/hawkm/OneDrive/Desktop/Tarleton school stuff/Fall 2018/Advanced Quantitative Methods/Lab 2","no","mono","no","18","no","white","no","yes","768","legacy","86","11","C:/Users/hawkm/OneDrive/Desktop/Tarleton school stuff/Fall 2018/Advanced Quantitative Methods/Lab 2/Hawk-subject-1.csv","legacy","4 1","Kafkaesque Koffka","3.2.5","0","n","0","right","space","left","right","NA","656","243778","22718","656","NA","2","legacy","2","1024","2","48000","-16","experiment","1","odd","6","898460","248379","895106","896246","4586","358421","896249","875700","4590","335702","900465","901122","897254","900465","NA","Sternberg task","70","88791","99","yes","1024"
"71","71","892.61","892.61","black","experiment","legacy","legacy","legacy","0","uniform","1","undefined","1","left","99","0","99","99","0","0","99","99","0","0","99","99","99","99","0","10/02/18 14:26:58","The main experiment item","yes","Sternbergtask.osexp","C:/Users/hawkm/OneDrive/Desktop/Tarleton school stuff/Fall 2018/Advanced Quantitative Methods/Lab 2","no","mono","no","18","no","white","no","yes","768","legacy","87","11","C:/Users/hawkm/OneDrive/Desktop/Tarleton school stuff/Fall 2018/Advanced Quantitative Methods/Lab 2/Hawk-subject-1.csv","legacy","3 4","Kafkaesque Koffka","3.2.5","1","y","0","left","space","left","left","NA","470","243778","22718","470","NA","2","legacy","2","1024","2","48000","-16","experiment","1","odd","3","904526","248379","901167","902313","4586","358421","902314","875700","4590","335702","906531","907003","903320","906531","NA","Sternberg task","71","89261","100","yes","1024"
"71.2871287129","71.2871287129","890.732673267","890.732673267","black","experiment","legacy","legacy","legacy","0","uniform","1","undefined","1","right","100","0","100","100","0","0","100","100","0","0","100","100","100","100","0","10/02/18 14:26:58","The main experiment item","yes","Sternbergtask.osexp","C:/Users/hawkm/OneDrive/Desktop/Tarleton school stuff/Fall 2018/Advanced Quantitative Methods/Lab 2","no","mono","no","18","no","white","no","yes","768","legacy","88","11","C:/Users/hawkm/OneDrive/Desktop/Tarleton school stuff/Fall 2018/Advanced Quantitative Methods/Lab 2/Hawk-subject-1.csv","legacy","8 9","Kafkaesque Koffka","3.2.5","0","n","0","right","space","left","right","NA","703","243778","22718","703","NA","2","legacy","2","1024","2","48000","-16","experiment","1","odd","5","910452","248379","907053","908241","4586","358421","908242","875700","4590","335702","912458","913162","909247","912458","NA","Sternberg task","72","89964","101","yes","1024"
"71.568627451","71.568627451","888.656862745","888.656862745","black","experiment","legacy","legacy","legacy","0","uniform","1","undefined","1","left","101","0","101","101","0","0","101","101","0","0","101","101","101","101","0","10/02/18 14:26:58","The main experiment item","yes","Sternbergtask.osexp","C:/Users/hawkm/OneDrive/Desktop/Tarleton school stuff/Fall 2018/Advanced Quantitative Methods/Lab 2","no","mono","no","18","no","white","no","yes","768","legacy","89","11","C:/Users/hawkm/OneDrive/Desktop/Tarleton school stuff/Fall 2018/Advanced Quantitative Methods/Lab 2/Hawk-subject-1.csv","legacy","3 9 7 6 4","Kafkaesque Koffka","3.2.5","3","y","0","left","space","left","left","NA","679","243778","22718","679","NA","2","legacy","5","1024","2","48000","-16","experiment","1","odd","7","916557","248379","913169","914346","4586","358421","914347","875700","4590","335702","918562","919242","915352","918562","NA","Sternberg task","73","90643","102","yes","1024"
