"acc","accuracy","average_response_time","avg_rt","background","block","canvas_backend","clock_backend","color_backend","compensation","coordinates","correct","correct_ISI","correct_instruction1","correct_new_keyboard_response","correct_response","count_ISI","count_correctFeedback","count_expSequence","count_experiment","count_experimentLoop","count_fixation","count_incorrectFeedback","count_instruction1","count_instruction2","count_logger","count_memorySet","count_new_keyboard_response","count_practiceLoop","count_probe","count_thankYou","datetime","description","disable_garbage_collection","experiment_file","experiment_path","font_bold","font_family","font_italic","font_size","font_underline","foreground","form_clicks","fullscreen","height","keyboard_backend","live_row","live_row_practiceLoop","logfile","mouse_backend","numberSet","opensesame_codename","opensesame_version","posInSet","present","repeat_cycle","response","response_ISI","response_instruction1","response_instruction2","response_new_keyboard_response","response_thankYou","response_time","response_time_ISI","response_time_instruction1","response_time_instruction2","response_time_new_keyboard_response","response_time_thankYou","round_decimals","sampler_backend","setSize","sound_buf_size","sound_channels","sound_freq","sound_sample_size","start","subject_nr","subject_parity","target","time_ISI","time_correctFeedback","time_expSequence","time_experiment","time_experimentLoop","time_fixation","time_incorrectFeedback","time_instruction1","time_instruction2","time_logger","time_memorySet","time_new_keyboard_response","time_practiceLoop","time_probe","time_thankYou","title","total_correct","total_response_time","total_responses","uniform_coordinates","width"
"100","100","5993","5993","black","practice","legacy","legacy","legacy","0","uniform","1","0","undefined","1","left","0","0","0","0","0","0","0","0","0","0","0","0","0","0","0","Sun Oct  7 19:02:45 2018","The main experiment item","yes","SternbergTask.osexp","/Volumes/USB20FD","no","mono","no","18","no","white","no","yes","768","legacy","0","0","/Volumes/USB20FD/subject-3 m.csv","legacy","4 8","Kafkaesque Koffka","3.2.5","1","y","0","left","4","right","NA","left","NA","5993","490","317853","NA","5993","NA","2","legacy","2","1024","2","48000","-16","experiment","3","odd","4","322753","NA","320513","2377","NA","320524","NA","2397","NA","329249","321538","323255","320256","323255","NA","Sternberg Task","1","5993","1","yes","1024"
"100","100","3609","3609","black","practice","legacy","legacy","legacy","0","uniform","1","1","undefined","1","left","1","1","1","0","0","1","1","0","0","1","1","1","0","1","0","Sun Oct  7 19:02:45 2018","The main experiment item","yes","SternbergTask.osexp","/Volumes/USB20FD","no","mono","no","18","no","white","no","yes","768","legacy","1","1","/Volumes/USB20FD/subject-3 m.csv","legacy","4 3 1 7 9 8","Kafkaesque Koffka","3.2.5","1","y","0","left","left","right","NA","left","NA","1225","6517","317853","NA","1225","NA","2","legacy","6","1024","2","48000","-16","experiment","3","odd","4","332667","329313","330427","2377","NA","330438","NA","2397","NA","340423","331451","339197","320256","339197","NA","Sternberg Task","2","7218","2","yes","1024"
"100","100","2720.33333333","2720.33333333","black","practice","legacy","legacy","legacy","0","uniform","1","1","undefined","1","left","2","2","2","0","0","2","2","0","0","2","2","2","0","2","0","Sun Oct  7 19:02:45 2018","The main experiment item","yes","SternbergTask.osexp","/Volumes/USB20FD","no","mono","no","18","no","white","no","yes","768","legacy","2","2","/Volumes/USB20FD/subject-3 m.csv","legacy","1 7 9 8 5","Kafkaesque Koffka","3.2.5","4","y","0","left","left","right","NA","left","NA","943","12880","317853","NA","943","NA","2","legacy","5","1024","2","48000","-16","experiment","3","odd","8","343795","340440","341549","2377","NA","341564","NA","2397","NA","357631","342580","356686","320256","356686","NA","Sternberg Task","3","8161","3","yes","1024"
"100","100","2230.5","2230.5","black","practice","legacy","legacy","legacy","0","uniform","1","0","undefined","1","right","3","3","3","0","0","3","3","0","0","3","3","3","0","3","0","Sun Oct  7 19:02:45 2018","The main experiment item","yes","SternbergTask.osexp","/Volumes/USB20FD","no","mono","no","18","no","white","no","yes","768","legacy","3","3","/Volumes/USB20FD/subject-3 m.csv","legacy","2 1","Kafkaesque Koffka","3.2.5","0","n","0","right","left","right","NA","right","NA","761","1630","317853","NA","761","NA","2","legacy","2","1024","2","48000","-16","experiment","3","odd","5","360992","357643","358748","2377","NA","358758","NA","2397","NA","363399","359771","362637","320256","362637","NA","Sternberg Task","4","8922","4","yes","1024"
"100","100","1951.4","1951.4","black","practice","legacy","legacy","legacy","0","uniform","1","1","undefined","1","left","4","4","4","0","0","4","4","0","0","4","4","4","0","4","0","Sun Oct  7 19:02:45 2018","The main experiment item","yes","SternbergTask.osexp","/Volumes/USB20FD","no","mono","no","18","no","white","no","yes","768","legacy","4","4","/Volumes/USB20FD/subject-3 m.csv","legacy","2 9 4","Kafkaesque Koffka","3.2.5","3","y","0","left","left","right","NA","left","NA","835","450","317853","NA","835","NA","2","legacy","3","1024","2","48000","-16","experiment","3","odd","4","366785","363412","364536","2377","NA","364548","NA","2397","NA","368082","365569","367246","320256","367246","NA","Sternberg Task","5","9757","5","yes","1024"
"100","100","1721.16666667","1721.16666667","black","practice","legacy","legacy","legacy","0","uniform","1","0","undefined","1","right","5","5","5","0","0","5","5","0","0","5","5","5","0","5","0","Sun Oct  7 19:02:45 2018","The main experiment item","yes","SternbergTask.osexp","/Volumes/USB20FD","no","mono","no","18","no","white","no","yes","768","legacy","5","5","/Volumes/USB20FD/subject-3 m.csv","legacy","4 1 5","Kafkaesque Koffka","3.2.5","0","n","0","right","left","right","NA","right","NA","570","547","317853","NA","570","NA","2","legacy","3","1024","2","48000","-16","experiment","3","odd","2","371437","368098","369198","2377","NA","369208","NA","2397","NA","372567","370221","371996","320256","371996","NA","Sternberg Task","6","10327","6","yes","1024"
"100","100","1581.85714286","1581.85714286","black","practice","legacy","legacy","legacy","0","uniform","1","1","undefined","1","left","6","6","6","0","0","6","6","0","0","6","6","6","0","6","0","Sun Oct  7 19:02:45 2018","The main experiment item","yes","SternbergTask.osexp","/Volumes/USB20FD","no","mono","no","18","no","white","no","yes","768","legacy","6","6","/Volumes/USB20FD/subject-3 m.csv","legacy","6","Kafkaesque Koffka","3.2.5","1","y","0","left","left","right","NA","left","NA","746","1606","317853","NA","746","NA","2","legacy","1","1024","2","48000","-16","experiment","3","odd","6","375924","372580","373689","2377","NA","373699","NA","2397","NA","378289","374712","377541","320256","377541","NA","Sternberg Task","7","11073","7","yes","1024"
"100","100","1451.375","1451.375","black","practice","legacy","legacy","legacy","0","uniform","1","0","undefined","1","right","7","7","7","0","0","7","7","0","0","7","7","7","0","7","0","Sun Oct  7 19:02:45 2018","The main experiment item","yes","SternbergTask.osexp","/Volumes/USB20FD","no","mono","no","18","no","white","no","yes","768","legacy","7","7","/Volumes/USB20FD/subject-3 m.csv","legacy","9 6 7 4 5","Kafkaesque Koffka","3.2.5","0","n","0","right","left","right","NA","right","NA","538","2417","317853","NA","538","NA","2","legacy","5","1024","2","48000","-16","experiment","3","odd","3","381636","378301","379404","2377","NA","379414","NA","2397","NA","384603","380425","384064","320256","384064","NA","Sternberg Task","8","11611","8","yes","1024"
"100","100","1352.33333333","1352.33333333","black","practice","legacy","legacy","legacy","0","uniform","1","0","undefined","1","right","8","8","8","0","0","8","8","0","0","8","8","8","0","8","0","Sun Oct  7 19:02:45 2018","The main experiment item","yes","SternbergTask.osexp","/Volumes/USB20FD","no","mono","no","18","no","white","no","yes","768","legacy","8","8","/Volumes/USB20FD/subject-3 m.csv","legacy","5","Kafkaesque Koffka","3.2.5","0","n","0","right","left","right","NA","right","NA","560","12","317853","NA","560","NA","2","legacy","1","1024","2","48000","-16","experiment","3","odd","3","387957","384615","385716","2377","NA","385726","NA","2397","NA","388543","386740","387982","320256","387982","NA","Sternberg Task","9","12171","9","yes","1024"
"100","100","1271.2","1271.2","black","practice","legacy","legacy","legacy","0","uniform","1","0","undefined","1","right","9","9","9","0","0","9","9","0","0","9","9","9","0","9","0","Sun Oct  7 19:02:45 2018","The main experiment item","yes","SternbergTask.osexp","/Volumes/USB20FD","no","mono","no","18","no","white","no","yes","768","legacy","9","9","/Volumes/USB20FD/subject-3 m.csv","legacy","3 1 9 4","Kafkaesque Koffka","3.2.5","0","n","0","right","left","right","NA","right","NA","541","444","317853","NA","541","NA","2","legacy","4","1024","2","48000","-16","experiment","3","odd","6","391907","388559","389667","2377","NA","389678","NA","2397","NA","392906","390691","392364","320256","392364","NA","Sternberg Task","10","12712","10","yes","1024"
"90.9090909091","90.9090909091","1244.45454545","1244.45454545","black","practice","legacy","legacy","legacy","0","uniform","0","0","undefined","0","right","10","10","10","0","0","10","10","0","0","10","10","10","0","10","0","Sun Oct  7 19:02:45 2018","The main experiment item","yes","SternbergTask.osexp","/Volumes/USB20FD","no","mono","no","18","no","white","no","yes","768","legacy","10","10","/Volumes/USB20FD/subject-3 m.csv","legacy","5 7 8 4 1 2","Kafkaesque Koffka","3.2.5","0","n","0","left","left","right","NA","left","NA","977","1838","317853","NA","977","NA","2","legacy","6","1024","2","48000","-16","experiment","3","odd","6","396272","392924","394030","2377","NA","394040","NA","2397","NA","399100","395053","398121","320256","398121","NA","Sternberg Task","10","13689","11","yes","1024"
"91.6666666667","91.6666666667","1203.83333333","1203.83333333","black","practice","legacy","legacy","legacy","0","uniform","1","1","undefined","1","left","11","11","11","0","0","11","11","0","0","11","11","11","0","11","0","Sun Oct  7 19:02:45 2018","The main experiment item","yes","SternbergTask.osexp","/Volumes/USB20FD","no","mono","no","18","no","white","no","yes","768","legacy","11","11","/Volumes/USB20FD/subject-3 m.csv","legacy","1 5 2 9","Kafkaesque Koffka","3.2.5","2","y","0","left","left","right","NA","left","NA","757","1470","317853","NA","757","NA","2","legacy","4","1024","2","48000","-16","experiment","3","odd","5","402474","392924","400236","2377","NA","400247","399117","2397","NA","404713","401259","403955","320256","403955","NA","Sternberg Task","11","14446","12","yes","1024"
"92.3076923077","92.3076923077","1178.61538462","1178.61538462","black","experiment","legacy","legacy","legacy","0","uniform","1","0","undefined","1","right","12","12","12","0","0","12","12","0","0","12","12","12","0","12","0","Sun Oct  7 19:02:45 2018","The main experiment item","yes","SternbergTask.osexp","/Volumes/USB20FD","no","mono","no","18","no","white","no","yes","768","legacy","0","11","/Volumes/USB20FD/subject-3 m.csv","legacy","5 3 2 6 9 8","Kafkaesque Koffka","3.2.5","0","n","0","right","up","right","up","right","NA","876","3642","317853","340810","876","NA","2","legacy","6","1024","2","48000","-16","experiment","3","odd","4","748932","404726","746692","2377","746574","746702","399117","2397","405762","753463","747716","752585","320256","752585","NA","Sternberg Task","12","15322","13","yes","1024"
"92.8571428571","92.8571428571","1159.71428571","1159.71428571","black","experiment","legacy","legacy","legacy","0","uniform","1","0","undefined","1","right","13","13","13","0","0","13","13","0","0","13","13","13","0","13","0","Sun Oct  7 19:02:45 2018","The main experiment item","yes","SternbergTask.osexp","/Volumes/USB20FD","no","mono","no","18","no","white","no","yes","768","legacy","1","11","/Volumes/USB20FD/subject-3 m.csv","legacy","3 4 9 6 7 8","Kafkaesque Koffka","3.2.5","0","n","0","right","up","right","up","right","NA","914","1350","317853","340810","914","NA","2","legacy","6","1024","2","48000","-16","experiment","3","odd","2","756825","753475","754582","2377","746574","754592","399117","2397","405762","759102","755606","758187","320256","758187","NA","Sternberg Task","13","16236","14","yes","1024"
"93.3333333333","93.3333333333","1122.6","1122.6","black","experiment","legacy","legacy","legacy","0","uniform","1","0","undefined","1","right","14","14","14","0","0","14","14","0","0","14","14","14","0","14","0","Sun Oct  7 19:02:45 2018","The main experiment item","yes","SternbergTask.osexp","/Volumes/USB20FD","no","mono","no","18","no","white","no","yes","768","legacy","2","11","/Volumes/USB20FD/subject-3 m.csv","legacy","5","Kafkaesque Koffka","3.2.5","0","n","0","right","up","right","up","right","NA","603","38","317853","340810","603","NA","2","legacy","1","1024","2","48000","-16","experiment","3","odd","8","762457","759114","760216","2377","746574","760227","399117","2397","405762","763110","761240","762506","320256","762506","NA","Sternberg Task","14","16839","15","yes","1024"
"87.5","87.5","1095.75","1095.75","black","experiment","legacy","legacy","legacy","0","uniform","0","0","undefined","0","right","15","15","15","0","0","15","15","0","0","15","15","15","0","15","0","Sun Oct  7 19:02:45 2018","The main experiment item","yes","SternbergTask.osexp","/Volumes/USB20FD","no","mono","no","18","no","white","no","yes","768","legacy","3","11","/Volumes/USB20FD/subject-3 m.csv","legacy","8 2 1 4 5 9","Kafkaesque Koffka","3.2.5","0","n","0","left","up","right","up","left","NA","693","1738","317853","340810","693","NA","2","legacy","6","1024","2","48000","-16","experiment","3","odd","7","766474","763124","764231","2377","746574","764245","399117","2397","405762","768918","765258","768224","320256","768224","NA","Sternberg Task","14","17532","16","yes","1024"
"88.2352941176","88.2352941176","1083.64705882","1083.64705882","black","experiment","legacy","legacy","legacy","0","uniform","1","0","undefined","1","left","16","16","16","0","0","16","16","0","0","16","16","16","0","16","0","Sun Oct  7 19:02:45 2018","The main experiment item","yes","SternbergTask.osexp","/Volumes/USB20FD","no","mono","no","18","no","white","no","yes","768","legacy","4","11","/Volumes/USB20FD/subject-3 m.csv","legacy","8 5 3 7 4 6","Kafkaesque Koffka","3.2.5","6","y","0","left","up","right","up","left","NA","890","1262","317853","340810","890","NA","2","legacy","6","1024","2","48000","-16","experiment","3","odd","6","772282","763124","770040","2377","746574","770052","768931","2397","405762","774448","771066","773556","320256","773556","NA","Sternberg Task","15","18422","17","yes","1024"
"88.8888888889","88.8888888889","1061.44444444","1061.44444444","black","experiment","legacy","legacy","legacy","0","uniform","1","0","undefined","1","left","17","17","17","0","0","17","17","0","0","17","17","17","0","17","0","Sun Oct  7 19:02:45 2018","The main experiment item","yes","SternbergTask.osexp","/Volumes/USB20FD","no","mono","no","18","no","white","no","yes","768","legacy","5","11","/Volumes/USB20FD/subject-3 m.csv","legacy","3 9 7 6 4","Kafkaesque Koffka","3.2.5","3","y","0","left","up","right","up","left","NA","684","618","317853","340810","684","NA","2","legacy","5","1024","2","48000","-16","experiment","3","odd","7","777806","774461","775564","2377","746574","775574","768931","2397","405762","779121","776589","778435","320256","778435","NA","Sternberg Task","16","19106","18","yes","1024"
"84.2105263158","84.2105263158","1054.05263158","1054.05263158","black","experiment","legacy","legacy","legacy","0","uniform","0","0","undefined","0","right","18","18","18","0","0","18","18","0","0","18","18","18","0","18","0","Sun Oct  7 19:02:45 2018","The main experiment item","yes","SternbergTask.osexp","/Volumes/USB20FD","no","mono","no","18","no","white","no","yes","768","legacy","6","11","/Volumes/USB20FD/subject-3 m.csv","legacy","1 5 3 2 8","Kafkaesque Koffka","3.2.5","0","n","0","left","up","right","up","left","NA","921","500","317853","340810","921","NA","2","legacy","5","1024","2","48000","-16","experiment","3","odd","4","782478","779133","780240","2377","746574","780250","768931","2397","405762","783914","781265","782991","320256","782991","NA","Sternberg Task","16","20027","19","yes","1024"
"85","85","1032","1032","black","experiment","legacy","legacy","legacy","0","uniform","1","0","undefined","1","left","19","19","19","0","0","19","19","0","0","19","19","19","0","19","0","Sun Oct  7 19:02:45 2018","The main experiment item","yes","SternbergTask.osexp","/Volumes/USB20FD","no","mono","no","18","no","white","no","yes","768","legacy","7","11","/Volumes/USB20FD/subject-3 m.csv","legacy","3 2 1 4 7","Kafkaesque Koffka","3.2.5","2","y","0","left","up","right","up","left","NA","613","1802","317853","340810","613","NA","2","legacy","5","1024","2","48000","-16","experiment","3","odd","2","787279","779133","785037","2377","746574","785047","783930","2397","405762","789707","786062","789093","320256","789092","NA","Sternberg Task","17","20640","20","yes","1024"
"85.7142857143","85.7142857143","1016.42857143","1016.42857143","black","experiment","legacy","legacy","legacy","0","uniform","1","0","undefined","1","right","20","20","20","0","0","20","20","0","0","20","20","20","0","20","0","Sun Oct  7 19:02:45 2018","The main experiment item","yes","SternbergTask.osexp","/Volumes/USB20FD","no","mono","no","18","no","white","no","yes","768","legacy","8","11","/Volumes/USB20FD/subject-3 m.csv","legacy","2 8 6 3 1","Kafkaesque Koffka","3.2.5","0","n","0","right","up","right","up","right","NA","705","2968","317853","340810","705","NA","2","legacy","5","1024","2","48000","-16","experiment","3","odd","7","793073","789725","790830","2377","746574","790839","783930","2397","405762","796759","791856","796052","320256","796052","NA","Sternberg Task","18","21345","21","yes","1024"
"86.3636363636","86.3636363636","1018.63636364","1018.63636364","black","experiment","legacy","legacy","legacy","0","uniform","1","0","undefined","1","right","21","21","21","0","0","21","21","0","0","21","21","21","0","21","0","Sun Oct  7 19:02:45 2018","The main experiment item","yes","SternbergTask.osexp","/Volumes/USB20FD","no","mono","no","18","no","white","no","yes","768","legacy","9","11","/Volumes/USB20FD/subject-3 m.csv","legacy","5 2","Kafkaesque Koffka","3.2.5","0","n","0","right","up","right","up","right","NA","1065","21","317853","340810","1065","NA","2","legacy","2","1024","2","48000","-16","experiment","3","odd","7","800119","796771","797878","2377","746574","797887","783930","2397","405762","801219","798904","800152","320256","800152","NA","Sternberg Task","19","22410","22","yes","1024"
"86.9565217391","86.9565217391","1018.91304348","1018.91304348","black","experiment","legacy","legacy","legacy","0","uniform","1","0","undefined","1","right","22","22","22","0","0","22","22","0","0","22","22","22","0","22","0","Sun Oct  7 19:02:45 2018","The main experiment item","yes","SternbergTask.osexp","/Volumes/USB20FD","no","mono","no","18","no","white","no","yes","768","legacy","10","11","/Volumes/USB20FD/subject-3 m.csv","legacy","2 7 5","Kafkaesque Koffka","3.2.5","0","n","0","right","up","right","up","right","NA","1025","194","317853","340810","1025","NA","2","legacy","3","1024","2","48000","-16","experiment","3","odd","8","804577","801231","802335","2377","746574","802345","783930","2397","405762","805808","803361","804782","320256","804782","NA","Sternberg Task","20","23435","23","yes","1024"
"87.5","87.5","1005.41666667","1005.41666667","black","experiment","legacy","legacy","legacy","0","uniform","1","0","undefined","1","left","23","23","23","0","0","23","23","0","0","23","23","23","0","23","0","Sun Oct  7 19:02:45 2018","The main experiment item","yes","SternbergTask.osexp","/Volumes/USB20FD","no","mono","no","18","no","white","no","yes","768","legacy","11","11","/Volumes/USB20FD/subject-3 m.csv","legacy","8 1 6","Kafkaesque Koffka","3.2.5","3","y","0","left","up","right","up","left","NA","695","341","317853","340810","695","NA","2","legacy","3","1024","2","48000","-16","experiment","3","odd","6","809166","805821","806925","2377","746574","806935","783930","2397","405762","810214","807950","809518","320256","809518","NA","Sternberg Task","21","24130","24","yes","1024"
"88","88","993.88","993.88","black","experiment","legacy","legacy","legacy","0","uniform","1","0","undefined","1","right","24","24","24","0","0","24","24","0","0","24","24","24","0","24","0","Sun Oct  7 19:02:45 2018","The main experiment item","yes","SternbergTask.osexp","/Volumes/USB20FD","no","mono","no","18","no","white","no","yes","768","legacy","12","11","/Volumes/USB20FD/subject-3 m.csv","legacy","5 3 8 7 2 4","Kafkaesque Koffka","3.2.5","0","n","0","right","up","right","up","right","NA","717","1459","317853","340810","717","NA","2","legacy","6","1024","2","48000","-16","experiment","3","odd","9","813580","810227","811336","2377","746574","811346","783930","2397","405762","815770","812361","815051","320256","815051","NA","Sternberg Task","22","24847","25","yes","1024"
"88.4615384615","88.4615384615","988.769230769","988.769230769","black","experiment","legacy","legacy","legacy","0","uniform","1","0","undefined","1","left","25","25","25","0","0","25","25","0","0","25","25","25","0","25","0","Sun Oct  7 19:02:45 2018","The main experiment item","yes","SternbergTask.osexp","/Volumes/USB20FD","no","mono","no","18","no","white","no","yes","768","legacy","13","11","/Volumes/USB20FD/subject-3 m.csv","legacy","8 9 6 1","Kafkaesque Koffka","3.2.5","2","y","0","left","up","right","up","left","NA","861","716","317853","340810","861","NA","2","legacy","4","1024","2","48000","-16","experiment","3","odd","9","819129","815784","816890","2377","746574","816900","783930","2397","405762","820719","817913","819857","320256","819857","NA","Sternberg Task","23","25708","26","yes","1024"
"88.8888888889","88.8888888889","977.518518519","977.518518519","black","experiment","legacy","legacy","legacy","0","uniform","1","0","undefined","1","right","26","26","26","0","0","26","26","0","0","26","26","26","0","26","0","Sun Oct  7 19:02:45 2018","The main experiment item","yes","SternbergTask.osexp","/Volumes/USB20FD","no","mono","no","18","no","white","no","yes","768","legacy","14","11","/Volumes/USB20FD/subject-3 m.csv","legacy","1 4 9 2 5","Kafkaesque Koffka","3.2.5","0","n","0","right","up","right","up","right","NA","685","418","317853","340810","685","NA","2","legacy","5","1024","2","48000","-16","experiment","3","odd","7","824073","820733","821840","2377","746574","821850","783930","2397","405762","825190","822864","824503","320256","824503","NA","Sternberg Task","24","26393","27","yes","1024"
"89.2857142857","89.2857142857","961","961","black","experiment","legacy","legacy","legacy","0","uniform","1","0","undefined","1","left","27","27","27","0","0","27","27","0","0","27","27","27","0","27","0","Sun Oct  7 19:02:45 2018","The main experiment item","yes","SternbergTask.osexp","/Volumes/USB20FD","no","mono","no","18","no","white","no","yes","768","legacy","15","11","/Volumes/USB20FD/subject-3 m.csv","legacy","5 7 8 2 3 8","Kafkaesque Koffka","3.2.5","5","y","0","left","up","right","up","left","NA","515","614","317853","340810","515","NA","2","legacy","6","1024","2","48000","-16","experiment","3","odd","3","828555","825203","826307","2377","746574","826320","783930","2397","405762","829698","827337","829181","320256","829181","NA","Sternberg Task","25","26908","28","yes","1024"
"89.6551724138","89.6551724138","952.137931034","952.137931034","black","experiment","legacy","legacy","legacy","0","uniform","1","0","undefined","1","right","28","28","28","0","0","28","28","0","0","28","28","28","0","28","0","Sun Oct  7 19:02:45 2018","The main experiment item","yes","SternbergTask.osexp","/Volumes/USB20FD","no","mono","no","18","no","white","no","yes","768","legacy","16","11","/Volumes/USB20FD/subject-3 m.csv","legacy","7 1","Kafkaesque Koffka","3.2.5","0","n","0","right","up","right","up","right","NA","704","2439","317853","340810","704","NA","2","legacy","2","1024","2","48000","-16","experiment","3","odd","8","833054","829710","830818","2377","746574","830828","783930","2397","405762","836211","831838","835505","320256","835504","NA","Sternberg Task","26","27612","29","yes","1024"
"90","90","938.8","938.8","black","experiment","legacy","legacy","legacy","0","uniform","1","0","undefined","1","left","29","29","29","0","0","29","29","0","0","29","29","29","0","29","0","Sun Oct  7 19:02:45 2018","The main experiment item","yes","SternbergTask.osexp","/Volumes/USB20FD","no","mono","no","18","no","white","no","yes","768","legacy","17","11","/Volumes/USB20FD/subject-3 m.csv","legacy","9 5 8 1","Kafkaesque Koffka","3.2.5","2","y","0","left","up","right","up","left","NA","552","820","317853","340810","552","NA","2","legacy","4","1024","2","48000","-16","experiment","3","odd","5","839573","836225","837332","2377","746574","837342","783930","2397","405762","840959","838357","840405","320256","840405","NA","Sternberg Task","27","28164","30","yes","1024"
"90.3225806452","90.3225806452","928.838709677","928.838709677","black","experiment","legacy","legacy","legacy","0","uniform","1","0","undefined","1","right","30","30","30","0","0","30","30","0","0","30","30","30","0","30","0","Sun Oct  7 19:02:45 2018","The main experiment item","yes","SternbergTask.osexp","/Volumes/USB20FD","no","mono","no","18","no","white","no","yes","768","legacy","18","11","/Volumes/USB20FD/subject-3 m.csv","legacy","6 9 5","Kafkaesque Koffka","3.2.5","0","n","0","right","up","right","up","right","NA","630","1190","317853","340810","630","NA","2","legacy","3","1024","2","48000","-16","experiment","3","odd","8","844322","840976","842078","2377","746574","842088","783930","2397","405762","846155","843104","845524","320256","845524","NA","Sternberg Task","28","28794","31","yes","1024"
"90.625","90.625","919.4375","919.4375","black","experiment","legacy","legacy","legacy","0","uniform","1","0","undefined","1","right","31","31","31","0","0","31","31","0","0","31","31","31","0","31","0","Sun Oct  7 19:02:45 2018","The main experiment item","yes","SternbergTask.osexp","/Volumes/USB20FD","no","mono","no","18","no","white","no","yes","768","legacy","19","11","/Volumes/USB20FD/subject-3 m.csv","legacy","9 5 3 2 8 6","Kafkaesque Koffka","3.2.5","0","n","0","right","up","right","up","right","NA","628","479","317853","340810","628","NA","2","legacy","6","1024","2","48000","-16","experiment","3","odd","7","849513","846168","847273","2377","746574","847284","783930","2397","405762","850632","848297","850003","320256","850002","NA","Sternberg Task","29","29422","32","yes","1024"
"87.8787878788","87.8787878788","932.757575758","932.757575758","black","experiment","legacy","legacy","legacy","0","uniform","0","0","undefined","0","right","32","32","32","0","0","32","32","0","0","32","32","32","0","32","0","Sun Oct  7 19:02:45 2018","The main experiment item","yes","SternbergTask.osexp","/Volumes/USB20FD","no","mono","no","18","no","white","no","yes","768","legacy","20","11","/Volumes/USB20FD/subject-3 m.csv","legacy","7 6 4 8 1 2","Kafkaesque Koffka","3.2.5","0","n","0","left","up","right","up","left","NA","1359","479","317853","340810","1359","NA","2","legacy","6","1024","2","48000","-16","experiment","3","odd","9","853992","850645","851750","2377","746574","851760","783930","2397","405762","855842","852776","854482","320256","854482","NA","Sternberg Task","29","30781","33","yes","1024"
"85.2941176471","85.2941176471","923.264705882","923.264705882","black","experiment","legacy","legacy","legacy","0","uniform","0","0","undefined","0","left","33","33","33","0","0","33","33","0","0","33","33","33","0","33","0","Sun Oct  7 19:02:45 2018","The main experiment item","yes","SternbergTask.osexp","/Volumes/USB20FD","no","mono","no","18","no","white","no","yes","768","legacy","21","11","/Volumes/USB20FD/subject-3 m.csv","legacy","7 4 2 6 3 5","Kafkaesque Koffka","3.2.5","6","y","0","right","up","right","up","right","NA","610","1626","317853","340810","610","NA","2","legacy","6","1024","2","48000","-16","experiment","3","odd","5","859208","850645","856968","2377","746574","856978","855857","2397","405762","861458","857992","860846","320256","860846","NA","Sternberg Task","29","31391","34","yes","1024"
"85.7142857143","85.7142857143","917.2","917.2","black","experiment","legacy","legacy","legacy","0","uniform","1","0","undefined","1","left","34","34","34","0","0","34","34","0","0","34","34","34","0","34","0","Sun Oct  7 19:02:45 2018","The main experiment item","yes","SternbergTask.osexp","/Volumes/USB20FD","no","mono","no","18","no","white","no","yes","768","legacy","22","11","/Volumes/USB20FD/subject-3 m.csv","legacy","5 7 3 6 2","Kafkaesque Koffka","3.2.5","5","y","0","left","up","right","up","left","NA","711","953","317853","340810","711","NA","2","legacy","5","1024","2","48000","-16","experiment","3","odd","2","864826","850645","862585","2377","746574","862595","861470","2397","405762","866503","863609","865791","320256","865791","NA","Sternberg Task","30","32102","35","yes","1024"
"86.1111111111","86.1111111111","906","906","black","experiment","legacy","legacy","legacy","0","uniform","1","0","undefined","1","left","35","35","35","0","0","35","35","0","0","35","35","35","0","35","0","Sun Oct  7 19:02:45 2018","The main experiment item","yes","SternbergTask.osexp","/Volumes/USB20FD","no","mono","no","18","no","white","no","yes","768","legacy","23","11","/Volumes/USB20FD/subject-3 m.csv","legacy","3 5 9 6 2 4","Kafkaesque Koffka","3.2.5","1","y","0","left","up","right","up","left","NA","514","819","317853","340810","514","NA","2","legacy","6","1024","2","48000","-16","experiment","3","odd","3","869866","866516","867624","2377","746574","867634","861470","2397","405762","871213","868649","870697","320256","870696","NA","Sternberg Task","31","32616","36","yes","1024"
"86.4864864865","86.4864864865","897.837837838","897.837837838","black","experiment","legacy","legacy","legacy","0","uniform","1","0","undefined","1","right","36","36","36","0","0","36","36","0","0","36","36","36","0","36","0","Sun Oct  7 19:02:45 2018","The main experiment item","yes","SternbergTask.osexp","/Volumes/USB20FD","no","mono","no","18","no","white","no","yes","768","legacy","24","11","/Volumes/USB20FD/subject-3 m.csv","legacy","6 9 4 5 2","Kafkaesque Koffka","3.2.5","0","n","0","right","up","right","up","right","NA","604","735","317853","340810","604","NA","2","legacy","5","1024","2","48000","-16","experiment","3","odd","1","874582","871231","872342","2377","746574","872352","861470","2397","405762","875934","873366","875329","320256","875329","NA","Sternberg Task","32","33220","37","yes","1024"
"86.8421052632","86.8421052632","893.342105263","893.342105263","black","experiment","legacy","legacy","legacy","0","uniform","1","0","undefined","1","left","37","37","37","0","0","37","37","0","0","37","37","37","0","37","0","Sun Oct  7 19:02:45 2018","The main experiment item","yes","SternbergTask.osexp","/Volumes/USB20FD","no","mono","no","18","no","white","no","yes","768","legacy","25","11","/Volumes/USB20FD/subject-3 m.csv","legacy","6 7 8 5","Kafkaesque Koffka","3.2.5","3","y","0","left","up","right","up","left","NA","727","1037","317853","340810","727","NA","2","legacy","4","1024","2","48000","-16","experiment","3","odd","8","879294","875947","877052","2377","746574","877062","861470","2397","405762","881071","878075","880342","320256","880342","NA","Sternberg Task","33","33947","38","yes","1024"
"87.1794871795","87.1794871795","886.666666667","886.666666667","black","experiment","legacy","legacy","legacy","0","uniform","1","0","undefined","1","left","38","38","38","0","0","38","38","0","0","38","38","38","0","38","0","Sun Oct  7 19:02:45 2018","The main experiment item","yes","SternbergTask.osexp","/Volumes/USB20FD","no","mono","no","18","no","white","no","yes","768","legacy","26","11","/Volumes/USB20FD/subject-3 m.csv","legacy","8 5 4 7 3 1","Kafkaesque Koffka","3.2.5","2","y","0","left","up","right","up","left","NA","633","434","317853","340810","633","NA","2","legacy","6","1024","2","48000","-16","experiment","3","odd","5","884427","881083","882186","2377","746574","882196","861470","2397","405762","885511","883211","884876","320256","884875","NA","Sternberg Task","34","34580","39","yes","1024"
"87.5","87.5","880.725","880.725","black","experiment","legacy","legacy","legacy","0","uniform","1","0","undefined","1","left","39","39","39","0","0","39","39","0","0","39","39","39","0","39","0","Sun Oct  7 19:02:45 2018","The main experiment item","yes","SternbergTask.osexp","/Volumes/USB20FD","no","mono","no","18","no","white","no","yes","768","legacy","27","11","/Volumes/USB20FD/subject-3 m.csv","legacy","3 9 6 2","Kafkaesque Koffka","3.2.5","4","y","0","left","up","right","up","left","NA","649","32","317853","340810","649","NA","2","legacy","4","1024","2","48000","-16","experiment","3","odd","2","888871","885524","886633","2377","746574","886643","861470","2397","405762","889566","887657","888915","320256","888915","NA","Sternberg Task","35","35229","40","yes","1024"
"87.8048780488","87.8048780488","872.682926829","872.682926829","black","experiment","legacy","legacy","legacy","0","uniform","1","1","undefined","1","left","40","40","40","0","0","40","40","0","0","40","40","40","0","40","0","Sun Oct  7 19:02:45 2018","The main experiment item","yes","SternbergTask.osexp","/Volumes/USB20FD","no","mono","no","18","no","white","no","yes","768","legacy","28","11","/Volumes/USB20FD/subject-3 m.csv","legacy","9 3 1 2 5","Kafkaesque Koffka","3.2.5","4","y","0","left","left","right","up","left","NA","551","975","317853","340810","551","NA","2","legacy","5","1024","2","48000","-16","experiment","3","odd","2","892927","889583","890687","2377","746574","890697","861470","2397","405762","894466","891710","893913","320256","893913","NA","Sternberg Task","36","35780","41","yes","1024"
"88.0952380952","88.0952380952","862.928571429","862.928571429","black","experiment","legacy","legacy","legacy","0","uniform","1","0","undefined","1","left","41","41","41","0","0","41","41","0","0","41","41","41","0","41","0","Sun Oct  7 19:02:45 2018","The main experiment item","yes","SternbergTask.osexp","/Volumes/USB20FD","no","mono","no","18","no","white","no","yes","768","legacy","29","11","/Volumes/USB20FD/subject-3 m.csv","legacy","7 2 3","Kafkaesque Koffka","3.2.5","3","y","0","left","up","right","up","left","NA","463","1088","317853","340810","463","NA","2","legacy","3","1024","2","48000","-16","experiment","3","odd","3","897822","894481","895584","2377","746574","895594","861470","2397","405762","899385","896605","898921","320256","898921","NA","Sternberg Task","37","36243","42","yes","1024"
"88.3720930233","88.3720930233","859.046511628","859.046511628","black","experiment","legacy","legacy","legacy","0","uniform","1","0","undefined","1","right","42","42","42","0","0","42","42","0","0","42","42","42","0","42","0","Sun Oct  7 19:02:45 2018","The main experiment item","yes","SternbergTask.osexp","/Volumes/USB20FD","no","mono","no","18","no","white","no","yes","768","legacy","30","11","/Volumes/USB20FD/subject-3 m.csv","legacy","1 4 3 6 5","Kafkaesque Koffka","3.2.5","0","n","0","right","up","right","up","right","NA","696","1519","317853","340810","696","NA","2","legacy","5","1024","2","48000","-16","experiment","3","odd","8","902755","899398","900512","2377","746574","900528","861470","2397","405762","904984","901542","904286","320256","904286","NA","Sternberg Task","38","36939","43","yes","1024"
"88.6363636364","88.6363636364","857.545454545","857.545454545","black","experiment","legacy","legacy","legacy","0","uniform","1","0","undefined","1","right","43","43","43","0","0","43","43","0","0","43","43","43","0","43","0","Sun Oct  7 19:02:45 2018","The main experiment item","yes","SternbergTask.osexp","/Volumes/USB20FD","no","mono","no","18","no","white","no","yes","768","legacy","31","11","/Volumes/USB20FD/subject-3 m.csv","legacy","4 2 6 9","Kafkaesque Koffka","3.2.5","0","n","0","right","up","right","up","right","NA","793","107","317853","340810","793","NA","2","legacy","4","1024","2","48000","-16","experiment","3","odd","7","908338","904996","906098","2377","746574","906108","861470","2397","405762","909252","907122","908457","320256","908457","NA","Sternberg Task","39","37732","44","yes","1024"
"88.8888888889","88.8888888889","848.8","848.8","black","experiment","legacy","legacy","legacy","0","uniform","1","0","undefined","1","left","44","44","44","0","0","44","44","0","0","44","44","44","0","44","0","Sun Oct  7 19:02:45 2018","The main experiment item","yes","SternbergTask.osexp","/Volumes/USB20FD","no","mono","no","18","no","white","no","yes","768","legacy","32","11","/Volumes/USB20FD/subject-3 m.csv","legacy","2 3 7 4","Kafkaesque Koffka","3.2.5","1","y","0","left","up","right","up","left","NA","464","677","317853","340810","464","NA","2","legacy","4","1024","2","48000","-16","experiment","3","odd","2","912611","909264","910372","2377","746574","910382","861470","2397","405762","913766","911398","913300","320256","913300","NA","Sternberg Task","40","38196","45","yes","1024"
"89.1304347826","89.1304347826","840.47826087","840.47826087","black","experiment","legacy","legacy","legacy","0","uniform","1","0","undefined","1","left","45","45","45","0","0","45","45","0","0","45","45","45","0","45","0","Sun Oct  7 19:02:45 2018","The main experiment item","yes","SternbergTask.osexp","/Volumes/USB20FD","no","mono","no","18","no","white","no","yes","768","legacy","33","11","/Volumes/USB20FD/subject-3 m.csv","legacy","6 1 2","Kafkaesque Koffka","3.2.5","3","y","0","left","up","right","up","left","NA","466","403","317853","340810","466","NA","2","legacy","3","1024","2","48000","-16","experiment","3","odd","2","917135","913781","914891","2377","746574","914901","861470","2397","405762","918019","915915","917551","320256","917551","NA","Sternberg Task","41","38662","46","yes","1024"
"89.3617021277","89.3617021277","840.106382979","840.106382979","black","experiment","legacy","legacy","legacy","0","uniform","1","0","undefined","1","right","46","46","46","0","0","46","46","0","0","46","46","46","0","46","0","Sun Oct  7 19:02:45 2018","The main experiment item","yes","SternbergTask.osexp","/Volumes/USB20FD","no","mono","no","18","no","white","no","yes","768","legacy","34","11","/Volumes/USB20FD/subject-3 m.csv","legacy","2 3 8 5 6 7","Kafkaesque Koffka","3.2.5","0","n","0","right","up","right","up","right","NA","823","87","317853","340810","823","NA","2","legacy","6","1024","2","48000","-16","experiment","3","odd","1","921383","918033","919141","2377","746574","919154","861470","2397","405762","922307","920167","921482","320256","921482","NA","Sternberg Task","42","39485","47","yes","1024"
"89.5833333333","89.5833333333","831.645833333","831.645833333","black","experiment","legacy","legacy","legacy","0","uniform","1","0","undefined","1","left","47","47","47","0","0","47","47","0","0","47","47","47","0","47","0","Sun Oct  7 19:02:45 2018","The main experiment item","yes","SternbergTask.osexp","/Volumes/USB20FD","no","mono","no","18","no","white","no","yes","768","legacy","35","11","/Volumes/USB20FD/subject-3 m.csv","legacy","9 1 7 2","Kafkaesque Koffka","3.2.5","2","y","0","left","up","right","up","left","NA","434","634","317853","340810","434","NA","2","legacy","4","1024","2","48000","-16","experiment","3","odd","1","925667","922320","923420","2377","746574","923431","861470","2397","405762","926749","924448","926313","320256","926313","NA","Sternberg Task","43","39919","48","yes","1024"
"89.7959183673","89.7959183673","826.06122449","826.06122449","black","experiment","legacy","legacy","legacy","0","uniform","1","0","undefined","1","left","48","48","48","0","0","48","48","0","0","48","48","48","0","48","0","Sun Oct  7 19:02:45 2018","The main experiment item","yes","SternbergTask.osexp","/Volumes/USB20FD","no","mono","no","18","no","white","no","yes","768","legacy","36","11","/Volumes/USB20FD/subject-3 m.csv","legacy","6 7 9 3 1 2","Kafkaesque Koffka","3.2.5","1","y","0","left","up","right","up","left","NA","558","675","317853","340810","558","NA","2","legacy","6","1024","2","48000","-16","experiment","3","odd","6","930107","926762","927865","2377","746574","927875","861470","2397","405762","931354","928888","930794","320256","930794","NA","Sternberg Task","44","40477","49","yes","1024"
"90","90","822.82","822.82","black","experiment","legacy","legacy","legacy","0","uniform","1","0","undefined","1","right","49","49","49","0","0","49","49","0","0","49","49","49","0","49","0","Sun Oct  7 19:02:45 2018","The main experiment item","yes","SternbergTask.osexp","/Volumes/USB20FD","no","mono","no","18","no","white","no","yes","768","legacy","37","11","/Volumes/USB20FD/subject-3 m.csv","legacy","7 4 2 8 1 9","Kafkaesque Koffka","3.2.5","0","n","0","right","up","right","up","right","NA","664","1156","317853","340810","664","NA","2","legacy","6","1024","2","48000","-16","experiment","3","odd","5","934714","931366","932475","2377","746574","932484","861470","2397","405762","936548","933498","935882","320256","935882","NA","Sternberg Task","45","41141","50","yes","1024"
"88.2352941176","88.2352941176","815.549019608","815.549019608","black","experiment","legacy","legacy","legacy","0","uniform","0","0","undefined","0","right","50","50","50","0","0","50","50","0","0","50","50","50","0","50","0","Sun Oct  7 19:02:45 2018","The main experiment item","yes","SternbergTask.osexp","/Volumes/USB20FD","no","mono","no","18","no","white","no","yes","768","legacy","38","11","/Volumes/USB20FD/subject-3 m.csv","legacy","9","Kafkaesque Koffka","3.2.5","0","n","0","left","up","right","up","left","NA","452","501","317853","340810","452","NA","2","legacy","1","1024","2","48000","-16","experiment","3","odd","6","939905","936562","937664","2377","746574","937674","861470","2397","405762","940873","938688","940419","320256","940419","NA","Sternberg Task","45","41593","51","yes","1024"
"88.4615384615","88.4615384615","815.038461538","815.038461538","black","experiment","legacy","legacy","legacy","0","uniform","1","0","undefined","1","right","51","51","51","0","0","51","51","0","0","51","51","51","0","51","0","Sun Oct  7 19:02:45 2018","The main experiment item","yes","SternbergTask.osexp","/Volumes/USB20FD","no","mono","no","18","no","white","no","yes","768","legacy","39","11","/Volumes/USB20FD/subject-3 m.csv","legacy","6 8 4","Kafkaesque Koffka","3.2.5","0","n","0","right","up","right","up","right","NA","789","136","317853","340810","789","NA","2","legacy","3","1024","2","48000","-16","experiment","3","odd","1","944231","936562","941992","2377","746574","942001","940890","2397","405762","945170","943015","944379","320256","944378","NA","Sternberg Task","46","42382","52","yes","1024"
"88.679245283","88.679245283","827.698113208","827.698113208","black","experiment","legacy","legacy","legacy","0","uniform","1","0","undefined","1","right","52","52","52","0","0","52","52","0","0","52","52","52","0","52","0","Sun Oct  7 19:02:45 2018","The main experiment item","yes","SternbergTask.osexp","/Volumes/USB20FD","no","mono","no","18","no","white","no","yes","768","legacy","40","11","/Volumes/USB20FD/subject-3 m.csv","legacy","7 1 8 4 9 3","Kafkaesque Koffka","3.2.5","0","n","0","right","up","right","up","right","NA","1486","661","317853","340810","1486","NA","2","legacy","6","1024","2","48000","-16","experiment","3","odd","6","948528","945182","946286","2377","746574","946296","940890","2397","405762","950689","947311","949201","320256","949201","NA","Sternberg Task","47","43868","53","yes","1024"
"88.8888888889","88.8888888889","824.574074074","824.574074074","black","experiment","legacy","legacy","legacy","0","uniform","1","0","undefined","1","right","53","53","53","0","0","53","53","0","0","53","53","53","0","53","0","Sun Oct  7 19:02:45 2018","The main experiment item","yes","SternbergTask.osexp","/Volumes/USB20FD","no","mono","no","18","no","white","no","yes","768","legacy","41","11","/Volumes/USB20FD/subject-3 m.csv","legacy","7 9","Kafkaesque Koffka","3.2.5","0","n","0","right","up","right","up","right","NA","659","676","317853","340810","659","NA","2","legacy","2","1024","2","48000","-16","experiment","3","odd","1","954054","950702","951809","2377","746574","951820","940890","2397","405762","955403","952836","954742","320256","954742","NA","Sternberg Task","48","44527","54","yes","1024"
"89.0909090909","89.0909090909","821.854545455","821.854545455","black","experiment","legacy","legacy","legacy","0","uniform","1","0","undefined","1","right","54","54","54","0","0","54","54","0","0","54","54","54","0","54","0","Sun Oct  7 19:02:45 2018","The main experiment item","yes","SternbergTask.osexp","/Volumes/USB20FD","no","mono","no","18","no","white","no","yes","768","legacy","42","11","/Volumes/USB20FD/subject-3 m.csv","legacy","7 8 6 1","Kafkaesque Koffka","3.2.5","0","n","0","right","up","right","up","right","NA","675","1011","317853","340810","675","NA","2","legacy","4","1024","2","48000","-16","experiment","3","odd","3","958759","955416","956518","2377","746574","956528","940890","2397","405762","960459","957541","959783","320256","959783","NA","Sternberg Task","49","45202","55","yes","1024"
"89.2857142857","89.2857142857","833.785714286","833.785714286","black","experiment","legacy","legacy","legacy","0","uniform","1","0","undefined","1","left","55","55","55","0","0","55","55","0","0","55","55","55","0","55","0","Sun Oct  7 19:02:45 2018","The main experiment item","yes","SternbergTask.osexp","/Volumes/USB20FD","no","mono","no","18","no","white","no","yes","768","legacy","43","11","/Volumes/USB20FD/subject-3 m.csv","legacy","6 9 7 4 5 1","Kafkaesque Koffka","3.2.5","2","y","0","left","up","right","up","left","NA","1490","499","317853","340810","1490","NA","2","legacy","6","1024","2","48000","-16","experiment","3","odd","9","963830","960472","961585","2377","746574","961595","940890","2397","405762","965835","962612","964344","320256","964344","NA","Sternberg Task","50","46692","56","yes","1024"
"89.4736842105","89.4736842105","827.438596491","827.438596491","black","experiment","legacy","legacy","legacy","0","uniform","1","0","undefined","1","left","56","56","56","0","0","56","56","0","0","56","56","56","0","56","0","Sun Oct  7 19:02:45 2018","The main experiment item","yes","SternbergTask.osexp","/Volumes/USB20FD","no","mono","no","18","no","white","no","yes","768","legacy","44","11","/Volumes/USB20FD/subject-3 m.csv","legacy","7 1 3","Kafkaesque Koffka","3.2.5","2","y","0","left","up","right","up","left","NA","472","777","317853","340810","472","NA","2","legacy","3","1024","2","48000","-16","experiment","3","odd","1","969196","965850","966952","2377","746574","966962","940890","2397","405762","970458","967978","969985","320256","969984","NA","Sternberg Task","51","47164","57","yes","1024"
"89.6551724138","89.6551724138","822.75862069","822.75862069","black","experiment","legacy","legacy","legacy","0","uniform","1","0","undefined","1","right","57","57","57","0","0","57","57","0","0","57","57","57","0","57","0","Sun Oct  7 19:02:45 2018","The main experiment item","yes","SternbergTask.osexp","/Volumes/USB20FD","no","mono","no","18","no","white","no","yes","768","legacy","45","11","/Volumes/USB20FD/subject-3 m.csv","legacy","6 9 4 5 3 2","Kafkaesque Koffka","3.2.5","0","n","0","right","up","right","up","right","NA","556","247","317853","340810","556","NA","2","legacy","6","1024","2","48000","-16","experiment","3","odd","8","973816","970471","971575","2377","746574","971585","940890","2397","405762","974633","972599","974075","320256","974075","NA","Sternberg Task","52","47720","58","yes","1024"
"89.8305084746","89.8305084746","820.152542373","820.152542373","black","experiment","legacy","legacy","legacy","0","uniform","1","0","undefined","1","right","58","58","58","0","0","58","58","0","0","58","58","58","0","58","0","Sun Oct  7 19:02:45 2018","The main experiment item","yes","SternbergTask.osexp","/Volumes/USB20FD","no","mono","no","18","no","white","no","yes","768","legacy","46","11","/Volumes/USB20FD/subject-3 m.csv","legacy","8 9","Kafkaesque Koffka","3.2.5","0","n","0","right","up","right","up","right","NA","669","574","317853","340810","669","NA","2","legacy","2","1024","2","48000","-16","experiment","3","odd","5","977987","974646","975750","2377","746574","975760","940890","2397","405762","979244","976772","978573","320256","978573","NA","Sternberg Task","53","48389","59","yes","1024"
"90","90","816.8","816.8","black","experiment","legacy","legacy","legacy","0","uniform","1","0","undefined","1","left","59","59","59","0","0","59","59","0","0","59","59","59","0","59","0","Sun Oct  7 19:02:45 2018","The main experiment item","yes","SternbergTask.osexp","/Volumes/USB20FD","no","mono","no","18","no","white","no","yes","768","legacy","47","11","/Volumes/USB20FD/subject-3 m.csv","legacy","8","Kafkaesque Koffka","3.2.5","1","y","0","left","up","right","up","left","NA","619","515","317853","340810","619","NA","2","legacy","1","1024","2","48000","-16","experiment","3","odd","8","982605","979256","980358","2377","746574","980369","940890","2397","405762","983753","981386","983132","320256","983132","NA","Sternberg Task","54","49008","60","yes","1024"
"90.1639344262","90.1639344262","815.754098361","815.754098361","black","experiment","legacy","legacy","legacy","0","uniform","1","0","undefined","1","left","60","60","60","0","0","60","60","0","0","60","60","60","0","60","0","Sun Oct  7 19:02:45 2018","The main experiment item","yes","SternbergTask.osexp","/Volumes/USB20FD","no","mono","no","18","no","white","no","yes","768","legacy","48","11","/Volumes/USB20FD/subject-3 m.csv","legacy","5 2 9 6 1 7","Kafkaesque Koffka","3.2.5","3","y","0","left","up","right","up","left","NA","753","429","317853","340810","753","NA","2","legacy","6","1024","2","48000","-16","experiment","3","odd","9","987113","983767","984871","2377","746574","984881","940890","2397","405762","988311","985895","987556","320256","987556","NA","Sternberg Task","55","49761","61","yes","1024"
"90.3225806452","90.3225806452","811.532258065","811.532258065","black","experiment","legacy","legacy","legacy","0","uniform","1","0","undefined","1","left","61","61","61","0","0","61","61","0","0","61","61","61","0","61","0","Sun Oct  7 19:02:45 2018","The main experiment item","yes","SternbergTask.osexp","/Volumes/USB20FD","no","mono","no","18","no","white","no","yes","768","legacy","49","11","/Volumes/USB20FD/subject-3 m.csv","legacy","8 3","Kafkaesque Koffka","3.2.5","2","y","0","left","up","right","up","left","NA","554","483","317853","340810","554","NA","2","legacy","2","1024","2","48000","-16","experiment","3","odd","3","991670","988327","989430","2377","746574","989440","940890","2397","405762","992723","990455","992167","320256","992167","NA","Sternberg Task","56","50315","62","yes","1024"
"90.4761904762","90.4761904762","806.031746032","806.031746032","black","experiment","legacy","legacy","legacy","0","uniform","1","0","undefined","1","left","62","62","62","0","0","62","62","0","0","62","62","62","0","62","0","Sun Oct  7 19:02:45 2018","The main experiment item","yes","SternbergTask.osexp","/Volumes/USB20FD","no","mono","no","18","no","white","no","yes","768","legacy","50","11","/Volumes/USB20FD/subject-3 m.csv","legacy","9 4 2","Kafkaesque Koffka","3.2.5","1","y","0","left","up","right","up","left","NA","465","639","317853","340810","465","NA","2","legacy","3","1024","2","48000","-16","experiment","3","odd","9","996082","992736","993840","2377","746574","993850","940890","2397","405762","997200","994866","996733","320256","996733","NA","Sternberg Task","57","50780","63","yes","1024"
"90.625","90.625","802.890625","802.890625","black","experiment","legacy","legacy","legacy","0","uniform","1","0","undefined","1","right","63","63","63","0","0","63","63","0","0","63","63","63","0","63","0","Sun Oct  7 19:02:45 2018","The main experiment item","yes","SternbergTask.osexp","/Volumes/USB20FD","no","mono","no","18","no","white","no","yes","768","legacy","51","11","/Volumes/USB20FD/subject-3 m.csv","legacy","8 5 4 2 9 6","Kafkaesque Koffka","3.2.5","0","n","0","right","up","right","up","right","NA","605","629","317853","340810","605","NA","2","legacy","6","1024","2","48000","-16","experiment","3","odd","3","1000553","997213","998317","2377","746574","998327","940890","2397","405762","1001800","999341","1001193","320256","1001193","NA","Sternberg Task","58","51385","64","yes","1024"
"90.7692307692","90.7692307692","801.015384615","801.015384615","black","experiment","legacy","legacy","legacy","0","uniform","1","0","undefined","1","right","64","64","64","0","0","64","64","0","0","64","64","64","0","64","0","Sun Oct  7 19:02:45 2018","The main experiment item","yes","SternbergTask.osexp","/Volumes/USB20FD","no","mono","no","18","no","white","no","yes","768","legacy","52","11","/Volumes/USB20FD/subject-3 m.csv","legacy","7 9 1 6","Kafkaesque Koffka","3.2.5","0","n","0","right","up","right","up","right","NA","681","789","317853","340810","681","NA","2","legacy","4","1024","2","48000","-16","experiment","3","odd","4","1005163","1001812","1002920","2377","746574","1002931","940890","2397","405762","1006647","1003945","1005964","320256","1005964","NA","Sternberg Task","59","52066","65","yes","1024"
"90.9090909091","90.9090909091","797.590909091","797.590909091","black","experiment","legacy","legacy","legacy","0","uniform","1","0","undefined","1","left","65","65","65","0","0","65","65","0","0","65","65","65","0","65","0","Sun Oct  7 19:02:45 2018","The main experiment item","yes","SternbergTask.osexp","/Volumes/USB20FD","no","mono","no","18","no","white","no","yes","768","legacy","53","11","/Volumes/USB20FD/subject-3 m.csv","legacy","2 5 4 8 7","Kafkaesque Koffka","3.2.5","3","y","0","left","up","right","up","left","NA","575","906","317853","340810","575","NA","2","legacy","5","1024","2","48000","-16","experiment","3","odd","4","1010016","1006659","1007770","2377","746574","1007780","940890","2397","405762","1011511","1008797","1010934","320256","1010933","NA","Sternberg Task","60","52641","66","yes","1024"
"91.0447761194","91.0447761194","792.656716418","792.656716418","black","experiment","legacy","legacy","legacy","0","uniform","1","0","undefined","1","left","66","66","66","0","0","66","66","0","0","66","66","66","0","66","0","Sun Oct  7 19:02:45 2018","The main experiment item","yes","SternbergTask.osexp","/Volumes/USB20FD","no","mono","no","18","no","white","no","yes","768","legacy","54","11","/Volumes/USB20FD/subject-3 m.csv","legacy","4 1 5","Kafkaesque Koffka","3.2.5","2","y","0","left","up","right","up","left","NA","467","748","317853","340810","467","NA","2","legacy","3","1024","2","48000","-16","experiment","3","odd","1","1014873","1011530","1012632","2377","746574","1012642","940890","2397","405762","1016102","1013656","1015633","320256","1015633","NA","Sternberg Task","61","53108","67","yes","1024"
"91.1764705882","91.1764705882","789.323529412","789.323529412","black","experiment","legacy","legacy","legacy","0","uniform","1","0","undefined","1","left","67","67","67","0","0","67","67","0","0","67","67","67","0","67","0","Sun Oct  7 19:02:45 2018","The main experiment item","yes","SternbergTask.osexp","/Volumes/USB20FD","no","mono","no","18","no","white","no","yes","768","legacy","55","11","/Volumes/USB20FD/subject-3 m.csv","legacy","7 8 4 6 9 5","Kafkaesque Koffka","3.2.5","4","y","0","left","up","right","up","left","NA","566","504","317853","340810","566","NA","2","legacy","6","1024","2","48000","-16","experiment","3","odd","6","1019457","1016115","1017221","2377","746574","1017231","940890","2397","405762","1020540","1018244","1019972","320256","1019972","NA","Sternberg Task","62","53674","68","yes","1024"
"91.3043478261","91.3043478261","786.550724638","786.550724638","black","experiment","legacy","legacy","legacy","0","uniform","1","0","undefined","1","right","68","68","68","0","0","68","68","0","0","68","68","68","0","68","0","Sun Oct  7 19:02:45 2018","The main experiment item","yes","SternbergTask.osexp","/Volumes/USB20FD","no","mono","no","18","no","white","no","yes","768","legacy","56","11","/Volumes/USB20FD/subject-3 m.csv","legacy","6 9 7 3 8 2","Kafkaesque Koffka","3.2.5","0","n","0","right","up","right","up","right","NA","598","795","317853","340810","598","NA","2","legacy","6","1024","2","48000","-16","experiment","3","odd","5","1023902","1020554","1021659","2377","746574","1021669","940890","2397","405762","1025309","1022684","1024709","320256","1024709","NA","Sternberg Task","63","54272","69","yes","1024"
"90","90","784","784","black","experiment","legacy","legacy","legacy","0","uniform","0","0","undefined","0","right","69","69","69","0","0","69","69","0","0","69","69","69","0","69","0","Sun Oct  7 19:02:45 2018","The main experiment item","yes","SternbergTask.osexp","/Volumes/USB20FD","no","mono","no","18","no","white","no","yes","768","legacy","57","11","/Volumes/USB20FD/subject-3 m.csv","legacy","4 1","Kafkaesque Koffka","3.2.5","0","n","0","left","up","right","up","left","NA","608","884","317853","340810","608","NA","2","legacy","2","1024","2","48000","-16","experiment","3","odd","6","1028677","1025321","1026429","2377","746574","1026440","940890","2397","405762","1030183","1027457","1029573","320256","1029573","NA","Sternberg Task","63","54880","70","yes","1024"
"90.1408450704","90.1408450704","780.253521127","780.253521127","black","experiment","legacy","legacy","legacy","0","uniform","1","0","undefined","1","left","70","70","70","0","0","70","70","0","0","70","70","70","0","70","0","Sun Oct  7 19:02:45 2018","The main experiment item","yes","SternbergTask.osexp","/Volumes/USB20FD","no","mono","no","18","no","white","no","yes","768","legacy","58","11","/Volumes/USB20FD/subject-3 m.csv","legacy","4 7 6 8 2 3","Kafkaesque Koffka","3.2.5","6","y","0","left","up","right","up","left","NA","518","94","317853","340810","518","NA","2","legacy","6","1024","2","48000","-16","experiment","3","odd","3","1033552","1025321","1031306","2377","746574","1031317","1030199","2397","405762","1034179","1032335","1033659","320256","1033659","NA","Sternberg Task","64","55398","71","yes","1024"
"90.2777777778","90.2777777778","776.152777778","776.152777778","black","experiment","legacy","legacy","legacy","0","uniform","1","0","undefined","1","left","71","71","71","0","0","71","71","0","0","71","71","71","0","71","0","Sun Oct  7 19:02:45 2018","The main experiment item","yes","SternbergTask.osexp","/Volumes/USB20FD","no","mono","no","18","no","white","no","yes","768","legacy","59","11","/Volumes/USB20FD/subject-3 m.csv","legacy","2 3","Kafkaesque Koffka","3.2.5","1","y","0","left","up","right","up","left","NA","485","1498","317853","340810","485","NA","2","legacy","2","1024","2","48000","-16","experiment","3","odd","2","1037535","1034194","1035296","2377","746574","1035306","1030199","2397","405762","1039532","1036319","1039045","320256","1039045","NA","Sternberg Task","65","55883","72","yes","1024"
"90.4109589041","90.4109589041","778.904109589","778.904109589","black","experiment","legacy","legacy","legacy","0","uniform","1","0","undefined","1","right","72","72","72","0","0","72","72","0","0","72","72","72","0","72","0","Sun Oct  7 19:02:45 2018","The main experiment item","yes","SternbergTask.osexp","/Volumes/USB20FD","no","mono","no","18","no","white","no","yes","768","legacy","60","11","/Volumes/USB20FD/subject-3 m.csv","legacy","1 7 5 2 9","Kafkaesque Koffka","3.2.5","0","n","0","right","up","right","up","right","NA","977","198","317853","340810","977","NA","2","legacy","5","1024","2","48000","-16","experiment","3","odd","3","1042889","1039545","1040650","2377","746574","1040660","1030199","2397","405762","1044079","1041675","1043100","320256","1043100","NA","Sternberg Task","66","56860","73","yes","1024"
"90.5405405405","90.5405405405","775.567567568","775.567567568","black","experiment","legacy","legacy","legacy","0","uniform","1","0","undefined","1","left","73","73","73","0","0","73","73","0","0","73","73","73","0","73","0","Sun Oct  7 19:02:45 2018","The main experiment item","yes","SternbergTask.osexp","/Volumes/USB20FD","no","mono","no","18","no","white","no","yes","768","legacy","61","11","/Volumes/USB20FD/subject-3 m.csv","legacy","8 5 1 3 9","Kafkaesque Koffka","3.2.5","4","y","0","left","up","right","up","left","NA","532","327","317853","340810","532","NA","2","legacy","5","1024","2","48000","-16","experiment","3","odd","3","1047442","1044092","1045202","2377","746574","1045212","1030199","2397","405762","1048315","1046226","1047781","320256","1047781","NA","Sternberg Task","67","57392","74","yes","1024"
"90.6666666667","90.6666666667","774.6","774.6","black","experiment","legacy","legacy","legacy","0","uniform","1","0","undefined","1","right","74","74","74","0","0","74","74","0","0","74","74","74","0","74","0","Sun Oct  7 19:02:45 2018","The main experiment item","yes","SternbergTask.osexp","/Volumes/USB20FD","no","mono","no","18","no","white","no","yes","768","legacy","62","11","/Volumes/USB20FD/subject-3 m.csv","legacy","2 5 1 4","Kafkaesque Koffka","3.2.5","0","n","0","right","up","right","up","right","NA","703","566","317853","340810","703","NA","2","legacy","4","1024","2","48000","-16","experiment","3","odd","6","1051676","1048327","1049432","2377","746574","1049442","1030199","2397","405762","1052959","1050458","1052254","320256","1052254","NA","Sternberg Task","68","58095","75","yes","1024"
"90.7894736842","90.7894736842","771.276315789","771.276315789","black","experiment","legacy","legacy","legacy","0","uniform","1","0","undefined","1","right","75","75","75","0","0","75","75","0","0","75","75","75","0","75","0","Sun Oct  7 19:02:45 2018","The main experiment item","yes","SternbergTask.osexp","/Volumes/USB20FD","no","mono","no","18","no","white","no","yes","768","legacy","63","11","/Volumes/USB20FD/subject-3 m.csv","legacy","9 8 2 7 4","Kafkaesque Koffka","3.2.5","0","n","0","right","up","right","up","right","NA","522","741","317853","340810","522","NA","2","legacy","5","1024","2","48000","-16","experiment","3","odd","5","1056310","1052971","1054072","2377","746574","1054082","1030199","2397","405762","1057586","1055094","1057063","320256","1057063","NA","Sternberg Task","69","58617","76","yes","1024"
"89.6103896104","89.6103896104","771.727272727","771.727272727","black","experiment","legacy","legacy","legacy","0","uniform","0","0","undefined","0","left","76","76","76","0","0","76","76","0","0","76","76","76","0","76","0","Sun Oct  7 19:02:45 2018","The main experiment item","yes","SternbergTask.osexp","/Volumes/USB20FD","no","mono","no","18","no","white","no","yes","768","legacy","64","11","/Volumes/USB20FD/subject-3 m.csv","legacy","7 1 8 5 6 2","Kafkaesque Koffka","3.2.5","2","y","0","right","up","right","up","right","NA","806","455","317853","340810","806","NA","2","legacy","6","1024","2","48000","-16","experiment","3","odd","1","1060951","1057601","1058709","2377","746574","1058719","1030199","2397","405762","1062225","1059732","1061418","320256","1061417","NA","Sternberg Task","69","59423","77","yes","1024"
"89.7435897436","89.7435897436","774.205128205","774.205128205","black","experiment","legacy","legacy","legacy","0","uniform","1","0","undefined","1","left","77","77","77","0","0","77","77","0","0","77","77","77","0","77","0","Sun Oct  7 19:02:45 2018","The main experiment item","yes","SternbergTask.osexp","/Volumes/USB20FD","no","mono","no","18","no","white","no","yes","768","legacy","65","11","/Volumes/USB20FD/subject-3 m.csv","legacy","4 3 2 5 8","Kafkaesque Koffka","3.2.5","2","y","0","left","up","right","up","left","NA","965","626","317853","340810","965","NA","2","legacy","5","1024","2","48000","-16","experiment","3","odd","3","1065581","1057601","1063342","2377","746574","1063352","1062238","2397","405762","1067188","1064368","1066221","320256","1066221","NA","Sternberg Task","70","60388","78","yes","1024"
"89.8734177215","89.8734177215","770.113924051","770.113924051","black","experiment","legacy","legacy","legacy","0","uniform","1","0","undefined","1","left","78","78","78","0","0","78","78","0","0","78","78","78","0","78","0","Sun Oct  7 19:02:45 2018","The main experiment item","yes","SternbergTask.osexp","/Volumes/USB20FD","no","mono","no","18","no","white","no","yes","768","legacy","66","11","/Volumes/USB20FD/subject-3 m.csv","legacy","2 8 5 1","Kafkaesque Koffka","3.2.5","4","y","0","left","up","right","up","left","NA","451","1347","317853","340810","451","NA","2","legacy","4","1024","2","48000","-16","experiment","3","odd","1","1070555","1067200","1068308","2377","746574","1068319","1062238","2397","405762","1072367","1069336","1071914","320256","1071914","NA","Sternberg Task","71","60839","79","yes","1024"
"90","90","767.3","767.3","black","experiment","legacy","legacy","legacy","0","uniform","1","0","undefined","1","left","79","79","79","0","0","79","79","0","0","79","79","79","0","79","0","Sun Oct  7 19:02:45 2018","The main experiment item","yes","SternbergTask.osexp","/Volumes/USB20FD","no","mono","no","18","no","white","no","yes","768","legacy","67","11","/Volumes/USB20FD/subject-3 m.csv","legacy","6 8 9 3 4 9","Kafkaesque Koffka","3.2.5","5","y","0","left","up","right","up","left","NA","545","1289","317853","340810","545","NA","2","legacy","6","1024","2","48000","-16","experiment","3","odd","4","1075725","1072379","1073486","2377","746574","1073496","1062238","2397","405762","1077573","1074510","1077026","320256","1077026","NA","Sternberg Task","72","61384","80","yes","1024"
"90.1234567901","90.1234567901","765.555555556","765.555555556","black","experiment","legacy","legacy","legacy","0","uniform","1","0","undefined","1","right","80","80","80","0","0","80","80","0","0","80","80","80","0","80","0","Sun Oct  7 19:02:45 2018","The main experiment item","yes","SternbergTask.osexp","/Volumes/USB20FD","no","mono","no","18","no","white","no","yes","768","legacy","68","11","/Volumes/USB20FD/subject-3 m.csv","legacy","6 7 5 9","Kafkaesque Koffka","3.2.5","0","n","0","right","up","right","up","right","NA","626","484","317853","340810","626","NA","2","legacy","4","1024","2","48000","-16","experiment","3","odd","2","1080935","1077588","1078695","2377","746574","1078705","1062238","2397","405762","1082060","1079718","1081432","320256","1081432","NA","Sternberg Task","73","62010","81","yes","1024"
"90.243902439","90.243902439","762.036585366","762.036585366","black","experiment","legacy","legacy","legacy","0","uniform","1","0","undefined","1","left","81","81","81","0","0","81","81","0","0","81","81","81","0","81","0","Sun Oct  7 19:02:45 2018","The main experiment item","yes","SternbergTask.osexp","/Volumes/USB20FD","no","mono","no","18","no","white","no","yes","768","legacy","69","11","/Volumes/USB20FD/subject-3 m.csv","legacy","3 4","Kafkaesque Koffka","3.2.5","1","y","0","left","up","right","up","left","NA","477","873","317853","340810","477","NA","2","legacy","2","1024","2","48000","-16","experiment","3","odd","3","1085420","1082079","1083179","2377","746574","1083190","1062238","2397","405762","1086784","1084204","1086305","320256","1086305","NA","Sternberg Task","74","62487","82","yes","1024"
"90.3614457831","90.3614457831","759.192771084","759.192771084","black","experiment","legacy","legacy","legacy","0","uniform","1","0","undefined","1","right","82","82","82","0","0","82","82","0","0","82","82","82","0","82","0","Sun Oct  7 19:02:45 2018","The main experiment item","yes","SternbergTask.osexp","/Volumes/USB20FD","no","mono","no","18","no","white","no","yes","768","legacy","70","11","/Volumes/USB20FD/subject-3 m.csv","legacy","1 7 5 2","Kafkaesque Koffka","3.2.5","0","n","0","right","up","right","up","right","NA","526","889","317853","340810","526","NA","2","legacy","4","1024","2","48000","-16","experiment","3","odd","3","1090142","1086797","1087900","2377","746574","1087910","1062238","2397","405762","1091572","1088926","1091043","320256","1091043","NA","Sternberg Task","75","63013","83","yes","1024"
"90.4761904762","90.4761904762","758.714285714","758.714285714","black","experiment","legacy","legacy","legacy","0","uniform","1","0","undefined","1","right","83","83","83","0","0","83","83","0","0","83","83","83","0","83","0","Sun Oct  7 19:02:45 2018","The main experiment item","yes","SternbergTask.osexp","/Volumes/USB20FD","no","mono","no","18","no","white","no","yes","768","legacy","71","11","/Volumes/USB20FD/subject-3 m.csv","legacy","2 8 7 9 5 3","Kafkaesque Koffka","3.2.5","0","n","0","right","up","right","up","right","NA","719","608","317853","340810","719","NA","2","legacy","6","1024","2","48000","-16","experiment","3","odd","6","1094936","1091584","1092691","2377","746574","1092701","1062238","2397","405762","1096278","1093719","1095557","320256","1095556","NA","Sternberg Task","76","63732","84","yes","1024"
"90.5882352941","90.5882352941","764.482352941","764.482352941","black","experiment","legacy","legacy","legacy","0","uniform","1","0","undefined","1","right","84","84","84","0","0","84","84","0","0","84","84","84","0","84","0","Sun Oct  7 19:02:45 2018","The main experiment item","yes","SternbergTask.osexp","/Volumes/USB20FD","no","mono","no","18","no","white","no","yes","768","legacy","72","11","/Volumes/USB20FD/subject-3 m.csv","legacy","8 5 7 3 6","Kafkaesque Koffka","3.2.5","0","n","0","right","up","right","up","right","NA","1249","853","317853","340810","1249","NA","2","legacy","5","1024","2","48000","-16","experiment","3","odd","9","1099639","1096291","1097394","2377","746574","1097404","1062238","2397","405762","1101755","1098422","1100504","320256","1100503","NA","Sternberg Task","77","64981","85","yes","1024"
"90.6976744186","90.6976744186","762.779069767","762.779069767","black","experiment","legacy","legacy","legacy","0","uniform","1","0","undefined","1","left","85","85","85","0","0","85","85","0","0","85","85","85","0","85","0","Sun Oct  7 19:02:45 2018","The main experiment item","yes","SternbergTask.osexp","/Volumes/USB20FD","no","mono","no","18","no","white","no","yes","768","legacy","73","11","/Volumes/USB20FD/subject-3 m.csv","legacy","9 6 2 4 1","Kafkaesque Koffka","3.2.5","4","y","0","left","up","right","up","left","NA","618","718","317853","340810","618","NA","2","legacy","5","1024","2","48000","-16","experiment","3","odd","4","1105109","1101768","1102872","2377","746574","1102882","1062238","2397","405762","1106459","1103892","1105839","320256","1105839","NA","Sternberg Task","78","65599","86","yes","1024"
"90.8045977011","90.8045977011","763.471264368","763.471264368","black","experiment","legacy","legacy","legacy","0","uniform","1","0","undefined","1","right","86","86","86","0","0","86","86","0","0","86","86","86","0","86","0","Sun Oct  7 19:02:45 2018","The main experiment item","yes","SternbergTask.osexp","/Volumes/USB20FD","no","mono","no","18","no","white","no","yes","768","legacy","74","11","/Volumes/USB20FD/subject-3 m.csv","legacy","6 8","Kafkaesque Koffka","3.2.5","0","n","0","right","up","right","up","right","NA","823","1034","317853","340810","823","NA","2","legacy","2","1024","2","48000","-16","experiment","3","odd","9","1109825","1106474","1107587","2377","746574","1107597","1062238","2397","405762","1111697","1108607","1110872","320256","1110872","NA","Sternberg Task","79","66422","87","yes","1024"
"90.9090909091","90.9090909091","763.170454545","763.170454545","black","experiment","legacy","legacy","legacy","0","uniform","1","0","undefined","1","right","87","87","87","0","0","87","87","0","0","87","87","87","0","87","0","Sun Oct  7 19:02:45 2018","The main experiment item","yes","SternbergTask.osexp","/Volumes/USB20FD","no","mono","no","18","no","white","no","yes","768","legacy","75","11","/Volumes/USB20FD/subject-3 m.csv","legacy","1","Kafkaesque Koffka","3.2.5","0","n","0","right","up","right","up","right","NA","737","385","317853","340810","737","NA","2","legacy","1","1024","2","48000","-16","experiment","3","odd","7","1115058","1111709","1112813","2377","746574","1112823","1062238","2397","405762","1116194","1113840","1115455","320256","1115455","NA","Sternberg Task","80","67159","88","yes","1024"
"91.0112359551","91.0112359551","762.685393258","762.685393258","black","experiment","legacy","legacy","legacy","0","uniform","1","0","undefined","1","left","88","88","88","0","0","88","88","0","0","88","88","88","0","88","0","Sun Oct  7 19:02:45 2018","The main experiment item","yes","SternbergTask.osexp","/Volumes/USB20FD","no","mono","no","18","no","white","no","yes","768","legacy","76","11","/Volumes/USB20FD/subject-3 m.csv","legacy","4 1 8 7 5","Kafkaesque Koffka","3.2.5","3","y","0","left","up","right","up","left","NA","720","1462","317853","340810","720","NA","2","legacy","5","1024","2","48000","-16","experiment","3","odd","8","1119561","1116207","1117318","2377","746574","1117329","1062238","2397","405762","1121758","1118346","1121036","320256","1121036","NA","Sternberg Task","81","67879","89","yes","1024"
"91.1111111111","91.1111111111","761.311111111","761.311111111","black","experiment","legacy","legacy","legacy","0","uniform","1","0","undefined","1","right","89","89","89","0","0","89","89","0","0","89","89","89","0","89","0","Sun Oct  7 19:02:45 2018","The main experiment item","yes","SternbergTask.osexp","/Volumes/USB20FD","no","mono","no","18","no","white","no","yes","768","legacy","77","11","/Volumes/USB20FD/subject-3 m.csv","legacy","8 6 3 4 7","Kafkaesque Koffka","3.2.5","0","n","0","right","up","right","up","right","NA","639","779","317853","340810","639","NA","2","legacy","5","1024","2","48000","-16","experiment","3","odd","1","1125115","1121771","1122876","2377","746574","1122886","1062238","2397","405762","1126548","1123899","1125907","320256","1125906","NA","Sternberg Task","82","68518","90","yes","1024"
"91.2087912088","91.2087912088","759.208791209","759.208791209","black","experiment","legacy","legacy","legacy","0","uniform","1","0","undefined","1","right","90","90","90","0","0","90","90","0","0","90","90","90","0","90","0","Sun Oct  7 19:02:45 2018","The main experiment item","yes","SternbergTask.osexp","/Volumes/USB20FD","no","mono","no","18","no","white","no","yes","768","legacy","78","11","/Volumes/USB20FD/subject-3 m.csv","legacy","8 4 3 9","Kafkaesque Koffka","3.2.5","0","n","0","right","up","right","up","right","NA","570","491","317853","340810","570","NA","2","legacy","4","1024","2","48000","-16","experiment","3","odd","5","1129902","1126562","1127667","2377","746574","1127677","1062238","2397","405762","1130977","1128692","1130405","320256","1130405","NA","Sternberg Task","83","69088","91","yes","1024"
"90.2173913043","90.2173913043","757.184782609","757.184782609","black","experiment","legacy","legacy","legacy","0","uniform","0","0","undefined","0","left","91","91","91","0","0","91","91","0","0","91","91","91","0","91","0","Sun Oct  7 19:02:45 2018","The main experiment item","yes","SternbergTask.osexp","/Volumes/USB20FD","no","mono","no","18","no","white","no","yes","768","legacy","79","11","/Volumes/USB20FD/subject-3 m.csv","legacy","8 9 5 7 1 6","Kafkaesque Koffka","3.2.5","4","y","0","right","up","right","up","right","NA","573","580","317853","340810","573","NA","2","legacy","6","1024","2","48000","-16","experiment","3","odd","7","1134344","1130991","1132102","2377","746574","1132112","1062238","2397","405762","1135512","1133126","1134937","320256","1134936","NA","Sternberg Task","83","69661","92","yes","1024"
"90.3225806452","90.3225806452","754.11827957","754.11827957","black","experiment","legacy","legacy","legacy","0","uniform","1","0","undefined","1","left","92","92","92","0","0","92","92","0","0","92","92","92","0","92","0","Sun Oct  7 19:02:45 2018","The main experiment item","yes","SternbergTask.osexp","/Volumes/USB20FD","no","mono","no","18","no","white","no","yes","768","legacy","80","11","/Volumes/USB20FD/subject-3 m.csv","legacy","8 9 5 6 7","Kafkaesque Koffka","3.2.5","1","y","0","left","up","right","up","left","NA","472","301","317853","340810","472","NA","2","legacy","5","1024","2","48000","-16","experiment","3","odd","8","1138872","1130991","1136628","2377","746574","1136638","1135525","2397","405762","1139661","1137654","1139187","320256","1139187","NA","Sternberg Task","84","70133","93","yes","1024"
"90.4255319149","90.4255319149","751.191489362","751.191489362","black","experiment","legacy","legacy","legacy","0","uniform","1","0","undefined","1","left","93","93","93","0","0","93","93","0","0","93","93","93","0","93","0","Sun Oct  7 19:02:45 2018","The main experiment item","yes","SternbergTask.osexp","/Volumes/USB20FD","no","mono","no","18","no","white","no","yes","768","legacy","81","11","/Volumes/USB20FD/subject-3 m.csv","legacy","7","Kafkaesque Koffka","3.2.5","1","y","0","left","up","right","up","left","NA","479","576","317853","340810","479","NA","2","legacy","1","1024","2","48000","-16","experiment","3","odd","7","1143014","1139674","1140776","2377","746574","1140787","1135525","2397","405762","1144084","1141801","1143603","320256","1143602","NA","Sternberg Task","85","70612","94","yes","1024"
"90.5263157895","90.5263157895","748.357894737","748.357894737","black","experiment","legacy","legacy","legacy","0","uniform","1","0","undefined","1","left","94","94","94","0","0","94","94","0","0","94","94","94","0","94","0","Sun Oct  7 19:02:45 2018","The main experiment item","yes","SternbergTask.osexp","/Volumes/USB20FD","no","mono","no","18","no","white","no","yes","768","legacy","82","11","/Volumes/USB20FD/subject-3 m.csv","legacy","6 2","Kafkaesque Koffka","3.2.5","1","y","0","left","up","right","up","left","NA","482","383","317853","340810","482","NA","2","legacy","2","1024","2","48000","-16","experiment","3","odd","6","1147445","1144097","1145201","2377","746574","1145211","1135525","2397","405762","1148325","1146225","1147840","320256","1147840","NA","Sternberg Task","86","71094","95","yes","1024"
"90.625","90.625","746.833333333","746.833333333","black","experiment","legacy","legacy","legacy","0","uniform","1","0","undefined","1","right","95","95","95","0","0","95","95","0","0","95","95","95","0","95","0","Sun Oct  7 19:02:45 2018","The main experiment item","yes","SternbergTask.osexp","/Volumes/USB20FD","no","mono","no","18","no","white","no","yes","768","legacy","83","11","/Volumes/USB20FD/subject-3 m.csv","legacy","2 8 9 4 1","Kafkaesque Koffka","3.2.5","0","n","0","right","up","right","up","right","NA","602","637","317853","340810","602","NA","2","legacy","5","1024","2","48000","-16","experiment","3","odd","5","1151680","1148337","1149440","2377","746574","1149450","1135525","2397","405762","1152934","1150463","1152329","320256","1152328","NA","Sternberg Task","87","71696","96","yes","1024"
"90.7216494845","90.7216494845","751.072164948","751.072164948","black","experiment","legacy","legacy","legacy","0","uniform","1","0","undefined","1","right","96","96","96","0","0","96","96","0","0","96","96","96","0","96","0","Sun Oct  7 19:02:45 2018","The main experiment item","yes","SternbergTask.osexp","/Volumes/USB20FD","no","mono","no","18","no","white","no","yes","768","legacy","84","11","/Volumes/USB20FD/subject-3 m.csv","legacy","5 7 3","Kafkaesque Koffka","3.2.5","0","n","0","right","up","right","up","right","NA","1158","368","317853","340810","1158","NA","2","legacy","3","1024","2","48000","-16","experiment","3","odd","9","1156297","1152951","1154055","2377","746574","1154065","1135525","2397","405762","1157839","1155081","1156678","320256","1156677","NA","Sternberg Task","88","72854","97","yes","1024"
"90.8163265306","90.8163265306","748.948979592","748.948979592","black","experiment","legacy","legacy","legacy","0","uniform","1","0","undefined","1","left","97","97","97","0","0","97","97","0","0","97","97","97","0","97","0","Sun Oct  7 19:02:45 2018","The main experiment item","yes","SternbergTask.osexp","/Volumes/USB20FD","no","mono","no","18","no","white","no","yes","768","legacy","85","11","/Volumes/USB20FD/subject-3 m.csv","legacy","4","Kafkaesque Koffka","3.2.5","1","y","0","left","up","right","up","left","NA","543","724","317853","340810","543","NA","2","legacy","1","1024","2","48000","-16","experiment","3","odd","4","1161192","1157851","1158953","2377","746574","1158963","1135525","2397","405762","1162475","1159976","1161929","320256","1161928","NA","Sternberg Task","89","73397","98","yes","1024"
"90.9090909091","90.9090909091","749.222222222","749.222222222","black","experiment","legacy","legacy","legacy","0","uniform","1","0","undefined","1","right","98","98","98","0","0","98","98","0","0","98","98","98","0","98","0","Sun Oct  7 19:02:45 2018","The main experiment item","yes","SternbergTask.osexp","/Volumes/USB20FD","no","mono","no","18","no","white","no","yes","768","legacy","86","11","/Volumes/USB20FD/subject-3 m.csv","legacy","2 8 9","Kafkaesque Koffka","3.2.5","0","n","0","right","up","right","up","right","NA","776","636","317853","340810","776","NA","2","legacy","3","1024","2","48000","-16","experiment","3","odd","6","1165832","1162487","1163589","2377","746574","1163599","1135525","2397","405762","1167258","1164615","1166480","320256","1166480","NA","Sternberg Task","90","74173","99","yes","1024"
"91","91","747.26","747.26","black","experiment","legacy","legacy","legacy","0","uniform","1","0","undefined","1","right","99","99","99","0","0","99","99","0","0","99","99","99","0","99","0","Sun Oct  7 19:02:45 2018","The main experiment item","yes","SternbergTask.osexp","/Volumes/USB20FD","no","mono","no","18","no","white","no","yes","768","legacy","87","11","/Volumes/USB20FD/subject-3 m.csv","legacy","6 2 9 3 8 4","Kafkaesque Koffka","3.2.5","0","n","0","right","up","right","up","right","NA","553","980","317853","340810","553","NA","2","legacy","6","1024","2","48000","-16","experiment","3","odd","1","1170613","1167270","1168375","2377","746574","1168385","1135525","2397","405762","1172161","1169395","1171606","320256","1171606","NA","Sternberg Task","91","74726","100","yes","1024"
"91.0891089109","91.0891089109","750.782178218","750.782178218","black","experiment","legacy","legacy","legacy","0","uniform","1","0","undefined","1","right","100","100","100","0","0","100","100","0","0","100","100","100","0","100","0","Sun Oct  7 19:02:45 2018","The main experiment item","yes","SternbergTask.osexp","/Volumes/USB20FD","no","mono","no","18","no","white","no","yes","768","legacy","88","11","/Volumes/USB20FD/subject-3 m.csv","legacy","4 2 7 6 1 3","Kafkaesque Koffka","3.2.5","0","n","0","right","up","right","up","right","NA","1103","650","317853","340810","1103","NA","2","legacy","6","1024","2","48000","-16","experiment","3","odd","8","1175516","1172175","1173278","2377","746574","1173289","1135525","2397","405762","1177285","1174301","1176180","320256","1176180","NA","Sternberg Task","92","75829","101","yes","1024"
"91.1764705882","91.1764705882","748.62745098","748.62745098","black","experiment","legacy","legacy","legacy","0","uniform","1","0","undefined","1","left","101","101","101","0","0","101","101","0","0","101","101","101","0","101","0","Sun Oct  7 19:02:45 2018","The main experiment item","yes","SternbergTask.osexp","/Volumes/USB20FD","no","mono","no","18","no","white","no","yes","768","legacy","89","11","/Volumes/USB20FD/subject-3 m.csv","legacy","9 1 6 7 8","Kafkaesque Koffka","3.2.5","1","y","0","left","up","right","up","left","NA","531","580","317853","340810","531","NA","2","legacy","5","1024","2","48000","-16","experiment","3","odd","9","1180648","1177302","1178408","2377","746574","1178419","1135525","2397","405762","1181774","1179432","1181241","320256","1181241","NA","Sternberg Task","93","76360","102","yes","1024"
"90.2912621359","90.2912621359","746.32038835","746.32038835","black","experiment","legacy","legacy","legacy","0","uniform","0","0","undefined","0","left","102","102","102","0","0","102","102","0","0","102","102","102","0","102","0","Sun Oct  7 19:02:45 2018","The main experiment item","yes","SternbergTask.osexp","/Volumes/USB20FD","no","mono","no","18","no","white","no","yes","768","legacy","90","11","/Volumes/USB20FD/subject-3 m.csv","legacy","7 6","Kafkaesque Koffka","3.2.5","2","y","0","right","up","right","up","right","NA","511","323","317853","340810","511","NA","2","legacy","2","1024","2","48000","-16","experiment","3","odd","6","1185131","1181787","1182892","2377","746574","1182902","1135525","2397","405762","1185980","1183915","1185467","320256","1185467","NA","Sternberg Task","93","76871","103","yes","1024"
"90.3846153846","90.3846153846","744.807692308","744.807692308","black","experiment","legacy","legacy","legacy","0","uniform","1","0","undefined","1","left","103","103","103","0","0","103","103","0","0","103","103","103","0","103","0","Sun Oct  7 19:02:45 2018","The main experiment item","yes","SternbergTask.osexp","/Volumes/USB20FD","no","mono","no","18","no","white","no","yes","768","legacy","91","11","/Volumes/USB20FD/subject-3 m.csv","legacy","4 6 2 5 1","Kafkaesque Koffka","3.2.5","5","y","0","left","up","right","up","left","NA","589","479","317853","340810","589","NA","2","legacy","5","1024","2","48000","-16","experiment","3","odd","1","1189341","1181787","1187099","2377","746574","1187110","1185993","2397","405762","1190423","1188126","1189832","320256","1189832","NA","Sternberg Task","94","77460","104","yes","1024"
"90.4761904762","90.4761904762","741.942857143","741.942857143","black","experiment","legacy","legacy","legacy","0","uniform","1","0","undefined","1","left","104","104","104","0","0","104","104","0","0","104","104","104","0","104","0","Sun Oct  7 19:02:45 2018","The main experiment item","yes","SternbergTask.osexp","/Volumes/USB20FD","no","mono","no","18","no","white","no","yes","768","legacy","92","11","/Volumes/USB20FD/subject-3 m.csv","legacy","9 5 3 8 4","Kafkaesque Koffka","3.2.5","1","y","0","left","up","right","up","left","NA","444","658","317853","340810","444","NA","2","legacy","5","1024","2","48000","-16","experiment","3","odd","9","1193779","1190435","1191538","2377","746574","1191548","1185993","2397","405762","1194895","1192562","1194449","320256","1194449","NA","Sternberg Task","95","77904","105","yes","1024"
"90.5660377358","90.5660377358","739.443396226","739.443396226","black","experiment","legacy","legacy","legacy","0","uniform","1","0","undefined","1","left","105","105","105","0","0","105","105","0","0","105","105","105","0","105","0","Sun Oct  7 19:02:45 2018","The main experiment item","yes","SternbergTask.osexp","/Volumes/USB20FD","no","mono","no","18","no","white","no","yes","768","legacy","93","11","/Volumes/USB20FD/subject-3 m.csv","legacy","4 9 7 8 5 3","Kafkaesque Koffka","3.2.5","4","y","0","left","up","right","up","left","NA","477","799","317853","340810","477","NA","2","legacy","6","1024","2","48000","-16","experiment","3","odd","8","1198257","1194908","1196013","2377","746574","1196023","1185993","2397","405762","1199547","1197041","1199068","320256","1199068","NA","Sternberg Task","96","78381","106","yes","1024"
"90.6542056075","90.6542056075","737.551401869","737.551401869","black","experiment","legacy","legacy","legacy","0","uniform","1","0","undefined","1","left","106","106","106","0","0","106","106","0","0","106","106","106","0","106","0","Sun Oct  7 19:02:45 2018","The main experiment item","yes","SternbergTask.osexp","/Volumes/USB20FD","no","mono","no","18","no","white","no","yes","768","legacy","94","11","/Volumes/USB20FD/subject-3 m.csv","legacy","7 8 6 3 1","Kafkaesque Koffka","3.2.5","5","y","0","left","up","right","up","left","NA","537","1307","317853","340810","537","NA","2","legacy","5","1024","2","48000","-16","experiment","3","odd","1","1202907","1199565","1200670","2377","746574","1200680","1185993","2397","405762","1204767","1201691","1204227","320256","1204227","NA","Sternberg Task","97","78918","107","yes","1024"
"90.7407407407","90.7407407407","735.398148148","735.398148148","black","experiment","legacy","legacy","legacy","0","uniform","1","0","undefined","1","right","107","107","107","0","0","107","107","0","0","107","107","107","0","107","0","Sun Oct  7 19:02:45 2018","The main experiment item","yes","SternbergTask.osexp","/Volumes/USB20FD","no","mono","no","18","no","white","no","yes","768","legacy","95","11","/Volumes/USB20FD/subject-3 m.csv","legacy","1 4 9 3","Kafkaesque Koffka","3.2.5","0","n","0","right","up","right","up","right","NA","505","479","317853","340810","505","NA","2","legacy","4","1024","2","48000","-16","experiment","3","odd","5","1208129","1204779","1205885","2377","746574","1205898","1185993","2397","405762","1209127","1206913","1208620","320256","1208620","NA","Sternberg Task","98","79423","108","yes","1024"
"90.8256880734","90.8256880734","734.605504587","734.605504587","black","experiment","legacy","legacy","legacy","0","uniform","1","0","undefined","1","right","108","108","108","0","0","108","108","0","0","108","108","108","0","108","0","Sun Oct  7 19:02:45 2018","The main experiment item","yes","SternbergTask.osexp","/Volumes/USB20FD","no","mono","no","18","no","white","no","yes","768","legacy","96","11","/Volumes/USB20FD/subject-3 m.csv","legacy","1 3 2 6 9","Kafkaesque Koffka","3.2.5","0","n","0","right","up","right","up","right","NA","649","1056","317853","340810","649","NA","2","legacy","5","1024","2","48000","-16","experiment","3","odd","5","1212492","1209140","1210250","2377","746574","1210260","1185993","2397","405762","1214212","1211274","1213561","320256","1213560","NA","Sternberg Task","99","80072","109","yes","1024"
"90.9090909091","90.9090909091","732.981818182","732.981818182","black","experiment","legacy","legacy","legacy","0","uniform","1","0","undefined","1","right","109","109","109","0","0","109","109","0","0","109","109","109","0","109","0","Sun Oct  7 19:02:45 2018","The main experiment item","yes","SternbergTask.osexp","/Volumes/USB20FD","no","mono","no","18","no","white","no","yes","768","legacy","97","11","/Volumes/USB20FD/subject-3 m.csv","legacy","3 9 1","Kafkaesque Koffka","3.2.5","0","n","0","right","up","right","up","right","NA","556","407","317853","340810","556","NA","2","legacy","3","1024","2","48000","-16","experiment","3","odd","7","1217566","1214225","1215330","2377","746574","1215341","1185993","2397","405762","1218543","1216354","1217985","320256","1217985","NA","Sternberg Task","100","80628","110","yes","1024"
"90.990990991","90.990990991","731.045045045","731.045045045","black","experiment","legacy","legacy","legacy","0","uniform","1","0","undefined","1","left","110","110","110","0","0","110","110","0","0","110","110","110","0","110","0","Sun Oct  7 19:02:45 2018","The main experiment item","yes","SternbergTask.osexp","/Volumes/USB20FD","no","mono","no","18","no","white","no","yes","768","legacy","98","11","/Volumes/USB20FD/subject-3 m.csv","legacy","9 8 4","Kafkaesque Koffka","3.2.5","1","y","0","left","up","right","up","left","NA","518","789","317853","340810","518","NA","2","legacy","3","1024","2","48000","-16","experiment","3","odd","9","1222432","1219091","1220193","2377","746574","1220204","1185993","2397","405762","1223754","1221214","1223233","320256","1223233","NA","Sternberg Task","101","81146","111","yes","1024"
"91.0714285714","91.0714285714","728.678571429","728.678571429","black","experiment","legacy","legacy","legacy","0","uniform","1","0","undefined","1","left","111","111","111","0","0","111","111","0","0","111","111","111","0","111","0","Sun Oct  7 19:02:45 2018","The main experiment item","yes","SternbergTask.osexp","/Volumes/USB20FD","no","mono","no","18","no","white","no","yes","768","legacy","99","11","/Volumes/USB20FD/subject-3 m.csv","legacy","3 4 9 6 2 9","Kafkaesque Koffka","3.2.5","5","y","0","left","up","right","up","left","NA","466","2816","317853","340810","466","NA","2","legacy","6","1024","2","48000","-16","experiment","3","odd","2","1227125","1223774","1224886","2377","746574","1224896","1185993","2397","405762","1230422","1225910","1229954","320256","1229954","NA","Sternberg Task","102","81612","112","yes","1024"
"91.1504424779","91.1504424779","729.327433628","729.327433628","black","experiment","legacy","legacy","legacy","0","uniform","1","0","undefined","1","right","112","112","112","0","0","112","112","0","0","112","112","112","0","112","0","Sun Oct  7 19:02:45 2018","The main experiment item","yes","SternbergTask.osexp","/Volumes/USB20FD","no","mono","no","18","no","white","no","yes","768","legacy","100","11","/Volumes/USB20FD/subject-3 m.csv","legacy","5 9 2 3","Kafkaesque Koffka","3.2.5","0","n","0","right","up","right","up","right","NA","802","450","317853","340810","802","NA","2","legacy","4","1024","2","48000","-16","experiment","3","odd","8","1233788","1230435","1231544","2377","746574","1231554","1185993","2397","405762","1235055","1232570","1234251","320256","1234250","NA","Sternberg Task","103","82414","113","yes","1024"
"91.2280701754","91.2280701754","727.666666667","727.666666667","black","experiment","legacy","legacy","legacy","0","uniform","1","0","undefined","1","left","113","113","113","0","0","113","113","0","0","113","113","113","0","113","0","Sun Oct  7 19:02:45 2018","The main experiment item","yes","SternbergTask.osexp","/Volumes/USB20FD","no","mono","no","18","no","white","no","yes","768","legacy","101","11","/Volumes/USB20FD/subject-3 m.csv","legacy","2 6 1 7 4","Kafkaesque Koffka","3.2.5","2","y","0","left","up","right","up","left","NA","540","716","317853","340810","540","NA","2","legacy","5","1024","2","48000","-16","experiment","3","odd","6","1238409","1235068","1236172","2377","746574","1236182","1185993","2397","405762","1239680","1237196","1239138","320256","1239138","NA","Sternberg Task","104","82954","114","yes","1024"
"91.3043478261","91.3043478261","726.730434783","726.730434783","black","experiment","legacy","legacy","legacy","0","uniform","1","0","undefined","1","right","114","114","114","0","0","114","114","0","0","114","114","114","0","114","0","Sun Oct  7 19:02:45 2018","The main experiment item","yes","SternbergTask.osexp","/Volumes/USB20FD","no","mono","no","18","no","white","no","yes","768","legacy","102","11","/Volumes/USB20FD/subject-3 m.csv","legacy","7 3 2 8","Kafkaesque Koffka","3.2.5","0","n","0","right","up","right","up","right","NA","620","780","317853","340810","620","NA","2","legacy","4","1024","2","48000","-16","experiment","3","odd","4","1243041","1239693","1240801","2377","746574","1240811","1185993","2397","405762","1244455","1241826","1243833","320256","1243833","NA","Sternberg Task","105","83574","115","yes","1024"
"91.3793103448","91.3793103448","726.698275862","726.698275862","black","experiment","legacy","legacy","legacy","0","uniform","1","0","undefined","1","left","115","115","115","0","0","115","115","0","0","115","115","115","0","115","0","Sun Oct  7 19:02:45 2018","The main experiment item","yes","SternbergTask.osexp","/Volumes/USB20FD","no","mono","no","18","no","white","no","yes","768","legacy","103","11","/Volumes/USB20FD/subject-3 m.csv","legacy","8 7 3","Kafkaesque Koffka","3.2.5","1","y","0","left","up","right","up","left","NA","723","383","317853","340810","723","NA","2","legacy","3","1024","2","48000","-16","experiment","3","odd","8","1247815","1244470","1245575","2377","746574","1245585","1185993","2397","405762","1248937","1246599","1248211","320256","1248211","NA","Sternberg Task","106","84297","116","yes","1024"
"91.452991453","91.452991453","725.957264957","725.957264957","black","experiment","legacy","legacy","legacy","0","uniform","1","0","undefined","1","right","116","116","116","0","0","116","116","0","0","116","116","116","0","116","0","Sun Oct  7 19:02:45 2018","The main experiment item","yes","SternbergTask.osexp","/Volumes/USB20FD","no","mono","no","18","no","white","no","yes","768","legacy","104","11","/Volumes/USB20FD/subject-3 m.csv","legacy","1 6 4 3 9 7","Kafkaesque Koffka","3.2.5","0","n","0","right","up","right","up","right","NA","640","1126","317853","340810","640","NA","2","legacy","6","1024","2","48000","-16","experiment","3","odd","8","1252294","1248949","1250052","2377","746574","1250062","1185993","2397","405762","1254075","1251076","1253433","320256","1253433","NA","Sternberg Task","107","84937","117","yes","1024"
"91.5254237288","91.5254237288","724.186440678","724.186440678","black","experiment","legacy","legacy","legacy","0","uniform","1","0","undefined","1","left","117","117","117","0","0","117","117","0","0","117","117","117","0","117","0","Sun Oct  7 19:02:45 2018","The main experiment item","yes","SternbergTask.osexp","/Volumes/USB20FD","no","mono","no","18","no","white","no","yes","768","legacy","105","11","/Volumes/USB20FD/subject-3 m.csv","legacy","2 4 8 5 1 3","Kafkaesque Koffka","3.2.5","1","y","0","left","up","right","up","left","NA","517","1017","317853","340810","517","NA","2","legacy","6","1024","2","48000","-16","experiment","3","odd","2","1257439","1254088","1255196","2377","746574","1255206","1185993","2397","405762","1258988","1256222","1258469","320256","1258468","NA","Sternberg Task","108","85454","118","yes","1024"
"91.5966386555","91.5966386555","722.25210084","722.25210084","black","experiment","legacy","legacy","legacy","0","uniform","1","0","undefined","1","left","118","118","118","0","0","118","118","0","0","118","118","118","0","118","0","Sun Oct  7 19:02:45 2018","The main experiment item","yes","SternbergTask.osexp","/Volumes/USB20FD","no","mono","no","18","no","white","no","yes","768","legacy","106","11","/Volumes/USB20FD/subject-3 m.csv","legacy","2 4 6 9","Kafkaesque Koffka","3.2.5","3","y","0","left","up","right","up","left","NA","494","500","317853","340810","494","NA","2","legacy","4","1024","2","48000","-16","experiment","3","odd","6","1262353","1259000","1260110","2377","746574","1260122","1185993","2397","405762","1263362","1261133","1262866","320256","1262866","NA","Sternberg Task","109","85948","119","yes","1024"
"91.6666666667","91.6666666667","721.058333333","721.058333333","black","experiment","legacy","legacy","legacy","0","uniform","1","0","undefined","1","right","119","119","119","0","0","119","119","0","0","119","119","119","0","119","0","Sun Oct  7 19:02:45 2018","The main experiment item","yes","SternbergTask.osexp","/Volumes/USB20FD","no","mono","no","18","no","white","no","yes","768","legacy","107","11","/Volumes/USB20FD/subject-3 m.csv","legacy","7 1 5 6 3","Kafkaesque Koffka","3.2.5","0","n","0","right","up","right","up","right","NA","579","1065","317853","340810","579","NA","2","legacy","5","1024","2","48000","-16","experiment","3","odd","8","1266727","1263378","1264485","2377","746574","1264496","1185993","2397","405762","1268386","1265511","1267805","320256","1267805","NA","Sternberg Task","110","86527","120","yes","1024"
