"acc","accuracy","average_response_time","avg_rt","background","bidi","block","canvas_backend","clock_backend","color_backend","compensation","coordinates","correct","correct_Instruction1","correct_keyboard_response","correct_response","count_CorrectResponse","count_ExperimentLoop","count_Fixation","count_ISI","count_IncorrectFeedback","count_Instruction1","count_Instructions2","count_Memory","count_PracticeLoop","count_Probe","count_Sternburgtask","count_Thankyou","count_XSequence","count_keyboard_response","count_logger","datetime","description","disable_garbage_collection","empty_column","experiment_file","experiment_path","font_bold","font_family","font_italic","font_size","font_underline","foreground","form_clicks","fullscreen","height","keyboard_backend","live_row","live_row_PracticeLoop","logfile","mouse_backend","numberSet","opensesame_codename","opensesame_version","posInSet","present","repeat_cycle","response","response_Instruction1","response_Instructions2","response_Thankyou","response_keyboard_response","response_time","response_time_Instruction1","response_time_Instructions2","response_time_Thankyou","response_time_keyboard_response","round_decimals","sampler_backend","setSize","sound_buf_size","sound_channels","sound_freq","sound_sample_size","start","subject_nr","subject_parity","target","time_CorrectResponse","time_ExperimentLoop","time_Fixation","time_ISI","time_IncorrectFeedback","time_Instruction1","time_Instructions2","time_Memory","time_PracticeLoop","time_Probe","time_Sternburgtask","time_Thankyou","time_XSequence","time_keyboard_response","time_logger","title","total_correct","total_response_time","total_responses","uniform_coordinates","width"
"0","0","2000","2000","black","no","practice","legacy","legacy","legacy","0","uniform","0","undefined","0","right","0","0","0","0","0","0","0","0","0","0","0","0","0","0","0","Wed Oct  3 19:42:11 2018","The main experiment item","yes","NA","Sternburg Task.osexp","/Users/danieldalton","no","mono","no","18","no","white","no","yes","768","legacy","0","0","/Users/danieldalton/subject-2.csv","legacy","4 1 5","Jazzy James","3.1.9","0","n","0","None","right","NA","NA","None","2000","37932","NA","NA","2000","2","legacy","3","1024","2","48000","-16","Sternburgtask","2","even","2","NA","NA","41189","43421","NA","2155","NA","42204","40099","45434","2128","NA","41178","45435","47435","New experiment","0","2000","1","yes","1024"
"50","50","1332.5","1332.5","black","no","practice","legacy","legacy","legacy","0","uniform","1","undefined","1","right","1","0","1","1","1","0","0","1","0","1","0","0","1","1","1","Wed Oct  3 19:42:11 2018","The main experiment item","yes","NA","Sternburg Task.osexp","/Users/danieldalton","no","mono","no","18","no","white","no","yes","768","legacy","1","1","/Users/danieldalton/subject-2.csv","legacy","5 7 8 4 1 2","Jazzy James","3.1.9","0","n","0","right","right","NA","NA","right","665","37932","NA","NA","665","2","legacy","6","1024","2","48000","-16","Sternburgtask","2","even","6","NA","NA","48518","50754","47453","2155","NA","49533","40099","52766","2128","NA","48505","52767","53433","New experiment","1","2665","2","yes","1024"
"66.6666666667","66.6666666667","1433","1433","black","no","practice","legacy","legacy","legacy","0","uniform","1","undefined","1","left","2","0","2","2","2","0","0","2","0","2","0","0","2","2","2","Wed Oct  3 19:42:11 2018","The main experiment item","yes","NA","Sternburg Task.osexp","/Users/danieldalton","no","mono","no","18","no","white","no","yes","768","legacy","2","2","/Users/danieldalton/subject-2.csv","legacy","4 3 1 7 9 8","Jazzy James","3.1.9","1","y","0","left","right","NA","NA","left","1634","37932","NA","NA","1634","2","legacy","6","1024","2","48000","-16","Sternburgtask","2","even","4","53455","NA","54518","56750","47453","2155","NA","55532","40099","58762","2128","NA","54507","58763","60399","New experiment","2","4299","3","yes","1024"
"75","75","1337.75","1337.75","black","no","practice","legacy","legacy","legacy","0","uniform","1","undefined","1","right","3","0","3","3","3","0","0","3","0","3","0","0","3","3","3","Wed Oct  3 19:42:11 2018","The main experiment item","yes","NA","Sternburg Task.osexp","/Users/danieldalton","no","mono","no","18","no","white","no","yes","768","legacy","3","3","/Users/danieldalton/subject-2.csv","legacy","9 6 7 4 5","Jazzy James","3.1.9","0","n","0","right","right","NA","NA","right","1052","37932","NA","NA","1052","2","legacy","5","1024","2","48000","-16","Sternburgtask","2","even","3","60413","NA","61464","63703","47453","2155","NA","62483","40099","65714","2128","NA","61453","65714","66768","New experiment","3","5351","4","yes","1024"
"80","80","1440.6","1440.6","black","no","practice","legacy","legacy","legacy","0","uniform","1","undefined","1","right","4","0","4","4","4","0","0","4","0","4","0","0","4","4","4","Wed Oct  3 19:42:11 2018","The main experiment item","yes","NA","Sternburg Task.osexp","/Users/danieldalton","no","mono","no","18","no","white","no","yes","768","legacy","4","4","/Users/danieldalton/subject-2.csv","legacy","3 1 9 4","Jazzy James","3.1.9","0","n","0","right","right","NA","NA","right","1852","37932","NA","NA","1852","2","legacy","4","1024","2","48000","-16","Sternburgtask","2","even","6","66782","NA","67839","70070","47453","2155","NA","68854","40099","72082","2128","NA","67827","72083","73937","New experiment","4","7203","5","yes","1024"
"83.3333333333","83.3333333333","1409.16666667","1409.16666667","black","no","practice","legacy","legacy","legacy","0","uniform","1","undefined","1","left","5","0","5","5","5","0","0","5","0","5","0","0","5","5","5","Wed Oct  3 19:42:11 2018","The main experiment item","yes","NA","Sternburg Task.osexp","/Users/danieldalton","no","mono","no","18","no","white","no","yes","768","legacy","5","5","/Users/danieldalton/subject-2.csv","legacy","6","Jazzy James","3.1.9","1","y","0","left","right","NA","NA","left","1252","37932","NA","NA","1252","2","legacy","1","1024","2","48000","-16","Sternburgtask","2","even","6","73951","NA","75003","77244","47453","2155","NA","76022","40099","79262","2128","NA","74993","79262","80516","New experiment","5","8455","6","yes","1024"
"85.7142857143","85.7142857143","1354.57142857","1354.57142857","black","no","practice","legacy","legacy","legacy","0","uniform","1","undefined","1","left","6","0","6","6","6","0","0","6","0","6","0","0","6","6","6","Wed Oct  3 19:42:11 2018","The main experiment item","yes","NA","Sternburg Task.osexp","/Users/danieldalton","no","mono","no","18","no","white","no","yes","768","legacy","6","6","/Users/danieldalton/subject-2.csv","legacy","4 8","Jazzy James","3.1.9","1","y","0","left","right","NA","NA","left","1027","37932","NA","NA","1027","2","legacy","2","1024","2","48000","-16","Sternburgtask","2","even","4","80531","NA","81585","83821","47453","2155","NA","82600","40099","85836","2128","NA","81574","85836","86865","New experiment","6","9482","7","yes","1024"
"87.5","87.5","1364.875","1364.875","black","no","practice","legacy","legacy","legacy","0","uniform","1","undefined","1","left","7","0","7","7","7","0","0","7","0","7","0","0","7","7","7","Wed Oct  3 19:42:11 2018","The main experiment item","yes","NA","Sternburg Task.osexp","/Users/danieldalton","no","mono","no","18","no","white","no","yes","768","legacy","7","7","/Users/danieldalton/subject-2.csv","legacy","1 7 9 8 5","Jazzy James","3.1.9","4","y","0","left","right","NA","NA","left","1437","37932","NA","NA","1437","2","legacy","5","1024","2","48000","-16","Sternburgtask","2","even","8","86879","NA","87931","90164","47453","2155","NA","88947","40099","92177","2128","NA","87920","92177","93616","New experiment","7","10919","8","yes","1024"
"88.8888888889","88.8888888889","1320.88888889","1320.88888889","black","no","practice","legacy","legacy","legacy","0","uniform","1","undefined","1","right","8","0","8","8","8","0","0","8","0","8","0","0","8","8","8","Wed Oct  3 19:42:11 2018","The main experiment item","yes","NA","Sternburg Task.osexp","/Users/danieldalton","no","mono","no","18","no","white","no","yes","768","legacy","8","8","/Users/danieldalton/subject-2.csv","legacy","2 1","Jazzy James","3.1.9","0","n","0","right","right","NA","NA","right","969","37932","NA","NA","969","2","legacy","2","1024","2","48000","-16","Sternburgtask","2","even","5","93629","NA","94684","96920","47453","2155","NA","95702","40099","98933","2128","NA","94672","98933","99904","New experiment","8","11888","9","yes","1024"
"90","90","1309.2","1309.2","black","no","practice","legacy","legacy","legacy","0","uniform","1","undefined","1","left","9","0","9","9","9","0","0","9","0","9","0","0","9","9","9","Wed Oct  3 19:42:11 2018","The main experiment item","yes","NA","Sternburg Task.osexp","/Users/danieldalton","no","mono","no","18","no","white","no","yes","768","legacy","9","9","/Users/danieldalton/subject-2.csv","legacy","1 5 2 9","Jazzy James","3.1.9","2","y","0","left","right","NA","NA","left","1204","37932","NA","NA","1204","2","legacy","4","1024","2","48000","-16","Sternburgtask","2","even","5","99919","NA","100971","103203","47453","2155","NA","101986","40099","105222","2128","NA","100959","105222","106428","New experiment","9","13092","10","yes","1024"
"90.9090909091","90.9090909091","1277.36363636","1277.36363636","black","no","practice","legacy","legacy","legacy","0","uniform","1","undefined","1","right","10","0","10","10","10","0","0","10","0","10","0","0","10","10","10","Wed Oct  3 19:42:11 2018","The main experiment item","yes","NA","Sternburg Task.osexp","/Users/danieldalton","no","mono","no","18","no","white","no","yes","768","legacy","10","10","/Users/danieldalton/subject-2.csv","legacy","5","Jazzy James","3.1.9","0","n","0","right","right","NA","NA","right","959","37932","NA","NA","959","2","legacy","1","1024","2","48000","-16","Sternburgtask","2","even","3","106442","NA","107498","109735","47453","2155","NA","108517","40099","111749","2128","NA","107486","111749","112710","New experiment","10","14051","11","yes","1024"
"91.6666666667","91.6666666667","1312.5","1312.5","black","no","practice","legacy","legacy","legacy","0","uniform","1","undefined","1","left","11","0","11","11","11","0","0","11","0","11","0","0","11","11","11","Wed Oct  3 19:42:11 2018","The main experiment item","yes","NA","Sternburg Task.osexp","/Users/danieldalton","no","mono","no","18","no","white","no","yes","768","legacy","11","11","/Users/danieldalton/subject-2.csv","legacy","2 9 4","Jazzy James","3.1.9","3","y","0","left","right","NA","NA","left","1699","37932","NA","NA","1699","2","legacy","3","1024","2","48000","-16","Sternburgtask","2","even","4","112741","NA","113798","116030","47453","2155","NA","114814","40099","118044","2128","NA","113787","118044","119745","New experiment","11","15750","12","yes","1024"
"92.3076923077","92.3076923077","1295.07692308","1295.07692308","black","no","experiment","legacy","legacy","legacy","0","uniform","1","undefined","1","left","12","0","12","12","12","0","0","12","0","12","0","0","12","12","12","Wed Oct  3 19:42:11 2018","The main experiment item","yes","NA","Sternburg Task.osexp","/Users/danieldalton","no","mono","no","18","no","white","no","yes","768","legacy","0","11","/Users/danieldalton/subject-2.csv","legacy","2 4 6 9","Jazzy James","3.1.9","3","y","0","left","right","right","NA","left","1086","37932","8294","NA","1086","2","legacy","4","1024","2","48000","-16","Sternburgtask","2","even","6","119761","129087","129177","131411","47453","2155","120791","130195","40099","133425","2128","NA","129166","133425","134513","New experiment","12","16836","13","yes","1024"
"92.8571428571","92.8571428571","1262.21428571","1262.21428571","black","no","experiment","legacy","legacy","legacy","0","uniform","1","undefined","1","right","13","0","13","13","13","0","0","13","0","13","0","0","13","13","13","Wed Oct  3 19:42:11 2018","The main experiment item","yes","NA","Sternburg Task.osexp","/Users/danieldalton","no","mono","no","18","no","white","no","yes","768","legacy","1","11","/Users/danieldalton/subject-2.csv","legacy","3 4 2","Jazzy James","3.1.9","0","n","0","right","right","right","NA","right","835","37932","8294","NA","835","2","legacy","3","1024","2","48000","-16","Sternburgtask","2","even","5","134527","129087","135583","137815","47453","2155","120791","136598","40099","139828","2128","NA","135572","139828","140665","New experiment","13","17671","14","yes","1024"
"93.3333333333","93.3333333333","1236.93333333","1236.93333333","black","no","experiment","legacy","legacy","legacy","0","uniform","1","undefined","1","left","14","0","14","14","14","0","0","14","0","14","0","0","14","14","14","Wed Oct  3 19:42:11 2018","The main experiment item","yes","NA","Sternburg Task.osexp","/Users/danieldalton","no","mono","no","18","no","white","no","yes","768","legacy","2","11","/Users/danieldalton/subject-2.csv","legacy","3 9 7 6 4","Jazzy James","3.1.9","3","y","0","left","right","right","NA","left","883","37932","8294","NA","883","2","legacy","5","1024","2","48000","-16","Sternburgtask","2","even","7","140679","129087","141737","143969","47453","2155","120791","142752","40099","145981","2128","NA","141726","145982","146866","New experiment","14","18554","15","yes","1024"
"93.75","93.75","1220","1220","black","no","experiment","legacy","legacy","legacy","0","uniform","1","undefined","1","left","15","0","15","15","15","0","0","15","0","15","0","0","15","15","15","Wed Oct  3 19:42:11 2018","The main experiment item","yes","NA","Sternburg Task.osexp","/Users/danieldalton","no","mono","no","18","no","white","no","yes","768","legacy","3","11","/Users/danieldalton/subject-2.csv","legacy","2 3","Jazzy James","3.1.9","1","y","0","left","right","right","NA","left","966","37932","8294","NA","966","2","legacy","2","1024","2","48000","-16","Sternburgtask","2","even","2","146880","129087","147932","150166","47453","2155","120791","148947","40099","152179","2128","NA","147921","152179","153147","New experiment","15","19520","16","yes","1024"
"94.1176470588","94.1176470588","1210.23529412","1210.23529412","black","no","experiment","legacy","legacy","legacy","0","uniform","1","undefined","1","right","16","0","16","16","16","0","0","16","0","16","0","0","16","16","16","Wed Oct  3 19:42:11 2018","The main experiment item","yes","NA","Sternburg Task.osexp","/Users/danieldalton","no","mono","no","18","no","white","no","yes","768","legacy","4","11","/Users/danieldalton/subject-2.csv","legacy","1 3 2 6 9","Jazzy James","3.1.9","0","n","0","right","right","right","NA","right","1054","37932","8294","NA","1054","2","legacy","5","1024","2","48000","-16","Sternburgtask","2","even","5","153161","129087","154214","156445","47453","2155","120791","155228","40099","158459","2128","NA","154202","158459","159515","New experiment","16","20574","17","yes","1024"
"94.4444444444","94.4444444444","1206.5","1206.5","black","no","experiment","legacy","legacy","legacy","0","uniform","1","undefined","1","right","17","0","17","17","17","0","0","17","0","17","0","0","17","17","17","Wed Oct  3 19:42:11 2018","The main experiment item","yes","NA","Sternburg Task.osexp","/Users/danieldalton","no","mono","no","18","no","white","no","yes","768","legacy","5","11","/Users/danieldalton/subject-2.csv","legacy","1 4 9 2 5","Jazzy James","3.1.9","0","n","0","right","right","right","NA","right","1143","37932","8294","NA","1143","2","legacy","5","1024","2","48000","-16","Sternburgtask","2","even","7","159529","129087","160582","162819","47453","2155","120791","161599","40099","164836","2128","NA","160571","164836","165981","New experiment","17","21717","18","yes","1024"
"94.7368421053","94.7368421053","1218.10526316","1218.10526316","black","no","experiment","legacy","legacy","legacy","0","uniform","1","undefined","1","right","18","0","18","18","18","0","0","18","0","18","0","0","18","18","18","Wed Oct  3 19:42:11 2018","The main experiment item","yes","NA","Sternburg Task.osexp","/Users/danieldalton","no","mono","no","18","no","white","no","yes","768","legacy","6","11","/Users/danieldalton/subject-2.csv","legacy","5 3 2 6 9 8","Jazzy James","3.1.9","0","n","0","right","right","right","NA","right","1427","37932","8294","NA","1427","2","legacy","6","1024","2","48000","-16","Sternburgtask","2","even","4","165995","129087","167046","169278","47453","2155","120791","168061","40099","171291","2128","NA","167035","171291","172720","New experiment","18","23144","19","yes","1024"
"95","95","1221.35","1221.35","black","no","experiment","legacy","legacy","legacy","0","uniform","1","undefined","1","left","19","0","19","19","19","0","0","19","0","19","0","0","19","19","19","Wed Oct  3 19:42:11 2018","The main experiment item","yes","NA","Sternburg Task.osexp","/Users/danieldalton","no","mono","no","18","no","white","no","yes","768","legacy","7","11","/Users/danieldalton/subject-2.csv","legacy","9 5 8 1","Jazzy James","3.1.9","2","y","0","left","right","right","NA","left","1283","37932","8294","NA","1283","2","legacy","4","1024","2","48000","-16","Sternburgtask","2","even","5","172740","129087","173795","176030","47453","2155","120791","174813","40099","178044","2128","NA","173783","178044","179329","New experiment","19","24427","20","yes","1024"
"95.2380952381","95.2380952381","1225.33333333","1225.33333333","black","no","experiment","legacy","legacy","legacy","0","uniform","1","undefined","1","left","20","0","20","20","20","0","0","20","0","20","0","0","20","20","20","Wed Oct  3 19:42:11 2018","The main experiment item","yes","NA","Sternburg Task.osexp","/Users/danieldalton","no","mono","no","18","no","white","no","yes","768","legacy","8","11","/Users/danieldalton/subject-2.csv","legacy","6 8 9 3 4 9","Jazzy James","3.1.9","5","y","0","left","right","right","NA","left","1305","37932","8294","NA","1305","2","legacy","6","1024","2","48000","-16","Sternburgtask","2","even","4","179343","129087","180397","182636","47453","2155","120791","181418","40099","184649","2128","NA","180386","184650","185957","New experiment","20","25732","21","yes","1024"
"95.4545454545","95.4545454545","1206.13636364","1206.13636364","black","no","experiment","legacy","legacy","legacy","0","uniform","1","undefined","1","right","21","0","21","21","21","0","0","21","0","21","0","0","21","21","21","Wed Oct  3 19:42:11 2018","The main experiment item","yes","NA","Sternburg Task.osexp","/Users/danieldalton","no","mono","no","18","no","white","no","yes","768","legacy","9","11","/Users/danieldalton/subject-2.csv","legacy","7 8 6 1","Jazzy James","3.1.9","0","n","0","right","right","right","NA","right","803","37932","8294","NA","803","2","legacy","4","1024","2","48000","-16","Sternburgtask","2","even","3","185970","129087","187025","189257","47453","2155","120791","188040","40099","191270","2128","NA","187014","191270","192075","New experiment","21","26535","22","yes","1024"
"95.652173913","95.652173913","1194.2173913","1194.2173913","black","no","experiment","legacy","legacy","legacy","0","uniform","1","undefined","1","left","22","0","22","22","22","0","0","22","0","22","0","0","22","22","22","Wed Oct  3 19:42:11 2018","The main experiment item","yes","NA","Sternburg Task.osexp","/Users/danieldalton","no","mono","no","18","no","white","no","yes","768","legacy","10","11","/Users/danieldalton/subject-2.csv","legacy","8 1 6","Jazzy James","3.1.9","3","y","0","left","right","right","NA","left","932","37932","8294","NA","932","2","legacy","3","1024","2","48000","-16","Sternburgtask","2","even","6","192091","129087","193152","195386","47453","2155","120791","194168","40099","197399","2128","NA","193141","197399","198333","New experiment","22","27467","23","yes","1024"
"95.8333333333","95.8333333333","1180.5","1180.5","black","no","experiment","legacy","legacy","legacy","0","uniform","1","undefined","1","right","23","0","23","23","23","0","0","23","0","23","0","0","23","23","23","Wed Oct  3 19:42:11 2018","The main experiment item","yes","NA","Sternburg Task.osexp","/Users/danieldalton","no","mono","no","18","no","white","no","yes","768","legacy","11","11","/Users/danieldalton/subject-2.csv","legacy","5 7 3","Jazzy James","3.1.9","0","n","0","right","right","right","NA","right","865","37932","8294","NA","865","2","legacy","3","1024","2","48000","-16","Sternburgtask","2","even","9","198347","129087","199400","201638","47453","2155","120791","200416","40099","203649","2128","NA","199389","203649","204516","New experiment","23","28332","24","yes","1024"
"92","92","1184","1184","black","no","experiment","legacy","legacy","legacy","0","uniform","0","undefined","0","left","24","0","24","24","24","0","0","24","0","24","0","0","24","24","24","Wed Oct  3 19:42:11 2018","The main experiment item","yes","NA","Sternburg Task.osexp","/Users/danieldalton","no","mono","no","18","no","white","no","yes","768","legacy","12","11","/Users/danieldalton/subject-2.csv","legacy","2 6 1 7 4","Jazzy James","3.1.9","2","y","0","right","right","right","NA","right","1268","37932","8294","NA","1268","2","legacy","5","1024","2","48000","-16","Sternburgtask","2","even","6","204532","129087","205584","207821","47453","2155","120791","206601","40099","209833","2128","NA","205573","209833","211103","New experiment","23","29600","25","yes","1024"
"92.3076923077","92.3076923077","1192.15384615","1192.15384615","black","no","experiment","legacy","legacy","legacy","0","uniform","1","undefined","1","right","25","0","25","25","25","0","0","25","0","25","0","0","25","25","25","Wed Oct  3 19:42:11 2018","The main experiment item","yes","NA","Sternburg Task.osexp","/Users/danieldalton","no","mono","no","18","no","white","no","yes","768","legacy","13","11","/Users/danieldalton/subject-2.csv","legacy","6 9 7 3 8 2","Jazzy James","3.1.9","0","n","0","right","right","right","NA","right","1396","37932","8294","NA","1396","2","legacy","6","1024","2","48000","-16","Sternburgtask","2","even","5","204532","129087","212174","214413","211119","2155","120791","213193","40099","216428","2128","NA","212163","216428","217826","New experiment","24","30996","26","yes","1024"
"92.5925925926","92.5925925926","1165.25925926","1165.25925926","black","no","experiment","legacy","legacy","legacy","0","uniform","1","undefined","1","left","26","0","26","26","26","0","0","26","0","26","0","0","26","26","26","Wed Oct  3 19:42:11 2018","The main experiment item","yes","NA","Sternburg Task.osexp","/Users/danieldalton","no","mono","no","18","no","white","no","yes","768","legacy","14","11","/Users/danieldalton/subject-2.csv","legacy","4","Jazzy James","3.1.9","1","y","0","left","right","right","NA","left","466","37932","8294","NA","466","2","legacy","1","1024","2","48000","-16","Sternburgtask","2","even","4","217841","129087","218894","221136","211119","2155","120791","219915","40099","223149","2128","NA","218882","223150","223619","New experiment","25","31462","27","yes","1024"
"89.2857142857","89.2857142857","1188.92857143","1188.92857143","black","no","experiment","legacy","legacy","legacy","0","uniform","0","undefined","0","left","27","0","27","27","27","0","0","27","0","27","0","0","27","27","27","Wed Oct  3 19:42:11 2018","The main experiment item","yes","NA","Sternburg Task.osexp","/Users/danieldalton","no","mono","no","18","no","white","no","yes","768","legacy","15","11","/Users/danieldalton/subject-2.csv","legacy","7 6","Jazzy James","3.1.9","2","y","0","right","right","right","NA","right","1828","37932","8294","NA","1828","2","legacy","2","1024","2","48000","-16","Sternburgtask","2","even","6","223633","129087","224684","226917","211119","2155","120791","225699","40099","228930","2128","NA","224673","228930","230760","New experiment","25","33290","28","yes","1024"
"89.6551724138","89.6551724138","1182.82758621","1182.82758621","black","no","experiment","legacy","legacy","legacy","0","uniform","1","undefined","1","right","28","0","28","28","28","0","0","28","0","28","0","0","28","28","28","Wed Oct  3 19:42:11 2018","The main experiment item","yes","NA","Sternburg Task.osexp","/Users/danieldalton","no","mono","no","18","no","white","no","yes","768","legacy","16","11","/Users/danieldalton/subject-2.csv","legacy","9 7 4 5 8","Jazzy James","3.1.9","0","n","0","right","right","right","NA","right","1012","37932","8294","NA","1012","2","legacy","5","1024","2","48000","-16","Sternburgtask","2","even","6","223633","129087","231826","234054","230775","2155","120791","232838","40099","236067","2128","NA","231815","236067","237081","New experiment","26","34302","29","yes","1024"
"90","90","1180.76666667","1180.76666667","black","no","experiment","legacy","legacy","legacy","0","uniform","1","undefined","1","right","29","0","29","29","29","0","0","29","0","29","0","0","29","29","29","Wed Oct  3 19:42:11 2018","The main experiment item","yes","NA","Sternburg Task.osexp","/Users/danieldalton","no","mono","no","18","no","white","no","yes","768","legacy","17","11","/Users/danieldalton/subject-2.csv","legacy","6 8 4","Jazzy James","3.1.9","0","n","0","right","right","right","NA","right","1121","37932","8294","NA","1121","2","legacy","3","1024","2","48000","-16","Sternburgtask","2","even","1","237095","129087","238148","240386","230775","2155","120791","239167","40099","242399","2128","NA","238137","242399","243522","New experiment","27","35423","30","yes","1024"
"90.3225806452","90.3225806452","1176.32258065","1176.32258065","black","no","experiment","legacy","legacy","legacy","0","uniform","1","undefined","1","left","30","0","30","30","30","0","0","30","0","30","0","0","30","30","30","Wed Oct  3 19:42:11 2018","The main experiment item","yes","NA","Sternburg Task.osexp","/Users/danieldalton","no","mono","no","18","no","white","no","yes","768","legacy","18","11","/Users/danieldalton/subject-2.csv","legacy","4 1 8 7 5","Jazzy James","3.1.9","3","y","0","left","right","right","NA","left","1043","37932","8294","NA","1043","2","legacy","5","1024","2","48000","-16","Sternburgtask","2","even","8","243536","129087","244591","246828","230775","2155","120791","245606","40099","248841","2128","NA","244580","248841","249887","New experiment","28","36466","31","yes","1024"
"90.625","90.625","1174.125","1174.125","black","no","experiment","legacy","legacy","legacy","0","uniform","1","undefined","1","left","31","0","31","31","31","0","0","31","0","31","0","0","31","31","31","Wed Oct  3 19:42:11 2018","The main experiment item","yes","NA","Sternburg Task.osexp","/Users/danieldalton","no","mono","no","18","no","white","no","yes","768","legacy","19","11","/Users/danieldalton/subject-2.csv","legacy","6 7 8 5","Jazzy James","3.1.9","3","y","0","left","right","right","NA","left","1106","37932","8294","NA","1106","2","legacy","4","1024","2","48000","-16","Sternburgtask","2","even","8","249901","129087","250953","253186","230775","2155","120791","251968","40099","255202","2128","NA","250942","255202","256310","New experiment","29","37572","32","yes","1024"
"90.9090909091","90.9090909091","1172.45454545","1172.45454545","black","no","experiment","legacy","legacy","legacy","0","uniform","1","undefined","1","left","32","0","32","32","32","0","0","32","0","32","0","0","32","32","32","Wed Oct  3 19:42:11 2018","The main experiment item","yes","NA","Sternburg Task.osexp","/Users/danieldalton","no","mono","no","18","no","white","no","yes","768","legacy","20","11","/Users/danieldalton/subject-2.csv","legacy","4 1 5","Jazzy James","3.1.9","2","y","0","left","right","right","NA","left","1119","37932","8294","NA","1119","2","legacy","3","1024","2","48000","-16","Sternburgtask","2","even","1","256324","129087","257376","259612","230775","2155","120791","258391","40099","261626","2128","NA","257365","261626","262747","New experiment","30","38691","33","yes","1024"
"91.1764705882","91.1764705882","1171.67647059","1171.67647059","black","no","experiment","legacy","legacy","legacy","0","uniform","1","undefined","1","left","33","0","33","33","33","0","0","33","0","33","0","0","33","33","33","Wed Oct  3 19:42:11 2018","The main experiment item","yes","NA","Sternburg Task.osexp","/Users/danieldalton","no","mono","no","18","no","white","no","yes","768","legacy","21","11","/Users/danieldalton/subject-2.csv","legacy","1 4 9 3 2 5","Jazzy James","3.1.9","3","y","0","left","right","right","NA","left","1146","37932","8294","NA","1146","2","legacy","6","1024","2","48000","-16","Sternburgtask","2","even","9","262763","129087","263816","266047","230775","2155","120791","264830","40099","268061","2128","NA","263805","268061","269209","New experiment","31","39837","34","yes","1024"
"91.4285714286","91.4285714286","1160.37142857","1160.37142857","black","no","experiment","legacy","legacy","legacy","0","uniform","1","undefined","1","right","34","0","34","34","34","0","0","34","0","34","0","0","34","34","34","Wed Oct  3 19:42:11 2018","The main experiment item","yes","NA","Sternburg Task.osexp","/Users/danieldalton","no","mono","no","18","no","white","no","yes","768","legacy","22","11","/Users/danieldalton/subject-2.csv","legacy","6 8","Jazzy James","3.1.9","0","n","0","right","right","right","NA","right","776","37932","8294","NA","776","2","legacy","2","1024","2","48000","-16","Sternburgtask","2","even","9","269224","129087","270294","272523","230775","2155","120791","271305","40099","274537","2128","NA","270281","274537","275315","New experiment","32","40613","35","yes","1024"
"91.6666666667","91.6666666667","1167","1167","black","no","experiment","legacy","legacy","legacy","0","uniform","1","undefined","1","left","35","0","35","35","35","0","0","35","0","35","0","0","35","35","35","Wed Oct  3 19:42:11 2018","The main experiment item","yes","NA","Sternburg Task.osexp","/Users/danieldalton","no","mono","no","18","no","white","no","yes","768","legacy","23","11","/Users/danieldalton/subject-2.csv","legacy","4 6 2 5 1","Jazzy James","3.1.9","5","y","0","left","right","right","NA","left","1399","37932","8294","NA","1399","2","legacy","5","1024","2","48000","-16","Sternburgtask","2","even","1","275329","129087","276381","278619","230775","2155","120791","277396","40099","280633","2128","NA","276370","280633","282035","New experiment","33","42012","36","yes","1024"
"91.8918918919","91.8918918919","1158.83783784","1158.83783784","black","no","experiment","legacy","legacy","legacy","0","uniform","1","undefined","1","left","36","0","36","36","36","0","0","36","0","36","0","0","36","36","36","Wed Oct  3 19:42:11 2018","The main experiment item","yes","NA","Sternburg Task.osexp","/Users/danieldalton","no","mono","no","18","no","white","no","yes","768","legacy","24","11","/Users/danieldalton/subject-2.csv","legacy","6 5","Jazzy James","3.1.9","2","y","0","left","right","right","NA","left","865","37932","8294","NA","865","2","legacy","2","1024","2","48000","-16","Sternburgtask","2","even","5","282049","129087","283104","285340","230775","2155","120791","284121","40099","287357","2128","NA","283093","287357","288224","New experiment","34","42877","37","yes","1024"
"92.1052631579","92.1052631579","1151.92105263","1151.92105263","black","no","experiment","legacy","legacy","legacy","0","uniform","1","undefined","1","left","37","0","37","37","37","0","0","37","0","37","0","0","37","37","37","Wed Oct  3 19:42:11 2018","The main experiment item","yes","NA","Sternburg Task.osexp","/Users/danieldalton","no","mono","no","18","no","white","no","yes","768","legacy","25","11","/Users/danieldalton/subject-2.csv","legacy","6 1 2","Jazzy James","3.1.9","3","y","0","left","right","right","NA","left","896","37932","8294","NA","896","2","legacy","3","1024","2","48000","-16","Sternburgtask","2","even","2","288238","129087","289291","291528","230775","2155","120791","290309","40099","293541","2128","NA","289280","293541","294439","New experiment","35","43773","38","yes","1024"
"92.3076923077","92.3076923077","1154.17948718","1154.17948718","black","no","experiment","legacy","legacy","legacy","0","uniform","1","undefined","1","right","38","0","38","38","38","0","0","38","0","38","0","0","38","38","38","Wed Oct  3 19:42:11 2018","The main experiment item","yes","NA","Sternburg Task.osexp","/Users/danieldalton","no","mono","no","18","no","white","no","yes","768","legacy","26","11","/Users/danieldalton/subject-2.csv","legacy","5","Jazzy James","3.1.9","0","n","0","right","right","right","NA","right","1240","37932","8294","NA","1240","2","legacy","1","1024","2","48000","-16","Sternburgtask","2","even","8","294453","129087","295508","297740","230775","2155","120791","296523","40099","299754","2128","NA","295496","299754","300997","New experiment","36","45013","39","yes","1024"
"92.5","92.5","1150.6","1150.6","black","no","experiment","legacy","legacy","legacy","0","uniform","1","undefined","1","left","39","0","39","39","39","0","0","39","0","39","0","0","39","39","39","Wed Oct  3 19:42:11 2018","The main experiment item","yes","NA","Sternburg Task.osexp","/Users/danieldalton","no","mono","no","18","no","white","no","yes","768","legacy","27","11","/Users/danieldalton/subject-2.csv","legacy","2 8 5 1","Jazzy James","3.1.9","4","y","0","left","right","right","NA","left","1011","37932","8294","NA","1011","2","legacy","4","1024","2","48000","-16","Sternburgtask","2","even","1","301010","129087","302063","304295","230775","2155","120791","303078","40099","306311","2128","NA","302052","306311","307324","New experiment","37","46024","40","yes","1024"
"92.6829268293","92.6829268293","1166.2195122","1166.2195122","black","no","experiment","legacy","legacy","legacy","0","uniform","1","undefined","1","left","40","0","40","40","40","0","0","40","0","40","0","0","40","40","40","Wed Oct  3 19:42:11 2018","The main experiment item","yes","NA","Sternburg Task.osexp","/Users/danieldalton","no","mono","no","18","no","white","no","yes","768","legacy","28","11","/Users/danieldalton/subject-2.csv","legacy","8 5 4 7 3 1","Jazzy James","3.1.9","2","y","0","left","right","right","NA","left","1791","37932","8294","NA","1791","2","legacy","6","1024","2","48000","-16","Sternburgtask","2","even","5","307338","129087","308391","310629","230775","2155","120791","309412","40099","312652","2128","NA","308379","312653","314447","New experiment","38","47815","41","yes","1024"
"92.8571428571","92.8571428571","1158.02380952","1158.02380952","black","no","experiment","legacy","legacy","legacy","0","uniform","1","undefined","1","right","41","0","41","41","41","0","0","41","0","41","0","0","41","41","41","Wed Oct  3 19:42:11 2018","The main experiment item","yes","NA","Sternburg Task.osexp","/Users/danieldalton","no","mono","no","18","no","white","no","yes","768","legacy","29","11","/Users/danieldalton/subject-2.csv","legacy","2 8 9 4 1","Jazzy James","3.1.9","0","n","0","right","right","right","NA","right","822","37932","8294","NA","822","2","legacy","5","1024","2","48000","-16","Sternburgtask","2","even","5","314463","129087","315516","317747","230775","2155","120791","316530","40099","319761","2128","NA","315504","319761","320586","New experiment","39","48637","42","yes","1024"
"90.6976744186","90.6976744186","1160","1160","black","no","experiment","legacy","legacy","legacy","0","uniform","0","undefined","0","right","42","0","42","42","42","0","0","42","0","42","0","0","42","42","42","Wed Oct  3 19:42:11 2018","The main experiment item","yes","NA","Sternburg Task.osexp","/Users/danieldalton","no","mono","no","18","no","white","no","yes","768","legacy","30","11","/Users/danieldalton/subject-2.csv","legacy","3 9 8 1 6 4","Jazzy James","3.1.9","0","n","0","left","right","right","NA","left","1243","37932","8294","NA","1243","2","legacy","6","1024","2","48000","-16","Sternburgtask","2","even","7","320600","129087","321654","323892","230775","2155","120791","322670","40099","325909","2128","NA","321642","325909","327155","New experiment","39","49880","43","yes","1024"
"90.9090909091","90.9090909091","1170.18181818","1170.18181818","black","no","experiment","legacy","legacy","legacy","0","uniform","1","undefined","1","right","43","0","43","43","43","0","0","43","0","43","0","0","43","43","43","Wed Oct  3 19:42:11 2018","The main experiment item","yes","NA","Sternburg Task.osexp","/Users/danieldalton","no","mono","no","18","no","white","no","yes","768","legacy","31","11","/Users/danieldalton/subject-2.csv","legacy","2 5 1 4","Jazzy James","3.1.9","0","n","0","right","right","right","NA","right","1608","37932","8294","NA","1608","2","legacy","4","1024","2","48000","-16","Sternburgtask","2","even","6","320600","129087","328221","330459","327169","2155","120791","329242","40099","332479","2128","NA","328210","332479","334089","New experiment","40","51488","44","yes","1024"
"91.1111111111","91.1111111111","1161.91111111","1161.91111111","black","no","experiment","legacy","legacy","legacy","0","uniform","1","undefined","1","left","44","0","44","44","44","0","0","44","0","44","0","0","44","44","44","Wed Oct  3 19:42:11 2018","The main experiment item","yes","NA","Sternburg Task.osexp","/Users/danieldalton","no","mono","no","18","no","white","no","yes","768","legacy","32","11","/Users/danieldalton/subject-2.csv","legacy","3 4","Jazzy James","3.1.9","1","y","0","left","right","right","NA","left","798","37932","8294","NA","798","2","legacy","2","1024","2","48000","-16","Sternburgtask","2","even","3","334103","129087","335156","337388","327169","2155","120791","336172","40099","339401","2128","NA","335144","339401","340202","New experiment","41","52286","45","yes","1024"
"89.1304347826","89.1304347826","1158.15217391","1158.15217391","black","no","experiment","legacy","legacy","legacy","0","uniform","0","undefined","0","right","45","0","45","45","45","0","0","45","0","45","0","0","45","45","45","Wed Oct  3 19:42:11 2018","The main experiment item","yes","NA","Sternburg Task.osexp","/Users/danieldalton","no","mono","no","18","no","white","no","yes","768","legacy","33","11","/Users/danieldalton/subject-2.csv","legacy","2 8 6 3 1","Jazzy James","3.1.9","0","n","0","left","right","right","NA","left","989","37932","8294","NA","989","2","legacy","5","1024","2","48000","-16","Sternburgtask","2","even","7","340216","129087","341271","343507","327169","2155","120791","342288","40099","345521","2128","NA","341260","345521","346513","New experiment","41","53275","46","yes","1024"
"87.2340425532","87.2340425532","1176.06382979","1176.06382979","black","no","experiment","legacy","legacy","legacy","0","uniform","0","undefined","0","left","46","0","46","46","46","0","0","46","0","46","0","0","46","46","46","Wed Oct  3 19:42:11 2018","The main experiment item","yes","NA","Sternburg Task.osexp","/Users/danieldalton","no","mono","no","18","no","white","no","yes","768","legacy","34","11","/Users/danieldalton/subject-2.csv","legacy","7 8 4 6 9 5","Jazzy James","3.1.9","4","y","0","None","right","right","NA","None","2000","37932","8294","NA","2000","2","legacy","6","1024","2","48000","-16","Sternburgtask","2","even","6","340216","129087","347579","349815","346526","2155","120791","348595","40099","351827","2128","NA","347568","351827","353827","New experiment","41","55275","47","yes","1024"
"87.5","87.5","1169.54166667","1169.54166667","black","no","experiment","legacy","legacy","legacy","0","uniform","1","undefined","1","left","47","0","47","47","47","0","0","47","0","47","0","0","47","47","47","Wed Oct  3 19:42:11 2018","The main experiment item","yes","NA","Sternburg Task.osexp","/Users/danieldalton","no","mono","no","18","no","white","no","yes","768","legacy","35","11","/Users/danieldalton/subject-2.csv","legacy","5 7 3 6 2","Jazzy James","3.1.9","5","y","0","left","right","right","NA","left","863","37932","8294","NA","863","2","legacy","5","1024","2","48000","-16","Sternburgtask","2","even","2","340216","129087","354906","357139","353845","2155","120791","355922","40099","359151","2128","NA","354895","359151","360016","New experiment","42","56138","48","yes","1024"
"87.7551020408","87.7551020408","1158.75510204","1158.75510204","black","no","experiment","legacy","legacy","legacy","0","uniform","1","undefined","1","left","48","0","48","48","48","0","0","48","0","48","0","0","48","48","48","Wed Oct  3 19:42:11 2018","The main experiment item","yes","NA","Sternburg Task.osexp","/Users/danieldalton","no","mono","no","18","no","white","no","yes","768","legacy","36","11","/Users/danieldalton/subject-2.csv","legacy","4 6 5 8","Jazzy James","3.1.9","1","y","0","left","right","right","NA","left","641","37932","8294","NA","641","2","legacy","4","1024","2","48000","-16","Sternburgtask","2","even","4","360031","129087","361084","363316","353845","2155","120791","362098","40099","365328","2128","NA","361073","365328","365971","New experiment","43","56779","49","yes","1024"
"88","88","1151.7","1151.7","black","no","experiment","legacy","legacy","legacy","0","uniform","1","undefined","1","left","49","0","49","49","49","0","0","49","0","49","0","0","49","49","49","Wed Oct  3 19:42:11 2018","The main experiment item","yes","NA","Sternburg Task.osexp","/Users/danieldalton","no","mono","no","18","no","white","no","yes","768","legacy","37","11","/Users/danieldalton/subject-2.csv","legacy","6 9 3 1","Jazzy James","3.1.9","4","y","0","left","right","right","NA","left","806","37932","8294","NA","806","2","legacy","4","1024","2","48000","-16","Sternburgtask","2","even","1","365985","129087","367037","369272","353845","2155","120791","368054","40099","371286","2128","NA","367026","371286","372095","New experiment","44","57585","50","yes","1024"
"88.2352941176","88.2352941176","1149.31372549","1149.31372549","black","no","experiment","legacy","legacy","legacy","0","uniform","1","undefined","1","right","50","0","50","50","50","0","0","50","0","50","0","0","50","50","50","Wed Oct  3 19:42:11 2018","The main experiment item","yes","NA","Sternburg Task.osexp","/Users/danieldalton","no","mono","no","18","no","white","no","yes","768","legacy","38","11","/Users/danieldalton/subject-2.csv","legacy","7 1 8 4 9 3","Jazzy James","3.1.9","0","n","0","right","right","right","NA","right","1030","37932","8294","NA","1030","2","legacy","6","1024","2","48000","-16","Sternburgtask","2","even","6","372109","129087","373162","375402","353845","2155","120791","374181","40099","377416","2128","NA","373151","377416","378448","New experiment","45","58615","51","yes","1024"
"88.4615384615","88.4615384615","1147.55769231","1147.55769231","black","no","experiment","legacy","legacy","legacy","0","uniform","1","undefined","1","left","51","0","51","51","51","0","0","51","0","51","0","0","51","51","51","Wed Oct  3 19:42:11 2018","The main experiment item","yes","NA","Sternburg Task.osexp","/Users/danieldalton","no","mono","no","18","no","white","no","yes","768","legacy","39","11","/Users/danieldalton/subject-2.csv","legacy","9 8 4","Jazzy James","3.1.9","1","y","0","left","right","right","NA","left","1058","37932","8294","NA","1058","2","legacy","3","1024","2","48000","-16","Sternburgtask","2","even","9","378462","129087","379517","381751","353845","2155","120791","380533","40099","383764","2128","NA","379506","383764","384824","New experiment","46","59673","52","yes","1024"
"88.679245283","88.679245283","1145.66037736","1145.66037736","black","no","experiment","legacy","legacy","legacy","0","uniform","1","undefined","1","right","52","0","52","52","52","0","0","52","0","52","0","0","52","52","52","Wed Oct  3 19:42:11 2018","The main experiment item","yes","NA","Sternburg Task.osexp","/Users/danieldalton","no","mono","no","18","no","white","no","yes","768","legacy","40","11","/Users/danieldalton/subject-2.csv","legacy","5 3 8 7 2 4","Jazzy James","3.1.9","0","n","0","right","right","right","NA","right","1047","37932","8294","NA","1047","2","legacy","6","1024","2","48000","-16","Sternburgtask","2","even","9","384841","129087","385894","388125","353845","2155","120791","386907","40099","390144","2128","NA","385882","390144","391192","New experiment","47","60720","53","yes","1024"
"88.8888888889","88.8888888889","1146.88888889","1146.88888889","black","no","experiment","legacy","legacy","legacy","0","uniform","1","undefined","1","right","53","0","53","53","53","0","0","53","0","53","0","0","53","53","53","Wed Oct  3 19:42:11 2018","The main experiment item","yes","NA","Sternburg Task.osexp","/Users/danieldalton","no","mono","no","18","no","white","no","yes","768","legacy","41","11","/Users/danieldalton/subject-2.csv","legacy","6 2 9 3 8 4","Jazzy James","3.1.9","0","n","0","right","right","right","NA","right","1212","37932","8294","NA","1212","2","legacy","6","1024","2","48000","-16","Sternburgtask","2","even","1","391207","129087","392259","394492","353845","2155","120791","393275","40099","396505","2128","NA","392248","396505","397720","New experiment","48","61932","54","yes","1024"
"89.0909090909","89.0909090909","1149.92727273","1149.92727273","black","no","experiment","legacy","legacy","legacy","0","uniform","1","undefined","1","right","54","0","54","54","54","0","0","54","0","54","0","0","54","54","54","Wed Oct  3 19:42:11 2018","The main experiment item","yes","NA","Sternburg Task.osexp","/Users/danieldalton","no","mono","no","18","no","white","no","yes","768","legacy","42","11","/Users/danieldalton/subject-2.csv","legacy","4 8 1 2","Jazzy James","3.1.9","0","n","0","right","right","right","NA","right","1314","37932","8294","NA","1314","2","legacy","4","1024","2","48000","-16","Sternburgtask","2","even","7","397733","129087","398787","401023","353845","2155","120791","399807","40099","403039","2128","NA","398776","403039","404356","New experiment","49","63246","55","yes","1024"
"89.2857142857","89.2857142857","1144.71428571","1144.71428571","black","no","experiment","legacy","legacy","legacy","0","uniform","1","undefined","1","right","55","0","55","55","55","0","0","55","0","55","0","0","55","55","55","Wed Oct  3 19:42:11 2018","The main experiment item","yes","NA","Sternburg Task.osexp","/Users/danieldalton","no","mono","no","18","no","white","no","yes","768","legacy","43","11","/Users/danieldalton/subject-2.csv","legacy","6 7 5 9","Jazzy James","3.1.9","0","n","0","right","right","right","NA","right","858","37932","8294","NA","858","2","legacy","4","1024","2","48000","-16","Sternburgtask","2","even","2","404370","129087","405425","407662","353845","2155","120791","406444","40099","409677","2128","NA","405414","409677","410538","New experiment","50","64104","56","yes","1024"
"89.4736842105","89.4736842105","1149.94736842","1149.94736842","black","no","experiment","legacy","legacy","legacy","0","uniform","1","undefined","1","right","56","0","56","56","56","0","0","56","0","56","0","0","56","56","56","Wed Oct  3 19:42:11 2018","The main experiment item","yes","NA","Sternburg Task.osexp","/Users/danieldalton","no","mono","no","18","no","white","no","yes","768","legacy","44","11","/Users/danieldalton/subject-2.csv","legacy","8 2 1 4 5 9","Jazzy James","3.1.9","0","n","0","right","right","right","NA","right","1443","37932","8294","NA","1443","2","legacy","6","1024","2","48000","-16","Sternburgtask","2","even","7","410552","129087","411606","413844","353845","2155","120791","412628","40099","415858","2128","NA","411594","415858","417304","New experiment","51","65547","57","yes","1024"
"87.9310344828","87.9310344828","1155.86206897","1155.86206897","black","no","experiment","legacy","legacy","legacy","0","uniform","0","undefined","0","left","57","0","57","57","57","0","0","57","0","57","0","0","57","57","57","Wed Oct  3 19:42:11 2018","The main experiment item","yes","NA","Sternburg Task.osexp","/Users/danieldalton","no","mono","no","18","no","white","no","yes","768","legacy","45","11","/Users/danieldalton/subject-2.csv","legacy","9 5 3 8 4","Jazzy James","3.1.9","1","y","0","right","right","right","NA","right","1493","37932","8294","NA","1493","2","legacy","5","1024","2","48000","-16","Sternburgtask","2","even","9","417319","129087","418376","420615","353845","2155","120791","419392","40099","422628","2128","NA","418365","422628","424123","New experiment","51","67040","58","yes","1024"
"88.1355932203","88.1355932203","1152.10169492","1152.10169492","black","no","experiment","legacy","legacy","legacy","0","uniform","1","undefined","1","right","58","0","58","58","58","0","0","58","0","58","0","0","58","58","58","Wed Oct  3 19:42:11 2018","The main experiment item","yes","NA","Sternburg Task.osexp","/Users/danieldalton","no","mono","no","18","no","white","no","yes","768","legacy","46","11","/Users/danieldalton/subject-2.csv","legacy","7 6 4 8 1 2","Jazzy James","3.1.9","0","n","0","right","right","right","NA","right","934","37932","8294","NA","934","2","legacy","6","1024","2","48000","-16","Sternburgtask","2","even","9","417319","129087","425190","427431","424138","2155","120791","426209","40099","429442","2128","NA","425178","429443","430379","New experiment","52","67974","59","yes","1024"
"86.6666666667","86.6666666667","1166.23333333","1166.23333333","black","no","experiment","legacy","legacy","legacy","0","uniform","0","undefined","0","right","59","0","59","59","59","0","0","59","0","59","0","0","59","59","59","Wed Oct  3 19:42:11 2018","The main experiment item","yes","NA","Sternburg Task.osexp","/Users/danieldalton","no","mono","no","18","no","white","no","yes","768","legacy","47","11","/Users/danieldalton/subject-2.csv","legacy","9","Jazzy James","3.1.9","0","n","0","None","right","right","NA","None","2000","37932","8294","NA","2000","2","legacy","1","1024","2","48000","-16","Sternburgtask","2","even","6","430393","129087","431446","433683","424138","2155","120791","432464","40099","435697","2128","NA","431435","435697","437698","New experiment","52","69974","60","yes","1024"
"85.2459016393","85.2459016393","1178.19672131","1178.19672131","black","no","experiment","legacy","legacy","legacy","0","uniform","0","undefined","0","right","60","0","60","60","60","0","0","60","0","60","0","0","60","60","60","Wed Oct  3 19:42:11 2018","The main experiment item","yes","NA","Sternburg Task.osexp","/Users/danieldalton","no","mono","no","18","no","white","no","yes","768","legacy","48","11","/Users/danieldalton/subject-2.csv","legacy","2 8 9","Jazzy James","3.1.9","0","n","0","left","right","right","NA","left","1896","37932","8294","NA","1896","2","legacy","3","1024","2","48000","-16","Sternburgtask","2","even","6","430393","129087","438770","441002","437716","2155","120791","439786","40099","443019","2128","NA","438759","443019","444917","New experiment","52","71870","61","yes","1024"
"85.4838709677","85.4838709677","1172","1172","black","no","experiment","legacy","legacy","legacy","0","uniform","1","undefined","1","right","61","0","61","61","61","0","0","61","0","61","0","0","61","61","61","Wed Oct  3 19:42:11 2018","The main experiment item","yes","NA","Sternburg Task.osexp","/Users/danieldalton","no","mono","no","18","no","white","no","yes","768","legacy","49","11","/Users/danieldalton/subject-2.csv","legacy","7 4 2 8 1 9","Jazzy James","3.1.9","0","n","0","right","right","right","NA","right","794","37932","8294","NA","794","2","legacy","6","1024","2","48000","-16","Sternburgtask","2","even","5","430393","129087","445984","448219","444932","2155","120791","447001","40099","450232","2128","NA","445973","450232","451029","New experiment","53","72664","62","yes","1024"
"85.7142857143","85.7142857143","1171.3968254","1171.3968254","black","no","experiment","legacy","legacy","legacy","0","uniform","1","undefined","1","left","62","0","62","62","62","0","0","62","0","62","0","0","62","62","62","Wed Oct  3 19:42:11 2018","The main experiment item","yes","NA","Sternburg Task.osexp","/Users/danieldalton","no","mono","no","18","no","white","no","yes","768","legacy","50","11","/Users/danieldalton/subject-2.csv","legacy","7 4 2 6 3 5","Jazzy James","3.1.9","6","y","0","left","right","right","NA","left","1134","37932","8294","NA","1134","2","legacy","6","1024","2","48000","-16","Sternburgtask","2","even","5","451043","129087","452096","454329","444932","2155","120791","453107","40099","456343","2128","NA","452084","456343","457479","New experiment","54","73798","63","yes","1024"
"85.9375","85.9375","1174.140625","1174.140625","black","no","experiment","legacy","legacy","legacy","0","uniform","1","undefined","1","right","63","0","63","63","63","0","0","63","0","63","0","0","63","63","63","Wed Oct  3 19:42:11 2018","The main experiment item","yes","NA","Sternburg Task.osexp","/Users/danieldalton","no","mono","no","18","no","white","no","yes","768","legacy","51","11","/Users/danieldalton/subject-2.csv","legacy","1 6 4 3 9 7","Jazzy James","3.1.9","0","n","0","right","right","right","NA","right","1347","37932","8294","NA","1347","2","legacy","6","1024","2","48000","-16","Sternburgtask","2","even","8","457494","129087","458546","460779","444932","2155","120791","459561","40099","462800","2128","NA","458535","462800","464150","New experiment","55","75145","64","yes","1024"
"86.1538461538","86.1538461538","1172.92307692","1172.92307692","black","no","experiment","legacy","legacy","legacy","0","uniform","1","undefined","1","right","64","0","64","64","64","0","0","64","0","64","0","0","64","64","64","Wed Oct  3 19:42:11 2018","The main experiment item","yes","NA","Sternburg Task.osexp","/Users/danieldalton","no","mono","no","18","no","white","no","yes","768","legacy","52","11","/Users/danieldalton/subject-2.csv","legacy","2 6 4 3 9","Jazzy James","3.1.9","0","n","0","right","right","right","NA","right","1095","37932","8294","NA","1095","2","legacy","5","1024","2","48000","-16","Sternburgtask","2","even","1","464166","129087","465219","467451","444932","2155","120791","466234","40099","469473","2128","NA","465208","469473","470570","New experiment","56","76240","65","yes","1024"
"86.3636363636","86.3636363636","1175.09090909","1175.09090909","black","no","experiment","legacy","legacy","legacy","0","uniform","1","undefined","1","left","65","0","65","65","65","0","0","65","0","65","0","0","65","65","65","Wed Oct  3 19:42:11 2018","The main experiment item","yes","NA","Sternburg Task.osexp","/Users/danieldalton","no","mono","no","18","no","white","no","yes","768","legacy","53","11","/Users/danieldalton/subject-2.csv","legacy","9 1 7 2","Jazzy James","3.1.9","2","y","0","left","right","right","NA","left","1316","37932","8294","NA","1316","2","legacy","4","1024","2","48000","-16","Sternburgtask","2","even","1","470584","129087","471637","473868","444932","2155","120791","472651","40099","475881","2128","NA","471625","475881","477199","New experiment","57","77556","66","yes","1024"
"86.5671641791","86.5671641791","1170.55223881","1170.55223881","black","no","experiment","legacy","legacy","legacy","0","uniform","1","undefined","1","right","66","0","66","66","66","0","0","66","0","66","0","0","66","66","66","Wed Oct  3 19:42:11 2018","The main experiment item","yes","NA","Sternburg Task.osexp","/Users/danieldalton","no","mono","no","18","no","white","no","yes","768","legacy","54","11","/Users/danieldalton/subject-2.csv","legacy","4 2 7 6 1 3","Jazzy James","3.1.9","0","n","0","right","right","right","NA","right","871","37932","8294","NA","871","2","legacy","6","1024","2","48000","-16","Sternburgtask","2","even","8","477214","129087","478268","480506","444932","2155","120791","479287","40099","482519","2128","NA","478257","482519","483393","New experiment","58","78427","67","yes","1024"
"86.7647058824","86.7647058824","1169.95588235","1169.95588235","black","no","experiment","legacy","legacy","legacy","0","uniform","1","undefined","1","left","67","0","67","67","67","0","0","67","0","67","0","0","67","67","67","Wed Oct  3 19:42:11 2018","The main experiment item","yes","NA","Sternburg Task.osexp","/Users/danieldalton","no","mono","no","18","no","white","no","yes","768","legacy","55","11","/Users/danieldalton/subject-2.csv","legacy","5 2 6","Jazzy James","3.1.9","2","y","0","left","right","right","NA","left","1130","37932","8294","NA","1130","2","legacy","3","1024","2","48000","-16","Sternburgtask","2","even","2","483409","129087","484463","486696","444932","2155","120791","485478","40099","488714","2128","NA","484451","488715","489848","New experiment","59","79557","68","yes","1024"
"86.9565217391","86.9565217391","1175.24637681","1175.24637681","black","no","experiment","legacy","legacy","legacy","0","uniform","1","undefined","1","right","68","0","68","68","68","0","0","68","0","68","0","0","68","68","68","Wed Oct  3 19:42:11 2018","The main experiment item","yes","NA","Sternburg Task.osexp","/Users/danieldalton","no","mono","no","18","no","white","no","yes","768","legacy","56","11","/Users/danieldalton/subject-2.csv","legacy","7 1","Jazzy James","3.1.9","0","n","0","right","right","right","NA","right","1535","37932","8294","NA","1535","2","legacy","2","1024","2","48000","-16","Sternburgtask","2","even","8","489862","129087","490915","493150","444932","2155","120791","491933","40099","495163","2128","NA","490904","495163","496701","New experiment","60","81092","69","yes","1024"
"87.1428571429","87.1428571429","1172.24285714","1172.24285714","black","no","experiment","legacy","legacy","legacy","0","uniform","1","undefined","1","left","69","0","69","69","69","0","0","69","0","69","0","0","69","69","69","Wed Oct  3 19:42:11 2018","The main experiment item","yes","NA","Sternburg Task.osexp","/Users/danieldalton","no","mono","no","18","no","white","no","yes","768","legacy","57","11","/Users/danieldalton/subject-2.csv","legacy","4 3 2 5 8","Jazzy James","3.1.9","2","y","0","left","right","right","NA","left","965","37932","8294","NA","965","2","legacy","5","1024","2","48000","-16","Sternburgtask","2","even","3","496715","129087","497768","500001","444932","2155","120791","498784","40099","502014","2128","NA","497757","502014","502981","New experiment","61","82057","70","yes","1024"
"85.9154929577","85.9154929577","1183.90140845","1183.90140845","black","no","experiment","legacy","legacy","legacy","0","uniform","0","undefined","0","left","70","0","70","70","70","0","0","70","0","70","0","0","70","70","70","Wed Oct  3 19:42:11 2018","The main experiment item","yes","NA","Sternburg Task.osexp","/Users/danieldalton","no","mono","no","18","no","white","no","yes","768","legacy","58","11","/Users/danieldalton/subject-2.csv","legacy","8 9 5 6 7","Jazzy James","3.1.9","1","y","0","None","right","right","NA","None","2000","37932","8294","NA","2000","2","legacy","5","1024","2","48000","-16","Sternburgtask","2","even","8","503000","129087","504054","506294","444932","2155","120791","505073","40099","508307","2128","NA","504042","508308","510309","New experiment","61","84057","71","yes","1024"
"86.1111111111","86.1111111111","1183.375","1183.375","black","no","experiment","legacy","legacy","legacy","0","uniform","1","undefined","1","right","71","0","71","71","71","0","0","71","0","71","0","0","71","71","71","Wed Oct  3 19:42:11 2018","The main experiment item","yes","NA","Sternburg Task.osexp","/Users/danieldalton","no","mono","no","18","no","white","no","yes","768","legacy","59","11","/Users/danieldalton/subject-2.csv","legacy","6 3 1 7 9 8","Jazzy James","3.1.9","0","n","0","right","right","right","NA","right","1146","37932","8294","NA","1146","2","legacy","6","1024","2","48000","-16","Sternburgtask","2","even","4","503000","129087","511375","513609","510323","2155","120791","512390","40099","515623","2128","NA","511364","515623","516772","New experiment","62","85203","72","yes","1024"
"86.301369863","86.301369863","1180.1369863","1180.1369863","black","no","experiment","legacy","legacy","legacy","0","uniform","1","undefined","1","left","72","0","72","72","72","0","0","72","0","72","0","0","72","72","72","Wed Oct  3 19:42:11 2018","The main experiment item","yes","NA","Sternburg Task.osexp","/Users/danieldalton","no","mono","no","18","no","white","no","yes","768","legacy","60","11","/Users/danieldalton/subject-2.csv","legacy","2 5 4 8 7","Jazzy James","3.1.9","3","y","0","left","right","right","NA","left","947","37932","8294","NA","947","2","legacy","5","1024","2","48000","-16","Sternburgtask","2","even","4","516788","129087","517842","520074","510323","2155","120791","518858","40099","522087","2128","NA","517831","522087","523037","New experiment","63","86150","73","yes","1024"
"86.4864864865","86.4864864865","1179.52702703","1179.52702703","black","no","experiment","legacy","legacy","legacy","0","uniform","1","undefined","1","right","73","0","73","73","73","0","0","73","0","73","0","0","73","73","73","Wed Oct  3 19:42:11 2018","The main experiment item","yes","NA","Sternburg Task.osexp","/Users/danieldalton","no","mono","no","18","no","white","no","yes","768","legacy","61","11","/Users/danieldalton/subject-2.csv","legacy","1 6 4","Jazzy James","3.1.9","0","n","0","right","right","right","NA","right","1135","37932","8294","NA","1135","2","legacy","3","1024","2","48000","-16","Sternburgtask","2","even","7","523050","129087","524102","526333","510323","2155","120791","525116","40099","528351","2128","NA","524090","528351","529490","New experiment","64","87285","74","yes","1024"
"86.6666666667","86.6666666667","1176.53333333","1176.53333333","black","no","experiment","legacy","legacy","legacy","0","uniform","1","undefined","1","right","74","0","74","74","74","0","0","74","0","74","0","0","74","74","74","Wed Oct  3 19:42:11 2018","The main experiment item","yes","NA","Sternburg Task.osexp","/Users/danieldalton","no","mono","no","18","no","white","no","yes","768","legacy","62","11","/Users/danieldalton/subject-2.csv","legacy","2 3 8 5 6 7","Jazzy James","3.1.9","0","n","0","right","right","right","NA","right","955","37932","8294","NA","955","2","legacy","6","1024","2","48000","-16","Sternburgtask","2","even","1","529503","129087","530558","532797","510323","2155","120791","531577","40099","534812","2128","NA","530547","534812","535769","New experiment","65","88240","75","yes","1024"
"85.5263157895","85.5263157895","1170.14473684","1170.14473684","black","no","experiment","legacy","legacy","legacy","0","uniform","0","undefined","0","right","75","0","75","75","75","0","0","75","0","75","0","0","75","75","75","Wed Oct  3 19:42:11 2018","The main experiment item","yes","NA","Sternburg Task.osexp","/Users/danieldalton","no","mono","no","18","no","white","no","yes","768","legacy","63","11","/Users/danieldalton/subject-2.csv","legacy","1 4 9 3","Jazzy James","3.1.9","0","n","0","left","right","right","NA","left","691","37932","8294","NA","691","2","legacy","4","1024","2","48000","-16","Sternburgtask","2","even","5","535784","129087","536838","539069","510323","2155","120791","537853","40099","541082","2128","NA","536827","541082","541775","New experiment","65","88931","76","yes","1024"
"85.7142857143","85.7142857143","1170.7012987","1170.7012987","black","no","experiment","legacy","legacy","legacy","0","uniform","1","undefined","1","left","76","0","76","76","76","0","0","76","0","76","0","0","76","76","76","Wed Oct  3 19:42:11 2018","The main experiment item","yes","NA","Sternburg Task.osexp","/Users/danieldalton","no","mono","no","18","no","white","no","yes","768","legacy","64","11","/Users/danieldalton/subject-2.csv","legacy","3 4 9 6 2 9","Jazzy James","3.1.9","5","y","0","left","right","right","NA","left","1213","37932","8294","NA","1213","2","legacy","6","1024","2","48000","-16","Sternburgtask","2","even","2","535784","129087","542844","545075","541789","2155","120791","543859","40099","547088","2128","NA","542833","547088","548304","New experiment","66","90144","77","yes","1024"
"85.8974358974","85.8974358974","1167.73076923","1167.73076923","black","no","experiment","legacy","legacy","legacy","0","uniform","1","undefined","1","right","77","0","77","77","77","0","0","77","0","77","0","0","77","77","77","Wed Oct  3 19:42:11 2018","The main experiment item","yes","NA","Sternburg Task.osexp","/Users/danieldalton","no","mono","no","18","no","white","no","yes","768","legacy","65","11","/Users/danieldalton/subject-2.csv","legacy","7 1 5 6 3","Jazzy James","3.1.9","0","n","0","right","right","right","NA","right","939","37932","8294","NA","939","2","legacy","5","1024","2","48000","-16","Sternburgtask","2","even","8","548318","129087","549371","551607","541789","2155","120791","550389","40099","553621","2128","NA","549359","553621","554562","New experiment","67","91083","78","yes","1024"
"86.0759493671","86.0759493671","1166.03797468","1166.03797468","black","no","experiment","legacy","legacy","legacy","0","uniform","1","undefined","1","right","78","0","78","78","78","0","0","78","0","78","0","0","78","78","78","Wed Oct  3 19:42:11 2018","The main experiment item","yes","NA","Sternburg Task.osexp","/Users/danieldalton","no","mono","no","18","no","white","no","yes","768","legacy","66","11","/Users/danieldalton/subject-2.csv","legacy","6 9 4 5 3 2","Jazzy James","3.1.9","0","n","0","right","right","right","NA","right","1034","37932","8294","NA","1034","2","legacy","6","1024","2","48000","-16","Sternburgtask","2","even","8","554577","129087","555630","557865","541789","2155","120791","556647","40099","559888","2128","NA","555619","559888","560924","New experiment","68","92117","79","yes","1024"
"86.25","86.25","1167.3125","1167.3125","black","no","experiment","legacy","legacy","legacy","0","uniform","1","undefined","1","right","79","0","79","79","79","0","0","79","0","79","0","0","79","79","79","Wed Oct  3 19:42:11 2018","The main experiment item","yes","NA","Sternburg Task.osexp","/Users/danieldalton","no","mono","no","18","no","white","no","yes","768","legacy","67","11","/Users/danieldalton/subject-2.csv","legacy","8 5 4 2 9 6","Jazzy James","3.1.9","0","n","0","right","right","right","NA","right","1268","37932","8294","NA","1268","2","legacy","6","1024","2","48000","-16","Sternburgtask","2","even","3","560939","129087","561991","564226","541789","2155","120791","563007","40099","566238","2128","NA","561980","566238","567509","New experiment","69","93385","80","yes","1024"
"86.4197530864","86.4197530864","1164.16049383","1164.16049383","black","no","experiment","legacy","legacy","legacy","0","uniform","1","undefined","1","right","80","0","80","80","80","0","0","80","0","80","0","0","80","80","80","Wed Oct  3 19:42:11 2018","The main experiment item","yes","NA","Sternburg Task.osexp","/Users/danieldalton","no","mono","no","18","no","white","no","yes","768","legacy","68","11","/Users/danieldalton/subject-2.csv","legacy","8 4 3 5","Jazzy James","3.1.9","0","n","0","right","right","right","NA","right","912","37932","8294","NA","912","2","legacy","4","1024","2","48000","-16","Sternburgtask","2","even","6","567524","129087","568577","570807","541789","2155","120791","569588","40099","572822","2128","NA","568565","572823","573737","New experiment","70","94297","81","yes","1024"
"85.3658536585","85.3658536585","1174.35365854","1174.35365854","black","no","experiment","legacy","legacy","legacy","0","uniform","0","undefined","0","right","81","0","81","81","81","0","0","81","0","81","0","0","81","81","81","Wed Oct  3 19:42:11 2018","The main experiment item","yes","NA","Sternburg Task.osexp","/Users/danieldalton","no","mono","no","18","no","white","no","yes","768","legacy","69","11","/Users/danieldalton/subject-2.csv","legacy","1 5 3 2 8","Jazzy James","3.1.9","0","n","0","None","right","right","NA","None","2000","37932","8294","NA","2000","2","legacy","5","1024","2","48000","-16","Sternburgtask","2","even","4","573753","129087","574808","577042","541789","2155","120791","575826","40099","579056","2128","NA","574796","579056","581057","New experiment","70","96297","82","yes","1024"
"84.3373493976","84.3373493976","1178.08433735","1178.08433735","black","no","experiment","legacy","legacy","legacy","0","uniform","0","undefined","0","right","82","0","82","82","82","0","0","82","0","82","0","0","82","82","82","Wed Oct  3 19:42:11 2018","The main experiment item","yes","NA","Sternburg Task.osexp","/Users/danieldalton","no","mono","no","18","no","white","no","yes","768","legacy","70","11","/Users/danieldalton/subject-2.csv","legacy","7 9 1 6","Jazzy James","3.1.9","0","n","0","left","right","right","NA","left","1484","37932","8294","NA","1484","2","legacy","4","1024","2","48000","-16","Sternburgtask","2","even","4","573753","129087","582124","584359","581071","2155","120791","583139","40099","586372","2128","NA","582112","586372","587859","New experiment","70","97781","83","yes","1024"
"84.5238095238","84.5238095238","1174.4047619","1174.4047619","black","no","experiment","legacy","legacy","legacy","0","uniform","1","undefined","1","right","83","0","83","83","83","0","0","83","0","83","0","0","83","83","83","Wed Oct  3 19:42:11 2018","The main experiment item","yes","NA","Sternburg Task.osexp","/Users/danieldalton","no","mono","no","18","no","white","no","yes","768","legacy","71","11","/Users/danieldalton/subject-2.csv","legacy","8 4 3 9","Jazzy James","3.1.9","0","n","0","right","right","right","NA","right","869","37932","8294","NA","869","2","legacy","4","1024","2","48000","-16","Sternburgtask","2","even","5","573753","129087","588934","591167","587874","2155","120791","589948","40099","593183","2128","NA","588923","593184","594056","New experiment","71","98650","84","yes","1024"
"84.7058823529","84.7058823529","1171.77647059","1171.77647059","black","no","experiment","legacy","legacy","legacy","0","uniform","1","undefined","1","left","84","0","84","84","84","0","0","84","0","84","0","0","84","84","84","Wed Oct  3 19:42:11 2018","The main experiment item","yes","NA","Sternburg Task.osexp","/Users/danieldalton","no","mono","no","18","no","white","no","yes","768","legacy","72","11","/Users/danieldalton/subject-2.csv","legacy","8 5 3 7 4 6","Jazzy James","3.1.9","6","y","0","left","right","right","NA","left","951","37932","8294","NA","951","2","legacy","6","1024","2","48000","-16","Sternburgtask","2","even","6","594074","129087","595127","597362","587874","2155","120791","596144","40099","599382","2128","NA","595115","599382","600336","New experiment","72","99601","85","yes","1024"
"84.8837209302","84.8837209302","1168.39534884","1168.39534884","black","no","experiment","legacy","legacy","legacy","0","uniform","1","undefined","1","right","85","0","85","85","85","0","0","85","0","85","0","0","85","85","85","Wed Oct  3 19:42:11 2018","The main experiment item","yes","NA","Sternburg Task.osexp","/Users/danieldalton","no","mono","no","18","no","white","no","yes","768","legacy","73","11","/Users/danieldalton/subject-2.csv","legacy","9 5 3 2 8 6","Jazzy James","3.1.9","0","n","0","right","right","right","NA","right","881","37932","8294","NA","881","2","legacy","6","1024","2","48000","-16","Sternburgtask","2","even","7","600352","129087","601404","603636","587874","2155","120791","602419","40099","605650","2128","NA","601393","605650","606534","New experiment","73","100482","86","yes","1024"
"85.0574712644","85.0574712644","1170.26436782","1170.26436782","black","no","experiment","legacy","legacy","legacy","0","uniform","1","undefined","1","left","86","0","86","86","86","0","0","86","0","86","0","0","86","86","86","Wed Oct  3 19:42:11 2018","The main experiment item","yes","NA","Sternburg Task.osexp","/Users/danieldalton","no","mono","no","18","no","white","no","yes","768","legacy","74","11","/Users/danieldalton/subject-2.csv","legacy","2 4 8 5 1 3","Jazzy James","3.1.9","1","y","0","left","right","right","NA","left","1331","37932","8294","NA","1331","2","legacy","6","1024","2","48000","-16","Sternburgtask","2","even","2","606548","129087","607600","609843","587874","2155","120791","608623","40099","611856","2128","NA","607589","611856","613190","New experiment","74","101813","87","yes","1024"
"84.0909090909","84.0909090909","1167.06818182","1167.06818182","black","no","experiment","legacy","legacy","legacy","0","uniform","0","undefined","0","right","87","0","87","87","87","0","0","87","0","87","0","0","87","87","87","Wed Oct  3 19:42:11 2018","The main experiment item","yes","NA","Sternburg Task.osexp","/Users/danieldalton","no","mono","no","18","no","white","no","yes","768","legacy","75","11","/Users/danieldalton/subject-2.csv","legacy","5 9 2 3","Jazzy James","3.1.9","0","n","0","left","right","right","NA","left","889","37932","8294","NA","889","2","legacy","4","1024","2","48000","-16","Sternburgtask","2","even","8","613204","129087","614266","616498","587874","2155","120791","615280","40099","618511","2128","NA","614254","618511","619403","New experiment","74","102702","88","yes","1024"
"84.2696629213","84.2696629213","1167.52808989","1167.52808989","black","no","experiment","legacy","legacy","legacy","0","uniform","1","undefined","1","left","88","0","88","88","88","0","0","88","0","88","0","0","88","88","88","Wed Oct  3 19:42:11 2018","The main experiment item","yes","NA","Sternburg Task.osexp","/Users/danieldalton","no","mono","no","18","no","white","no","yes","768","legacy","76","11","/Users/danieldalton/subject-2.csv","legacy","3 5 9 6 2 4","Jazzy James","3.1.9","1","y","0","left","right","right","NA","left","1208","37932","8294","NA","1208","2","legacy","6","1024","2","48000","-16","Sternburgtask","2","even","3","613204","129087","620471","622711","619419","2155","120791","621488","40099","624725","2128","NA","620460","624725","625936","New experiment","75","103910","89","yes","1024"
"84.4444444444","84.4444444444","1168.34444444","1168.34444444","black","no","experiment","legacy","legacy","legacy","0","uniform","1","undefined","1","right","89","0","89","89","89","0","0","89","0","89","0","0","89","89","89","Wed Oct  3 19:42:11 2018","The main experiment item","yes","NA","Sternburg Task.osexp","/Users/danieldalton","no","mono","no","18","no","white","no","yes","768","legacy","77","11","/Users/danieldalton/subject-2.csv","legacy","9 8 2 7 4","Jazzy James","3.1.9","0","n","0","right","right","right","NA","right","1241","37932","8294","NA","1241","2","legacy","5","1024","2","48000","-16","Sternburgtask","2","even","5","625952","129087","627005","629245","619419","2155","120791","628027","40099","631258","2128","NA","626995","631258","632502","New experiment","76","105151","90","yes","1024"
"84.6153846154","84.6153846154","1169.18681319","1169.18681319","black","no","experiment","legacy","legacy","legacy","0","uniform","1","undefined","1","left","90","0","90","90","90","0","0","90","0","90","0","0","90","90","90","Wed Oct  3 19:42:11 2018","The main experiment item","yes","NA","Sternburg Task.osexp","/Users/danieldalton","no","mono","no","18","no","white","no","yes","768","legacy","78","11","/Users/danieldalton/subject-2.csv","legacy","9 3 1 2 5","Jazzy James","3.1.9","4","y","0","left","right","right","NA","left","1245","37932","8294","NA","1245","2","legacy","5","1024","2","48000","-16","Sternburgtask","2","even","2","632516","129087","633569","635804","619419","2155","120791","634585","40099","637817","2128","NA","633557","637817","639065","New experiment","77","106396","91","yes","1024"
"84.7826086957","84.7826086957","1169.67391304","1169.67391304","black","no","experiment","legacy","legacy","legacy","0","uniform","1","undefined","1","left","91","0","91","91","91","0","0","91","0","91","0","0","91","91","91","Wed Oct  3 19:42:11 2018","The main experiment item","yes","NA","Sternburg Task.osexp","/Users/danieldalton","no","mono","no","18","no","white","no","yes","768","legacy","79","11","/Users/danieldalton/subject-2.csv","legacy","7 1 3","Jazzy James","3.1.9","2","y","0","left","right","right","NA","left","1214","37932","8294","NA","1214","2","legacy","3","1024","2","48000","-16","Sternburgtask","2","even","1","639079","129087","640129","642367","619419","2155","120791","641145","40099","644380","2128","NA","640118","644380","645597","New experiment","78","107610","92","yes","1024"
"84.9462365591","84.9462365591","1167.96774194","1167.96774194","black","no","experiment","legacy","legacy","legacy","0","uniform","1","undefined","1","left","92","0","92","92","92","0","0","92","0","92","0","0","92","92","92","Wed Oct  3 19:42:11 2018","The main experiment item","yes","NA","Sternburg Task.osexp","/Users/danieldalton","no","mono","no","18","no","white","no","yes","768","legacy","80","11","/Users/danieldalton/subject-2.csv","legacy","2 3 7 4","Jazzy James","3.1.9","1","y","0","left","right","right","NA","left","1011","37932","8294","NA","1011","2","legacy","4","1024","2","48000","-16","Sternburgtask","2","even","2","645612","129087","646664","648899","619419","2155","120791","647680","40099","650915","2128","NA","646653","650915","651929","New experiment","79","108621","93","yes","1024"
"85.1063829787","85.1063829787","1164.74468085","1164.74468085","black","no","experiment","legacy","legacy","legacy","0","uniform","1","undefined","1","left","93","0","93","93","93","0","0","93","0","93","0","0","93","93","93","Wed Oct  3 19:42:11 2018","The main experiment item","yes","NA","Sternburg Task.osexp","/Users/danieldalton","no","mono","no","18","no","white","no","yes","768","legacy","81","11","/Users/danieldalton/subject-2.csv","legacy","5 2 9 6 1 7","Jazzy James","3.1.9","3","y","0","left","right","right","NA","left","865","37932","8294","NA","865","2","legacy","6","1024","2","48000","-16","Sternburgtask","2","even","9","651943","129087","652998","655228","619419","2155","120791","654012","40099","657241","2128","NA","652987","657241","658108","New experiment","80","109486","94","yes","1024"
"84.2105263158","84.2105263158","1168.4","1168.4","black","no","experiment","legacy","legacy","legacy","0","uniform","0","undefined","0","left","94","0","94","94","94","0","0","94","0","94","0","0","94","94","94","Wed Oct  3 19:42:11 2018","The main experiment item","yes","NA","Sternburg Task.osexp","/Users/danieldalton","no","mono","no","18","no","white","no","yes","768","legacy","82","11","/Users/danieldalton/subject-2.csv","legacy","5 7 8 2 3 8","Jazzy James","3.1.9","5","y","0","right","right","right","NA","right","1512","37932","8294","NA","1512","2","legacy","6","1024","2","48000","-16","Sternburgtask","2","even","3","658123","129087","659181","661414","619419","2155","120791","660197","40099","663427","2128","NA","659170","663427","664942","New experiment","80","110998","95","yes","1024"
"84.375","84.375","1163.53125","1163.53125","black","no","experiment","legacy","legacy","legacy","0","uniform","1","undefined","1","right","95","0","95","95","95","0","0","95","0","95","0","0","95","95","95","Wed Oct  3 19:42:11 2018","The main experiment item","yes","NA","Sternburg Task.osexp","/Users/danieldalton","no","mono","no","18","no","white","no","yes","768","legacy","83","11","/Users/danieldalton/subject-2.csv","legacy","1","Jazzy James","3.1.9","0","n","0","right","right","right","NA","right","701","37932","8294","NA","701","2","legacy","1","1024","2","48000","-16","Sternburgtask","2","even","7","658123","129087","666010","668243","664956","2155","120791","667025","40099","670260","2128","NA","666000","670260","670965","New experiment","81","111699","96","yes","1024"
"84.5360824742","84.5360824742","1161.46391753","1161.46391753","black","no","experiment","legacy","legacy","legacy","0","uniform","1","undefined","1","left","96","0","96","96","96","0","0","96","0","96","0","0","96","96","96","Wed Oct  3 19:42:11 2018","The main experiment item","yes","NA","Sternburg Task.osexp","/Users/danieldalton","no","mono","no","18","no","white","no","yes","768","legacy","84","11","/Users/danieldalton/subject-2.csv","legacy","4 7 6 8 2 3","Jazzy James","3.1.9","6","y","0","left","right","right","NA","left","963","37932","8294","NA","963","2","legacy","6","1024","2","48000","-16","Sternburgtask","2","even","3","670979","129087","672031","674267","664956","2155","120791","673049","40099","676282","2128","NA","672020","676282","677248","New experiment","82","112662","97","yes","1024"
"84.693877551","84.693877551","1158.41836735","1158.41836735","black","no","experiment","legacy","legacy","legacy","0","uniform","1","undefined","1","left","97","0","97","97","97","0","0","97","0","97","0","0","97","97","97","Wed Oct  3 19:42:11 2018","The main experiment item","yes","NA","Sternburg Task.osexp","/Users/danieldalton","no","mono","no","18","no","white","no","yes","768","legacy","85","11","/Users/danieldalton/subject-2.csv","legacy","9 6 2 4 1","Jazzy James","3.1.9","4","y","0","left","right","right","NA","left","863","37932","8294","NA","863","2","legacy","5","1024","2","48000","-16","Sternburgtask","2","even","4","677262","129087","678313","680548","664956","2155","120791","679329","40099","682569","2128","NA","678302","682570","683435","New experiment","83","113525","98","yes","1024"
"84.8484848485","84.8484848485","1154.63636364","1154.63636364","black","no","experiment","legacy","legacy","legacy","0","uniform","1","undefined","1","right","98","0","98","98","98","0","0","98","0","98","0","0","98","98","98","Wed Oct  3 19:42:11 2018","The main experiment item","yes","NA","Sternburg Task.osexp","/Users/danieldalton","no","mono","no","18","no","white","no","yes","768","legacy","86","11","/Users/danieldalton/subject-2.csv","legacy","1 7 5 2","Jazzy James","3.1.9","0","n","0","right","right","right","NA","right","784","37932","8294","NA","784","2","legacy","4","1024","2","48000","-16","Sternburgtask","2","even","3","683450","129087","684504","686738","664956","2155","120791","685520","40099","688751","2128","NA","684491","688751","689538","New experiment","84","114309","99","yes","1024"
"85","85","1149.98","1149.98","black","no","experiment","legacy","legacy","legacy","0","uniform","1","undefined","1","left","99","0","99","99","99","0","0","99","0","99","0","0","99","99","99","Wed Oct  3 19:42:11 2018","The main experiment item","yes","NA","Sternburg Task.osexp","/Users/danieldalton","no","mono","no","18","no","white","no","yes","768","legacy","87","11","/Users/danieldalton/subject-2.csv","legacy","4 9 7 8 5 3","Jazzy James","3.1.9","4","y","0","left","right","right","NA","left","689","37932","8294","NA","689","2","legacy","6","1024","2","48000","-16","Sternburgtask","2","even","8","689553","129087","690618","692858","664956","2155","120791","691639","40099","694871","2128","NA","690606","694871","695563","New experiment","85","114998","100","yes","1024"
"85.1485148515","85.1485148515","1147.23762376","1147.23762376","black","no","experiment","legacy","legacy","legacy","0","uniform","1","undefined","1","left","100","0","100","100","100","0","0","100","0","100","0","0","100","100","100","Wed Oct  3 19:42:11 2018","The main experiment item","yes","NA","Sternburg Task.osexp","/Users/danieldalton","no","mono","no","18","no","white","no","yes","768","legacy","88","11","/Users/danieldalton/subject-2.csv","legacy","8 3","Jazzy James","3.1.9","2","y","0","left","right","right","NA","left","873","37932","8294","NA","873","2","legacy","2","1024","2","48000","-16","Sternburgtask","2","even","3","695577","129087","696632","698872","664956","2155","120791","697652","40099","700885","2128","NA","696621","700886","701762","New experiment","86","115871","101","yes","1024"
"85.2941176471","85.2941176471","1144.64705882","1144.64705882","black","no","experiment","legacy","legacy","legacy","0","uniform","1","undefined","1","right","101","0","101","101","101","0","0","101","0","101","0","0","101","101","101","Wed Oct  3 19:42:11 2018","The main experiment item","yes","NA","Sternburg Task.osexp","/Users/danieldalton","no","mono","no","18","no","white","no","yes","768","legacy","89","11","/Users/danieldalton/subject-2.csv","legacy","3 9 1","Jazzy James","3.1.9","0","n","0","right","right","right","NA","right","883","37932","8294","NA","883","2","legacy","3","1024","2","48000","-16","Sternburgtask","2","even","7","701776","129087","702831","705066","664956","2155","120791","703845","40099","707081","2128","NA","702819","707081","707967","New experiment","87","116754","102","yes","1024"
"85.4368932039","85.4368932039","1141.39805825","1141.39805825","black","no","experiment","legacy","legacy","legacy","0","uniform","1","undefined","1","right","102","0","102","102","102","0","0","102","0","102","0","0","102","102","102","Wed Oct  3 19:42:11 2018","The main experiment item","yes","NA","Sternburg Task.osexp","/Users/danieldalton","no","mono","no","18","no","white","no","yes","768","legacy","90","11","/Users/danieldalton/subject-2.csv","legacy","1 4 3 6 5","Jazzy James","3.1.9","0","n","0","right","right","right","NA","right","810","37932","8294","NA","810","2","legacy","5","1024","2","48000","-16","Sternburgtask","2","even","8","707981","129087","709033","711269","664956","2155","120791","710050","40099","713282","2128","NA","709022","713282","714095","New experiment","88","117564","103","yes","1024"
"84.6153846154","84.6153846154","1137.65384615","1137.65384615","black","no","experiment","legacy","legacy","legacy","0","uniform","0","undefined","0","right","103","0","103","103","103","0","0","103","0","103","0","0","103","103","103","Wed Oct  3 19:42:11 2018","The main experiment item","yes","NA","Sternburg Task.osexp","/Users/danieldalton","no","mono","no","18","no","white","no","yes","768","legacy","91","11","/Users/danieldalton/subject-2.csv","legacy","6 9 5","Jazzy James","3.1.9","0","n","0","left","right","right","NA","left","752","37932","8294","NA","752","2","legacy","3","1024","2","48000","-16","Sternburgtask","2","even","8","714113","129087","715165","717401","664956","2155","120791","716184","40099","719415","2128","NA","715153","719416","720171","New experiment","88","118316","104","yes","1024"
"84.7619047619","84.7619047619","1137.61904762","1137.61904762","black","no","experiment","legacy","legacy","legacy","0","uniform","1","undefined","1","right","104","0","104","104","104","0","0","104","0","104","0","0","104","104","104","Wed Oct  3 19:42:11 2018","The main experiment item","yes","NA","Sternburg Task.osexp","/Users/danieldalton","no","mono","no","18","no","white","no","yes","768","legacy","92","11","/Users/danieldalton/subject-2.csv","legacy","7 3 2 8","Jazzy James","3.1.9","0","n","0","right","right","right","NA","right","1134","37932","8294","NA","1134","2","legacy","4","1024","2","48000","-16","Sternburgtask","2","even","4","714113","129087","721237","723471","720185","2155","120791","722254","40099","725485","2128","NA","721226","725485","726622","New experiment","89","119450","105","yes","1024"
"84.9056603774","84.9056603774","1137.80188679","1137.80188679","black","no","experiment","legacy","legacy","legacy","0","uniform","1","undefined","1","right","105","0","105","105","105","0","0","105","0","105","0","0","105","105","105","Wed Oct  3 19:42:11 2018","The main experiment item","yes","NA","Sternburg Task.osexp","/Users/danieldalton","no","mono","no","18","no","white","no","yes","768","legacy","93","11","/Users/danieldalton/subject-2.csv","legacy","3 4 9 6 7 8","Jazzy James","3.1.9","0","n","0","right","right","right","NA","right","1157","37932","8294","NA","1157","2","legacy","6","1024","2","48000","-16","Sternburgtask","2","even","2","726637","129087","727687","729919","720185","2155","120791","728702","40099","731932","2128","NA","727676","731932","733091","New experiment","90","120607","106","yes","1024"
"85.046728972","85.046728972","1135.53271028","1135.53271028","black","no","experiment","legacy","legacy","legacy","0","uniform","1","undefined","1","left","106","0","106","106","106","0","0","106","0","106","0","0","106","106","106","Wed Oct  3 19:42:11 2018","The main experiment item","yes","NA","Sternburg Task.osexp","/Users/danieldalton","no","mono","no","18","no","white","no","yes","768","legacy","94","11","/Users/danieldalton/subject-2.csv","legacy","3 9 6 2","Jazzy James","3.1.9","4","y","0","left","right","right","NA","left","895","37932","8294","NA","895","2","legacy","4","1024","2","48000","-16","Sternburgtask","2","even","2","733105","129087","734158","736393","720185","2155","120791","735175","40099","738406","2128","NA","734146","738406","739304","New experiment","91","121502","107","yes","1024"
"85.1851851852","85.1851851852","1133.2962963","1133.2962963","black","no","experiment","legacy","legacy","legacy","0","uniform","1","undefined","1","left","107","0","107","107","107","0","0","107","0","107","0","0","107","107","107","Wed Oct  3 19:42:11 2018","The main experiment item","yes","NA","Sternburg Task.osexp","/Users/danieldalton","no","mono","no","18","no","white","no","yes","768","legacy","95","11","/Users/danieldalton/subject-2.csv","legacy","3 5 4 7","Jazzy James","3.1.9","1","y","0","left","right","right","NA","left","894","37932","8294","NA","894","2","legacy","4","1024","2","48000","-16","Sternburgtask","2","even","3","739319","129087","740371","742609","720185","2155","120791","741386","40099","744629","2128","NA","740360","744629","745526","New experiment","92","122396","108","yes","1024"
"85.3211009174","85.3211009174","1131.3853211","1131.3853211","black","no","experiment","legacy","legacy","legacy","0","uniform","1","undefined","1","left","108","0","108","108","108","0","0","108","0","108","0","0","108","108","108","Wed Oct  3 19:42:11 2018","The main experiment item","yes","NA","Sternburg Task.osexp","/Users/danieldalton","no","mono","no","18","no","white","no","yes","768","legacy","96","11","/Users/danieldalton/subject-2.csv","legacy","7 1 8 5 6 2","Jazzy James","3.1.9","2","y","0","left","right","right","NA","left","925","37932","8294","NA","925","2","legacy","6","1024","2","48000","-16","Sternburgtask","2","even","1","745540","129087","746593","748828","720185","2155","120791","747611","40099","750841","2128","NA","746582","750841","751769","New experiment","93","123321","109","yes","1024"
"85.4545454545","85.4545454545","1132.77272727","1132.77272727","black","no","experiment","legacy","legacy","legacy","0","uniform","1","undefined","1","right","109","0","109","109","109","0","0","109","0","109","0","0","109","109","109","Wed Oct  3 19:42:11 2018","The main experiment item","yes","NA","Sternburg Task.osexp","/Users/danieldalton","no","mono","no","18","no","white","no","yes","768","legacy","97","11","/Users/danieldalton/subject-2.csv","legacy","4 2 6 9","Jazzy James","3.1.9","0","n","0","right","right","right","NA","right","1284","37932","8294","NA","1284","2","legacy","4","1024","2","48000","-16","Sternburgtask","2","even","7","751783","129087","752836","755072","720185","2155","120791","753853","40099","757086","2128","NA","752825","757087","758374","New experiment","94","124605","110","yes","1024"
"85.5855855856","85.5855855856","1130.81081081","1130.81081081","black","no","experiment","legacy","legacy","legacy","0","uniform","1","undefined","1","right","110","0","110","110","110","0","0","110","0","110","0","0","110","110","110","Wed Oct  3 19:42:11 2018","The main experiment item","yes","NA","Sternburg Task.osexp","/Users/danieldalton","no","mono","no","18","no","white","no","yes","768","legacy","98","11","/Users/danieldalton/subject-2.csv","legacy","1 7 8 3 9","Jazzy James","3.1.9","0","n","0","right","right","right","NA","right","915","37932","8294","NA","915","2","legacy","5","1024","2","48000","-16","Sternburgtask","2","even","2","758388","129087","759443","761680","720185","2155","120791","760458","40099","763694","2128","NA","759432","763694","764612","New experiment","95","125520","111","yes","1024"
"85.7142857143","85.7142857143","1128.65178571","1128.65178571","black","no","experiment","legacy","legacy","legacy","0","uniform","1","undefined","1","left","111","0","111","111","111","0","0","111","0","111","0","0","111","111","111","Wed Oct  3 19:42:11 2018","The main experiment item","yes","NA","Sternburg Task.osexp","/Users/danieldalton","no","mono","no","18","no","white","no","yes","768","legacy","99","11","/Users/danieldalton/subject-2.csv","legacy","3 2 1 4 7","Jazzy James","3.1.9","2","y","0","left","right","right","NA","left","889","37932","8294","NA","889","2","legacy","5","1024","2","48000","-16","Sternburgtask","2","even","2","764627","129087","765679","767911","720185","2155","120791","766695","40099","769931","2128","NA","765668","769932","770824","New experiment","96","126409","112","yes","1024"
"85.8407079646","85.8407079646","1122.86725664","1122.86725664","black","no","experiment","legacy","legacy","legacy","0","uniform","1","undefined","1","left","112","0","112","112","112","0","0","112","0","112","0","0","112","112","112","Wed Oct  3 19:42:11 2018","The main experiment item","yes","NA","Sternburg Task.osexp","/Users/danieldalton","no","mono","no","18","no","white","no","yes","768","legacy","100","11","/Users/danieldalton/subject-2.csv","legacy","8","Jazzy James","3.1.9","1","y","0","left","right","right","NA","left","475","37932","8294","NA","475","2","legacy","1","1024","2","48000","-16","Sternburgtask","2","even","8","770838","129087","771896","774127","720185","2155","120791","772911","40099","776141","2128","NA","771884","776141","776619","New experiment","97","126884","113","yes","1024"
"85.9649122807","85.9649122807","1119.85964912","1119.85964912","black","no","experiment","legacy","legacy","legacy","0","uniform","1","undefined","1","right","113","0","113","113","113","0","0","113","0","113","0","0","113","113","113","Wed Oct  3 19:42:11 2018","The main experiment item","yes","NA","Sternburg Task.osexp","/Users/danieldalton","no","mono","no","18","no","white","no","yes","768","legacy","101","11","/Users/danieldalton/subject-2.csv","legacy","2 8 7 9 5 3","Jazzy James","3.1.9","0","n","0","right","right","right","NA","right","780","37932","8294","NA","780","2","legacy","6","1024","2","48000","-16","Sternburgtask","2","even","6","776634","129087","777685","779921","720185","2155","120791","778703","40099","781944","2128","NA","777674","781944","782727","New experiment","98","127664","114","yes","1024"
"86.0869565217","86.0869565217","1118.05217391","1118.05217391","black","no","experiment","legacy","legacy","legacy","0","uniform","1","undefined","1","left","114","0","114","114","114","0","0","114","0","114","0","0","114","114","114","Wed Oct  3 19:42:11 2018","The main experiment item","yes","NA","Sternburg Task.osexp","/Users/danieldalton","no","mono","no","18","no","white","no","yes","768","legacy","102","11","/Users/danieldalton/subject-2.csv","legacy","8 5 1 3 9","Jazzy James","3.1.9","4","y","0","left","right","right","NA","left","912","37932","8294","NA","912","2","legacy","5","1024","2","48000","-16","Sternburgtask","2","even","3","782741","129087","783793","786026","720185","2155","120791","784808","40099","788039","2128","NA","783782","788039","788954","New experiment","99","128576","115","yes","1024"
"86.2068965517","86.2068965517","1115.0862069","1115.0862069","black","no","experiment","legacy","legacy","legacy","0","uniform","1","undefined","1","right","115","0","115","115","115","0","0","115","0","115","0","0","115","115","115","Wed Oct  3 19:42:11 2018","The main experiment item","yes","NA","Sternburg Task.osexp","/Users/danieldalton","no","mono","no","18","no","white","no","yes","768","legacy","103","11","/Users/danieldalton/subject-2.csv","legacy","8 6 3 4 7","Jazzy James","3.1.9","0","n","0","right","right","right","NA","right","774","37932","8294","NA","774","2","legacy","5","1024","2","48000","-16","Sternburgtask","2","even","1","788968","129087","790021","792253","720185","2155","120791","791036","40099","794266","2128","NA","790010","794266","795043","New experiment","100","129350","116","yes","1024"
"86.3247863248","86.3247863248","1114.1965812","1114.1965812","black","no","experiment","legacy","legacy","legacy","0","uniform","1","undefined","1","left","116","0","116","116","116","0","0","116","0","116","0","0","116","116","116","Wed Oct  3 19:42:11 2018","The main experiment item","yes","NA","Sternburg Task.osexp","/Users/danieldalton","no","mono","no","18","no","white","no","yes","768","legacy","104","11","/Users/danieldalton/subject-2.csv","legacy","6 9 7 4 5 1","Jazzy James","3.1.9","2","y","0","left","right","right","NA","left","1011","37932","8294","NA","1011","2","legacy","6","1024","2","48000","-16","Sternburgtask","2","even","9","795058","129087","796115","798350","720185","2155","120791","797129","40099","800365","2128","NA","796103","800366","801381","New experiment","101","130361","117","yes","1024"
"86.4406779661","86.4406779661","1111.38983051","1111.38983051","black","no","experiment","legacy","legacy","legacy","0","uniform","1","undefined","1","right","117","0","117","117","117","0","0","117","0","117","0","0","117","117","117","Wed Oct  3 19:42:11 2018","The main experiment item","yes","NA","Sternburg Task.osexp","/Users/danieldalton","no","mono","no","18","no","white","no","yes","768","legacy","105","11","/Users/danieldalton/subject-2.csv","legacy","8 5 7 3 6","Jazzy James","3.1.9","0","n","0","right","right","right","NA","right","783","37932","8294","NA","783","2","legacy","5","1024","2","48000","-16","Sternburgtask","2","even","9","801395","129087","802447","804687","720185","2155","120791","803465","40099","806702","2128","NA","802435","806702","807488","New experiment","102","131144","118","yes","1024"
"86.5546218487","86.5546218487","1108.61344538","1108.61344538","black","no","experiment","legacy","legacy","legacy","0","uniform","1","undefined","1","right","118","0","118","118","118","0","0","118","0","118","0","0","118","118","118","Wed Oct  3 19:42:11 2018","The main experiment item","yes","NA","Sternburg Task.osexp","/Users/danieldalton","no","mono","no","18","no","white","no","yes","768","legacy","106","11","/Users/danieldalton/subject-2.csv","legacy","6 9 4 5 2","Jazzy James","3.1.9","0","n","0","right","right","right","NA","right","781","37932","8294","NA","781","2","legacy","5","1024","2","48000","-16","Sternburgtask","2","even","1","807505","129087","808558","810792","720185","2155","120791","809574","40099","812805","2128","NA","808547","812805","813589","New experiment","103","131925","119","yes","1024"
"86.6666666667","86.6666666667","1104.91666667","1104.91666667","black","no","experiment","legacy","legacy","legacy","0","uniform","1","undefined","1","right","119","0","119","119","119","0","0","119","0","119","0","0","119","119","119","Wed Oct  3 19:42:11 2018","The main experiment item","yes","NA","Sternburg Task.osexp","/Users/danieldalton","no","mono","no","18","no","white","no","yes","768","legacy","107","11","/Users/danieldalton/subject-2.csv","legacy","1 7 5 2 9","Jazzy James","3.1.9","0","n","0","right","right","right","NA","right","665","37932","8294","NA","665","2","legacy","5","1024","2","48000","-16","Sternburgtask","2","even","3","813604","129087","814660","816899","720185","2155","120791","815681","40099","818912","2128","NA","814648","818912","819581","New experiment","104","132590","120","yes","1024"
"86.7768595041","86.7768595041","1102.95867769","1102.95867769","black","no","experiment","legacy","legacy","legacy","0","uniform","1","undefined","1","left","120","0","120","120","120","0","0","120","0","120","0","0","120","120","120","Wed Oct  3 19:42:11 2018","The main experiment item","yes","NA","Sternburg Task.osexp","/Users/danieldalton","no","mono","no","18","no","white","no","yes","768","legacy","108","11","/Users/danieldalton/subject-2.csv","legacy","9 1 6 7 8","Jazzy James","3.1.9","1","y","0","left","right","right","NA","left","868","37932","8294","NA","868","2","legacy","5","1024","2","48000","-16","Sternburgtask","2","even","9","819595","129087","820648","822887","720185","2155","120791","821666","40099","824901","2128","NA","820637","824901","825772","New experiment","105","133458","121","yes","1024"
