"acc","accuracy","average_response_time","avg_rt","background","block","canvas_backend","clock_backend","color_backend","compensation","coordinates","correct","correct_instruction1","correct_keyboardResponse","correct_response","count_ISI","count_Practiceloop","count_correctFeedback","count_expSequence","count_experiment","count_experimentLoop","count_fixation","count_incorrect","count_instruction1","count_instructions2","count_keyboardResponse","count_logger","count_memorySet","count_probe","count_thankYou","datetime","description","disable_garbage_collection","experiment_file","experiment_path","font_bold","font_family","font_italic","font_size","font_underline","foreground","form_clicks","fullscreen","height","keyboard_backend","live_row","live_row_Practiceloop","logfile","mouse_backend","numberSet","opensesame_codename","opensesame_version","posInSet","present","repeat_cycle","response","response_instruction1","response_instructions2","response_keyboardResponse","response_thankYou","response_time","response_time_instruction1","response_time_instructions2","response_time_keyboardResponse","response_time_thankYou","round_decimals","sampler_backend","setSize","sound_buf_size","sound_channels","sound_freq","sound_sample_size","start","subject_nr","subject_parity","target","time_ISI","time_Practiceloop","time_correctFeedback","time_expSequence","time_experiment","time_experimentLoop","time_fixation","time_incorrect","time_instruction1","time_instructions2","time_keyboardResponse","time_logger","time_memorySet","time_probe","time_thankYou","title","total_correct","total_response_time","total_responses","uniform_coordinates","width"
"0","0","2000","2000","black","practice","legacy","legacy","legacy","0","uniform","0","undefined","0","left","0","0","0","0","0","0","0","0","0","0","0","0","0","0","0","10/04/18 18:53:01","The main experiment item","yes","Sternbergtask.osexp","C:/Users/hawkm/OneDrive/Desktop/Tarleton school stuff/Fall 2018/Advanced Quantitative Methods/Lab 2","no","mono","no","18","no","white","no","yes","768","legacy","0","0","C:/Users/hawkm/OneDrive/Desktop/Tarleton school stuff/Fall 2018/Advanced Quantitative Methods/Lab 2/Hawk-subject-2.csv","legacy","4 8","Kafkaesque Koffka","3.2.5","1","y","0","None","left","NA","None","NA","2000","21779","NA","2000","NA","2","legacy","2","1024","2","48000","-16","experiment","2","even","4","32826","25688","NA","30611","3875","NA","30615","NA","3879","NA","34831","36831","31620","34831","NA","Sternberg task","0","2000","1","yes","1024"
"50","50","1854.5","1854.5","black","practice","legacy","legacy","legacy","0","uniform","1","undefined","1","right","1","0","1","1","0","0","1","1","0","0","1","1","1","1","0","10/04/18 18:53:01","The main experiment item","yes","Sternbergtask.osexp","C:/Users/hawkm/OneDrive/Desktop/Tarleton school stuff/Fall 2018/Advanced Quantitative Methods/Lab 2","no","mono","no","18","no","white","no","yes","768","legacy","1","1","C:/Users/hawkm/OneDrive/Desktop/Tarleton school stuff/Fall 2018/Advanced Quantitative Methods/Lab 2/Hawk-subject-2.csv","legacy","9 6 7 4 5","Kafkaesque Koffka","3.2.5","0","n","0","right","left","NA","right","NA","1709","21779","NA","1709","NA","2","legacy","5","1024","2","48000","-16","experiment","2","even","3","40403","25688","NA","38191","3875","NA","38193","37042","3879","NA","42409","44118","39197","42408","NA","Sternberg task","1","3709","2","yes","1024"
"33.3333333333","33.3333333333","1479","1479","black","practice","legacy","legacy","legacy","0","uniform","0","undefined","0","left","2","0","2","2","0","0","2","2","0","0","2","2","2","2","0","10/04/18 18:53:01","The main experiment item","yes","Sternbergtask.osexp","C:/Users/hawkm/OneDrive/Desktop/Tarleton school stuff/Fall 2018/Advanced Quantitative Methods/Lab 2","no","mono","no","18","no","white","no","yes","768","legacy","2","2","C:/Users/hawkm/OneDrive/Desktop/Tarleton school stuff/Fall 2018/Advanced Quantitative Methods/Lab 2/Hawk-subject-2.csv","legacy","6","Kafkaesque Koffka","3.2.5","1","y","0","right","left","NA","right","NA","728","21779","NA","728","NA","2","legacy","1","1024","2","48000","-16","experiment","2","even","6","47514","25688","44166","45303","3875","NA","45305","37042","3879","NA","49520","50248","46308","49519","NA","Sternberg task","1","4437","3","yes","1024"
"50","50","1537.25","1537.25","black","practice","legacy","legacy","legacy","0","uniform","1","undefined","1","right","3","0","3","3","0","0","3","3","0","0","3","3","3","3","0","10/04/18 18:53:01","The main experiment item","yes","Sternbergtask.osexp","C:/Users/hawkm/OneDrive/Desktop/Tarleton school stuff/Fall 2018/Advanced Quantitative Methods/Lab 2","no","mono","no","18","no","white","no","yes","768","legacy","3","3","C:/Users/hawkm/OneDrive/Desktop/Tarleton school stuff/Fall 2018/Advanced Quantitative Methods/Lab 2/Hawk-subject-2.csv","legacy","5 7 8 4 1 2","Kafkaesque Koffka","3.2.5","0","n","0","right","left","NA","right","NA","1712","21779","NA","1712","NA","2","legacy","6","1024","2","48000","-16","experiment","2","even","6","53711","25688","44166","51499","3875","NA","51501","50294","3879","NA","55716","57429","52506","55716","NA","Sternberg task","2","6149","4","yes","1024"
"40","40","1379.4","1379.4","black","practice","legacy","legacy","legacy","0","uniform","0","undefined","0","right","4","0","4","4","0","0","4","4","0","0","4","4","4","4","0","10/04/18 18:53:01","The main experiment item","yes","Sternbergtask.osexp","C:/Users/hawkm/OneDrive/Desktop/Tarleton school stuff/Fall 2018/Advanced Quantitative Methods/Lab 2","no","mono","no","18","no","white","no","yes","768","legacy","4","4","C:/Users/hawkm/OneDrive/Desktop/Tarleton school stuff/Fall 2018/Advanced Quantitative Methods/Lab 2/Hawk-subject-2.csv","legacy","2 1","Kafkaesque Koffka","3.2.5","0","n","0","left","left","NA","left","NA","748","21779","NA","748","NA","2","legacy","2","1024","2","48000","-16","experiment","2","even","5","60834","25688","57471","58624","3875","NA","58626","50294","3879","NA","62840","63589","59629","62839","NA","Sternberg task","2","6897","5","yes","1024"
"33.3333333333","33.3333333333","1364.66666667","1364.66666667","black","practice","legacy","legacy","legacy","0","uniform","0","undefined","0","left","5","0","5","5","0","0","5","5","0","0","5","5","5","5","0","10/04/18 18:53:01","The main experiment item","yes","Sternbergtask.osexp","C:/Users/hawkm/OneDrive/Desktop/Tarleton school stuff/Fall 2018/Advanced Quantitative Methods/Lab 2","no","mono","no","18","no","white","no","yes","768","legacy","5","5","C:/Users/hawkm/OneDrive/Desktop/Tarleton school stuff/Fall 2018/Advanced Quantitative Methods/Lab 2/Hawk-subject-2.csv","legacy","1 7 9 8 5","Kafkaesque Koffka","3.2.5","4","y","0","right","left","NA","right","NA","1291","21779","NA","1291","NA","2","legacy","5","1024","2","48000","-16","experiment","2","even","8","66982","25688","57471","64770","3875","NA","64772","63634","3879","NA","68987","70278","65777","68987","NA","Sternberg task","2","8188","6","yes","1024"
"42.8571428571","42.8571428571","1318.71428571","1318.71428571","black","practice","legacy","legacy","legacy","0","uniform","1","undefined","1","right","6","0","6","6","0","0","6","6","0","0","6","6","6","6","0","10/04/18 18:53:01","The main experiment item","yes","Sternbergtask.osexp","C:/Users/hawkm/OneDrive/Desktop/Tarleton school stuff/Fall 2018/Advanced Quantitative Methods/Lab 2","no","mono","no","18","no","white","no","yes","768","legacy","6","6","C:/Users/hawkm/OneDrive/Desktop/Tarleton school stuff/Fall 2018/Advanced Quantitative Methods/Lab 2/Hawk-subject-2.csv","legacy","3 1 9 4","Kafkaesque Koffka","3.2.5","0","n","0","right","left","NA","right","NA","1043","21779","NA","1043","NA","2","legacy","4","1024","2","48000","-16","experiment","2","even","6","73679","25688","57471","71468","3875","NA","71470","70323","3879","NA","75685","76729","72475","75685","NA","Sternberg task","3","9231","7","yes","1024"
"50","50","1301.125","1301.125","black","practice","legacy","legacy","legacy","0","uniform","1","undefined","1","left","7","0","7","7","0","0","7","7","0","0","7","7","7","7","0","10/04/18 18:53:01","The main experiment item","yes","Sternbergtask.osexp","C:/Users/hawkm/OneDrive/Desktop/Tarleton school stuff/Fall 2018/Advanced Quantitative Methods/Lab 2","no","mono","no","18","no","white","no","yes","768","legacy","7","7","C:/Users/hawkm/OneDrive/Desktop/Tarleton school stuff/Fall 2018/Advanced Quantitative Methods/Lab 2/Hawk-subject-2.csv","legacy","4 3 1 7 9 8","Kafkaesque Koffka","3.2.5","1","y","0","left","left","NA","left","NA","1178","21779","NA","1178","NA","2","legacy","6","1024","2","48000","-16","experiment","2","even","4","80155","25688","76775","77943","3875","NA","77945","70323","3879","NA","82160","83340","78950","82160","NA","Sternberg task","4","10409","8","yes","1024"
"55.5555555556","55.5555555556","1249.66666667","1249.66666667","black","practice","legacy","legacy","legacy","0","uniform","1","undefined","1","right","8","0","8","8","0","0","8","8","0","0","8","8","8","8","0","10/04/18 18:53:01","The main experiment item","yes","Sternbergtask.osexp","C:/Users/hawkm/OneDrive/Desktop/Tarleton school stuff/Fall 2018/Advanced Quantitative Methods/Lab 2","no","mono","no","18","no","white","no","yes","768","legacy","8","8","C:/Users/hawkm/OneDrive/Desktop/Tarleton school stuff/Fall 2018/Advanced Quantitative Methods/Lab 2/Hawk-subject-2.csv","legacy","4 1 5","Kafkaesque Koffka","3.2.5","0","n","0","right","left","NA","right","NA","838","21779","NA","838","NA","2","legacy","3","1024","2","48000","-16","experiment","2","even","2","86726","25688","83382","84513","3875","NA","84515","70323","3879","NA","88730","89570","85520","88730","NA","Sternberg task","5","11247","9","yes","1024"
"50","50","1324.7","1324.7","black","practice","legacy","legacy","legacy","0","uniform","0","undefined","0","right","9","0","9","9","0","0","9","9","0","0","9","9","9","9","0","10/04/18 18:53:01","The main experiment item","yes","Sternbergtask.osexp","C:/Users/hawkm/OneDrive/Desktop/Tarleton school stuff/Fall 2018/Advanced Quantitative Methods/Lab 2","no","mono","no","18","no","white","no","yes","768","legacy","9","9","C:/Users/hawkm/OneDrive/Desktop/Tarleton school stuff/Fall 2018/Advanced Quantitative Methods/Lab 2/Hawk-subject-2.csv","legacy","5","Kafkaesque Koffka","3.2.5","0","n","0","None","left","NA","None","NA","2000","21779","NA","2000","NA","2","legacy","1","1024","2","48000","-16","experiment","2","even","3","92949","25688","89620","90738","3875","NA","90741","70323","3879","NA","94956","96956","91745","94955","NA","Sternberg task","5","13247","10","yes","1024"
"54.5454545455","54.5454545455","1331.90909091","1331.90909091","black","practice","legacy","legacy","legacy","0","uniform","1","undefined","1","left","10","0","10","10","0","0","10","10","0","0","10","10","10","10","0","10/04/18 18:53:01","The main experiment item","yes","Sternbergtask.osexp","C:/Users/hawkm/OneDrive/Desktop/Tarleton school stuff/Fall 2018/Advanced Quantitative Methods/Lab 2","no","mono","no","18","no","white","no","yes","768","legacy","10","10","C:/Users/hawkm/OneDrive/Desktop/Tarleton school stuff/Fall 2018/Advanced Quantitative Methods/Lab 2/Hawk-subject-2.csv","legacy","2 9 4","Kafkaesque Koffka","3.2.5","3","y","0","left","left","NA","left","NA","1404","21779","NA","1404","NA","2","legacy","3","1024","2","48000","-16","experiment","2","even","4","100350","25688","89620","98139","3875","NA","98141","97003","3879","NA","102355","103759","99145","102355","NA","Sternberg task","6","14651","11","yes","1024"
"58.3333333333","58.3333333333","1284.5","1284.5","black","practice","legacy","legacy","legacy","0","uniform","1","undefined","1","left","11","0","11","11","0","0","11","11","0","0","11","11","11","11","0","10/04/18 18:53:01","The main experiment item","yes","Sternbergtask.osexp","C:/Users/hawkm/OneDrive/Desktop/Tarleton school stuff/Fall 2018/Advanced Quantitative Methods/Lab 2","no","mono","no","18","no","white","no","yes","768","legacy","11","11","C:/Users/hawkm/OneDrive/Desktop/Tarleton school stuff/Fall 2018/Advanced Quantitative Methods/Lab 2/Hawk-subject-2.csv","legacy","1 5 2 9","Kafkaesque Koffka","3.2.5","2","y","0","left","left","NA","left","NA","763","21779","NA","763","NA","2","legacy","4","1024","2","48000","-16","experiment","2","even","5","107150","25688","103803","104938","3875","NA","104940","97003","3879","NA","109155","109919","105945","109155","NA","Sternberg task","7","15414","12","yes","1024"
"61.5384615385","61.5384615385","1269.92307692","1269.92307692","black","experiment","legacy","legacy","legacy","0","uniform","1","undefined","1","left","12","0","12","12","0","0","12","12","0","0","12","12","12","12","0","10/04/18 18:53:01","The main experiment item","yes","Sternbergtask.osexp","C:/Users/hawkm/OneDrive/Desktop/Tarleton school stuff/Fall 2018/Advanced Quantitative Methods/Lab 2","no","mono","no","18","no","white","no","yes","768","legacy","0","11","C:/Users/hawkm/OneDrive/Desktop/Tarleton school stuff/Fall 2018/Advanced Quantitative Methods/Lab 2/Hawk-subject-2.csv","legacy","6 9 7 4 5 1","Kafkaesque Koffka","3.2.5","2","y","0","left","left","left","left","NA","1095","21779","4978","1095","NA","2","legacy","6","1024","2","48000","-16","experiment","2","even","9","118279","25688","109962","116068","3875","115989","116070","97003","3879","111011","120285","121380","117074","120284","NA","Sternberg task","8","16509","13","yes","1024"
"64.2857142857","64.2857142857","1228.64285714","1228.64285714","black","experiment","legacy","legacy","legacy","0","uniform","1","undefined","1","right","13","0","13","13","0","0","13","13","0","0","13","13","13","13","0","10/04/18 18:53:01","The main experiment item","yes","Sternbergtask.osexp","C:/Users/hawkm/OneDrive/Desktop/Tarleton school stuff/Fall 2018/Advanced Quantitative Methods/Lab 2","no","mono","no","18","no","white","no","yes","768","legacy","1","11","C:/Users/hawkm/OneDrive/Desktop/Tarleton school stuff/Fall 2018/Advanced Quantitative Methods/Lab 2/Hawk-subject-2.csv","legacy","5 3 8 7 2 4","Kafkaesque Koffka","3.2.5","0","n","0","right","left","left","right","NA","692","21779","4978","692","NA","2","legacy","6","1024","2","48000","-16","experiment","2","even","9","124742","25688","121387","122529","3875","115989","122531","97003","3879","111011","126748","127440","123536","126747","NA","Sternberg task","9","17201","14","yes","1024"
"66.6666666667","66.6666666667","1207.2","1207.2","black","experiment","legacy","legacy","legacy","0","uniform","1","undefined","1","right","14","0","14","14","0","0","14","14","0","0","14","14","14","14","0","10/04/18 18:53:01","The main experiment item","yes","Sternbergtask.osexp","C:/Users/hawkm/OneDrive/Desktop/Tarleton school stuff/Fall 2018/Advanced Quantitative Methods/Lab 2","no","mono","no","18","no","white","no","yes","768","legacy","2","11","C:/Users/hawkm/OneDrive/Desktop/Tarleton school stuff/Fall 2018/Advanced Quantitative Methods/Lab 2/Hawk-subject-2.csv","legacy","7 9 1 6","Kafkaesque Koffka","3.2.5","0","n","0","right","left","left","right","NA","907","21779","4978","907","NA","2","legacy","4","1024","2","48000","-16","experiment","2","even","4","130847","25688","127489","128634","3875","115989","128635","97003","3879","111011","132853","133761","129641","132853","NA","Sternberg task","10","18108","15","yes","1024"
"68.75","68.75","1210.0625","1210.0625","black","experiment","legacy","legacy","legacy","0","uniform","1","undefined","1","left","15","0","15","15","0","0","15","15","0","0","15","15","15","15","0","10/04/18 18:53:01","The main experiment item","yes","Sternbergtask.osexp","C:/Users/hawkm/OneDrive/Desktop/Tarleton school stuff/Fall 2018/Advanced Quantitative Methods/Lab 2","no","mono","no","18","no","white","no","yes","768","legacy","3","11","C:/Users/hawkm/OneDrive/Desktop/Tarleton school stuff/Fall 2018/Advanced Quantitative Methods/Lab 2/Hawk-subject-2.csv","legacy","4 9 7 8 5 3","Kafkaesque Koffka","3.2.5","4","y","0","left","left","left","left","NA","1253","21779","4978","1253","NA","2","legacy","6","1024","2","48000","-16","experiment","2","even","8","137192","25688","133805","134979","3875","115989","134981","97003","3879","111011","139197","140451","135986","139197","NA","Sternberg task","11","19361","16","yes","1024"
"70.5882352941","70.5882352941","1211.94117647","1211.94117647","black","experiment","legacy","legacy","legacy","0","uniform","1","undefined","1","right","16","0","16","16","0","0","16","16","0","0","16","16","16","16","0","10/04/18 18:53:01","The main experiment item","yes","Sternbergtask.osexp","C:/Users/hawkm/OneDrive/Desktop/Tarleton school stuff/Fall 2018/Advanced Quantitative Methods/Lab 2","no","mono","no","18","no","white","no","yes","768","legacy","4","11","C:/Users/hawkm/OneDrive/Desktop/Tarleton school stuff/Fall 2018/Advanced Quantitative Methods/Lab 2/Hawk-subject-2.csv","legacy","4 2 6 9","Kafkaesque Koffka","3.2.5","0","n","0","right","left","left","right","NA","1242","21779","4978","1242","NA","2","legacy","4","1024","2","48000","-16","experiment","2","even","7","143852","25688","140497","141641","3875","115989","141642","97003","3879","111011","145858","147101","142647","145857","NA","Sternberg task","12","20603","17","yes","1024"
"72.2222222222","72.2222222222","1212.94444444","1212.94444444","black","experiment","legacy","legacy","legacy","0","uniform","1","undefined","1","right","17","0","17","17","0","0","17","17","0","0","17","17","17","17","0","10/04/18 18:53:01","The main experiment item","yes","Sternbergtask.osexp","C:/Users/hawkm/OneDrive/Desktop/Tarleton school stuff/Fall 2018/Advanced Quantitative Methods/Lab 2","no","mono","no","18","no","white","no","yes","768","legacy","5","11","C:/Users/hawkm/OneDrive/Desktop/Tarleton school stuff/Fall 2018/Advanced Quantitative Methods/Lab 2/Hawk-subject-2.csv","legacy","1 5 3 2 8","Kafkaesque Koffka","3.2.5","0","n","0","right","left","left","right","NA","1230","21779","4978","1230","NA","2","legacy","5","1024","2","48000","-16","experiment","2","even","4","150495","25688","147145","148283","3875","115989","148285","97003","3879","111011","152500","153731","149290","152500","NA","Sternberg task","13","21833","18","yes","1024"
"68.4210526316","68.4210526316","1219.63157895","1219.63157895","black","experiment","legacy","legacy","legacy","0","uniform","0","undefined","0","left","18","0","18","18","0","0","18","18","0","0","18","18","18","18","0","10/04/18 18:53:01","The main experiment item","yes","Sternbergtask.osexp","C:/Users/hawkm/OneDrive/Desktop/Tarleton school stuff/Fall 2018/Advanced Quantitative Methods/Lab 2","no","mono","no","18","no","white","no","yes","768","legacy","6","11","C:/Users/hawkm/OneDrive/Desktop/Tarleton school stuff/Fall 2018/Advanced Quantitative Methods/Lab 2/Hawk-subject-2.csv","legacy","8 5 4 7 3 1","Kafkaesque Koffka","3.2.5","2","y","0","right","left","left","right","NA","1340","21779","4978","1340","NA","2","legacy","6","1024","2","48000","-16","experiment","2","even","5","157135","25688","153780","154923","3875","115989","154924","97003","3879","111011","159140","160481","155929","159140","NA","Sternberg task","13","23173","19","yes","1024"
"70","70","1202.7","1202.7","black","experiment","legacy","legacy","legacy","0","uniform","1","undefined","1","left","19","0","19","19","0","0","19","19","0","0","19","19","19","19","0","10/04/18 18:53:01","The main experiment item","yes","Sternbergtask.osexp","C:/Users/hawkm/OneDrive/Desktop/Tarleton school stuff/Fall 2018/Advanced Quantitative Methods/Lab 2","no","mono","no","18","no","white","no","yes","768","legacy","7","11","C:/Users/hawkm/OneDrive/Desktop/Tarleton school stuff/Fall 2018/Advanced Quantitative Methods/Lab 2/Hawk-subject-2.csv","legacy","8 9 5 7 1 6","Kafkaesque Koffka","3.2.5","4","y","0","left","left","left","left","NA","881","21779","4978","881","NA","2","legacy","6","1024","2","48000","-16","experiment","2","even","7","163874","25688","153780","161662","3875","115989","161664","160528","3879","111011","165879","166760","162669","165878","NA","Sternberg task","14","24054","20","yes","1024"
"71.4285714286","71.4285714286","1202.80952381","1202.80952381","black","experiment","legacy","legacy","legacy","0","uniform","1","undefined","1","left","20","0","20","20","0","0","20","20","0","0","20","20","20","20","0","10/04/18 18:53:01","The main experiment item","yes","Sternbergtask.osexp","C:/Users/hawkm/OneDrive/Desktop/Tarleton school stuff/Fall 2018/Advanced Quantitative Methods/Lab 2","no","mono","no","18","no","white","no","yes","768","legacy","8","11","C:/Users/hawkm/OneDrive/Desktop/Tarleton school stuff/Fall 2018/Advanced Quantitative Methods/Lab 2/Hawk-subject-2.csv","legacy","7 4 2 6 3 5","Kafkaesque Koffka","3.2.5","6","y","0","left","left","left","left","NA","1205","21779","4978","1205","NA","2","legacy","6","1024","2","48000","-16","experiment","2","even","5","170130","25688","166774","167918","3875","115989","167920","160528","3879","111011","172136","173342","168925","172136","NA","Sternberg task","15","25259","21","yes","1024"
"68.1818181818","68.1818181818","1187.59090909","1187.59090909","black","experiment","legacy","legacy","legacy","0","uniform","0","undefined","0","right","21","0","21","21","0","0","21","21","0","0","21","21","21","21","0","10/04/18 18:53:01","The main experiment item","yes","Sternbergtask.osexp","C:/Users/hawkm/OneDrive/Desktop/Tarleton school stuff/Fall 2018/Advanced Quantitative Methods/Lab 2","no","mono","no","18","no","white","no","yes","768","legacy","9","11","C:/Users/hawkm/OneDrive/Desktop/Tarleton school stuff/Fall 2018/Advanced Quantitative Methods/Lab 2/Hawk-subject-2.csv","legacy","2 8 7 9 5 3","Kafkaesque Koffka","3.2.5","0","n","0","left","left","left","left","NA","868","21779","4978","868","NA","2","legacy","6","1024","2","48000","-16","experiment","2","even","6","176757","25688","173408","174544","3875","115989","174546","160528","3879","111011","178763","179632","175551","178763","NA","Sternberg task","15","26127","22","yes","1024"
"69.5652173913","69.5652173913","1185.60869565","1185.60869565","black","experiment","legacy","legacy","legacy","0","uniform","1","undefined","1","left","22","0","22","22","0","0","22","22","0","0","22","22","22","22","0","10/04/18 18:53:01","The main experiment item","yes","Sternbergtask.osexp","C:/Users/hawkm/OneDrive/Desktop/Tarleton school stuff/Fall 2018/Advanced Quantitative Methods/Lab 2","no","mono","no","18","no","white","no","yes","768","legacy","10","11","C:/Users/hawkm/OneDrive/Desktop/Tarleton school stuff/Fall 2018/Advanced Quantitative Methods/Lab 2/Hawk-subject-2.csv","legacy","7 1 8 5 6 2","Kafkaesque Koffka","3.2.5","2","y","0","left","left","left","left","NA","1142","21779","4978","1142","NA","2","legacy","6","1024","2","48000","-16","experiment","2","even","1","183014","25688","173408","180802","3875","115989","180804","179678","3879","111011","185019","186162","181810","185019","NA","Sternberg task","16","27269","23","yes","1024"
"70.8333333333","70.8333333333","1161.16666667","1161.16666667","black","experiment","legacy","legacy","legacy","0","uniform","1","undefined","1","left","23","0","23","23","0","0","23","23","0","0","23","23","23","23","0","10/04/18 18:53:01","The main experiment item","yes","Sternbergtask.osexp","C:/Users/hawkm/OneDrive/Desktop/Tarleton school stuff/Fall 2018/Advanced Quantitative Methods/Lab 2","no","mono","no","18","no","white","no","yes","768","legacy","11","11","C:/Users/hawkm/OneDrive/Desktop/Tarleton school stuff/Fall 2018/Advanced Quantitative Methods/Lab 2/Hawk-subject-2.csv","legacy","5 2 6","Kafkaesque Koffka","3.2.5","2","y","0","left","left","left","left","NA","599","21779","4978","599","NA","2","legacy","3","1024","2","48000","-16","experiment","2","even","2","189567","25688","186210","187355","3875","115989","187356","179678","3879","111011","191572","192172","188362","191572","NA","Sternberg task","17","27868","24","yes","1024"
"72","72","1157.56","1157.56","black","experiment","legacy","legacy","legacy","0","uniform","1","undefined","1","right","24","0","24","24","0","0","24","24","0","0","24","24","24","24","0","10/04/18 18:53:01","The main experiment item","yes","Sternbergtask.osexp","C:/Users/hawkm/OneDrive/Desktop/Tarleton school stuff/Fall 2018/Advanced Quantitative Methods/Lab 2","no","mono","no","18","no","white","no","yes","768","legacy","12","11","C:/Users/hawkm/OneDrive/Desktop/Tarleton school stuff/Fall 2018/Advanced Quantitative Methods/Lab 2/Hawk-subject-2.csv","legacy","8 6 3 4 7","Kafkaesque Koffka","3.2.5","0","n","0","right","left","left","right","NA","1071","21779","4978","1071","NA","2","legacy","5","1024","2","48000","-16","experiment","2","even","1","195565","25688","192222","193355","3875","115989","193357","179678","3879","111011","197570","198641","194360","197570","NA","Sternberg task","18","28939","25","yes","1024"
"73.0769230769","73.0769230769","1133.80769231","1133.80769231","black","experiment","legacy","legacy","legacy","0","uniform","1","undefined","1","left","25","0","25","25","0","0","25","25","0","0","25","25","25","25","0","10/04/18 18:53:01","The main experiment item","yes","Sternbergtask.osexp","C:/Users/hawkm/OneDrive/Desktop/Tarleton school stuff/Fall 2018/Advanced Quantitative Methods/Lab 2","no","mono","no","18","no","white","no","yes","768","legacy","13","11","C:/Users/hawkm/OneDrive/Desktop/Tarleton school stuff/Fall 2018/Advanced Quantitative Methods/Lab 2/Hawk-subject-2.csv","legacy","8 3","Kafkaesque Koffka","3.2.5","2","y","0","left","left","left","left","NA","540","21779","4978","540","NA","2","legacy","2","1024","2","48000","-16","experiment","2","even","3","202055","25688","198686","199843","3875","115989","199845","179678","3879","111011","204061","204601","200850","204060","NA","Sternberg task","19","29479","26","yes","1024"
"74.0740740741","74.0740740741","1118.85185185","1118.85185185","black","experiment","legacy","legacy","legacy","0","uniform","1","undefined","1","left","26","0","26","26","0","0","26","26","0","0","26","26","26","26","0","10/04/18 18:53:01","The main experiment item","yes","Sternbergtask.osexp","C:/Users/hawkm/OneDrive/Desktop/Tarleton school stuff/Fall 2018/Advanced Quantitative Methods/Lab 2","no","mono","no","18","no","white","no","yes","768","legacy","14","11","C:/Users/hawkm/OneDrive/Desktop/Tarleton school stuff/Fall 2018/Advanced Quantitative Methods/Lab 2/Hawk-subject-2.csv","legacy","6 1 2","Kafkaesque Koffka","3.2.5","3","y","0","left","left","left","left","NA","730","21779","4978","730","NA","2","legacy","3","1024","2","48000","-16","experiment","2","even","2","207996","25688","204650","205785","3875","115989","205787","179678","3879","111011","210001","210731","206792","210001","NA","Sternberg task","20","30209","27","yes","1024"
"75","75","1100.96428571","1100.96428571","black","experiment","legacy","legacy","legacy","0","uniform","1","undefined","1","left","27","0","27","27","0","0","27","27","0","0","27","27","27","27","0","10/04/18 18:53:01","The main experiment item","yes","Sternbergtask.osexp","C:/Users/hawkm/OneDrive/Desktop/Tarleton school stuff/Fall 2018/Advanced Quantitative Methods/Lab 2","no","mono","no","18","no","white","no","yes","768","legacy","15","11","C:/Users/hawkm/OneDrive/Desktop/Tarleton school stuff/Fall 2018/Advanced Quantitative Methods/Lab 2/Hawk-subject-2.csv","legacy","2 3","Kafkaesque Koffka","3.2.5","1","y","0","left","left","left","left","NA","618","21779","4978","618","NA","2","legacy","2","1024","2","48000","-16","experiment","2","even","2","214148","25688","210774","211937","3875","115989","211938","179678","3879","111011","216153","216772","212943","216153","NA","Sternberg task","21","30827","28","yes","1024"
"75.8620689655","75.8620689655","1095.4137931","1095.4137931","black","experiment","legacy","legacy","legacy","0","uniform","1","undefined","1","left","28","0","28","28","0","0","28","28","0","0","28","28","28","28","0","10/04/18 18:53:01","The main experiment item","yes","Sternbergtask.osexp","C:/Users/hawkm/OneDrive/Desktop/Tarleton school stuff/Fall 2018/Advanced Quantitative Methods/Lab 2","no","mono","no","18","no","white","no","yes","768","legacy","16","11","C:/Users/hawkm/OneDrive/Desktop/Tarleton school stuff/Fall 2018/Advanced Quantitative Methods/Lab 2/Hawk-subject-2.csv","legacy","3 9 6 2","Kafkaesque Koffka","3.2.5","4","y","0","left","left","left","left","NA","940","21779","4978","940","NA","2","legacy","4","1024","2","48000","-16","experiment","2","even","2","220127","25688","216777","217915","3875","115989","217917","179678","3879","111011","222132","223072","218922","222132","NA","Sternberg task","22","31767","29","yes","1024"
"76.6666666667","76.6666666667","1083.46666667","1083.46666667","black","experiment","legacy","legacy","legacy","0","uniform","1","undefined","1","right","29","0","29","29","0","0","29","29","0","0","29","29","29","29","0","10/04/18 18:53:01","The main experiment item","yes","Sternbergtask.osexp","C:/Users/hawkm/OneDrive/Desktop/Tarleton school stuff/Fall 2018/Advanced Quantitative Methods/Lab 2","no","mono","no","18","no","white","no","yes","768","legacy","17","11","C:/Users/hawkm/OneDrive/Desktop/Tarleton school stuff/Fall 2018/Advanced Quantitative Methods/Lab 2/Hawk-subject-2.csv","legacy","1 6 4","Kafkaesque Koffka","3.2.5","0","n","0","right","left","left","right","NA","737","21779","4978","737","NA","2","legacy","3","1024","2","48000","-16","experiment","2","even","7","226400","25688","223115","224187","3875","115989","224190","179678","3879","111011","228405","229142","225195","228405","NA","Sternberg task","23","32504","30","yes","1024"
"77.4193548387","77.4193548387","1086.96774194","1086.96774194","black","experiment","legacy","legacy","legacy","0","uniform","1","undefined","1","left","30","0","30","30","0","0","30","30","0","0","30","30","30","30","0","10/04/18 18:53:01","The main experiment item","yes","Sternbergtask.osexp","C:/Users/hawkm/OneDrive/Desktop/Tarleton school stuff/Fall 2018/Advanced Quantitative Methods/Lab 2","no","mono","no","18","no","white","no","yes","768","legacy","18","11","C:/Users/hawkm/OneDrive/Desktop/Tarleton school stuff/Fall 2018/Advanced Quantitative Methods/Lab 2/Hawk-subject-2.csv","legacy","4 6 2 5 1","Kafkaesque Koffka","3.2.5","5","y","0","left","left","left","left","NA","1192","21779","4978","1192","NA","2","legacy","5","1024","2","48000","-16","experiment","2","even","1","232545","25688","229187","230330","3875","115989","230332","179678","3879","111011","234550","235742","231339","234550","NA","Sternberg task","24","33696","31","yes","1024"
"78.125","78.125","1071","1071","black","experiment","legacy","legacy","legacy","0","uniform","1","undefined","1","left","31","0","31","31","0","0","31","31","0","0","31","31","31","31","0","10/04/18 18:53:01","The main experiment item","yes","Sternbergtask.osexp","C:/Users/hawkm/OneDrive/Desktop/Tarleton school stuff/Fall 2018/Advanced Quantitative Methods/Lab 2","no","mono","no","18","no","white","no","yes","768","legacy","19","11","C:/Users/hawkm/OneDrive/Desktop/Tarleton school stuff/Fall 2018/Advanced Quantitative Methods/Lab 2/Hawk-subject-2.csv","legacy","3 4 9 6 2 9","Kafkaesque Koffka","3.2.5","5","y","0","left","left","left","left","NA","576","21779","4978","576","NA","2","legacy","6","1024","2","48000","-16","experiment","2","even","2","239161","25688","235789","236949","3875","115989","236951","179678","3879","111011","241166","241743","237956","241166","NA","Sternberg task","25","34272","32","yes","1024"
"78.7878787879","78.7878787879","1062.75757576","1062.75757576","black","experiment","legacy","legacy","legacy","0","uniform","1","undefined","1","right","32","0","32","32","0","0","32","32","0","0","32","32","32","32","0","10/04/18 18:53:01","The main experiment item","yes","Sternbergtask.osexp","C:/Users/hawkm/OneDrive/Desktop/Tarleton school stuff/Fall 2018/Advanced Quantitative Methods/Lab 2","no","mono","no","18","no","white","no","yes","768","legacy","20","11","C:/Users/hawkm/OneDrive/Desktop/Tarleton school stuff/Fall 2018/Advanced Quantitative Methods/Lab 2/Hawk-subject-2.csv","legacy","7 8 6 1","Kafkaesque Koffka","3.2.5","0","n","0","right","left","left","right","NA","799","21779","4978","799","NA","2","legacy","4","1024","2","48000","-16","experiment","2","even","3","245208","25688","241847","242993","3875","115989","242997","179678","3879","111011","247213","248013","244002","247213","NA","Sternberg task","26","35071","33","yes","1024"
"79.4117647059","79.4117647059","1064.91176471","1064.91176471","black","experiment","legacy","legacy","legacy","0","uniform","1","undefined","1","right","33","0","33","33","0","0","33","33","0","0","33","33","33","33","0","10/04/18 18:53:01","The main experiment item","yes","Sternbergtask.osexp","C:/Users/hawkm/OneDrive/Desktop/Tarleton school stuff/Fall 2018/Advanced Quantitative Methods/Lab 2","no","mono","no","18","no","white","no","yes","768","legacy","21","11","C:/Users/hawkm/OneDrive/Desktop/Tarleton school stuff/Fall 2018/Advanced Quantitative Methods/Lab 2/Hawk-subject-2.csv","legacy","1 7 5 2 9","Kafkaesque Koffka","3.2.5","0","n","0","right","left","left","right","NA","1136","21779","4978","1136","NA","2","legacy","5","1024","2","48000","-16","experiment","2","even","3","251422","25688","248076","249210","3875","115989","249211","179678","3879","111011","253426","254563","250216","253426","NA","Sternberg task","27","36207","34","yes","1024"
"80","80","1067.02857143","1067.02857143","black","experiment","legacy","legacy","legacy","0","uniform","1","undefined","1","right","34","0","34","34","0","0","34","34","0","0","34","34","34","34","0","10/04/18 18:53:01","The main experiment item","yes","Sternbergtask.osexp","C:/Users/hawkm/OneDrive/Desktop/Tarleton school stuff/Fall 2018/Advanced Quantitative Methods/Lab 2","no","mono","no","18","no","white","no","yes","768","legacy","22","11","C:/Users/hawkm/OneDrive/Desktop/Tarleton school stuff/Fall 2018/Advanced Quantitative Methods/Lab 2/Hawk-subject-2.csv","legacy","6 9 4 5 2","Kafkaesque Koffka","3.2.5","0","n","0","right","left","left","right","NA","1139","21779","4978","1139","NA","2","legacy","5","1024","2","48000","-16","experiment","2","even","1","257958","25688","254609","255746","3875","115989","255748","179678","3879","111011","259963","261103","256753","259963","NA","Sternberg task","28","37346","35","yes","1024"
"80.5555555556","80.5555555556","1072.86111111","1072.86111111","black","experiment","legacy","legacy","legacy","0","uniform","1","undefined","1","right","35","0","35","35","0","0","35","35","0","0","35","35","35","35","0","10/04/18 18:53:01","The main experiment item","yes","Sternbergtask.osexp","C:/Users/hawkm/OneDrive/Desktop/Tarleton school stuff/Fall 2018/Advanced Quantitative Methods/Lab 2","no","mono","no","18","no","white","no","yes","768","legacy","23","11","C:/Users/hawkm/OneDrive/Desktop/Tarleton school stuff/Fall 2018/Advanced Quantitative Methods/Lab 2/Hawk-subject-2.csv","legacy","7 1","Kafkaesque Koffka","3.2.5","0","n","0","right","left","left","right","NA","1277","21779","4978","1277","NA","2","legacy","2","1024","2","48000","-16","experiment","2","even","8","264501","25688","261145","262289","3875","115989","262291","179678","3879","111011","266506","267784","263295","266506","NA","Sternberg task","29","38623","36","yes","1024"
"81.0810810811","81.0810810811","1064.64864865","1064.64864865","black","experiment","legacy","legacy","legacy","0","uniform","1","undefined","1","right","36","0","36","36","0","0","36","36","0","0","36","36","36","36","0","10/04/18 18:53:01","The main experiment item","yes","Sternbergtask.osexp","C:/Users/hawkm/OneDrive/Desktop/Tarleton school stuff/Fall 2018/Advanced Quantitative Methods/Lab 2","no","mono","no","18","no","white","no","yes","768","legacy","24","11","C:/Users/hawkm/OneDrive/Desktop/Tarleton school stuff/Fall 2018/Advanced Quantitative Methods/Lab 2/Hawk-subject-2.csv","legacy","1 7 5 2","Kafkaesque Koffka","3.2.5","0","n","0","right","left","left","right","NA","769","21779","4978","769","NA","2","legacy","4","1024","2","48000","-16","experiment","2","even","3","271220","25688","267829","269009","3875","115989","269011","179678","3879","111011","273224","273994","270016","273224","NA","Sternberg task","30","39392","37","yes","1024"
"81.5789473684","81.5789473684","1076.65789474","1076.65789474","black","experiment","legacy","legacy","legacy","0","uniform","1","undefined","1","right","37","0","37","37","0","0","37","37","0","0","37","37","37","37","0","10/04/18 18:53:01","The main experiment item","yes","Sternbergtask.osexp","C:/Users/hawkm/OneDrive/Desktop/Tarleton school stuff/Fall 2018/Advanced Quantitative Methods/Lab 2","no","mono","no","18","no","white","no","yes","768","legacy","25","11","C:/Users/hawkm/OneDrive/Desktop/Tarleton school stuff/Fall 2018/Advanced Quantitative Methods/Lab 2/Hawk-subject-2.csv","legacy","1","Kafkaesque Koffka","3.2.5","0","n","0","right","left","left","right","NA","1521","21779","4978","1521","NA","2","legacy","1","1024","2","48000","-16","experiment","2","even","7","277376","25688","274017","275164","3875","115989","275166","179678","3879","111011","279382","280904","276171","279382","NA","Sternberg task","31","40913","38","yes","1024"
"82.0512820513","82.0512820513","1079.12820513","1079.12820513","black","experiment","legacy","legacy","legacy","0","uniform","1","undefined","1","right","38","0","38","38","0","0","38","38","0","0","38","38","38","38","0","10/04/18 18:53:01","The main experiment item","yes","Sternbergtask.osexp","C:/Users/hawkm/OneDrive/Desktop/Tarleton school stuff/Fall 2018/Advanced Quantitative Methods/Lab 2","no","mono","no","18","no","white","no","yes","768","legacy","26","11","C:/Users/hawkm/OneDrive/Desktop/Tarleton school stuff/Fall 2018/Advanced Quantitative Methods/Lab 2/Hawk-subject-2.csv","legacy","8 4 3 5","Kafkaesque Koffka","3.2.5","0","n","0","right","left","left","right","NA","1173","21779","4978","1173","NA","2","legacy","4","1024","2","48000","-16","experiment","2","even","6","284345","25688","280951","282134","3875","115989","282136","179678","3879","111011","286350","287524","283140","286350","NA","Sternberg task","32","42086","39","yes","1024"
"82.5","82.5","1072.1","1072.1","black","experiment","legacy","legacy","legacy","0","uniform","1","undefined","1","right","39","0","39","39","0","0","39","39","0","0","39","39","39","39","0","10/04/18 18:53:01","The main experiment item","yes","Sternbergtask.osexp","C:/Users/hawkm/OneDrive/Desktop/Tarleton school stuff/Fall 2018/Advanced Quantitative Methods/Lab 2","no","mono","no","18","no","white","no","yes","768","legacy","27","11","C:/Users/hawkm/OneDrive/Desktop/Tarleton school stuff/Fall 2018/Advanced Quantitative Methods/Lab 2/Hawk-subject-2.csv","legacy","1 3 2 6 9","Kafkaesque Koffka","3.2.5","0","n","0","right","left","left","right","NA","798","21779","4978","798","NA","2","legacy","5","1024","2","48000","-16","experiment","2","even","5","290920","25688","287572","288709","3875","115989","288710","179678","3879","111011","292925","293724","289715","292925","NA","Sternberg task","33","42884","40","yes","1024"
"82.9268292683","82.9268292683","1063.43902439","1063.43902439","black","experiment","legacy","legacy","legacy","0","uniform","1","undefined","1","right","40","0","40","40","0","0","40","40","0","0","40","40","40","40","0","10/04/18 18:53:01","The main experiment item","yes","Sternbergtask.osexp","C:/Users/hawkm/OneDrive/Desktop/Tarleton school stuff/Fall 2018/Advanced Quantitative Methods/Lab 2","no","mono","no","18","no","white","no","yes","768","legacy","28","11","C:/Users/hawkm/OneDrive/Desktop/Tarleton school stuff/Fall 2018/Advanced Quantitative Methods/Lab 2/Hawk-subject-2.csv","legacy","2 7 5","Kafkaesque Koffka","3.2.5","0","n","0","right","left","left","right","NA","717","21779","4978","717","NA","2","legacy","3","1024","2","48000","-16","experiment","2","even","8","297110","25688","293772","294898","3875","115989","294900","179678","3879","111011","299116","299834","295905","299116","NA","Sternberg task","34","43601","41","yes","1024"
"83.3333333333","83.3333333333","1057.07142857","1057.07142857","black","experiment","legacy","legacy","legacy","0","uniform","1","undefined","1","right","41","0","41","41","0","0","41","41","0","0","41","41","41","41","0","10/04/18 18:53:01","The main experiment item","yes","Sternbergtask.osexp","C:/Users/hawkm/OneDrive/Desktop/Tarleton school stuff/Fall 2018/Advanced Quantitative Methods/Lab 2","no","mono","no","18","no","white","no","yes","768","legacy","29","11","C:/Users/hawkm/OneDrive/Desktop/Tarleton school stuff/Fall 2018/Advanced Quantitative Methods/Lab 2/Hawk-subject-2.csv","legacy","2 8 9","Kafkaesque Koffka","3.2.5","0","n","0","right","left","left","right","NA","796","21779","4978","796","NA","2","legacy","3","1024","2","48000","-16","experiment","2","even","6","303263","25688","299856","301052","3875","115989","301054","179678","3879","111011","305268","306064","302059","305268","NA","Sternberg task","35","44397","42","yes","1024"
"83.7209302326","83.7209302326","1061.23255814","1061.23255814","black","experiment","legacy","legacy","legacy","0","uniform","1","undefined","1","right","42","0","42","42","0","0","42","42","0","0","42","42","42","42","0","10/04/18 18:53:01","The main experiment item","yes","Sternbergtask.osexp","C:/Users/hawkm/OneDrive/Desktop/Tarleton school stuff/Fall 2018/Advanced Quantitative Methods/Lab 2","no","mono","no","18","no","white","no","yes","768","legacy","30","11","C:/Users/hawkm/OneDrive/Desktop/Tarleton school stuff/Fall 2018/Advanced Quantitative Methods/Lab 2/Hawk-subject-2.csv","legacy","6 7 5 9","Kafkaesque Koffka","3.2.5","0","n","0","right","left","left","right","NA","1236","21779","4978","1236","NA","2","legacy","4","1024","2","48000","-16","experiment","2","even","2","309472","25688","306114","307260","3875","115989","307261","179678","3879","111011","311477","312713","308266","311477","NA","Sternberg task","36","45633","43","yes","1024"
"84.0909090909","84.0909090909","1057.06818182","1057.06818182","black","experiment","legacy","legacy","legacy","0","uniform","1","undefined","1","right","43","0","43","43","0","0","43","43","0","0","43","43","43","43","0","10/04/18 18:53:01","The main experiment item","yes","Sternbergtask.osexp","C:/Users/hawkm/OneDrive/Desktop/Tarleton school stuff/Fall 2018/Advanced Quantitative Methods/Lab 2","no","mono","no","18","no","white","no","yes","768","legacy","31","11","C:/Users/hawkm/OneDrive/Desktop/Tarleton school stuff/Fall 2018/Advanced Quantitative Methods/Lab 2/Hawk-subject-2.csv","legacy","7 3 2 8","Kafkaesque Koffka","3.2.5","0","n","0","right","left","left","right","NA","878","21779","4978","878","NA","2","legacy","4","1024","2","48000","-16","experiment","2","even","4","316111","25688","312756","313900","3875","115989","313901","179678","3879","111011","318116","318994","314905","318116","NA","Sternberg task","37","46511","44","yes","1024"
"84.4444444444","84.4444444444","1049.64444444","1049.64444444","black","experiment","legacy","legacy","legacy","0","uniform","1","undefined","1","left","44","0","44","44","0","0","44","44","0","0","44","44","44","44","0","10/04/18 18:53:01","The main experiment item","yes","Sternbergtask.osexp","C:/Users/hawkm/OneDrive/Desktop/Tarleton school stuff/Fall 2018/Advanced Quantitative Methods/Lab 2","no","mono","no","18","no","white","no","yes","768","legacy","32","11","C:/Users/hawkm/OneDrive/Desktop/Tarleton school stuff/Fall 2018/Advanced Quantitative Methods/Lab 2/Hawk-subject-2.csv","legacy","2 4 6 9","Kafkaesque Koffka","3.2.5","3","y","0","left","left","left","left","NA","723","21779","4978","723","NA","2","legacy","4","1024","2","48000","-16","experiment","2","even","6","322396","25688","319044","320185","3875","115989","320186","179678","3879","111011","324401","325124","321192","324400","NA","Sternberg task","38","47234","45","yes","1024"
"84.7826086957","84.7826086957","1044.7173913","1044.7173913","black","experiment","legacy","legacy","legacy","0","uniform","1","undefined","1","left","45","0","45","45","0","0","45","45","0","0","45","45","45","45","0","10/04/18 18:53:01","The main experiment item","yes","Sternbergtask.osexp","C:/Users/hawkm/OneDrive/Desktop/Tarleton school stuff/Fall 2018/Advanced Quantitative Methods/Lab 2","no","mono","no","18","no","white","no","yes","768","legacy","33","11","C:/Users/hawkm/OneDrive/Desktop/Tarleton school stuff/Fall 2018/Advanced Quantitative Methods/Lab 2/Hawk-subject-2.csv","legacy","8 1 6","Kafkaesque Koffka","3.2.5","3","y","0","left","left","left","left","NA","823","21779","4978","823","NA","2","legacy","3","1024","2","48000","-16","experiment","2","even","6","328546","25688","325175","326333","3875","115989","326335","179678","3879","111011","330551","331375","327341","330551","NA","Sternberg task","39","48057","46","yes","1024"
"85.1063829787","85.1063829787","1033.19148936","1033.19148936","black","experiment","legacy","legacy","legacy","0","uniform","1","undefined","1","left","46","0","46","46","0","0","46","46","0","0","46","46","46","46","0","10/04/18 18:53:01","The main experiment item","yes","Sternbergtask.osexp","C:/Users/hawkm/OneDrive/Desktop/Tarleton school stuff/Fall 2018/Advanced Quantitative Methods/Lab 2","no","mono","no","18","no","white","no","yes","768","legacy","34","11","C:/Users/hawkm/OneDrive/Desktop/Tarleton school stuff/Fall 2018/Advanced Quantitative Methods/Lab 2/Hawk-subject-2.csv","legacy","8 7 3","Kafkaesque Koffka","3.2.5","1","y","0","left","left","left","left","NA","503","21779","4978","503","NA","2","legacy","3","1024","2","48000","-16","experiment","2","even","8","334786","25688","331418","332576","3875","115989","332577","179678","3879","111011","336791","337295","333581","336791","NA","Sternberg task","40","48560","47","yes","1024"
"85.4166666667","85.4166666667","1024.375","1024.375","black","experiment","legacy","legacy","legacy","0","uniform","1","undefined","1","right","47","0","47","47","0","0","47","47","0","0","47","47","47","47","0","10/04/18 18:53:01","The main experiment item","yes","Sternbergtask.osexp","C:/Users/hawkm/OneDrive/Desktop/Tarleton school stuff/Fall 2018/Advanced Quantitative Methods/Lab 2","no","mono","no","18","no","white","no","yes","768","legacy","35","11","C:/Users/hawkm/OneDrive/Desktop/Tarleton school stuff/Fall 2018/Advanced Quantitative Methods/Lab 2/Hawk-subject-2.csv","legacy","8 5 7 3 6","Kafkaesque Koffka","3.2.5","0","n","0","right","left","left","right","NA","610","21779","4978","610","NA","2","legacy","5","1024","2","48000","-16","experiment","2","even","9","340728","25688","337343","338517","3875","115989","338518","179678","3879","111011","342734","343345","339523","342734","NA","Sternberg task","41","49170","48","yes","1024"
"85.7142857143","85.7142857143","1020.30612245","1020.30612245","black","experiment","legacy","legacy","legacy","0","uniform","1","undefined","1","right","48","0","48","48","0","0","48","48","0","0","48","48","48","48","0","10/04/18 18:53:01","The main experiment item","yes","Sternbergtask.osexp","C:/Users/hawkm/OneDrive/Desktop/Tarleton school stuff/Fall 2018/Advanced Quantitative Methods/Lab 2","no","mono","no","18","no","white","no","yes","768","legacy","36","11","C:/Users/hawkm/OneDrive/Desktop/Tarleton school stuff/Fall 2018/Advanced Quantitative Methods/Lab 2/Hawk-subject-2.csv","legacy","5 3 2 6 9 8","Kafkaesque Koffka","3.2.5","0","n","0","right","left","left","right","NA","825","21779","4978","825","NA","2","legacy","6","1024","2","48000","-16","experiment","2","even","4","346786","25688","343388","344574","3875","115989","344576","179678","3879","111011","348789","349614","345581","348789","NA","Sternberg task","42","49995","49","yes","1024"
"86","86","1021.2","1021.2","black","experiment","legacy","legacy","legacy","0","uniform","1","undefined","1","left","49","0","49","49","0","0","49","49","0","0","49","49","49","49","0","10/04/18 18:53:01","The main experiment item","yes","Sternbergtask.osexp","C:/Users/hawkm/OneDrive/Desktop/Tarleton school stuff/Fall 2018/Advanced Quantitative Methods/Lab 2","no","mono","no","18","no","white","no","yes","768","legacy","37","11","C:/Users/hawkm/OneDrive/Desktop/Tarleton school stuff/Fall 2018/Advanced Quantitative Methods/Lab 2/Hawk-subject-2.csv","legacy","4","Kafkaesque Koffka","3.2.5","1","y","0","left","left","left","left","NA","1065","21779","4978","1065","NA","2","legacy","1","1024","2","48000","-16","experiment","2","even","4","353014","25688","349658","350802","3875","115989","350803","179678","3879","111011","355019","356085","351808","355019","NA","Sternberg task","43","51060","50","yes","1024"
"86.2745098039","86.2745098039","1014.78431373","1014.78431373","black","experiment","legacy","legacy","legacy","0","uniform","1","undefined","1","right","50","0","50","50","0","0","50","50","0","0","50","50","50","50","0","10/04/18 18:53:01","The main experiment item","yes","Sternbergtask.osexp","C:/Users/hawkm/OneDrive/Desktop/Tarleton school stuff/Fall 2018/Advanced Quantitative Methods/Lab 2","no","mono","no","18","no","white","no","yes","768","legacy","38","11","C:/Users/hawkm/OneDrive/Desktop/Tarleton school stuff/Fall 2018/Advanced Quantitative Methods/Lab 2/Hawk-subject-2.csv","legacy","3 4 2","Kafkaesque Koffka","3.2.5","0","n","0","right","left","left","right","NA","694","21779","4978","694","NA","2","legacy","3","1024","2","48000","-16","experiment","2","even","5","359535","25688","356170","357321","3875","115989","357324","179678","3879","111011","361541","362236","358330","361541","NA","Sternberg task","44","51754","51","yes","1024"
"86.5384615385","86.5384615385","1017.98076923","1017.98076923","black","experiment","legacy","legacy","legacy","0","uniform","1","undefined","1","left","51","0","51","51","0","0","51","51","0","0","51","51","51","51","0","10/04/18 18:53:01","The main experiment item","yes","Sternbergtask.osexp","C:/Users/hawkm/OneDrive/Desktop/Tarleton school stuff/Fall 2018/Advanced Quantitative Methods/Lab 2","no","mono","no","18","no","white","no","yes","768","legacy","39","11","C:/Users/hawkm/OneDrive/Desktop/Tarleton school stuff/Fall 2018/Advanced Quantitative Methods/Lab 2/Hawk-subject-2.csv","legacy","9 8 4","Kafkaesque Koffka","3.2.5","1","y","0","left","left","left","left","NA","1181","21779","4978","1181","NA","2","legacy","3","1024","2","48000","-16","experiment","2","even","9","365739","25688","362319","363527","3875","115989","363529","179678","3879","111011","367744","368926","364533","367744","NA","Sternberg task","45","52935","52","yes","1024"
"86.7924528302","86.7924528302","1009.35849057","1009.35849057","black","experiment","legacy","legacy","legacy","0","uniform","1","undefined","1","left","52","0","52","52","0","0","52","52","0","0","52","52","52","52","0","10/04/18 18:53:01","The main experiment item","yes","Sternbergtask.osexp","C:/Users/hawkm/OneDrive/Desktop/Tarleton school stuff/Fall 2018/Advanced Quantitative Methods/Lab 2","no","mono","no","18","no","white","no","yes","768","legacy","40","11","C:/Users/hawkm/OneDrive/Desktop/Tarleton school stuff/Fall 2018/Advanced Quantitative Methods/Lab 2/Hawk-subject-2.csv","legacy","3 5 4 7","Kafkaesque Koffka","3.2.5","1","y","0","left","left","left","left","NA","561","21779","4978","561","NA","2","legacy","4","1024","2","48000","-16","experiment","2","even","3","372327","25688","368970","370112","3875","115989","370114","179678","3879","111011","374334","374897","371120","374334","NA","Sternberg task","46","53496","53","yes","1024"
"87.037037037","87.037037037","1000.81481481","1000.81481481","black","experiment","legacy","legacy","legacy","0","uniform","1","undefined","1","left","53","0","53","53","0","0","53","53","0","0","53","53","53","53","0","10/04/18 18:53:01","The main experiment item","yes","Sternbergtask.osexp","C:/Users/hawkm/OneDrive/Desktop/Tarleton school stuff/Fall 2018/Advanced Quantitative Methods/Lab 2","no","mono","no","18","no","white","no","yes","768","legacy","41","11","C:/Users/hawkm/OneDrive/Desktop/Tarleton school stuff/Fall 2018/Advanced Quantitative Methods/Lab 2/Hawk-subject-2.csv","legacy","9 5 3 8 4","Kafkaesque Koffka","3.2.5","1","y","0","left","left","left","left","NA","548","21779","4978","548","NA","2","legacy","5","1024","2","48000","-16","experiment","2","even","9","378311","25688","374945","376098","3875","115989","376100","179678","3879","111011","380317","380866","377105","380316","NA","Sternberg task","47","54044","54","yes","1024"
"87.2727272727","87.2727272727","998.545454545","998.545454545","black","experiment","legacy","legacy","legacy","0","uniform","1","undefined","1","right","54","0","54","54","0","0","54","54","0","0","54","54","54","54","0","10/04/18 18:53:01","The main experiment item","yes","Sternbergtask.osexp","C:/Users/hawkm/OneDrive/Desktop/Tarleton school stuff/Fall 2018/Advanced Quantitative Methods/Lab 2","no","mono","no","18","no","white","no","yes","768","legacy","42","11","C:/Users/hawkm/OneDrive/Desktop/Tarleton school stuff/Fall 2018/Advanced Quantitative Methods/Lab 2/Hawk-subject-2.csv","legacy","3 9 1","Kafkaesque Koffka","3.2.5","0","n","0","right","left","left","right","NA","876","21779","4978","876","NA","2","legacy","3","1024","2","48000","-16","experiment","2","even","7","384264","25688","380915","382052","3875","115989","382054","179678","3879","111011","386269","387146","383058","386269","NA","Sternberg task","48","54920","55","yes","1024"
"87.5","87.5","1000.60714286","1000.60714286","black","experiment","legacy","legacy","legacy","0","uniform","1","undefined","1","left","55","0","55","55","0","0","55","55","0","0","55","55","55","55","0","10/04/18 18:53:01","The main experiment item","yes","Sternbergtask.osexp","C:/Users/hawkm/OneDrive/Desktop/Tarleton school stuff/Fall 2018/Advanced Quantitative Methods/Lab 2","no","mono","no","18","no","white","no","yes","768","legacy","43","11","C:/Users/hawkm/OneDrive/Desktop/Tarleton school stuff/Fall 2018/Advanced Quantitative Methods/Lab 2/Hawk-subject-2.csv","legacy","5 7 3 6 2","Kafkaesque Koffka","3.2.5","5","y","0","left","left","left","left","NA","1114","21779","4978","1114","NA","2","legacy","5","1024","2","48000","-16","experiment","2","even","2","390576","25688","387216","388363","3875","115989","388365","179678","3879","111011","392581","393696","389370","392581","NA","Sternberg task","49","56034","56","yes","1024"
"87.7192982456","87.7192982456","993.912280702","993.912280702","black","experiment","legacy","legacy","legacy","0","uniform","1","undefined","1","right","56","0","56","56","0","0","56","56","0","0","56","56","56","56","0","10/04/18 18:53:01","The main experiment item","yes","Sternbergtask.osexp","C:/Users/hawkm/OneDrive/Desktop/Tarleton school stuff/Fall 2018/Advanced Quantitative Methods/Lab 2","no","mono","no","18","no","white","no","yes","768","legacy","44","11","C:/Users/hawkm/OneDrive/Desktop/Tarleton school stuff/Fall 2018/Advanced Quantitative Methods/Lab 2/Hawk-subject-2.csv","legacy","1 4 3 6 5","Kafkaesque Koffka","3.2.5","0","n","0","right","left","left","right","NA","619","21779","4978","619","NA","2","legacy","5","1024","2","48000","-16","experiment","2","even","8","397071","25688","393701","394860","3875","115989","394862","179678","3879","111011","399076","399696","395867","399076","NA","Sternberg task","50","56653","57","yes","1024"
"86.2068965517","86.2068965517","997.965517241","997.965517241","black","experiment","legacy","legacy","legacy","0","uniform","0","undefined","0","right","57","0","57","57","0","0","57","57","0","0","57","57","57","57","0","10/04/18 18:53:01","The main experiment item","yes","Sternbergtask.osexp","C:/Users/hawkm/OneDrive/Desktop/Tarleton school stuff/Fall 2018/Advanced Quantitative Methods/Lab 2","no","mono","no","18","no","white","no","yes","768","legacy","45","11","C:/Users/hawkm/OneDrive/Desktop/Tarleton school stuff/Fall 2018/Advanced Quantitative Methods/Lab 2/Hawk-subject-2.csv","legacy","4 2 7 6 1 3","Kafkaesque Koffka","3.2.5","0","n","0","left","left","left","left","NA","1229","21779","4978","1229","NA","2","legacy","6","1024","2","48000","-16","experiment","2","even","8","403140","25688","399737","400927","3875","115989","400929","179678","3879","111011","405146","406376","401934","405146","NA","Sternberg task","50","57882","58","yes","1024"
"86.4406779661","86.4406779661","992.644067797","992.644067797","black","experiment","legacy","legacy","legacy","0","uniform","1","undefined","1","right","58","0","58","58","0","0","58","58","0","0","58","58","58","58","0","10/04/18 18:53:01","The main experiment item","yes","Sternbergtask.osexp","C:/Users/hawkm/OneDrive/Desktop/Tarleton school stuff/Fall 2018/Advanced Quantitative Methods/Lab 2","no","mono","no","18","no","white","no","yes","768","legacy","46","11","C:/Users/hawkm/OneDrive/Desktop/Tarleton school stuff/Fall 2018/Advanced Quantitative Methods/Lab 2/Hawk-subject-2.csv","legacy","5 2","Kafkaesque Koffka","3.2.5","0","n","0","right","left","left","right","NA","684","21779","4978","684","NA","2","legacy","2","1024","2","48000","-16","experiment","2","even","7","409777","25688","399737","407566","3875","115989","407567","406418","3879","111011","411782","412467","408572","411782","NA","Sternberg task","51","58566","59","yes","1024"
"86.6666666667","86.6666666667","992.183333333","992.183333333","black","experiment","legacy","legacy","legacy","0","uniform","1","undefined","1","left","59","0","59","59","0","0","59","59","0","0","59","59","59","59","0","10/04/18 18:53:01","The main experiment item","yes","Sternbergtask.osexp","C:/Users/hawkm/OneDrive/Desktop/Tarleton school stuff/Fall 2018/Advanced Quantitative Methods/Lab 2","no","mono","no","18","no","white","no","yes","768","legacy","47","11","C:/Users/hawkm/OneDrive/Desktop/Tarleton school stuff/Fall 2018/Advanced Quantitative Methods/Lab 2/Hawk-subject-2.csv","legacy","7 8 6 3 1","Kafkaesque Koffka","3.2.5","5","y","0","left","left","left","left","NA","965","21779","4978","965","NA","2","legacy","5","1024","2","48000","-16","experiment","2","even","1","415865","25688","412511","413655","3875","115989","413657","406418","3879","111011","417872","418837","414660","417872","NA","Sternberg task","52","59531","60","yes","1024"
"85.2459016393","85.2459016393","995.868852459","995.868852459","black","experiment","legacy","legacy","legacy","0","uniform","0","undefined","0","right","60","0","60","60","0","0","60","60","0","0","60","60","60","60","0","10/04/18 18:53:01","The main experiment item","yes","Sternbergtask.osexp","C:/Users/hawkm/OneDrive/Desktop/Tarleton school stuff/Fall 2018/Advanced Quantitative Methods/Lab 2","no","mono","no","18","no","white","no","yes","768","legacy","48","11","C:/Users/hawkm/OneDrive/Desktop/Tarleton school stuff/Fall 2018/Advanced Quantitative Methods/Lab 2/Hawk-subject-2.csv","legacy","6 9 4 5 3 2","Kafkaesque Koffka","3.2.5","0","n","0","left","left","left","left","NA","1217","21779","4978","1217","NA","2","legacy","6","1024","2","48000","-16","experiment","2","even","8","422253","25688","418885","420041","3875","115989","420043","406418","3879","111011","424259","425477","421048","424259","NA","Sternberg task","52","60748","61","yes","1024"
"85.4838709677","85.4838709677","996.822580645","996.822580645","black","experiment","legacy","legacy","legacy","0","uniform","1","undefined","1","right","61","0","61","61","0","0","61","61","0","0","61","61","61","61","0","10/04/18 18:53:01","The main experiment item","yes","Sternbergtask.osexp","C:/Users/hawkm/OneDrive/Desktop/Tarleton school stuff/Fall 2018/Advanced Quantitative Methods/Lab 2","no","mono","no","18","no","white","no","yes","768","legacy","49","11","C:/Users/hawkm/OneDrive/Desktop/Tarleton school stuff/Fall 2018/Advanced Quantitative Methods/Lab 2/Hawk-subject-2.csv","legacy","7 9","Kafkaesque Koffka","3.2.5","0","n","0","right","left","left","right","NA","1055","21779","4978","1055","NA","2","legacy","2","1024","2","48000","-16","experiment","2","even","1","428875","25688","418885","426664","3875","115989","426665","425522","3879","111011","430881","431937","427670","430880","NA","Sternberg task","53","61803","62","yes","1024"
"85.7142857143","85.7142857143","995.53968254","995.53968254","black","experiment","legacy","legacy","legacy","0","uniform","1","undefined","1","left","62","0","62","62","0","0","62","62","0","0","62","62","62","62","0","10/04/18 18:53:01","The main experiment item","yes","Sternbergtask.osexp","C:/Users/hawkm/OneDrive/Desktop/Tarleton school stuff/Fall 2018/Advanced Quantitative Methods/Lab 2","no","mono","no","18","no","white","no","yes","768","legacy","50","11","C:/Users/hawkm/OneDrive/Desktop/Tarleton school stuff/Fall 2018/Advanced Quantitative Methods/Lab 2/Hawk-subject-2.csv","legacy","9 5 8 1","Kafkaesque Koffka","3.2.5","2","y","0","left","left","left","left","NA","916","21779","4978","916","NA","2","legacy","4","1024","2","48000","-16","experiment","2","even","5","435345","25688","431982","433130","3875","115989","433132","425522","3879","111011","437350","438267","434138","437350","NA","Sternberg task","54","62719","63","yes","1024"
"85.9375","85.9375","993.671875","993.671875","black","experiment","legacy","legacy","legacy","0","uniform","1","undefined","1","left","63","0","63","63","0","0","63","63","0","0","63","63","63","63","0","10/04/18 18:53:01","The main experiment item","yes","Sternbergtask.osexp","C:/Users/hawkm/OneDrive/Desktop/Tarleton school stuff/Fall 2018/Advanced Quantitative Methods/Lab 2","no","mono","no","18","no","white","no","yes","768","legacy","51","11","C:/Users/hawkm/OneDrive/Desktop/Tarleton school stuff/Fall 2018/Advanced Quantitative Methods/Lab 2/Hawk-subject-2.csv","legacy","9 4 2","Kafkaesque Koffka","3.2.5","1","y","0","left","left","left","left","NA","876","21779","4978","876","NA","2","legacy","3","1024","2","48000","-16","experiment","2","even","9","441684","25688","438311","439472","3875","115989","439473","425522","3879","111011","443690","444566","440478","443689","NA","Sternberg task","55","63595","64","yes","1024"
"86.1538461538","86.1538461538","991.584615385","991.584615385","black","experiment","legacy","legacy","legacy","0","uniform","1","undefined","1","left","64","0","64","64","0","0","64","64","0","0","64","64","64","64","0","10/04/18 18:53:01","The main experiment item","yes","Sternbergtask.osexp","C:/Users/hawkm/OneDrive/Desktop/Tarleton school stuff/Fall 2018/Advanced Quantitative Methods/Lab 2","no","mono","no","18","no","white","no","yes","768","legacy","52","11","C:/Users/hawkm/OneDrive/Desktop/Tarleton school stuff/Fall 2018/Advanced Quantitative Methods/Lab 2/Hawk-subject-2.csv","legacy","5 7 8 2 3 8","Kafkaesque Koffka","3.2.5","5","y","0","left","left","left","left","NA","858","21779","4978","858","NA","2","legacy","6","1024","2","48000","-16","experiment","2","even","3","447993","25688","444615","445780","3875","115989","445782","425522","3879","111011","449998","450857","446788","449998","NA","Sternberg task","56","64453","65","yes","1024"
"86.3636363636","86.3636363636","987.681818182","987.681818182","black","experiment","legacy","legacy","legacy","0","uniform","1","undefined","1","right","65","0","65","65","0","0","65","65","0","0","65","65","65","65","0","10/04/18 18:53:01","The main experiment item","yes","Sternbergtask.osexp","C:/Users/hawkm/OneDrive/Desktop/Tarleton school stuff/Fall 2018/Advanced Quantitative Methods/Lab 2","no","mono","no","18","no","white","no","yes","768","legacy","53","11","C:/Users/hawkm/OneDrive/Desktop/Tarleton school stuff/Fall 2018/Advanced Quantitative Methods/Lab 2/Hawk-subject-2.csv","legacy","7 1 5 6 3","Kafkaesque Koffka","3.2.5","0","n","0","right","left","left","right","NA","734","21779","4978","734","NA","2","legacy","5","1024","2","48000","-16","experiment","2","even","8","454268","25688","450898","452056","3875","115989","452058","425522","3879","111011","456273","457008","453063","456273","NA","Sternberg task","57","65187","66","yes","1024"
"86.5671641791","86.5671641791","987.298507463","987.298507463","black","experiment","legacy","legacy","legacy","0","uniform","1","undefined","1","left","66","0","66","66","0","0","66","66","0","0","66","66","66","66","0","10/04/18 18:53:01","The main experiment item","yes","Sternbergtask.osexp","C:/Users/hawkm/OneDrive/Desktop/Tarleton school stuff/Fall 2018/Advanced Quantitative Methods/Lab 2","no","mono","no","18","no","white","no","yes","768","legacy","54","11","C:/Users/hawkm/OneDrive/Desktop/Tarleton school stuff/Fall 2018/Advanced Quantitative Methods/Lab 2/Hawk-subject-2.csv","legacy","8 9 6 1","Kafkaesque Koffka","3.2.5","2","y","0","left","left","left","left","NA","962","21779","4978","962","NA","2","legacy","4","1024","2","48000","-16","experiment","2","even","9","460410","25688","457053","458199","3875","115989","458199","425522","3879","111011","462415","463378","459204","462415","NA","Sternberg task","58","66149","67","yes","1024"
"86.7647058824","86.7647058824","999.220588235","999.220588235","black","experiment","legacy","legacy","legacy","0","uniform","1","undefined","1","right","67","0","67","67","0","0","67","67","0","0","67","67","67","67","0","10/04/18 18:53:01","The main experiment item","yes","Sternbergtask.osexp","C:/Users/hawkm/OneDrive/Desktop/Tarleton school stuff/Fall 2018/Advanced Quantitative Methods/Lab 2","no","mono","no","18","no","white","no","yes","768","legacy","55","11","C:/Users/hawkm/OneDrive/Desktop/Tarleton school stuff/Fall 2018/Advanced Quantitative Methods/Lab 2/Hawk-subject-2.csv","legacy","5 7 3","Kafkaesque Koffka","3.2.5","0","n","0","right","left","left","right","NA","1798","21779","4978","1798","NA","2","legacy","3","1024","2","48000","-16","experiment","2","even","9","466755","25688","463426","464545","3875","115989","464547","425522","3879","111011","468760","470559","465552","468760","NA","Sternberg task","59","67947","68","yes","1024"
"86.9565217391","86.9565217391","1003.89855072","1003.89855072","black","experiment","legacy","legacy","legacy","0","uniform","1","undefined","1","left","68","0","68","68","0","0","68","68","0","0","68","68","68","68","0","10/04/18 18:53:01","The main experiment item","yes","Sternbergtask.osexp","C:/Users/hawkm/OneDrive/Desktop/Tarleton school stuff/Fall 2018/Advanced Quantitative Methods/Lab 2","no","mono","no","18","no","white","no","yes","768","legacy","56","11","C:/Users/hawkm/OneDrive/Desktop/Tarleton school stuff/Fall 2018/Advanced Quantitative Methods/Lab 2/Hawk-subject-2.csv","legacy","9 1 7 2","Kafkaesque Koffka","3.2.5","2","y","0","left","left","left","left","NA","1322","21779","4978","1322","NA","2","legacy","4","1024","2","48000","-16","experiment","2","even","1","474040","25688","470647","471826","3875","115989","471828","425522","3879","111011","476045","477367","472834","476045","NA","Sternberg task","60","69269","69","yes","1024"
"87.1428571429","87.1428571429","1003.44285714","1003.44285714","black","experiment","legacy","legacy","legacy","0","uniform","1","undefined","1","left","69","0","69","69","0","0","69","69","0","0","69","69","69","69","0","10/04/18 18:53:01","The main experiment item","yes","Sternbergtask.osexp","C:/Users/hawkm/OneDrive/Desktop/Tarleton school stuff/Fall 2018/Advanced Quantitative Methods/Lab 2","no","mono","no","18","no","white","no","yes","768","legacy","57","11","C:/Users/hawkm/OneDrive/Desktop/Tarleton school stuff/Fall 2018/Advanced Quantitative Methods/Lab 2/Hawk-subject-2.csv","legacy","8 5 3 7 4 6","Kafkaesque Koffka","3.2.5","6","y","0","left","left","left","left","NA","972","21779","4978","972","NA","2","legacy","6","1024","2","48000","-16","experiment","2","even","6","480760","25688","477417","478547","3875","115989","478549","425522","3879","111011","482765","483739","479554","482765","NA","Sternberg task","61","70241","70","yes","1024"
"87.323943662","87.323943662","1001.49295775","1001.49295775","black","experiment","legacy","legacy","legacy","0","uniform","1","undefined","1","right","70","0","70","70","0","0","70","70","0","0","70","70","70","70","0","10/04/18 18:53:01","The main experiment item","yes","Sternbergtask.osexp","C:/Users/hawkm/OneDrive/Desktop/Tarleton school stuff/Fall 2018/Advanced Quantitative Methods/Lab 2","no","mono","no","18","no","white","no","yes","768","legacy","58","11","C:/Users/hawkm/OneDrive/Desktop/Tarleton school stuff/Fall 2018/Advanced Quantitative Methods/Lab 2/Hawk-subject-2.csv","legacy","6 2 9 3 8 4","Kafkaesque Koffka","3.2.5","0","n","0","right","left","left","right","NA","865","21779","4978","865","NA","2","legacy","6","1024","2","48000","-16","experiment","2","even","1","487146","25688","483785","484933","3875","115989","484935","425522","3879","111011","489152","490018","485940","489152","NA","Sternberg task","62","71106","71","yes","1024"
"87.5","87.5","1006.41666667","1006.41666667","black","experiment","legacy","legacy","legacy","0","uniform","1","undefined","1","right","71","0","71","71","0","0","71","71","0","0","71","71","71","71","0","10/04/18 18:53:01","The main experiment item","yes","Sternbergtask.osexp","C:/Users/hawkm/OneDrive/Desktop/Tarleton school stuff/Fall 2018/Advanced Quantitative Methods/Lab 2","no","mono","no","18","no","white","no","yes","768","legacy","59","11","C:/Users/hawkm/OneDrive/Desktop/Tarleton school stuff/Fall 2018/Advanced Quantitative Methods/Lab 2/Hawk-subject-2.csv","legacy","2 6 4 3 9","Kafkaesque Koffka","3.2.5","0","n","0","right","left","left","right","NA","1356","21779","4978","1356","NA","2","legacy","5","1024","2","48000","-16","experiment","2","even","1","493426","25688","490062","491213","3875","115989","491215","425522","3879","111011","495432","496788","492220","495432","NA","Sternberg task","63","72462","72","yes","1024"
"87.6712328767","87.6712328767","1007.49315068","1007.49315068","black","experiment","legacy","legacy","legacy","0","uniform","1","undefined","1","right","72","0","72","72","0","0","72","72","0","0","72","72","72","72","0","10/04/18 18:53:01","The main experiment item","yes","Sternbergtask.osexp","C:/Users/hawkm/OneDrive/Desktop/Tarleton school stuff/Fall 2018/Advanced Quantitative Methods/Lab 2","no","mono","no","18","no","white","no","yes","768","legacy","60","11","C:/Users/hawkm/OneDrive/Desktop/Tarleton school stuff/Fall 2018/Advanced Quantitative Methods/Lab 2/Hawk-subject-2.csv","legacy","8 2 1 4 5 9","Kafkaesque Koffka","3.2.5","0","n","0","right","left","left","right","NA","1085","21779","4978","1085","NA","2","legacy","6","1024","2","48000","-16","experiment","2","even","7","500199","25688","496835","497987","3875","115989","497989","425522","3879","111011","502204","503290","498994","502204","NA","Sternberg task","64","73547","73","yes","1024"
"86.4864864865","86.4864864865","1005.54054054","1005.54054054","black","experiment","legacy","legacy","legacy","0","uniform","0","undefined","0","right","73","0","73","73","0","0","73","73","0","0","73","73","73","73","0","10/04/18 18:53:01","The main experiment item","yes","Sternbergtask.osexp","C:/Users/hawkm/OneDrive/Desktop/Tarleton school stuff/Fall 2018/Advanced Quantitative Methods/Lab 2","no","mono","no","18","no","white","no","yes","768","legacy","61","11","C:/Users/hawkm/OneDrive/Desktop/Tarleton school stuff/Fall 2018/Advanced Quantitative Methods/Lab 2/Hawk-subject-2.csv","legacy","2 3 8 5 6 7","Kafkaesque Koffka","3.2.5","0","n","0","left","left","left","left","NA","863","21779","4978","863","NA","2","legacy","6","1024","2","48000","-16","experiment","2","even","1","506699","25688","503336","504486","3875","115989","504488","425522","3879","111011","508705","509569","505493","508705","NA","Sternberg task","64","74410","74","yes","1024"
"85.3333333333","85.3333333333","1002.16","1002.16","black","experiment","legacy","legacy","legacy","0","uniform","0","undefined","0","right","74","0","74","74","0","0","74","74","0","0","74","74","74","74","0","10/04/18 18:53:01","The main experiment item","yes","Sternbergtask.osexp","C:/Users/hawkm/OneDrive/Desktop/Tarleton school stuff/Fall 2018/Advanced Quantitative Methods/Lab 2","no","mono","no","18","no","white","no","yes","768","legacy","62","11","C:/Users/hawkm/OneDrive/Desktop/Tarleton school stuff/Fall 2018/Advanced Quantitative Methods/Lab 2/Hawk-subject-2.csv","legacy","9 5 3 2 8 6","Kafkaesque Koffka","3.2.5","0","n","0","left","left","left","left","NA","752","21779","4978","752","NA","2","legacy","6","1024","2","48000","-16","experiment","2","even","7","513020","25688","503336","510808","3875","115989","510810","509629","3879","111011","515026","515779","511815","515026","NA","Sternberg task","64","75162","75","yes","1024"
"85.5263157895","85.5263157895","998.486842105","998.486842105","black","experiment","legacy","legacy","legacy","0","uniform","1","undefined","1","right","75","0","75","75","0","0","75","75","0","0","75","75","75","75","0","10/04/18 18:53:01","The main experiment item","yes","Sternbergtask.osexp","C:/Users/hawkm/OneDrive/Desktop/Tarleton school stuff/Fall 2018/Advanced Quantitative Methods/Lab 2","no","mono","no","18","no","white","no","yes","768","legacy","63","11","C:/Users/hawkm/OneDrive/Desktop/Tarleton school stuff/Fall 2018/Advanced Quantitative Methods/Lab 2/Hawk-subject-2.csv","legacy","6 9 5","Kafkaesque Koffka","3.2.5","0","n","0","right","left","left","right","NA","723","21779","4978","723","NA","2","legacy","3","1024","2","48000","-16","experiment","2","even","8","519150","25688","503336","516938","3875","115989","516939","515783","3879","111011","521155","521879","517944","521155","NA","Sternberg task","65","75885","76","yes","1024"
"85.7142857143","85.7142857143","996.38961039","996.38961039","black","experiment","legacy","legacy","legacy","0","uniform","1","undefined","1","right","76","0","76","76","0","0","76","76","0","0","76","76","76","76","0","10/04/18 18:53:01","The main experiment item","yes","Sternbergtask.osexp","C:/Users/hawkm/OneDrive/Desktop/Tarleton school stuff/Fall 2018/Advanced Quantitative Methods/Lab 2","no","mono","no","18","no","white","no","yes","768","legacy","64","11","C:/Users/hawkm/OneDrive/Desktop/Tarleton school stuff/Fall 2018/Advanced Quantitative Methods/Lab 2/Hawk-subject-2.csv","legacy","7 1 8 4 9 3","Kafkaesque Koffka","3.2.5","0","n","0","right","left","left","right","NA","837","21779","4978","837","NA","2","legacy","6","1024","2","48000","-16","experiment","2","even","6","525285","25688","521922","523072","3875","115989","523073","515783","3879","111011","527291","528129","524079","527291","NA","Sternberg task","66","76722","77","yes","1024"
"85.8974358974","85.8974358974","992.602564103","992.602564103","black","experiment","legacy","legacy","legacy","0","uniform","1","undefined","1","right","77","0","77","77","0","0","77","77","0","0","77","77","77","77","0","10/04/18 18:53:01","The main experiment item","yes","Sternbergtask.osexp","C:/Users/hawkm/OneDrive/Desktop/Tarleton school stuff/Fall 2018/Advanced Quantitative Methods/Lab 2","no","mono","no","18","no","white","no","yes","768","legacy","65","11","C:/Users/hawkm/OneDrive/Desktop/Tarleton school stuff/Fall 2018/Advanced Quantitative Methods/Lab 2/Hawk-subject-2.csv","legacy","1 4 9 3","Kafkaesque Koffka","3.2.5","0","n","0","right","left","left","right","NA","701","21779","4978","701","NA","2","legacy","4","1024","2","48000","-16","experiment","2","even","5","531562","25688","528175","529349","3875","115989","529351","515783","3879","111011","533567","534269","530356","533566","NA","Sternberg task","67","77423","78","yes","1024"
"86.0759493671","86.0759493671","989.848101266","989.848101266","black","experiment","legacy","legacy","legacy","0","uniform","1","undefined","1","left","78","0","78","78","0","0","78","78","0","0","78","78","78","78","0","10/04/18 18:53:01","The main experiment item","yes","Sternbergtask.osexp","C:/Users/hawkm/OneDrive/Desktop/Tarleton school stuff/Fall 2018/Advanced Quantitative Methods/Lab 2","no","mono","no","18","no","white","no","yes","768","legacy","66","11","C:/Users/hawkm/OneDrive/Desktop/Tarleton school stuff/Fall 2018/Advanced Quantitative Methods/Lab 2/Hawk-subject-2.csv","legacy","9 3 8 2 1 4","Kafkaesque Koffka","3.2.5","3","y","0","left","left","left","left","NA","775","21779","4978","775","NA","2","legacy","6","1024","2","48000","-16","experiment","2","even","8","537688","25688","534317","535476","3875","115989","535477","515783","3879","111011","539693","540469","536483","539693","NA","Sternberg task","68","78198","79","yes","1024"
"86.25","86.25","987.375","987.375","black","experiment","legacy","legacy","legacy","0","uniform","1","undefined","1","right","79","0","79","79","0","0","79","79","0","0","79","79","79","79","0","10/04/18 18:53:01","The main experiment item","yes","Sternbergtask.osexp","C:/Users/hawkm/OneDrive/Desktop/Tarleton school stuff/Fall 2018/Advanced Quantitative Methods/Lab 2","no","mono","no","18","no","white","no","yes","768","legacy","67","11","C:/Users/hawkm/OneDrive/Desktop/Tarleton school stuff/Fall 2018/Advanced Quantitative Methods/Lab 2/Hawk-subject-2.csv","legacy","2 8 9 4 1","Kafkaesque Koffka","3.2.5","0","n","0","right","left","left","right","NA","792","21779","4978","792","NA","2","legacy","5","1024","2","48000","-16","experiment","2","even","5","543901","25688","540528","541690","3875","115989","541693","515783","3879","111011","545907","546700","542698","545907","NA","Sternberg task","69","78990","80","yes","1024"
"86.4197530864","86.4197530864","988.654320988","988.654320988","black","experiment","legacy","legacy","legacy","0","uniform","1","undefined","1","left","80","0","80","80","0","0","80","80","0","0","80","80","80","80","0","10/04/18 18:53:01","The main experiment item","yes","Sternbergtask.osexp","C:/Users/hawkm/OneDrive/Desktop/Tarleton school stuff/Fall 2018/Advanced Quantitative Methods/Lab 2","no","mono","no","18","no","white","no","yes","768","legacy","68","11","C:/Users/hawkm/OneDrive/Desktop/Tarleton school stuff/Fall 2018/Advanced Quantitative Methods/Lab 2/Hawk-subject-2.csv","legacy","9 6 2 4 1","Kafkaesque Koffka","3.2.5","4","y","0","left","left","left","left","NA","1091","21779","4978","1091","NA","2","legacy","5","1024","2","48000","-16","experiment","2","even","4","550114","25688","546745","547901","3875","115989","547903","515783","3879","111011","552118","553210","548908","552118","NA","Sternberg task","70","80081","81","yes","1024"
"85.3658536585","85.3658536585","986.609756098","986.609756098","black","experiment","legacy","legacy","legacy","0","uniform","0","undefined","0","right","81","0","81","81","0","0","81","81","0","0","81","81","81","81","0","10/04/18 18:53:01","The main experiment item","yes","Sternbergtask.osexp","C:/Users/hawkm/OneDrive/Desktop/Tarleton school stuff/Fall 2018/Advanced Quantitative Methods/Lab 2","no","mono","no","18","no","white","no","yes","768","legacy","69","11","C:/Users/hawkm/OneDrive/Desktop/Tarleton school stuff/Fall 2018/Advanced Quantitative Methods/Lab 2/Hawk-subject-2.csv","legacy","6 9 7 3 8 2","Kafkaesque Koffka","3.2.5","0","n","0","left","left","left","left","NA","821","21779","4978","821","NA","2","legacy","6","1024","2","48000","-16","experiment","2","even","5","556643","25688","553253","554429","3875","115989","554431","515783","3879","111011","558648","559470","555436","558648","NA","Sternberg task","70","80902","82","yes","1024"
"85.5421686747","85.5421686747","981.240963855","981.240963855","black","experiment","legacy","legacy","legacy","0","uniform","1","undefined","1","left","82","0","82","82","0","0","82","82","0","0","82","82","82","82","0","10/04/18 18:53:01","The main experiment item","yes","Sternbergtask.osexp","C:/Users/hawkm/OneDrive/Desktop/Tarleton school stuff/Fall 2018/Advanced Quantitative Methods/Lab 2","no","mono","no","18","no","white","no","yes","768","legacy","70","11","C:/Users/hawkm/OneDrive/Desktop/Tarleton school stuff/Fall 2018/Advanced Quantitative Methods/Lab 2/Hawk-subject-2.csv","legacy","8","Kafkaesque Koffka","3.2.5","1","y","0","left","left","left","left","NA","541","21779","4978","541","NA","2","legacy","1","1024","2","48000","-16","experiment","2","even","8","562923","25688","553253","560708","3875","115989","560710","559536","3879","111011","564928","565470","561716","564928","NA","Sternberg task","71","81443","83","yes","1024"
"85.7142857143","85.7142857143","980.083333333","980.083333333","black","experiment","legacy","legacy","legacy","0","uniform","1","undefined","1","right","83","0","83","83","0","0","83","83","0","0","83","83","83","83","0","10/04/18 18:53:01","The main experiment item","yes","Sternbergtask.osexp","C:/Users/hawkm/OneDrive/Desktop/Tarleton school stuff/Fall 2018/Advanced Quantitative Methods/Lab 2","no","mono","no","18","no","white","no","yes","768","legacy","71","11","C:/Users/hawkm/OneDrive/Desktop/Tarleton school stuff/Fall 2018/Advanced Quantitative Methods/Lab 2/Hawk-subject-2.csv","legacy","1 8 7","Kafkaesque Koffka","3.2.5","0","n","0","right","left","left","right","NA","884","21779","4978","884","NA","2","legacy","3","1024","2","48000","-16","experiment","2","even","4","568880","25688","565518","566667","3875","115989","566669","559536","3879","111011","570885","571771","567674","570885","NA","Sternberg task","72","82327","84","yes","1024"
"85.8823529412","85.8823529412","977.117647059","977.117647059","black","experiment","legacy","legacy","legacy","0","uniform","1","undefined","1","right","84","0","84","84","0","0","84","84","0","0","84","84","84","84","0","10/04/18 18:53:01","The main experiment item","yes","Sternbergtask.osexp","C:/Users/hawkm/OneDrive/Desktop/Tarleton school stuff/Fall 2018/Advanced Quantitative Methods/Lab 2","no","mono","no","18","no","white","no","yes","768","legacy","72","11","C:/Users/hawkm/OneDrive/Desktop/Tarleton school stuff/Fall 2018/Advanced Quantitative Methods/Lab 2/Hawk-subject-2.csv","legacy","1 4 9 2 5","Kafkaesque Koffka","3.2.5","0","n","0","right","left","left","right","NA","728","21779","4978","728","NA","2","legacy","5","1024","2","48000","-16","experiment","2","even","7","575176","25688","571815","572964","3875","115989","572965","559536","3879","111011","577181","577911","573970","577181","NA","Sternberg task","73","83055","85","yes","1024"
"86.0465116279","86.0465116279","979.779069767","979.779069767","black","experiment","legacy","legacy","legacy","0","uniform","1","undefined","1","left","85","0","85","85","0","0","85","85","0","0","85","85","85","85","0","10/04/18 18:53:01","The main experiment item","yes","Sternbergtask.osexp","C:/Users/hawkm/OneDrive/Desktop/Tarleton school stuff/Fall 2018/Advanced Quantitative Methods/Lab 2","no","mono","no","18","no","white","no","yes","768","legacy","73","11","C:/Users/hawkm/OneDrive/Desktop/Tarleton school stuff/Fall 2018/Advanced Quantitative Methods/Lab 2/Hawk-subject-2.csv","legacy","6 2","Kafkaesque Koffka","3.2.5","1","y","0","left","left","left","left","NA","1206","21779","4978","1206","NA","2","legacy","2","1024","2","48000","-16","experiment","2","even","6","581298","25688","577929","579085","3875","115989","579087","559536","3879","111011","583303","584510","580092","583303","NA","Sternberg task","74","84261","86","yes","1024"
"86.2068965517","86.2068965517","976.494252874","976.494252874","black","experiment","legacy","legacy","legacy","0","uniform","1","undefined","1","right","86","0","86","86","0","0","86","86","0","0","86","86","86","86","0","10/04/18 18:53:01","The main experiment item","yes","Sternbergtask.osexp","C:/Users/hawkm/OneDrive/Desktop/Tarleton school stuff/Fall 2018/Advanced Quantitative Methods/Lab 2","no","mono","no","18","no","white","no","yes","768","legacy","74","11","C:/Users/hawkm/OneDrive/Desktop/Tarleton school stuff/Fall 2018/Advanced Quantitative Methods/Lab 2/Hawk-subject-2.csv","legacy","4 8 1 2","Kafkaesque Koffka","3.2.5","0","n","0","right","left","left","right","NA","694","21779","4978","694","NA","2","legacy","4","1024","2","48000","-16","experiment","2","even","7","587908","25688","584556","585697","3875","115989","585698","559536","3879","111011","589915","590610","586703","589915","NA","Sternberg task","75","84955","87","yes","1024"
"86.3636363636","86.3636363636","976.477272727","976.477272727","black","experiment","legacy","legacy","legacy","0","uniform","1","undefined","1","left","87","0","87","87","0","0","87","87","0","0","87","87","87","87","0","10/04/18 18:53:01","The main experiment item","yes","Sternbergtask.osexp","C:/Users/hawkm/OneDrive/Desktop/Tarleton school stuff/Fall 2018/Advanced Quantitative Methods/Lab 2","no","mono","no","18","no","white","no","yes","768","legacy","75","11","C:/Users/hawkm/OneDrive/Desktop/Tarleton school stuff/Fall 2018/Advanced Quantitative Methods/Lab 2/Hawk-subject-2.csv","legacy","3 9 7 6 4","Kafkaesque Koffka","3.2.5","3","y","0","left","left","left","left","NA","975","21779","4978","975","NA","2","legacy","5","1024","2","48000","-16","experiment","2","even","7","594019","25688","590656","591807","3875","115989","591808","559536","3879","111011","596024","597000","592814","596024","NA","Sternberg task","76","85930","88","yes","1024"
"86.5168539326","86.5168539326","986.258426966","986.258426966","black","experiment","legacy","legacy","legacy","0","uniform","1","undefined","1","right","88","0","88","88","0","0","88","88","0","0","88","88","88","88","0","10/04/18 18:53:01","The main experiment item","yes","Sternbergtask.osexp","C:/Users/hawkm/OneDrive/Desktop/Tarleton school stuff/Fall 2018/Advanced Quantitative Methods/Lab 2","no","mono","no","18","no","white","no","yes","768","legacy","76","11","C:/Users/hawkm/OneDrive/Desktop/Tarleton school stuff/Fall 2018/Advanced Quantitative Methods/Lab 2/Hawk-subject-2.csv","legacy","6 3 1 7 9 8","Kafkaesque Koffka","3.2.5","0","n","0","right","left","left","right","NA","1847","21779","4978","1847","NA","2","legacy","6","1024","2","48000","-16","experiment","2","even","4","600458","25688","597095","598245","3875","115989","598246","559536","3879","111011","602464","604312","599252","602464","NA","Sternberg task","77","87777","89","yes","1024"
"85.5555555556","85.5555555556","988.511111111","988.511111111","black","experiment","legacy","legacy","legacy","0","uniform","0","undefined","0","right","89","0","89","89","0","0","89","89","0","0","89","89","89","89","0","10/04/18 18:53:01","The main experiment item","yes","Sternbergtask.osexp","C:/Users/hawkm/OneDrive/Desktop/Tarleton school stuff/Fall 2018/Advanced Quantitative Methods/Lab 2","no","mono","no","18","no","white","no","yes","768","legacy","77","11","C:/Users/hawkm/OneDrive/Desktop/Tarleton school stuff/Fall 2018/Advanced Quantitative Methods/Lab 2/Hawk-subject-2.csv","legacy","2 8 6 3 1","Kafkaesque Koffka","3.2.5","0","n","0","left","left","left","left","NA","1189","21779","4978","1189","NA","2","legacy","5","1024","2","48000","-16","experiment","2","even","7","607836","25688","604392","605623","3875","115989","605625","559536","3879","111011","609841","611031","606630","609841","NA","Sternberg task","77","88966","90","yes","1024"
"85.7142857143","85.7142857143","985.769230769","985.769230769","black","experiment","legacy","legacy","legacy","0","uniform","1","undefined","1","left","90","0","90","90","0","0","90","90","0","0","90","90","90","90","0","10/04/18 18:53:01","The main experiment item","yes","Sternbergtask.osexp","C:/Users/hawkm/OneDrive/Desktop/Tarleton school stuff/Fall 2018/Advanced Quantitative Methods/Lab 2","no","mono","no","18","no","white","no","yes","768","legacy","78","11","C:/Users/hawkm/OneDrive/Desktop/Tarleton school stuff/Fall 2018/Advanced Quantitative Methods/Lab 2/Hawk-subject-2.csv","legacy","7 8 4 6 9 5","Kafkaesque Koffka","3.2.5","4","y","0","left","left","left","left","NA","739","21779","4978","739","NA","2","legacy","6","1024","2","48000","-16","experiment","2","even","6","614456","25688","604392","612244","3875","115989","612245","611078","3879","111011","616461","617202","613250","616461","NA","Sternberg task","78","89705","91","yes","1024"
"85.8695652174","85.8695652174","982.173913043","982.173913043","black","experiment","legacy","legacy","legacy","0","uniform","1","undefined","1","left","91","0","91","91","0","0","91","91","0","0","91","91","91","91","0","10/04/18 18:53:01","The main experiment item","yes","Sternbergtask.osexp","C:/Users/hawkm/OneDrive/Desktop/Tarleton school stuff/Fall 2018/Advanced Quantitative Methods/Lab 2","no","mono","no","18","no","white","no","yes","768","legacy","79","11","C:/Users/hawkm/OneDrive/Desktop/Tarleton school stuff/Fall 2018/Advanced Quantitative Methods/Lab 2/Hawk-subject-2.csv","legacy","2 3 7 4","Kafkaesque Koffka","3.2.5","1","y","0","left","left","left","left","NA","655","21779","4978","655","NA","2","legacy","4","1024","2","48000","-16","experiment","2","even","2","620630","25688","617250","618417","3875","115989","618419","611078","3879","111011","622636","623292","619424","622636","NA","Sternberg task","79","90360","92","yes","1024"
"86.0215053763","86.0215053763","977.978494624","977.978494624","black","experiment","legacy","legacy","legacy","0","uniform","1","undefined","1","right","92","0","92","92","0","0","92","92","0","0","92","92","92","92","0","10/04/18 18:53:01","The main experiment item","yes","Sternbergtask.osexp","C:/Users/hawkm/OneDrive/Desktop/Tarleton school stuff/Fall 2018/Advanced Quantitative Methods/Lab 2","no","mono","no","18","no","white","no","yes","768","legacy","80","11","C:/Users/hawkm/OneDrive/Desktop/Tarleton school stuff/Fall 2018/Advanced Quantitative Methods/Lab 2/Hawk-subject-2.csv","legacy","5","Kafkaesque Koffka","3.2.5","0","n","0","right","left","left","right","NA","592","21779","4978","592","NA","2","legacy","1","1024","2","48000","-16","experiment","2","even","8","626723","25688","623334","624509","3875","115989","624511","611078","3879","111011","628728","629321","625517","628728","NA","Sternberg task","80","90952","93","yes","1024"
"86.170212766","86.170212766","976.510638298","976.510638298","black","experiment","legacy","legacy","legacy","0","uniform","1","undefined","1","left","93","0","93","93","0","0","93","93","0","0","93","93","93","93","0","10/04/18 18:53:01","The main experiment item","yes","Sternbergtask.osexp","C:/Users/hawkm/OneDrive/Desktop/Tarleton school stuff/Fall 2018/Advanced Quantitative Methods/Lab 2","no","mono","no","18","no","white","no","yes","768","legacy","81","11","C:/Users/hawkm/OneDrive/Desktop/Tarleton school stuff/Fall 2018/Advanced Quantitative Methods/Lab 2/Hawk-subject-2.csv","legacy","6 8 9 3 4 9","Kafkaesque Koffka","3.2.5","5","y","0","left","left","left","left","NA","840","21779","4978","840","NA","2","legacy","6","1024","2","48000","-16","experiment","2","even","4","632776","25688","629369","630569","3875","115989","630571","611078","3879","111011","634780","635621","631573","634780","NA","Sternberg task","81","91792","94","yes","1024"
"86.3157894737","86.3157894737","979.494736842","979.494736842","black","experiment","legacy","legacy","legacy","0","uniform","1","undefined","1","right","94","0","94","94","0","0","94","94","0","0","94","94","94","94","0","10/04/18 18:53:01","The main experiment item","yes","Sternbergtask.osexp","C:/Users/hawkm/OneDrive/Desktop/Tarleton school stuff/Fall 2018/Advanced Quantitative Methods/Lab 2","no","mono","no","18","no","white","no","yes","768","legacy","82","11","C:/Users/hawkm/OneDrive/Desktop/Tarleton school stuff/Fall 2018/Advanced Quantitative Methods/Lab 2/Hawk-subject-2.csv","legacy","1 6 4 3 9 7","Kafkaesque Koffka","3.2.5","0","n","0","right","left","left","right","NA","1260","21779","4978","1260","NA","2","legacy","6","1024","2","48000","-16","experiment","2","even","8","639054","25688","635665","636842","3875","115989","636844","611078","3879","111011","641060","642322","637847","641060","NA","Sternberg task","82","93052","95","yes","1024"
"86.4583333333","86.4583333333","979.010416667","979.010416667","black","experiment","legacy","legacy","legacy","0","uniform","1","undefined","1","left","95","0","95","95","0","0","95","95","0","0","95","95","95","95","0","10/04/18 18:53:01","The main experiment item","yes","Sternbergtask.osexp","C:/Users/hawkm/OneDrive/Desktop/Tarleton school stuff/Fall 2018/Advanced Quantitative Methods/Lab 2","no","mono","no","18","no","white","no","yes","768","legacy","83","11","C:/Users/hawkm/OneDrive/Desktop/Tarleton school stuff/Fall 2018/Advanced Quantitative Methods/Lab 2/Hawk-subject-2.csv","legacy","2 5 4 8 7","Kafkaesque Koffka","3.2.5","3","y","0","left","left","left","left","NA","933","21779","4978","933","NA","2","legacy","5","1024","2","48000","-16","experiment","2","even","4","645743","25688","642367","643530","3875","115989","643531","611078","3879","111011","647748","648683","644537","647748","NA","Sternberg task","83","93985","96","yes","1024"
"86.5979381443","86.5979381443","976.237113402","976.237113402","black","experiment","legacy","legacy","legacy","0","uniform","1","undefined","1","left","96","0","96","96","0","0","96","96","0","0","96","96","96","96","0","10/04/18 18:53:01","The main experiment item","yes","Sternbergtask.osexp","C:/Users/hawkm/OneDrive/Desktop/Tarleton school stuff/Fall 2018/Advanced Quantitative Methods/Lab 2","no","mono","no","18","no","white","no","yes","768","legacy","84","11","C:/Users/hawkm/OneDrive/Desktop/Tarleton school stuff/Fall 2018/Advanced Quantitative Methods/Lab 2/Hawk-subject-2.csv","legacy","9 1 6 7 8","Kafkaesque Koffka","3.2.5","1","y","0","left","left","left","left","NA","710","21779","4978","710","NA","2","legacy","5","1024","2","48000","-16","experiment","2","even","9","652087","25688","648726","649875","3875","115989","649876","611078","3879","111011","654091","654802","650882","654091","NA","Sternberg task","84","94695","97","yes","1024"
"86.7346938776","86.7346938776","973.928571429","973.928571429","black","experiment","legacy","legacy","legacy","0","uniform","1","undefined","1","left","97","0","97","97","0","0","97","97","0","0","97","97","97","97","0","10/04/18 18:53:01","The main experiment item","yes","Sternbergtask.osexp","C:/Users/hawkm/OneDrive/Desktop/Tarleton school stuff/Fall 2018/Advanced Quantitative Methods/Lab 2","no","mono","no","18","no","white","no","yes","768","legacy","85","11","C:/Users/hawkm/OneDrive/Desktop/Tarleton school stuff/Fall 2018/Advanced Quantitative Methods/Lab 2/Hawk-subject-2.csv","legacy","4 3 2 5 8","Kafkaesque Koffka","3.2.5","2","y","0","left","left","left","left","NA","750","21779","4978","750","NA","2","legacy","5","1024","2","48000","-16","experiment","2","even","3","658204","25688","654849","655992","3875","115989","655994","611078","3879","111011","660211","660962","656999","660211","NA","Sternberg task","85","95445","98","yes","1024"
"86.8686868687","86.8686868687","969.191919192","969.191919192","black","experiment","legacy","legacy","legacy","0","uniform","1","undefined","1","left","98","0","98","98","0","0","98","98","0","0","98","98","98","98","0","10/04/18 18:53:01","The main experiment item","yes","Sternbergtask.osexp","C:/Users/hawkm/OneDrive/Desktop/Tarleton school stuff/Fall 2018/Advanced Quantitative Methods/Lab 2","no","mono","no","18","no","white","no","yes","768","legacy","86","11","C:/Users/hawkm/OneDrive/Desktop/Tarleton school stuff/Fall 2018/Advanced Quantitative Methods/Lab 2/Hawk-subject-2.csv","legacy","8 5 1 3 9","Kafkaesque Koffka","3.2.5","4","y","0","left","left","left","left","NA","505","21779","4978","505","NA","2","legacy","5","1024","2","48000","-16","experiment","2","even","3","664380","25688","661010","662166","3875","115989","662168","611078","3879","111011","666386","666892","663174","666386","NA","Sternberg task","86","95950","99","yes","1024"
"87","87","966.92","966.92","black","experiment","legacy","legacy","legacy","0","uniform","1","undefined","1","right","99","0","99","99","0","0","99","99","0","0","99","99","99","99","0","10/04/18 18:53:01","The main experiment item","yes","Sternbergtask.osexp","C:/Users/hawkm/OneDrive/Desktop/Tarleton school stuff/Fall 2018/Advanced Quantitative Methods/Lab 2","no","mono","no","18","no","white","no","yes","768","legacy","87","11","C:/Users/hawkm/OneDrive/Desktop/Tarleton school stuff/Fall 2018/Advanced Quantitative Methods/Lab 2/Hawk-subject-2.csv","legacy","3 4 9 6 7 8","Kafkaesque Koffka","3.2.5","0","n","0","right","left","left","right","NA","742","21779","4978","742","NA","2","legacy","6","1024","2","48000","-16","experiment","2","even","2","670343","25688","666942","668130","3875","115989","668132","611078","3879","111011","672349","673092","669137","672349","NA","Sternberg task","87","96692","100","yes","1024"
"87.1287128713","87.1287128713","964.04950495","964.04950495","black","experiment","legacy","legacy","legacy","0","uniform","1","undefined","1","left","100","0","100","100","0","0","100","100","0","0","100","100","100","100","0","10/04/18 18:53:01","The main experiment item","yes","Sternbergtask.osexp","C:/Users/hawkm/OneDrive/Desktop/Tarleton school stuff/Fall 2018/Advanced Quantitative Methods/Lab 2","no","mono","no","18","no","white","no","yes","768","legacy","88","11","C:/Users/hawkm/OneDrive/Desktop/Tarleton school stuff/Fall 2018/Advanced Quantitative Methods/Lab 2/Hawk-subject-2.csv","legacy","6 7 9 3 1 2","Kafkaesque Koffka","3.2.5","1","y","0","left","left","left","left","NA","677","21779","4978","677","NA","2","legacy","6","1024","2","48000","-16","experiment","2","even","6","676449","25688","673096","674235","3875","115989","674237","611078","3879","111011","678455","679132","675243","678454","NA","Sternberg task","88","97369","101","yes","1024"
"87.2549019608","87.2549019608","959.284313725","959.284313725","black","experiment","legacy","legacy","legacy","0","uniform","1","undefined","1","left","101","0","101","101","0","0","101","101","0","0","101","101","101","101","0","10/04/18 18:53:01","The main experiment item","yes","Sternbergtask.osexp","C:/Users/hawkm/OneDrive/Desktop/Tarleton school stuff/Fall 2018/Advanced Quantitative Methods/Lab 2","no","mono","no","18","no","white","no","yes","768","legacy","89","11","C:/Users/hawkm/OneDrive/Desktop/Tarleton school stuff/Fall 2018/Advanced Quantitative Methods/Lab 2/Hawk-subject-2.csv","legacy","7","Kafkaesque Koffka","3.2.5","1","y","0","left","left","left","left","NA","478","21779","4978","478","NA","2","legacy","1","1024","2","48000","-16","experiment","2","even","7","682528","25688","679175","680313","3875","115989","680315","611078","3879","111011","684533","685012","681322","684533","NA","Sternberg task","89","97847","102","yes","1024"
"87.3786407767","87.3786407767","956.834951456","956.834951456","black","experiment","legacy","legacy","legacy","0","uniform","1","undefined","1","left","102","0","102","102","0","0","102","102","0","0","102","102","102","102","0","10/04/18 18:53:01","The main experiment item","yes","Sternbergtask.osexp","C:/Users/hawkm/OneDrive/Desktop/Tarleton school stuff/Fall 2018/Advanced Quantitative Methods/Lab 2","no","mono","no","18","no","white","no","yes","768","legacy","90","11","C:/Users/hawkm/OneDrive/Desktop/Tarleton school stuff/Fall 2018/Advanced Quantitative Methods/Lab 2/Hawk-subject-2.csv","legacy","4 1 8 7 5","Kafkaesque Koffka","3.2.5","3","y","0","left","left","left","left","NA","707","21779","4978","707","NA","2","legacy","5","1024","2","48000","-16","experiment","2","even","8","688448","25688","685058","686236","3875","115989","686238","611078","3879","111011","690454","691163","687243","690454","NA","Sternberg task","90","98554","103","yes","1024"
