"acc","accuracy","average_response_time","avg_rt","background","bidi","block","canvas_backend","clock_backend","color_backend","compensation","coordinates","correct","correct_Instruction1","correct_keyboard_response","correct_response","count_CorrectResponse","count_ExperimentLoop","count_Fixation","count_ISI","count_IncorrectFeedback","count_Instruction1","count_Instructions2","count_Memory","count_PracticeLoop","count_Probe","count_Sternburgtask","count_Thankyou","count_XSequence","count_keyboard_response","count_logger","datetime","description","disable_garbage_collection","empty_column","experiment_file","experiment_path","font_bold","font_family","font_italic","font_size","font_underline","foreground","form_clicks","fullscreen","height","keyboard_backend","live_row","live_row_PracticeLoop","logfile","mouse_backend","numberSet","opensesame_codename","opensesame_version","posInSet","present","repeat_cycle","response","response_Instruction1","response_Instructions2","response_Thankyou","response_keyboard_response","response_time","response_time_Instruction1","response_time_Instructions2","response_time_Thankyou","response_time_keyboard_response","round_decimals","sampler_backend","setSize","sound_buf_size","sound_channels","sound_freq","sound_sample_size","start","subject_nr","subject_parity","target","time_CorrectResponse","time_ExperimentLoop","time_Fixation","time_ISI","time_IncorrectFeedback","time_Instruction1","time_Instructions2","time_Memory","time_PracticeLoop","time_Probe","time_Sternburgtask","time_Thankyou","time_XSequence","time_keyboard_response","time_logger","title","total_correct","total_response_time","total_responses","uniform_coordinates","width"
"100","100","1240","1240","black","no","practice","legacy","legacy","legacy","0","uniform","1","undefined","1","right","0","0","0","0","0","0","0","0","0","0","0","0","0","0","0","Thu Oct  4 21:47:53 2018","The main experiment item","yes","NA","Sternburg Task.osexp","/Users/danieldalton","no","mono","no","18","no","white","no","yes","768","legacy","0","0","/Users/danieldalton/subject-3.csv","legacy","4 1 5","Jazzy James","3.1.9","0","n","0","right","left","NA","NA","right","1240","121289","NA","NA","1240","2","legacy","3","1024","2","48000","-16","Sternburgtask","3","odd","2","NA","NA","124719","126954","NA","2224","NA","125734","123531","128975","2198","NA","124708","128975","130217","New experiment","1","1240","1","yes","1024"
"50","50","1620","1620","black","no","practice","legacy","legacy","legacy","0","uniform","0","undefined","0","left","1","0","1","1","1","0","0","1","0","1","0","0","1","1","1","Thu Oct  4 21:47:53 2018","The main experiment item","yes","NA","Sternburg Task.osexp","/Users/danieldalton","no","mono","no","18","no","white","no","yes","768","legacy","1","1","/Users/danieldalton/subject-3.csv","legacy","6","Jazzy James","3.1.9","1","y","0","None","left","NA","NA","None","2000","121289","NA","NA","2000","2","legacy","1","1024","2","48000","-16","Sternburgtask","3","odd","6","130237","NA","131297","133534","NA","2224","NA","132311","123531","135545","2198","NA","131286","135546","137546","New experiment","1","3240","2","yes","1024"
"33.3333333333","33.3333333333","1453.66666667","1453.66666667","black","no","practice","legacy","legacy","legacy","0","uniform","0","undefined","0","left","2","0","2","2","2","0","0","2","0","2","0","0","2","2","2","Thu Oct  4 21:47:53 2018","The main experiment item","yes","NA","Sternburg Task.osexp","/Users/danieldalton","no","mono","no","18","no","white","no","yes","768","legacy","2","2","/Users/danieldalton/subject-3.csv","legacy","4 8","Jazzy James","3.1.9","1","y","0","right","left","NA","NA","right","1121","121289","NA","NA","1121","2","legacy","2","1024","2","48000","-16","Sternburgtask","3","odd","4","130237","NA","138615","140844","137560","2224","NA","139627","123531","142856","2198","NA","138603","142856","143979","New experiment","1","4361","3","yes","1024"
"50","50","1563.5","1563.5","black","no","practice","legacy","legacy","legacy","0","uniform","1","undefined","1","right","3","0","3","3","3","0","0","3","0","3","0","0","3","3","3","Thu Oct  4 21:47:53 2018","The main experiment item","yes","NA","Sternburg Task.osexp","/Users/danieldalton","no","mono","no","18","no","white","no","yes","768","legacy","3","3","/Users/danieldalton/subject-3.csv","legacy","3 1 9 4","Jazzy James","3.1.9","0","n","0","right","left","NA","NA","right","1893","121289","NA","NA","1893","2","legacy","4","1024","2","48000","-16","Sternburgtask","3","odd","6","130237","NA","145046","147282","143994","2224","NA","146065","123531","149297","2198","NA","145035","149297","151192","New experiment","2","6254","4","yes","1024"
"60","60","1540.4","1540.4","black","no","practice","legacy","legacy","legacy","0","uniform","1","undefined","1","left","4","0","4","4","4","0","0","4","0","4","0","0","4","4","4","Thu Oct  4 21:47:53 2018","The main experiment item","yes","NA","Sternburg Task.osexp","/Users/danieldalton","no","mono","no","18","no","white","no","yes","768","legacy","4","4","/Users/danieldalton/subject-3.csv","legacy","1 7 9 8 5","Jazzy James","3.1.9","4","y","0","left","left","NA","NA","left","1448","121289","NA","NA","1448","2","legacy","5","1024","2","48000","-16","Sternburgtask","3","odd","8","151206","NA","152260","154499","143994","2224","NA","153281","123531","156512","2198","NA","152249","156512","157962","New experiment","3","7702","5","yes","1024"
"66.6666666667","66.6666666667","1534.66666667","1534.66666667","black","no","practice","legacy","legacy","legacy","0","uniform","1","undefined","1","left","5","0","5","5","5","0","0","5","0","5","0","0","5","5","5","Thu Oct  4 21:47:53 2018","The main experiment item","yes","NA","Sternburg Task.osexp","/Users/danieldalton","no","mono","no","18","no","white","no","yes","768","legacy","5","5","/Users/danieldalton/subject-3.csv","legacy","1 5 2 9","Jazzy James","3.1.9","2","y","0","left","left","NA","NA","left","1506","121289","NA","NA","1506","2","legacy","4","1024","2","48000","-16","Sternburgtask","3","odd","5","157975","NA","159026","161264","143994","2224","NA","160045","123531","163277","2198","NA","159015","163277","164785","New experiment","4","9208","6","yes","1024"
"71.4285714286","71.4285714286","1459.85714286","1459.85714286","black","no","practice","legacy","legacy","legacy","0","uniform","1","undefined","1","right","6","0","6","6","6","0","0","6","0","6","0","0","6","6","6","Thu Oct  4 21:47:53 2018","The main experiment item","yes","NA","Sternburg Task.osexp","/Users/danieldalton","no","mono","no","18","no","white","no","yes","768","legacy","6","6","/Users/danieldalton/subject-3.csv","legacy","5","Jazzy James","3.1.9","0","n","0","right","left","NA","NA","right","1011","121289","NA","NA","1011","2","legacy","1","1024","2","48000","-16","Sternburgtask","3","odd","3","164801","NA","165853","168092","143994","2224","NA","166874","123531","170107","2198","NA","165842","170107","171120","New experiment","5","10219","7","yes","1024"
"62.5","62.5","1527.375","1527.375","black","no","practice","legacy","legacy","legacy","0","uniform","0","undefined","0","right","7","0","7","7","7","0","0","7","0","7","0","0","7","7","7","Thu Oct  4 21:47:53 2018","The main experiment item","yes","NA","Sternburg Task.osexp","/Users/danieldalton","no","mono","no","18","no","white","no","yes","768","legacy","7","7","/Users/danieldalton/subject-3.csv","legacy","5 7 8 4 1 2","Jazzy James","3.1.9","0","n","0","None","left","NA","NA","None","2000","121289","NA","NA","2000","2","legacy","6","1024","2","48000","-16","Sternburgtask","3","odd","6","171134","NA","172189","174419","143994","2224","NA","173203","123531","176434","2198","NA","172178","176434","178434","New experiment","5","12219","8","yes","1024"
"66.6666666667","66.6666666667","1505.88888889","1505.88888889","black","no","practice","legacy","legacy","legacy","0","uniform","1","undefined","1","left","8","0","8","8","8","0","0","8","0","8","0","0","8","8","8","Thu Oct  4 21:47:53 2018","The main experiment item","yes","NA","Sternburg Task.osexp","/Users/danieldalton","no","mono","no","18","no","white","no","yes","768","legacy","8","8","/Users/danieldalton/subject-3.csv","legacy","2 9 4","Jazzy James","3.1.9","3","y","0","left","left","NA","NA","left","1334","121289","NA","NA","1334","2","legacy","3","1024","2","48000","-16","Sternburgtask","3","odd","4","171134","NA","179500","181734","178448","2224","NA","180515","123531","183747","2198","NA","179488","183747","185083","New experiment","6","13553","9","yes","1024"
"70","70","1510.3","1510.3","black","no","practice","legacy","legacy","legacy","0","uniform","1","undefined","1","left","9","0","9","9","9","0","0","9","0","9","0","0","9","9","9","Thu Oct  4 21:47:53 2018","The main experiment item","yes","NA","Sternburg Task.osexp","/Users/danieldalton","no","mono","no","18","no","white","no","yes","768","legacy","9","9","/Users/danieldalton/subject-3.csv","legacy","4 3 1 7 9 8","Jazzy James","3.1.9","1","y","0","left","left","NA","NA","left","1550","121289","NA","NA","1550","2","legacy","6","1024","2","48000","-16","Sternburgtask","3","odd","4","185097","NA","186148","188386","178448","2224","NA","187169","123531","190405","2198","NA","186138","190406","191958","New experiment","7","15103","10","yes","1024"
"72.7272727273","72.7272727273","1509.72727273","1509.72727273","black","no","practice","legacy","legacy","legacy","0","uniform","1","undefined","1","right","10","0","10","10","10","0","0","10","0","10","0","0","10","10","10","Thu Oct  4 21:47:53 2018","The main experiment item","yes","NA","Sternburg Task.osexp","/Users/danieldalton","no","mono","no","18","no","white","no","yes","768","legacy","10","10","/Users/danieldalton/subject-3.csv","legacy","9 6 7 4 5","Jazzy James","3.1.9","0","n","0","right","left","NA","NA","right","1504","121289","NA","NA","1504","2","legacy","5","1024","2","48000","-16","Sternburgtask","3","odd","3","191972","NA","193024","195259","178448","2224","NA","194038","123531","197273","2198","NA","193012","197274","198780","New experiment","8","16607","11","yes","1024"
"75","75","1447.33333333","1447.33333333","black","no","practice","legacy","legacy","legacy","0","uniform","1","undefined","1","right","11","0","11","11","11","0","0","11","0","11","0","0","11","11","11","Thu Oct  4 21:47:53 2018","The main experiment item","yes","NA","Sternburg Task.osexp","/Users/danieldalton","no","mono","no","18","no","white","no","yes","768","legacy","11","11","/Users/danieldalton/subject-3.csv","legacy","2 1","Jazzy James","3.1.9","0","n","0","right","left","NA","NA","right","761","121289","NA","NA","761","2","legacy","2","1024","2","48000","-16","Sternburgtask","3","odd","5","198794","NA","199847","202078","178448","2224","NA","200861","123531","204090","2198","NA","199836","204090","204853","New experiment","9","17368","12","yes","1024"
"76.9230769231","76.9230769231","1460.76923077","1460.76923077","black","no","experiment","legacy","legacy","legacy","0","uniform","1","undefined","1","left","12","0","12","12","12","0","0","12","0","12","0","0","12","12","12","Thu Oct  4 21:47:53 2018","The main experiment item","yes","NA","Sternburg Task.osexp","/Users/danieldalton","no","mono","no","18","no","white","no","yes","768","legacy","0","11","/Users/danieldalton/subject-3.csv","legacy","6 9 3 1","Jazzy James","3.1.9","4","y","0","left","left","left","NA","left","1622","121289","23285","NA","1622","2","legacy","4","1024","2","48000","-16","Sternburgtask","3","odd","1","204866","229185","229284","231520","178448","2224","205898","230303","123531","233533","2198","NA","229274","233533","235157","New experiment","10","18990","13","yes","1024"
"78.5714285714","78.5714285714","1419.28571429","1419.28571429","black","no","experiment","legacy","legacy","legacy","0","uniform","1","undefined","1","left","13","0","13","13","13","0","0","13","0","13","0","0","13","13","13","Thu Oct  4 21:47:53 2018","The main experiment item","yes","NA","Sternburg Task.osexp","/Users/danieldalton","no","mono","no","18","no","white","no","yes","768","legacy","1","11","/Users/danieldalton/subject-3.csv","legacy","8 3","Jazzy James","3.1.9","2","y","0","left","left","left","NA","left","880","121289","23285","NA","880","2","legacy","2","1024","2","48000","-16","Sternburgtask","3","odd","3","235171","229185","236223","238459","178448","2224","205898","237241","123531","240474","2198","NA","236213","240474","241356","New experiment","11","19870","14","yes","1024"
"80","80","1383.8","1383.8","black","no","experiment","legacy","legacy","legacy","0","uniform","1","undefined","1","left","14","0","14","14","14","0","0","14","0","14","0","0","14","14","14","Thu Oct  4 21:47:53 2018","The main experiment item","yes","NA","Sternburg Task.osexp","/Users/danieldalton","no","mono","no","18","no","white","no","yes","768","legacy","2","11","/Users/danieldalton/subject-3.csv","legacy","6 2","Jazzy James","3.1.9","1","y","0","left","left","left","NA","left","887","121289","23285","NA","887","2","legacy","2","1024","2","48000","-16","Sternburgtask","3","odd","6","241371","229185","242423","244662","178448","2224","205898","243445","123531","246684","2198","NA","242411","246684","247573","New experiment","12","20757","15","yes","1024"
"81.25","81.25","1367.6875","1367.6875","black","no","experiment","legacy","legacy","legacy","0","uniform","1","undefined","1","right","15","0","15","15","15","0","0","15","0","15","0","0","15","15","15","Thu Oct  4 21:47:53 2018","The main experiment item","yes","NA","Sternburg Task.osexp","/Users/danieldalton","no","mono","no","18","no","white","no","yes","768","legacy","3","11","/Users/danieldalton/subject-3.csv","legacy","6 9 4 5 3 2","Jazzy James","3.1.9","0","n","0","right","left","left","NA","right","1126","121289","23285","NA","1126","2","legacy","6","1024","2","48000","-16","Sternburgtask","3","odd","8","247587","229185","248637","250872","178448","2224","205898","249654","123531","252884","2198","NA","248626","252884","254012","New experiment","13","21883","16","yes","1024"
"82.3529411765","82.3529411765","1379.35294118","1379.35294118","black","no","experiment","legacy","legacy","legacy","0","uniform","1","undefined","1","left","16","0","16","16","16","0","0","16","0","16","0","0","16","16","16","Thu Oct  4 21:47:53 2018","The main experiment item","yes","NA","Sternburg Task.osexp","/Users/danieldalton","no","mono","no","18","no","white","no","yes","768","legacy","4","11","/Users/danieldalton/subject-3.csv","legacy","5 2 6","Jazzy James","3.1.9","2","y","0","left","left","left","NA","left","1566","121289","23285","NA","1566","2","legacy","3","1024","2","48000","-16","Sternburgtask","3","odd","2","254026","229185","255084","257319","178448","2224","205898","256098","123531","259331","2198","NA","255072","259331","260899","New experiment","14","23449","17","yes","1024"
"83.3333333333","83.3333333333","1359.61111111","1359.61111111","black","no","experiment","legacy","legacy","legacy","0","uniform","1","undefined","1","left","17","0","17","17","17","0","0","17","0","17","0","0","17","17","17","Thu Oct  4 21:47:53 2018","The main experiment item","yes","NA","Sternburg Task.osexp","/Users/danieldalton","no","mono","no","18","no","white","no","yes","768","legacy","5","11","/Users/danieldalton/subject-3.csv","legacy","7","Jazzy James","3.1.9","1","y","0","left","left","left","NA","left","1024","121289","23285","NA","1024","2","legacy","1","1024","2","48000","-16","Sternburgtask","3","odd","7","260915","229185","261966","264204","178448","2224","205898","262987","123531","266218","2198","NA","261955","266218","267244","New experiment","15","24473","18","yes","1024"
"84.2105263158","84.2105263158","1365.63157895","1365.63157895","black","no","experiment","legacy","legacy","legacy","0","uniform","1","undefined","1","left","18","0","18","18","18","0","0","18","0","18","0","0","18","18","18","Thu Oct  4 21:47:53 2018","The main experiment item","yes","NA","Sternburg Task.osexp","/Users/danieldalton","no","mono","no","18","no","white","no","yes","768","legacy","6","11","/Users/danieldalton/subject-3.csv","legacy","2 4 8 5 1 3","Jazzy James","3.1.9","1","y","0","left","left","left","NA","left","1474","121289","23285","NA","1474","2","legacy","6","1024","2","48000","-16","Sternburgtask","3","odd","2","267258","229185","268311","270549","178448","2224","205898","269330","123531","272562","2198","NA","268300","272562","274038","New experiment","16","25947","19","yes","1024"
"85","85","1346.85","1346.85","black","no","experiment","legacy","legacy","legacy","0","uniform","1","undefined","1","left","19","0","19","19","19","0","0","19","0","19","0","0","19","19","19","Thu Oct  4 21:47:53 2018","The main experiment item","yes","NA","Sternburg Task.osexp","/Users/danieldalton","no","mono","no","18","no","white","no","yes","768","legacy","7","11","/Users/danieldalton/subject-3.csv","legacy","9 5 8 1","Jazzy James","3.1.9","2","y","0","left","left","left","NA","left","990","121289","23285","NA","990","2","legacy","4","1024","2","48000","-16","Sternburgtask","3","odd","5","274051","229185","275103","277336","178448","2224","205898","276118","123531","279348","2198","NA","275092","279348","280340","New experiment","17","26937","20","yes","1024"
"85.7142857143","85.7142857143","1343","1343","black","no","experiment","legacy","legacy","legacy","0","uniform","1","undefined","1","left","20","0","20","20","20","0","0","20","0","20","0","0","20","20","20","Thu Oct  4 21:47:53 2018","The main experiment item","yes","NA","Sternburg Task.osexp","/Users/danieldalton","no","mono","no","18","no","white","no","yes","768","legacy","8","11","/Users/danieldalton/subject-3.csv","legacy","4 7 6 8 2 3","Jazzy James","3.1.9","6","y","0","left","left","left","NA","left","1266","121289","23285","NA","1266","2","legacy","6","1024","2","48000","-16","Sternburgtask","3","odd","3","280354","229185","281407","283648","178448","2224","205898","282425","123531","285661","2198","NA","281396","285661","286929","New experiment","18","28203","21","yes","1024"
"86.3636363636","86.3636363636","1325.90909091","1325.90909091","black","no","experiment","legacy","legacy","legacy","0","uniform","1","undefined","1","right","21","0","21","21","21","0","0","21","0","21","0","0","21","21","21","Thu Oct  4 21:47:53 2018","The main experiment item","yes","NA","Sternburg Task.osexp","/Users/danieldalton","no","mono","no","18","no","white","no","yes","768","legacy","9","11","/Users/danieldalton/subject-3.csv","legacy","5","Jazzy James","3.1.9","0","n","0","right","left","left","NA","right","967","121289","23285","NA","967","2","legacy","1","1024","2","48000","-16","Sternburgtask","3","odd","8","286943","229185","287990","290222","178448","2224","205898","289006","123531","292242","2198","NA","287979","292242","293212","New experiment","19","29170","22","yes","1024"
"86.9565217391","86.9565217391","1324.56521739","1324.56521739","black","no","experiment","legacy","legacy","legacy","0","uniform","1","undefined","1","left","22","0","22","22","22","0","0","22","0","22","0","0","22","22","22","Thu Oct  4 21:47:53 2018","The main experiment item","yes","NA","Sternburg Task.osexp","/Users/danieldalton","no","mono","no","18","no","white","no","yes","768","legacy","10","11","/Users/danieldalton/subject-3.csv","legacy","9 5 3 8 4","Jazzy James","3.1.9","1","y","0","left","left","left","NA","left","1295","121289","23285","NA","1295","2","legacy","5","1024","2","48000","-16","Sternburgtask","3","odd","9","293226","229185","294277","296511","178448","2224","205898","295293","123531","298524","2198","NA","294266","298525","299823","New experiment","20","30465","23","yes","1024"
"87.5","87.5","1315.41666667","1315.41666667","black","no","experiment","legacy","legacy","legacy","0","uniform","1","undefined","1","left","23","0","23","23","23","0","0","23","0","23","0","0","23","23","23","Thu Oct  4 21:47:53 2018","The main experiment item","yes","NA","Sternburg Task.osexp","/Users/danieldalton","no","mono","no","18","no","white","no","yes","768","legacy","11","11","/Users/danieldalton/subject-3.csv","legacy","6 7 9 3 1 2","Jazzy James","3.1.9","1","y","0","left","left","left","NA","left","1105","121289","23285","NA","1105","2","legacy","6","1024","2","48000","-16","Sternburgtask","3","odd","6","299837","229185","300890","303124","178448","2224","205898","301904","123531","305139","2198","NA","300879","305139","306246","New experiment","21","31570","24","yes","1024"
"88","88","1307.6","1307.6","black","no","experiment","legacy","legacy","legacy","0","uniform","1","undefined","1","left","24","0","24","24","24","0","0","24","0","24","0","0","24","24","24","Thu Oct  4 21:47:53 2018","The main experiment item","yes","NA","Sternburg Task.osexp","/Users/danieldalton","no","mono","no","18","no","white","no","yes","768","legacy","12","11","/Users/danieldalton/subject-3.csv","legacy","5 7 3 6 2","Jazzy James","3.1.9","5","y","0","left","left","left","NA","left","1120","121289","23285","NA","1120","2","legacy","5","1024","2","48000","-16","Sternburgtask","3","odd","2","306261","229185","307312","309551","178448","2224","205898","308334","123531","311567","2198","NA","307301","311567","312689","New experiment","22","32690","25","yes","1024"
"88.4615384615","88.4615384615","1297.57692308","1297.57692308","black","no","experiment","legacy","legacy","legacy","0","uniform","1","undefined","1","right","25","0","25","25","25","0","0","25","0","25","0","0","25","25","25","Thu Oct  4 21:47:53 2018","The main experiment item","yes","NA","Sternburg Task.osexp","/Users/danieldalton","no","mono","no","18","no","white","no","yes","768","legacy","13","11","/Users/danieldalton/subject-3.csv","legacy","4 8 1 2","Jazzy James","3.1.9","0","n","0","right","left","left","NA","right","1047","121289","23285","NA","1047","2","legacy","4","1024","2","48000","-16","Sternburgtask","3","odd","7","312703","229185","313754","315984","178448","2224","205898","314768","123531","317996","2198","NA","313743","317996","319045","New experiment","23","33737","26","yes","1024"
"88.8888888889","88.8888888889","1288.81481481","1288.81481481","black","no","experiment","legacy","legacy","legacy","0","uniform","1","undefined","1","left","26","0","26","26","26","0","0","26","0","26","0","0","26","26","26","Thu Oct  4 21:47:53 2018","The main experiment item","yes","NA","Sternburg Task.osexp","/Users/danieldalton","no","mono","no","18","no","white","no","yes","768","legacy","14","11","/Users/danieldalton/subject-3.csv","legacy","4 9 7 8 5 3","Jazzy James","3.1.9","4","y","0","left","left","left","NA","left","1061","121289","23285","NA","1061","2","legacy","6","1024","2","48000","-16","Sternburgtask","3","odd","8","319059","229185","320112","322343","178448","2224","205898","321127","123531","324361","2198","NA","320101","324361","325424","New experiment","24","34798","27","yes","1024"
"89.2857142857","89.2857142857","1272","1272","black","no","experiment","legacy","legacy","legacy","0","uniform","1","undefined","1","left","27","0","27","27","27","0","0","27","0","27","0","0","27","27","27","Thu Oct  4 21:47:53 2018","The main experiment item","yes","NA","Sternburg Task.osexp","/Users/danieldalton","no","mono","no","18","no","white","no","yes","768","legacy","15","11","/Users/danieldalton/subject-3.csv","legacy","2 3","Jazzy James","3.1.9","1","y","0","left","left","left","NA","left","818","121289","23285","NA","818","2","legacy","2","1024","2","48000","-16","Sternburgtask","3","odd","2","325438","229185","326502","328733","178448","2224","205898","327517","123531","330746","2198","NA","326491","330746","331565","New experiment","25","35616","28","yes","1024"
"89.6551724138","89.6551724138","1263.03448276","1263.03448276","black","no","experiment","legacy","legacy","legacy","0","uniform","1","undefined","1","left","28","0","28","28","28","0","0","28","0","28","0","0","28","28","28","Thu Oct  4 21:47:53 2018","The main experiment item","yes","NA","Sternburg Task.osexp","/Users/danieldalton","no","mono","no","18","no","white","no","yes","768","legacy","16","11","/Users/danieldalton/subject-3.csv","legacy","8 9 6 1","Jazzy James","3.1.9","2","y","0","left","left","left","NA","left","1012","121289","23285","NA","1012","2","legacy","4","1024","2","48000","-16","Sternburgtask","3","odd","9","331581","229185","332632","334862","178448","2224","205898","333646","123531","336875","2198","NA","332621","336875","337889","New experiment","26","36628","29","yes","1024"
"90","90","1256.5","1256.5","black","no","experiment","legacy","legacy","legacy","0","uniform","1","undefined","1","right","29","0","29","29","29","0","0","29","0","29","0","0","29","29","29","Thu Oct  4 21:47:53 2018","The main experiment item","yes","NA","Sternburg Task.osexp","/Users/danieldalton","no","mono","no","18","no","white","no","yes","768","legacy","17","11","/Users/danieldalton/subject-3.csv","legacy","8 4 3 9","Jazzy James","3.1.9","0","n","0","right","left","left","NA","right","1067","121289","23285","NA","1067","2","legacy","4","1024","2","48000","-16","Sternburgtask","3","odd","5","337901","229185","338951","341186","178448","2224","205898","339969","123531","343200","2198","NA","338941","343200","344269","New experiment","27","37695","30","yes","1024"
"90.3225806452","90.3225806452","1252.61290323","1252.61290323","black","no","experiment","legacy","legacy","legacy","0","uniform","1","undefined","1","left","30","0","30","30","30","0","0","30","0","30","0","0","30","30","30","Thu Oct  4 21:47:53 2018","The main experiment item","yes","NA","Sternburg Task.osexp","/Users/danieldalton","no","mono","no","18","no","white","no","yes","768","legacy","18","11","/Users/danieldalton/subject-3.csv","legacy","6 5","Jazzy James","3.1.9","2","y","0","left","left","left","NA","left","1136","121289","23285","NA","1136","2","legacy","2","1024","2","48000","-16","Sternburgtask","3","odd","5","344283","229185","345334","347569","178448","2224","205898","346348","123531","349584","2198","NA","345323","349584","350722","New experiment","28","38831","31","yes","1024"
"90.625","90.625","1247.78125","1247.78125","black","no","experiment","legacy","legacy","legacy","0","uniform","1","undefined","1","left","31","0","31","31","31","0","0","31","0","31","0","0","31","31","31","Thu Oct  4 21:47:53 2018","The main experiment item","yes","NA","Sternburg Task.osexp","/Users/danieldalton","no","mono","no","18","no","white","no","yes","768","legacy","19","11","/Users/danieldalton/subject-3.csv","legacy","2 4 6 9","Jazzy James","3.1.9","3","y","0","left","left","left","NA","left","1098","121289","23285","NA","1098","2","legacy","4","1024","2","48000","-16","Sternburgtask","3","odd","6","350735","229185","351787","354017","178448","2224","205898","352801","123531","356032","2198","NA","351776","356032","357132","New experiment","29","39929","32","yes","1024"
"90.9090909091","90.9090909091","1242","1242","black","no","experiment","legacy","legacy","legacy","0","uniform","1","undefined","1","right","32","0","32","32","32","0","0","32","0","32","0","0","32","32","32","Thu Oct  4 21:47:53 2018","The main experiment item","yes","NA","Sternburg Task.osexp","/Users/danieldalton","no","mono","no","18","no","white","no","yes","768","legacy","20","11","/Users/danieldalton/subject-3.csv","legacy","2 8 9","Jazzy James","3.1.9","0","n","0","right","left","left","NA","right","1057","121289","23285","NA","1057","2","legacy","3","1024","2","48000","-16","Sternburgtask","3","odd","6","357145","229185","358197","360435","178448","2224","205898","359212","123531","362449","2198","NA","358186","362449","363509","New experiment","30","40986","33","yes","1024"
"91.1764705882","91.1764705882","1251.23529412","1251.23529412","black","no","experiment","legacy","legacy","legacy","0","uniform","1","undefined","1","left","33","0","33","33","33","0","0","33","0","33","0","0","33","33","33","Thu Oct  4 21:47:53 2018","The main experiment item","yes","NA","Sternburg Task.osexp","/Users/danieldalton","no","mono","no","18","no","white","no","yes","768","legacy","21","11","/Users/danieldalton/subject-3.csv","legacy","7 1 3","Jazzy James","3.1.9","2","y","0","left","left","left","NA","left","1556","121289","23285","NA","1556","2","legacy","3","1024","2","48000","-16","Sternburgtask","3","odd","1","363524","229185","364574","366808","178448","2224","205898","365592","123531","368822","2198","NA","364563","368823","370381","New experiment","31","42542","34","yes","1024"
"91.4285714286","91.4285714286","1244.45714286","1244.45714286","black","no","experiment","legacy","legacy","legacy","0","uniform","1","undefined","1","right","34","0","34","34","34","0","0","34","0","34","0","0","34","34","34","Thu Oct  4 21:47:53 2018","The main experiment item","yes","NA","Sternburg Task.osexp","/Users/danieldalton","no","mono","no","18","no","white","no","yes","768","legacy","22","11","/Users/danieldalton/subject-3.csv","legacy","8 9","Jazzy James","3.1.9","0","n","0","right","left","left","NA","right","1014","121289","23285","NA","1014","2","legacy","2","1024","2","48000","-16","Sternburgtask","3","odd","5","370395","229185","371451","373684","178448","2224","205898","372467","123531","375697","2198","NA","371440","375697","376714","New experiment","32","43556","35","yes","1024"
"91.6666666667","91.6666666667","1257.61111111","1257.61111111","black","no","experiment","legacy","legacy","legacy","0","uniform","1","undefined","1","right","35","0","35","35","35","0","0","35","0","35","0","0","35","35","35","Thu Oct  4 21:47:53 2018","The main experiment item","yes","NA","Sternburg Task.osexp","/Users/danieldalton","no","mono","no","18","no","white","no","yes","768","legacy","23","11","/Users/danieldalton/subject-3.csv","legacy","8 5 4 2 9 6","Jazzy James","3.1.9","0","n","0","right","left","left","NA","right","1718","121289","23285","NA","1718","2","legacy","6","1024","2","48000","-16","Sternburgtask","3","odd","3","376727","229185","377778","380013","178448","2224","205898","378793","123531","382027","2198","NA","377767","382027","383747","New experiment","33","45274","36","yes","1024"
"91.8918918919","91.8918918919","1256.45945946","1256.45945946","black","no","experiment","legacy","legacy","legacy","0","uniform","1","undefined","1","left","36","0","36","36","36","0","0","36","0","36","0","0","36","36","36","Thu Oct  4 21:47:53 2018","The main experiment item","yes","NA","Sternburg Task.osexp","/Users/danieldalton","no","mono","no","18","no","white","no","yes","768","legacy","24","11","/Users/danieldalton/subject-3.csv","legacy","7 8 6 3 1","Jazzy James","3.1.9","5","y","0","left","left","left","NA","left","1215","121289","23285","NA","1215","2","legacy","5","1024","2","48000","-16","Sternburgtask","3","odd","1","383764","229185","384818","387050","178448","2224","205898","385833","123531","389061","2198","NA","384807","389061","390279","New experiment","34","46489","37","yes","1024"
"92.1052631579","92.1052631579","1260.13157895","1260.13157895","black","no","experiment","legacy","legacy","legacy","0","uniform","1","undefined","1","right","37","0","37","37","37","0","0","37","0","37","0","0","37","37","37","Thu Oct  4 21:47:53 2018","The main experiment item","yes","NA","Sternburg Task.osexp","/Users/danieldalton","no","mono","no","18","no","white","no","yes","768","legacy","25","11","/Users/danieldalton/subject-3.csv","legacy","9 8 2 7 4","Jazzy James","3.1.9","0","n","0","right","left","left","NA","right","1396","121289","23285","NA","1396","2","legacy","5","1024","2","48000","-16","Sternburgtask","3","odd","5","390293","229185","391346","393583","178448","2224","205898","392364","123531","395595","2198","NA","391335","395595","396994","New experiment","35","47885","38","yes","1024"
"92.3076923077","92.3076923077","1257.43589744","1257.43589744","black","no","experiment","legacy","legacy","legacy","0","uniform","1","undefined","1","right","38","0","38","38","38","0","0","38","0","38","0","0","38","38","38","Thu Oct  4 21:47:53 2018","The main experiment item","yes","NA","Sternburg Task.osexp","/Users/danieldalton","no","mono","no","18","no","white","no","yes","768","legacy","26","11","/Users/danieldalton/subject-3.csv","legacy","1 5 3 2 8","Jazzy James","3.1.9","0","n","0","right","left","left","NA","right","1155","121289","23285","NA","1155","2","legacy","5","1024","2","48000","-16","Sternburgtask","3","odd","4","397006","229185","398058","400294","178448","2224","205898","399072","123531","402307","2198","NA","398046","402307","403465","New experiment","36","49040","39","yes","1024"
"92.5","92.5","1261.625","1261.625","black","no","experiment","legacy","legacy","legacy","0","uniform","1","undefined","1","right","39","0","39","39","39","0","0","39","0","39","0","0","39","39","39","Thu Oct  4 21:47:53 2018","The main experiment item","yes","NA","Sternburg Task.osexp","/Users/danieldalton","no","mono","no","18","no","white","no","yes","768","legacy","27","11","/Users/danieldalton/subject-3.csv","legacy","1 3 2 6 9","Jazzy James","3.1.9","0","n","0","right","left","left","NA","right","1425","121289","23285","NA","1425","2","legacy","5","1024","2","48000","-16","Sternburgtask","3","odd","5","403479","229185","404532","406769","178448","2224","205898","405552","123531","408782","2198","NA","404522","408782","410209","New experiment","37","50465","40","yes","1024"
"92.6829268293","92.6829268293","1261.6097561","1261.6097561","black","no","experiment","legacy","legacy","legacy","0","uniform","1","undefined","1","right","40","0","40","40","40","0","0","40","0","40","0","0","40","40","40","Thu Oct  4 21:47:53 2018","The main experiment item","yes","NA","Sternburg Task.osexp","/Users/danieldalton","no","mono","no","18","no","white","no","yes","768","legacy","28","11","/Users/danieldalton/subject-3.csv","legacy","1 4 9 2 5","Jazzy James","3.1.9","0","n","0","right","left","left","NA","right","1261","121289","23285","NA","1261","2","legacy","5","1024","2","48000","-16","Sternburgtask","3","odd","7","410224","229185","411288","413518","178448","2224","205898","412301","123531","415532","2198","NA","411277","415532","416795","New experiment","38","51726","41","yes","1024"
"92.8571428571","92.8571428571","1258.04761905","1258.04761905","black","no","experiment","legacy","legacy","legacy","0","uniform","1","undefined","1","left","41","0","41","41","41","0","0","41","0","41","0","0","41","41","41","Thu Oct  4 21:47:53 2018","The main experiment item","yes","NA","Sternburg Task.osexp","/Users/danieldalton","no","mono","no","18","no","white","no","yes","768","legacy","29","11","/Users/danieldalton/subject-3.csv","legacy","3 4","Jazzy James","3.1.9","1","y","0","left","left","left","NA","left","1112","121289","23285","NA","1112","2","legacy","2","1024","2","48000","-16","Sternburgtask","3","odd","3","416810","229185","417861","420096","178448","2224","205898","418875","123531","422112","2198","NA","417850","422112","423227","New experiment","39","52838","42","yes","1024"
"93.023255814","93.023255814","1259.02325581","1259.02325581","black","no","experiment","legacy","legacy","legacy","0","uniform","1","undefined","1","right","42","0","42","42","42","0","0","42","0","42","0","0","42","42","42","Thu Oct  4 21:47:53 2018","The main experiment item","yes","NA","Sternburg Task.osexp","/Users/danieldalton","no","mono","no","18","no","white","no","yes","768","legacy","30","11","/Users/danieldalton/subject-3.csv","legacy","7 8 6 1","Jazzy James","3.1.9","0","n","0","right","left","left","NA","right","1300","121289","23285","NA","1300","2","legacy","4","1024","2","48000","-16","Sternburgtask","3","odd","3","423241","229185","424293","426525","178448","2224","205898","425308","123531","428536","2198","NA","424282","428536","429838","New experiment","40","54138","43","yes","1024"
"93.1818181818","93.1818181818","1259.38636364","1259.38636364","black","no","experiment","legacy","legacy","legacy","0","uniform","1","undefined","1","left","43","0","43","43","43","0","0","43","0","43","0","0","43","43","43","Thu Oct  4 21:47:53 2018","The main experiment item","yes","NA","Sternburg Task.osexp","/Users/danieldalton","no","mono","no","18","no","white","no","yes","768","legacy","31","11","/Users/danieldalton/subject-3.csv","legacy","6 8 9 3 4 9","Jazzy James","3.1.9","5","y","0","left","left","left","NA","left","1275","121289","23285","NA","1275","2","legacy","6","1024","2","48000","-16","Sternburgtask","3","odd","4","429853","229185","430906","433138","178448","2224","205898","431922","123531","435157","2198","NA","430894","435158","436435","New experiment","41","55413","44","yes","1024"
"93.3333333333","93.3333333333","1261.86666667","1261.86666667","black","no","experiment","legacy","legacy","legacy","0","uniform","1","undefined","1","left","44","0","44","44","44","0","0","44","0","44","0","0","44","44","44","Thu Oct  4 21:47:53 2018","The main experiment item","yes","NA","Sternburg Task.osexp","/Users/danieldalton","no","mono","no","18","no","white","no","yes","768","legacy","32","11","/Users/danieldalton/subject-3.csv","legacy","9 1 7 2","Jazzy James","3.1.9","2","y","0","left","left","left","NA","left","1371","121289","23285","NA","1371","2","legacy","4","1024","2","48000","-16","Sternburgtask","3","odd","1","436449","229185","437500","439733","178448","2224","205898","438515","123531","441746","2198","NA","437489","441747","443120","New experiment","42","56784","45","yes","1024"
"93.4782608696","93.4782608696","1255.95652174","1255.95652174","black","no","experiment","legacy","legacy","legacy","0","uniform","1","undefined","1","right","45","0","45","45","45","0","0","45","0","45","0","0","45","45","45","Thu Oct  4 21:47:53 2018","The main experiment item","yes","NA","Sternburg Task.osexp","/Users/danieldalton","no","mono","no","18","no","white","no","yes","768","legacy","33","11","/Users/danieldalton/subject-3.csv","legacy","3 9 8 1 6 4","Jazzy James","3.1.9","0","n","0","right","left","left","NA","right","990","121289","23285","NA","990","2","legacy","6","1024","2","48000","-16","Sternburgtask","3","odd","7","443135","229185","444186","446422","178448","2224","205898","445204","123531","448435","2198","NA","444175","448435","449428","New experiment","43","57774","46","yes","1024"
"93.6170212766","93.6170212766","1254.5106383","1254.5106383","black","no","experiment","legacy","legacy","legacy","0","uniform","1","undefined","1","right","46","0","46","46","46","0","0","46","0","46","0","0","46","46","46","Thu Oct  4 21:47:53 2018","The main experiment item","yes","NA","Sternburg Task.osexp","/Users/danieldalton","no","mono","no","18","no","white","no","yes","768","legacy","34","11","/Users/danieldalton/subject-3.csv","legacy","6 8","Jazzy James","3.1.9","0","n","0","right","left","left","NA","right","1188","121289","23285","NA","1188","2","legacy","2","1024","2","48000","-16","Sternburgtask","3","odd","9","449442","229185","450498","452730","178448","2224","205898","451512","123531","454743","2198","NA","450487","454743","455933","New experiment","44","58962","47","yes","1024"
"93.75","93.75","1257.5625","1257.5625","black","no","experiment","legacy","legacy","legacy","0","uniform","1","undefined","1","left","47","0","47","47","47","0","0","47","0","47","0","0","47","47","47","Thu Oct  4 21:47:53 2018","The main experiment item","yes","NA","Sternburg Task.osexp","/Users/danieldalton","no","mono","no","18","no","white","no","yes","768","legacy","35","11","/Users/danieldalton/subject-3.csv","legacy","5 7 8 2 3 8","Jazzy James","3.1.9","5","y","0","left","left","left","NA","left","1401","121289","23285","NA","1401","2","legacy","6","1024","2","48000","-16","Sternburgtask","3","odd","3","455946","229185","457001","459236","178448","2224","205898","458018","123531","461249","2198","NA","456991","461249","462652","New experiment","45","60363","48","yes","1024"
"93.8775510204","93.8775510204","1252.95918367","1252.95918367","black","no","experiment","legacy","legacy","legacy","0","uniform","1","undefined","1","right","48","0","48","48","48","0","0","48","0","48","0","0","48","48","48","Thu Oct  4 21:47:53 2018","The main experiment item","yes","NA","Sternburg Task.osexp","/Users/danieldalton","no","mono","no","18","no","white","no","yes","768","legacy","36","11","/Users/danieldalton/subject-3.csv","legacy","6 9 5","Jazzy James","3.1.9","0","n","0","right","left","left","NA","right","1032","121289","23285","NA","1032","2","legacy","3","1024","2","48000","-16","Sternburgtask","3","odd","8","462665","229185","463716","465950","178448","2224","205898","464732","123531","467962","2198","NA","463705","467963","468997","New experiment","46","61395","49","yes","1024"
"94","94","1250.3","1250.3","black","no","experiment","legacy","legacy","legacy","0","uniform","1","undefined","1","left","49","0","49","49","49","0","0","49","0","49","0","0","49","49","49","Thu Oct  4 21:47:53 2018","The main experiment item","yes","NA","Sternburg Task.osexp","/Users/danieldalton","no","mono","no","18","no","white","no","yes","768","legacy","37","11","/Users/danieldalton/subject-3.csv","legacy","8 7 3","Jazzy James","3.1.9","1","y","0","left","left","left","NA","left","1120","121289","23285","NA","1120","2","legacy","3","1024","2","48000","-16","Sternburgtask","3","odd","8","469010","229185","470061","472292","178448","2224","205898","471077","123531","474309","2198","NA","470050","474309","475432","New experiment","47","62515","50","yes","1024"
"94.1176470588","94.1176470588","1246.1372549","1246.1372549","black","no","experiment","legacy","legacy","legacy","0","uniform","1","undefined","1","right","50","0","50","50","50","0","0","50","0","50","0","0","50","50","50","Thu Oct  4 21:47:53 2018","The main experiment item","yes","NA","Sternburg Task.osexp","/Users/danieldalton","no","mono","no","18","no","white","no","yes","768","legacy","38","11","/Users/danieldalton/subject-3.csv","legacy","7 1","Jazzy James","3.1.9","0","n","0","right","left","left","NA","right","1038","121289","23285","NA","1038","2","legacy","2","1024","2","48000","-16","Sternburgtask","3","odd","8","475445","229185","476497","478732","178448","2224","205898","477514","123531","480745","2198","NA","476486","480745","481786","New experiment","48","63553","51","yes","1024"
"94.2307692308","94.2307692308","1247.25","1247.25","black","no","experiment","legacy","legacy","legacy","0","uniform","1","undefined","1","left","51","0","51","51","51","0","0","51","0","51","0","0","51","51","51","Thu Oct  4 21:47:53 2018","The main experiment item","yes","NA","Sternburg Task.osexp","/Users/danieldalton","no","mono","no","18","no","white","no","yes","768","legacy","39","11","/Users/danieldalton/subject-3.csv","legacy","6 9 7 4 5 1","Jazzy James","3.1.9","2","y","0","left","left","left","NA","left","1304","121289","23285","NA","1304","2","legacy","6","1024","2","48000","-16","Sternburgtask","3","odd","9","481799","229185","482850","485083","178448","2224","205898","483866","123531","487096","2198","NA","482839","487096","488403","New experiment","49","64857","52","yes","1024"
"94.3396226415","94.3396226415","1239.73584906","1239.73584906","black","no","experiment","legacy","legacy","legacy","0","uniform","1","undefined","1","right","52","0","52","52","52","0","0","52","0","52","0","0","52","52","52","Thu Oct  4 21:47:53 2018","The main experiment item","yes","NA","Sternburg Task.osexp","/Users/danieldalton","no","mono","no","18","no","white","no","yes","768","legacy","40","11","/Users/danieldalton/subject-3.csv","legacy","1 4 9 3","Jazzy James","3.1.9","0","n","0","right","left","left","NA","right","849","121289","23285","NA","849","2","legacy","4","1024","2","48000","-16","Sternburgtask","3","odd","5","488416","229185","489483","491713","178448","2224","205898","490497","123531","493726","2198","NA","489469","493726","494578","New experiment","50","65706","53","yes","1024"
"94.4444444444","94.4444444444","1236.31481481","1236.31481481","black","no","experiment","legacy","legacy","legacy","0","uniform","1","undefined","1","right","53","0","53","53","53","0","0","53","0","53","0","0","53","53","53","Thu Oct  4 21:47:53 2018","The main experiment item","yes","NA","Sternburg Task.osexp","/Users/danieldalton","no","mono","no","18","no","white","no","yes","768","legacy","41","11","/Users/danieldalton/subject-3.csv","legacy","1 6 4","Jazzy James","3.1.9","0","n","0","right","left","left","NA","right","1055","121289","23285","NA","1055","2","legacy","3","1024","2","48000","-16","Sternburgtask","3","odd","7","494594","229185","495644","497878","178448","2224","205898","496661","123531","499892","2198","NA","495633","499892","500949","New experiment","51","66761","54","yes","1024"
"94.5454545455","94.5454545455","1237.18181818","1237.18181818","black","no","experiment","legacy","legacy","legacy","0","uniform","1","undefined","1","right","54","0","54","54","54","0","0","54","0","54","0","0","54","54","54","Thu Oct  4 21:47:53 2018","The main experiment item","yes","NA","Sternburg Task.osexp","/Users/danieldalton","no","mono","no","18","no","white","no","yes","768","legacy","42","11","/Users/danieldalton/subject-3.csv","legacy","7 4 2 8 1 9","Jazzy James","3.1.9","0","n","0","right","left","left","NA","right","1284","121289","23285","NA","1284","2","legacy","6","1024","2","48000","-16","Sternburgtask","3","odd","5","500963","229185","502014","504248","178448","2224","205898","503028","123531","506262","2198","NA","502003","506262","507548","New experiment","52","68045","55","yes","1024"
"94.6428571429","94.6428571429","1237.69642857","1237.69642857","black","no","experiment","legacy","legacy","legacy","0","uniform","1","undefined","1","left","55","0","55","55","55","0","0","55","0","55","0","0","55","55","55","Thu Oct  4 21:47:53 2018","The main experiment item","yes","NA","Sternburg Task.osexp","/Users/danieldalton","no","mono","no","18","no","white","no","yes","768","legacy","43","11","/Users/danieldalton/subject-3.csv","legacy","2 3 7 4","Jazzy James","3.1.9","1","y","0","left","left","left","NA","left","1266","121289","23285","NA","1266","2","legacy","4","1024","2","48000","-16","Sternburgtask","3","odd","2","507562","229185","508611","510845","178448","2224","205898","509628","123531","512858","2198","NA","508600","512858","514127","New experiment","53","69311","56","yes","1024"
"94.7368421053","94.7368421053","1229.1754386","1229.1754386","black","no","experiment","legacy","legacy","legacy","0","uniform","1","undefined","1","right","56","0","56","56","56","0","0","56","0","56","0","0","56","56","56","Thu Oct  4 21:47:53 2018","The main experiment item","yes","NA","Sternburg Task.osexp","/Users/danieldalton","no","mono","no","18","no","white","no","yes","768","legacy","44","11","/Users/danieldalton/subject-3.csv","legacy","1","Jazzy James","3.1.9","0","n","0","right","left","left","NA","right","752","121289","23285","NA","752","2","legacy","1","1024","2","48000","-16","Sternburgtask","3","odd","7","514141","229185","515189","517420","178448","2224","205898","516203","123531","519435","2198","NA","515178","519435","520189","New experiment","54","70063","57","yes","1024"
"94.8275862069","94.8275862069","1227.24137931","1227.24137931","black","no","experiment","legacy","legacy","legacy","0","uniform","1","undefined","1","right","57","0","57","57","57","0","0","57","0","57","0","0","57","57","57","Thu Oct  4 21:47:53 2018","The main experiment item","yes","NA","Sternburg Task.osexp","/Users/danieldalton","no","mono","no","18","no","white","no","yes","768","legacy","45","11","/Users/danieldalton/subject-3.csv","legacy","7 9","Jazzy James","3.1.9","0","n","0","right","left","left","NA","right","1117","121289","23285","NA","1117","2","legacy","2","1024","2","48000","-16","Sternburgtask","3","odd","1","520204","229185","521256","523487","178448","2224","205898","522270","123531","525503","2198","NA","521245","525503","526622","New experiment","55","71180","58","yes","1024"
"93.2203389831","93.2203389831","1228.98305085","1228.98305085","black","no","experiment","legacy","legacy","legacy","0","uniform","0","undefined","0","right","58","0","58","58","58","0","0","58","0","58","0","0","58","58","58","Thu Oct  4 21:47:53 2018","The main experiment item","yes","NA","Sternburg Task.osexp","/Users/danieldalton","no","mono","no","18","no","white","no","yes","768","legacy","46","11","/Users/danieldalton/subject-3.csv","legacy","6 9 4 5 2","Jazzy James","3.1.9","0","n","0","left","left","left","NA","left","1330","121289","23285","NA","1330","2","legacy","5","1024","2","48000","-16","Sternburgtask","3","odd","1","526636","229185","527689","529920","178448","2224","205898","528704","123531","531940","2198","NA","527678","531940","533272","New experiment","55","72510","59","yes","1024"
"93.3333333333","93.3333333333","1236.71666667","1236.71666667","black","no","experiment","legacy","legacy","legacy","0","uniform","1","undefined","1","right","59","0","59","59","59","0","0","59","0","59","0","0","59","59","59","Thu Oct  4 21:47:53 2018","The main experiment item","yes","NA","Sternburg Task.osexp","/Users/danieldalton","no","mono","no","18","no","white","no","yes","768","legacy","47","11","/Users/danieldalton/subject-3.csv","legacy","9 5 3 2 8 6","Jazzy James","3.1.9","0","n","0","right","left","left","NA","right","1693","121289","23285","NA","1693","2","legacy","6","1024","2","48000","-16","Sternburgtask","3","odd","7","526636","229185","534337","536575","533286","2224","205898","535354","123531","538588","2198","NA","534326","538588","540285","New experiment","56","74203","60","yes","1024"
"93.4426229508","93.4426229508","1237.81967213","1237.81967213","black","no","experiment","legacy","legacy","legacy","0","uniform","1","undefined","1","right","60","0","60","60","60","0","0","60","0","60","0","0","60","60","60","Thu Oct  4 21:47:53 2018","The main experiment item","yes","NA","Sternburg Task.osexp","/Users/danieldalton","no","mono","no","18","no","white","no","yes","768","legacy","48","11","/Users/danieldalton/subject-3.csv","legacy","1 7 5 2 9","Jazzy James","3.1.9","0","n","0","right","left","left","NA","right","1304","121289","23285","NA","1304","2","legacy","5","1024","2","48000","-16","Sternburgtask","3","odd","3","540299","229185","541350","543589","533286","2224","205898","542371","123531","545601","2198","NA","541339","545601","546908","New experiment","57","75507","61","yes","1024"
"93.5483870968","93.5483870968","1236.30645161","1236.30645161","black","no","experiment","legacy","legacy","legacy","0","uniform","1","undefined","1","left","61","0","61","61","61","0","0","61","0","61","0","0","61","61","61","Thu Oct  4 21:47:53 2018","The main experiment item","yes","NA","Sternburg Task.osexp","/Users/danieldalton","no","mono","no","18","no","white","no","yes","768","legacy","49","11","/Users/danieldalton/subject-3.csv","legacy","9 6 2 4 1","Jazzy James","3.1.9","4","y","0","left","left","left","NA","left","1144","121289","23285","NA","1144","2","legacy","5","1024","2","48000","-16","Sternburgtask","3","odd","4","546921","229185","547972","550209","533286","2224","205898","548987","123531","552225","2198","NA","547961","552225","553372","New experiment","58","76651","62","yes","1024"
"93.6507936508","93.6507936508","1239.3968254","1239.3968254","black","no","experiment","legacy","legacy","legacy","0","uniform","1","undefined","1","left","62","0","62","62","62","0","0","62","0","62","0","0","62","62","62","Thu Oct  4 21:47:53 2018","The main experiment item","yes","NA","Sternburg Task.osexp","/Users/danieldalton","no","mono","no","18","no","white","no","yes","768","legacy","50","11","/Users/danieldalton/subject-3.csv","legacy","8 5 4 7 3 1","Jazzy James","3.1.9","2","y","0","left","left","left","NA","left","1431","121289","23285","NA","1431","2","legacy","6","1024","2","48000","-16","Sternburgtask","3","odd","5","553386","229185","554436","556670","533286","2224","205898","555452","123531","558685","2198","NA","554426","558685","560120","New experiment","59","78082","63","yes","1024"
"93.75","93.75","1238.296875","1238.296875","black","no","experiment","legacy","legacy","legacy","0","uniform","1","undefined","1","right","63","0","63","63","63","0","0","63","0","63","0","0","63","63","63","Thu Oct  4 21:47:53 2018","The main experiment item","yes","NA","Sternburg Task.osexp","/Users/danieldalton","no","mono","no","18","no","white","no","yes","768","legacy","51","11","/Users/danieldalton/subject-3.csv","legacy","6 9 7 3 8 2","Jazzy James","3.1.9","0","n","0","right","left","left","NA","right","1169","121289","23285","NA","1169","2","legacy","6","1024","2","48000","-16","Sternburgtask","3","odd","5","560133","229185","561186","563418","533286","2224","205898","562202","123531","565430","2198","NA","561175","565430","566601","New experiment","60","79251","64","yes","1024"
"93.8461538462","93.8461538462","1237.18461538","1237.18461538","black","no","experiment","legacy","legacy","legacy","0","uniform","1","undefined","1","left","64","0","64","64","64","0","0","64","0","64","0","0","64","64","64","Thu Oct  4 21:47:53 2018","The main experiment item","yes","NA","Sternburg Task.osexp","/Users/danieldalton","no","mono","no","18","no","white","no","yes","768","legacy","52","11","/Users/danieldalton/subject-3.csv","legacy","3 2 1 4 7","Jazzy James","3.1.9","2","y","0","left","left","left","NA","left","1166","121289","23285","NA","1166","2","legacy","5","1024","2","48000","-16","Sternburgtask","3","odd","2","566615","229185","567669","569903","533286","2224","205898","568687","123531","571916","2198","NA","567658","571916","573085","New experiment","61","80417","65","yes","1024"
"93.9393939394","93.9393939394","1234","1234","black","no","experiment","legacy","legacy","legacy","0","uniform","1","undefined","1","right","65","0","65","65","65","0","0","65","0","65","0","0","65","65","65","Thu Oct  4 21:47:53 2018","The main experiment item","yes","NA","Sternburg Task.osexp","/Users/danieldalton","no","mono","no","18","no","white","no","yes","768","legacy","53","11","/Users/danieldalton/subject-3.csv","legacy","3 9 1","Jazzy James","3.1.9","0","n","0","right","left","left","NA","right","1027","121289","23285","NA","1027","2","legacy","3","1024","2","48000","-16","Sternburgtask","3","odd","7","573099","229185","574149","576385","533286","2224","205898","575166","123531","578398","2198","NA","574138","578398","579429","New experiment","62","81444","66","yes","1024"
"94.0298507463","94.0298507463","1230.71641791","1230.71641791","black","no","experiment","legacy","legacy","legacy","0","uniform","1","undefined","1","right","66","0","66","66","66","0","0","66","0","66","0","0","66","66","66","Thu Oct  4 21:47:53 2018","The main experiment item","yes","NA","Sternburg Task.osexp","/Users/danieldalton","no","mono","no","18","no","white","no","yes","768","legacy","54","11","/Users/danieldalton/subject-3.csv","legacy","4 2 6 9","Jazzy James","3.1.9","0","n","0","right","left","left","NA","right","1014","121289","23285","NA","1014","2","legacy","4","1024","2","48000","-16","Sternburgtask","3","odd","7","579443","229185","580498","582736","533286","2224","205898","581520","123531","584754","2198","NA","580487","584754","585770","New experiment","63","82458","67","yes","1024"
"94.1176470588","94.1176470588","1235.08823529","1235.08823529","black","no","experiment","legacy","legacy","legacy","0","uniform","1","undefined","1","left","67","0","67","67","67","0","0","67","0","67","0","0","67","67","67","Thu Oct  4 21:47:53 2018","The main experiment item","yes","NA","Sternburg Task.osexp","/Users/danieldalton","no","mono","no","18","no","white","no","yes","768","legacy","55","11","/Users/danieldalton/subject-3.csv","legacy","7 4 2 6 3 5","Jazzy James","3.1.9","6","y","0","left","left","left","NA","left","1528","121289","23285","NA","1528","2","legacy","6","1024","2","48000","-16","Sternburgtask","3","odd","5","585784","229185","586836","589079","533286","2224","205898","587857","123531","591091","2198","NA","586825","591091","592621","New experiment","64","83986","68","yes","1024"
"94.2028985507","94.2028985507","1229.36231884","1229.36231884","black","no","experiment","legacy","legacy","legacy","0","uniform","1","undefined","1","right","68","0","68","68","68","0","0","68","0","68","0","0","68","68","68","Thu Oct  4 21:47:53 2018","The main experiment item","yes","NA","Sternburg Task.osexp","/Users/danieldalton","no","mono","no","18","no","white","no","yes","768","legacy","56","11","/Users/danieldalton/subject-3.csv","legacy","5 3 8 7 2 4","Jazzy James","3.1.9","0","n","0","right","left","left","NA","right","840","121289","23285","NA","840","2","legacy","6","1024","2","48000","-16","Sternburgtask","3","odd","9","592638","229185","593689","595927","533286","2224","205898","594706","123531","597940","2198","NA","593678","597940","598783","New experiment","65","84826","69","yes","1024"
"94.2857142857","94.2857142857","1227.62857143","1227.62857143","black","no","experiment","legacy","legacy","legacy","0","uniform","1","undefined","1","left","69","0","69","69","69","0","0","69","0","69","0","0","69","69","69","Thu Oct  4 21:47:53 2018","The main experiment item","yes","NA","Sternburg Task.osexp","/Users/danieldalton","no","mono","no","18","no","white","no","yes","768","legacy","57","11","/Users/danieldalton/subject-3.csv","legacy","4 6 2 5 1","Jazzy James","3.1.9","5","y","0","left","left","left","NA","left","1108","121289","23285","NA","1108","2","legacy","5","1024","2","48000","-16","Sternburgtask","3","odd","1","598795","229185","599849","602084","533286","2224","205898","600864","123531","604100","2198","NA","599839","604101","605212","New experiment","66","85934","70","yes","1024"
"94.3661971831","94.3661971831","1227.53521127","1227.53521127","black","no","experiment","legacy","legacy","legacy","0","uniform","1","undefined","1","left","70","0","70","70","70","0","0","70","0","70","0","0","70","70","70","Thu Oct  4 21:47:53 2018","The main experiment item","yes","NA","Sternburg Task.osexp","/Users/danieldalton","no","mono","no","18","no","white","no","yes","768","legacy","58","11","/Users/danieldalton/subject-3.csv","legacy","8 5 3 7 4 6","Jazzy James","3.1.9","6","y","0","left","left","left","NA","left","1221","121289","23285","NA","1221","2","legacy","6","1024","2","48000","-16","Sternburgtask","3","odd","6","605228","229185","606279","608521","533286","2224","205898","607301","123531","610541","2198","NA","606268","610542","611766","New experiment","67","87155","71","yes","1024"
"94.4444444444","94.4444444444","1225.43055556","1225.43055556","black","no","experiment","legacy","legacy","legacy","0","uniform","1","undefined","1","left","71","0","71","71","71","0","0","71","0","71","0","0","71","71","71","Thu Oct  4 21:47:53 2018","The main experiment item","yes","NA","Sternburg Task.osexp","/Users/danieldalton","no","mono","no","18","no","white","no","yes","768","legacy","59","11","/Users/danieldalton/subject-3.csv","legacy","9 1 6 7 8","Jazzy James","3.1.9","1","y","0","left","left","left","NA","left","1076","121289","23285","NA","1076","2","legacy","5","1024","2","48000","-16","Sternburgtask","3","odd","9","611779","229185","612832","615066","533286","2224","205898","613849","123531","617086","2198","NA","612821","617086","618164","New experiment","68","88231","72","yes","1024"
"94.5205479452","94.5205479452","1222.93150685","1222.93150685","black","no","experiment","legacy","legacy","legacy","0","uniform","1","undefined","1","right","72","0","72","72","72","0","0","72","0","72","0","0","72","72","72","Thu Oct  4 21:47:53 2018","The main experiment item","yes","NA","Sternburg Task.osexp","/Users/danieldalton","no","mono","no","18","no","white","no","yes","768","legacy","60","11","/Users/danieldalton/subject-3.csv","legacy","7 9 1 6","Jazzy James","3.1.9","0","n","0","right","left","left","NA","right","1043","121289","23285","NA","1043","2","legacy","4","1024","2","48000","-16","Sternburgtask","3","odd","4","618178","229185","619229","621463","533286","2224","205898","620247","123531","623480","2198","NA","619219","623480","624526","New experiment","69","89274","73","yes","1024"
"94.5945945946","94.5945945946","1219.78378378","1219.78378378","black","no","experiment","legacy","legacy","legacy","0","uniform","1","undefined","1","right","73","0","73","73","73","0","0","73","0","73","0","0","73","73","73","Thu Oct  4 21:47:53 2018","The main experiment item","yes","NA","Sternburg Task.osexp","/Users/danieldalton","no","mono","no","18","no","white","no","yes","768","legacy","61","11","/Users/danieldalton/subject-3.csv","legacy","5 9 2 3","Jazzy James","3.1.9","0","n","0","right","left","left","NA","right","990","121289","23285","NA","990","2","legacy","4","1024","2","48000","-16","Sternburgtask","3","odd","8","624539","229185","625590","627833","533286","2224","205898","626612","123531","629856","2198","NA","625579","629857","630849","New experiment","70","90264","74","yes","1024"
"94.6666666667","94.6666666667","1216.25333333","1216.25333333","black","no","experiment","legacy","legacy","legacy","0","uniform","1","undefined","1","left","74","0","74","74","74","0","0","74","0","74","0","0","74","74","74","Thu Oct  4 21:47:53 2018","The main experiment item","yes","NA","Sternburg Task.osexp","/Users/danieldalton","no","mono","no","18","no","white","no","yes","768","legacy","62","11","/Users/danieldalton/subject-3.csv","legacy","8 9 5 7 1 6","Jazzy James","3.1.9","4","y","0","left","left","left","NA","left","955","121289","23285","NA","955","2","legacy","6","1024","2","48000","-16","Sternburgtask","3","odd","7","630863","229185","631917","634158","533286","2224","205898","632940","123531","636178","2198","NA","631906","636179","637137","New experiment","71","91219","75","yes","1024"
"94.7368421053","94.7368421053","1213.55263158","1213.55263158","black","no","experiment","legacy","legacy","legacy","0","uniform","1","undefined","1","right","75","0","75","75","75","0","0","75","0","75","0","0","75","75","75","Thu Oct  4 21:47:53 2018","The main experiment item","yes","NA","Sternburg Task.osexp","/Users/danieldalton","no","mono","no","18","no","white","no","yes","768","legacy","63","11","/Users/danieldalton/subject-3.csv","legacy","1 8 7","Jazzy James","3.1.9","0","n","0","right","left","left","NA","right","1011","121289","23285","NA","1011","2","legacy","3","1024","2","48000","-16","Sternburgtask","3","odd","4","637150","229185","638200","640435","533286","2224","205898","639218","123531","642449","2198","NA","638190","642449","643463","New experiment","72","92230","76","yes","1024"
"94.8051948052","94.8051948052","1212.57142857","1212.57142857","black","no","experiment","legacy","legacy","legacy","0","uniform","1","undefined","1","left","76","0","76","76","76","0","0","76","0","76","0","0","76","76","76","Thu Oct  4 21:47:53 2018","The main experiment item","yes","NA","Sternburg Task.osexp","/Users/danieldalton","no","mono","no","18","no","white","no","yes","768","legacy","64","11","/Users/danieldalton/subject-3.csv","legacy","8 5 1 3 9","Jazzy James","3.1.9","4","y","0","left","left","left","NA","left","1138","121289","23285","NA","1138","2","legacy","5","1024","2","48000","-16","Sternburgtask","3","odd","3","643477","229185","644541","646779","533286","2224","205898","645558","123531","648792","2198","NA","644530","648792","649933","New experiment","73","93368","77","yes","1024"
"94.8717948718","94.8717948718","1210.37179487","1210.37179487","black","no","experiment","legacy","legacy","legacy","0","uniform","1","undefined","1","right","77","0","77","77","77","0","0","77","0","77","0","0","77","77","77","Thu Oct  4 21:47:53 2018","The main experiment item","yes","NA","Sternburg Task.osexp","/Users/danieldalton","no","mono","no","18","no","white","no","yes","768","legacy","65","11","/Users/danieldalton/subject-3.csv","legacy","7 3 2 8","Jazzy James","3.1.9","0","n","0","right","left","left","NA","right","1041","121289","23285","NA","1041","2","legacy","4","1024","2","48000","-16","Sternburgtask","3","odd","4","649947","229185","650997","653232","533286","2224","205898","652010","123531","655244","2198","NA","650986","655245","656289","New experiment","74","94409","78","yes","1024"
"94.9367088608","94.9367088608","1210.06329114","1210.06329114","black","no","experiment","legacy","legacy","legacy","0","uniform","1","undefined","1","right","78","0","78","78","78","0","0","78","0","78","0","0","78","78","78","Thu Oct  4 21:47:53 2018","The main experiment item","yes","NA","Sternburg Task.osexp","/Users/danieldalton","no","mono","no","18","no","white","no","yes","768","legacy","66","11","/Users/danieldalton/subject-3.csv","legacy","6 3 1 7 9 8","Jazzy James","3.1.9","0","n","0","right","left","left","NA","right","1186","121289","23285","NA","1186","2","legacy","6","1024","2","48000","-16","Sternburgtask","3","odd","4","656305","229185","657356","659592","533286","2224","205898","658373","123531","661606","2198","NA","657345","661606","662795","New experiment","75","95595","79","yes","1024"
"95","95","1206.975","1206.975","black","no","experiment","legacy","legacy","legacy","0","uniform","1","undefined","1","right","79","0","79","79","79","0","0","79","0","79","0","0","79","79","79","Thu Oct  4 21:47:53 2018","The main experiment item","yes","NA","Sternburg Task.osexp","/Users/danieldalton","no","mono","no","18","no","white","no","yes","768","legacy","67","11","/Users/danieldalton/subject-3.csv","legacy","2 7 5","Jazzy James","3.1.9","0","n","0","right","left","left","NA","right","963","121289","23285","NA","963","2","legacy","3","1024","2","48000","-16","Sternburgtask","3","odd","8","662809","229185","663865","666096","533286","2224","205898","664879","123531","668109","2198","NA","663854","668109","669075","New experiment","76","96558","80","yes","1024"
"95.0617283951","95.0617283951","1214.37037037","1214.37037037","black","no","experiment","legacy","legacy","legacy","0","uniform","1","undefined","1","right","80","0","80","80","80","0","0","80","0","80","0","0","80","80","80","Thu Oct  4 21:47:53 2018","The main experiment item","yes","NA","Sternburg Task.osexp","/Users/danieldalton","no","mono","no","18","no","white","no","yes","768","legacy","68","11","/Users/danieldalton/subject-3.csv","legacy","1 7 8 3 9","Jazzy James","3.1.9","0","n","0","right","left","left","NA","right","1806","121289","23285","NA","1806","2","legacy","5","1024","2","48000","-16","Sternburgtask","3","odd","2","669088","229185","670143","672380","533286","2224","205898","671159","123531","674394","2198","NA","670132","674394","676203","New experiment","77","98364","81","yes","1024"
"95.1219512195","95.1219512195","1212.08536585","1212.08536585","black","no","experiment","legacy","legacy","legacy","0","uniform","1","undefined","1","right","81","0","81","81","81","0","0","81","0","81","0","0","81","81","81","Thu Oct  4 21:47:53 2018","The main experiment item","yes","NA","Sternburg Task.osexp","/Users/danieldalton","no","mono","no","18","no","white","no","yes","768","legacy","69","11","/Users/danieldalton/subject-3.csv","legacy","5 3 2 6 9 8","Jazzy James","3.1.9","0","n","0","right","left","left","NA","right","1027","121289","23285","NA","1027","2","legacy","6","1024","2","48000","-16","Sternburgtask","3","odd","4","676217","229185","677269","679508","533286","2224","205898","678291","123531","681521","2198","NA","677258","681521","682551","New experiment","78","99391","82","yes","1024"
"95.1807228916","95.1807228916","1209.79518072","1209.79518072","black","no","experiment","legacy","legacy","legacy","0","uniform","1","undefined","1","right","82","0","82","82","82","0","0","82","0","82","0","0","82","82","82","Thu Oct  4 21:47:53 2018","The main experiment item","yes","NA","Sternburg Task.osexp","/Users/danieldalton","no","mono","no","18","no","white","no","yes","768","legacy","70","11","/Users/danieldalton/subject-3.csv","legacy","6 7 5 9","Jazzy James","3.1.9","0","n","0","right","left","left","NA","right","1022","121289","23285","NA","1022","2","legacy","4","1024","2","48000","-16","Sternburgtask","3","odd","2","682569","229185","683620","685853","533286","2224","205898","684634","123531","687874","2198","NA","683609","687874","688899","New experiment","79","100413","83","yes","1024"
"95.2380952381","95.2380952381","1207.46428571","1207.46428571","black","no","experiment","legacy","legacy","legacy","0","uniform","1","undefined","1","right","83","0","83","83","83","0","0","83","0","83","0","0","83","83","83","Thu Oct  4 21:47:53 2018","The main experiment item","yes","NA","Sternburg Task.osexp","/Users/danieldalton","no","mono","no","18","no","white","no","yes","768","legacy","71","11","/Users/danieldalton/subject-3.csv","legacy","2 5 1 4","Jazzy James","3.1.9","0","n","0","right","left","left","NA","right","1014","121289","23285","NA","1014","2","legacy","4","1024","2","48000","-16","Sternburgtask","3","odd","6","688913","229185","689973","692202","533286","2224","205898","690987","123531","694217","2198","NA","689962","694218","695235","New experiment","80","101427","84","yes","1024"
"95.2941176471","95.2941176471","1206.04705882","1206.04705882","black","no","experiment","legacy","legacy","legacy","0","uniform","1","undefined","1","left","84","0","84","84","84","0","0","84","0","84","0","0","84","84","84","Thu Oct  4 21:47:53 2018","The main experiment item","yes","NA","Sternburg Task.osexp","/Users/danieldalton","no","mono","no","18","no","white","no","yes","768","legacy","72","11","/Users/danieldalton/subject-3.csv","legacy","7 8 4 6 9 5","Jazzy James","3.1.9","4","y","0","left","left","left","NA","left","1087","121289","23285","NA","1087","2","legacy","6","1024","2","48000","-16","Sternburgtask","3","odd","6","695249","229185","696299","698536","533286","2224","205898","697317","123531","700548","2198","NA","696289","700549","701639","New experiment","81","102514","85","yes","1024"
"95.3488372093","95.3488372093","1203.10465116","1203.10465116","black","no","experiment","legacy","legacy","legacy","0","uniform","1","undefined","1","right","85","0","85","85","85","0","0","85","0","85","0","0","85","85","85","Thu Oct  4 21:47:53 2018","The main experiment item","yes","NA","Sternburg Task.osexp","/Users/danieldalton","no","mono","no","18","no","white","no","yes","768","legacy","73","11","/Users/danieldalton/subject-3.csv","legacy","7 1 5 6 3","Jazzy James","3.1.9","0","n","0","right","left","left","NA","right","953","121289","23285","NA","953","2","legacy","5","1024","2","48000","-16","Sternburgtask","3","odd","8","701653","229185","702705","704936","533286","2224","205898","703719","123531","706949","2198","NA","702694","706949","707905","New experiment","82","103467","86","yes","1024"
"95.4022988506","95.4022988506","1201.62068966","1201.62068966","black","no","experiment","legacy","legacy","legacy","0","uniform","1","undefined","1","right","86","0","86","86","86","0","0","86","0","86","0","0","86","86","86","Thu Oct  4 21:47:53 2018","The main experiment item","yes","NA","Sternburg Task.osexp","/Users/danieldalton","no","mono","no","18","no","white","no","yes","768","legacy","74","11","/Users/danieldalton/subject-3.csv","legacy","7 1 8 4 9 3","Jazzy James","3.1.9","0","n","0","right","left","left","NA","right","1074","121289","23285","NA","1074","2","legacy","6","1024","2","48000","-16","Sternburgtask","3","odd","6","707919","229185","708972","711211","533286","2224","205898","709992","123531","713223","2198","NA","708961","713223","714300","New experiment","83","104541","87","yes","1024"
"95.4545454545","95.4545454545","1199","1199","black","no","experiment","legacy","legacy","legacy","0","uniform","1","undefined","1","left","87","0","87","87","87","0","0","87","0","87","0","0","87","87","87","Thu Oct  4 21:47:53 2018","The main experiment item","yes","NA","Sternburg Task.osexp","/Users/danieldalton","no","mono","no","18","no","white","no","yes","768","legacy","75","11","/Users/danieldalton/subject-3.csv","legacy","9 4 2","Jazzy James","3.1.9","1","y","0","left","left","left","NA","left","971","121289","23285","NA","971","2","legacy","3","1024","2","48000","-16","Sternburgtask","3","odd","9","714315","229185","715365","717598","533286","2224","205898","716381","123531","719612","2198","NA","715354","719612","720586","New experiment","84","105512","88","yes","1024"
"95.5056179775","95.5056179775","1198.91011236","1198.91011236","black","no","experiment","legacy","legacy","legacy","0","uniform","1","undefined","1","right","88","0","88","88","88","0","0","88","0","88","0","0","88","88","88","Thu Oct  4 21:47:53 2018","The main experiment item","yes","NA","Sternburg Task.osexp","/Users/danieldalton","no","mono","no","18","no","white","no","yes","768","legacy","76","11","/Users/danieldalton/subject-3.csv","legacy","6 2 9 3 8 4","Jazzy James","3.1.9","0","n","0","right","left","left","NA","right","1191","121289","23285","NA","1191","2","legacy","6","1024","2","48000","-16","Sternburgtask","3","odd","1","720600","229185","721653","723884","533286","2224","205898","722667","123531","725896","2198","NA","721642","725896","727091","New experiment","85","106703","89","yes","1024"
"95.5555555556","95.5555555556","1196.56666667","1196.56666667","black","no","experiment","legacy","legacy","legacy","0","uniform","1","undefined","1","left","89","0","89","89","89","0","0","89","0","89","0","0","89","89","89","Thu Oct  4 21:47:53 2018","The main experiment item","yes","NA","Sternburg Task.osexp","/Users/danieldalton","no","mono","no","18","no","white","no","yes","768","legacy","77","11","/Users/danieldalton/subject-3.csv","legacy","9 8 4","Jazzy James","3.1.9","1","y","0","left","left","left","NA","left","988","121289","23285","NA","988","2","legacy","3","1024","2","48000","-16","Sternburgtask","3","odd","9","727106","229185","728156","730391","533286","2224","205898","729173","123531","732415","2198","NA","728146","732415","733406","New experiment","86","107691","90","yes","1024"
"95.6043956044","95.6043956044","1198.83516484","1198.83516484","black","no","experiment","legacy","legacy","legacy","0","uniform","1","undefined","1","left","90","0","90","90","90","0","0","90","0","90","0","0","90","90","90","Thu Oct  4 21:47:53 2018","The main experiment item","yes","NA","Sternburg Task.osexp","/Users/danieldalton","no","mono","no","18","no","white","no","yes","768","legacy","78","11","/Users/danieldalton/subject-3.csv","legacy","4 3 2 5 8","Jazzy James","3.1.9","2","y","0","left","left","left","NA","left","1403","121289","23285","NA","1403","2","legacy","5","1024","2","48000","-16","Sternburgtask","3","odd","3","733420","229185","734472","736709","533286","2224","205898","735493","123531","738721","2198","NA","734460","738721","740127","New experiment","87","109094","91","yes","1024"
"95.652173913","95.652173913","1194.26086957","1194.26086957","black","no","experiment","legacy","legacy","legacy","0","uniform","1","undefined","1","left","91","0","91","91","91","0","0","91","0","91","0","0","91","91","91","Thu Oct  4 21:47:53 2018","The main experiment item","yes","NA","Sternburg Task.osexp","/Users/danieldalton","no","mono","no","18","no","white","no","yes","768","legacy","79","11","/Users/danieldalton/subject-3.csv","legacy","4","Jazzy James","3.1.9","1","y","0","left","left","left","NA","left","778","121289","23285","NA","778","2","legacy","1","1024","2","48000","-16","Sternburgtask","3","odd","4","740141","229185","741200","743439","533286","2224","205898","742217","123531","745452","2198","NA","741189","745452","746233","New experiment","88","109872","92","yes","1024"
"95.6989247312","95.6989247312","1192.46236559","1192.46236559","black","no","experiment","legacy","legacy","legacy","0","uniform","1","undefined","1","left","92","0","92","92","92","0","0","92","0","92","0","0","92","92","92","Thu Oct  4 21:47:53 2018","The main experiment item","yes","NA","Sternburg Task.osexp","/Users/danieldalton","no","mono","no","18","no","white","no","yes","768","legacy","80","11","/Users/danieldalton/subject-3.csv","legacy","6 1 2","Jazzy James","3.1.9","3","y","0","left","left","left","NA","left","1027","121289","23285","NA","1027","2","legacy","3","1024","2","48000","-16","Sternburgtask","3","odd","2","746246","229185","747305","749538","533286","2224","205898","748320","123531","751551","2198","NA","747294","751551","752581","New experiment","89","110899","93","yes","1024"
"95.7446808511","95.7446808511","1190.85106383","1190.85106383","black","no","experiment","legacy","legacy","legacy","0","uniform","1","undefined","1","right","93","0","93","93","93","0","0","93","0","93","0","0","93","93","93","Thu Oct  4 21:47:53 2018","The main experiment item","yes","NA","Sternburg Task.osexp","/Users/danieldalton","no","mono","no","18","no","white","no","yes","768","legacy","81","11","/Users/danieldalton/subject-3.csv","legacy","4 1","Jazzy James","3.1.9","0","n","0","right","left","left","NA","right","1041","121289","23285","NA","1041","2","legacy","2","1024","2","48000","-16","Sternburgtask","3","odd","6","752594","229185","753645","755877","533286","2224","205898","754660","123531","757891","2198","NA","753634","757891","758934","New experiment","90","111940","94","yes","1024"
"95.7894736842","95.7894736842","1187.96842105","1187.96842105","black","no","experiment","legacy","legacy","legacy","0","uniform","1","undefined","1","right","94","0","94","94","94","0","0","94","0","94","0","0","94","94","94","Thu Oct  4 21:47:53 2018","The main experiment item","yes","NA","Sternburg Task.osexp","/Users/danieldalton","no","mono","no","18","no","white","no","yes","768","legacy","82","11","/Users/danieldalton/subject-3.csv","legacy","1 4 3 6 5","Jazzy James","3.1.9","0","n","0","right","left","left","NA","right","917","121289","23285","NA","917","2","legacy","5","1024","2","48000","-16","Sternburgtask","3","odd","8","758948","229185","759999","762233","533286","2224","205898","761017","123531","764247","2198","NA","759988","764247","765166","New experiment","91","112857","95","yes","1024"
"95.8333333333","95.8333333333","1186.08333333","1186.08333333","black","no","experiment","legacy","legacy","legacy","0","uniform","1","undefined","1","left","95","0","95","95","95","0","0","95","0","95","0","0","95","95","95","Thu Oct  4 21:47:53 2018","The main experiment item","yes","NA","Sternburg Task.osexp","/Users/danieldalton","no","mono","no","18","no","white","no","yes","768","legacy","83","11","/Users/danieldalton/subject-3.csv","legacy","3 9 6 2","Jazzy James","3.1.9","4","y","0","left","left","left","NA","left","1007","121289","23285","NA","1007","2","legacy","4","1024","2","48000","-16","Sternburgtask","3","odd","2","765180","229185","766233","768465","533286","2224","205898","767248","123531","770477","2198","NA","766222","770477","771487","New experiment","92","113864","96","yes","1024"
"94.8453608247","94.8453608247","1186.75257732","1186.75257732","black","no","experiment","legacy","legacy","legacy","0","uniform","0","undefined","0","left","96","0","96","96","96","0","0","96","0","96","0","0","96","96","96","Thu Oct  4 21:47:53 2018","The main experiment item","yes","NA","Sternburg Task.osexp","/Users/danieldalton","no","mono","no","18","no","white","no","yes","768","legacy","84","11","/Users/danieldalton/subject-3.csv","legacy","5 2 9 6 1 7","Jazzy James","3.1.9","3","y","0","right","left","left","NA","right","1251","121289","23285","NA","1251","2","legacy","6","1024","2","48000","-16","Sternburgtask","3","odd","9","771501","229185","772553","774793","533286","2224","205898","773571","123531","776805","2198","NA","772542","776805","778059","New experiment","92","115115","97","yes","1024"
"94.8979591837","94.8979591837","1188.53061224","1188.53061224","black","no","experiment","legacy","legacy","legacy","0","uniform","1","undefined","1","right","97","0","97","97","97","0","0","97","0","97","0","0","97","97","97","Thu Oct  4 21:47:53 2018","The main experiment item","yes","NA","Sternburg Task.osexp","/Users/danieldalton","no","mono","no","18","no","white","no","yes","768","legacy","85","11","/Users/danieldalton/subject-3.csv","legacy","2 8 9 4 1","Jazzy James","3.1.9","0","n","0","right","left","left","NA","right","1361","121289","23285","NA","1361","2","legacy","5","1024","2","48000","-16","Sternburgtask","3","odd","5","771501","229185","779126","781362","778074","2224","205898","780142","123531","783375","2198","NA","779115","783376","784740","New experiment","93","116476","98","yes","1024"
"94.9494949495","94.9494949495","1186.62626263","1186.62626263","black","no","experiment","legacy","legacy","legacy","0","uniform","1","undefined","1","right","98","0","98","98","98","0","0","98","0","98","0","0","98","98","98","Thu Oct  4 21:47:53 2018","The main experiment item","yes","NA","Sternburg Task.osexp","/Users/danieldalton","no","mono","no","18","no","white","no","yes","768","legacy","86","11","/Users/danieldalton/subject-3.csv","legacy","1 7 5 2","Jazzy James","3.1.9","0","n","0","right","left","left","NA","right","1000","121289","23285","NA","1000","2","legacy","4","1024","2","48000","-16","Sternburgtask","3","odd","3","784754","229185","785806","788041","778074","2224","205898","786824","123531","790057","2198","NA","785796","790057","791061","New experiment","94","117476","99","yes","1024"
"95","95","1188.63","1188.63","black","no","experiment","legacy","legacy","legacy","0","uniform","1","undefined","1","right","99","0","99","99","99","0","0","99","0","99","0","0","99","99","99","Thu Oct  4 21:47:53 2018","The main experiment item","yes","NA","Sternburg Task.osexp","/Users/danieldalton","no","mono","no","18","no","white","no","yes","768","legacy","87","11","/Users/danieldalton/subject-3.csv","legacy","9","Jazzy James","3.1.9","0","n","0","right","left","left","NA","right","1387","121289","23285","NA","1387","2","legacy","1","1024","2","48000","-16","Sternburgtask","3","odd","6","791076","229185","792135","794364","778074","2224","205898","793149","123531","796377","2198","NA","792123","796377","797767","New experiment","95","118863","100","yes","1024"
"95.0495049505","95.0495049505","1187.67326733","1187.67326733","black","no","experiment","legacy","legacy","legacy","0","uniform","1","undefined","1","left","100","0","100","100","100","0","0","100","0","100","0","0","100","100","100","Thu Oct  4 21:47:53 2018","The main experiment item","yes","NA","Sternburg Task.osexp","/Users/danieldalton","no","mono","no","18","no","white","no","yes","768","legacy","88","11","/Users/danieldalton/subject-3.csv","legacy","7 6","Jazzy James","3.1.9","2","y","0","left","left","left","NA","left","1092","121289","23285","NA","1092","2","legacy","2","1024","2","48000","-16","Sternburgtask","3","odd","6","797781","229185","798832","801064","778074","2224","205898","799848","123531","803076","2198","NA","798821","803077","804173","New experiment","96","119955","101","yes","1024"
"95.0980392157","95.0980392157","1185.15686275","1185.15686275","black","no","experiment","legacy","legacy","legacy","0","uniform","1","undefined","1","right","101","0","101","101","101","0","0","101","0","101","0","0","101","101","101","Thu Oct  4 21:47:53 2018","The main experiment item","yes","NA","Sternburg Task.osexp","/Users/danieldalton","no","mono","no","18","no","white","no","yes","768","legacy","89","11","/Users/danieldalton/subject-3.csv","legacy","5 7 3","Jazzy James","3.1.9","0","n","0","right","left","left","NA","right","931","121289","23285","NA","931","2","legacy","3","1024","2","48000","-16","Sternburgtask","3","odd","9","804188","229185","805238","807474","778074","2224","205898","806256","123531","809486","2198","NA","805228","809487","810421","New experiment","97","120886","102","yes","1024"
"94.1747572816","94.1747572816","1185.34951456","1185.34951456","black","no","experiment","legacy","legacy","legacy","0","uniform","0","undefined","0","left","102","0","102","102","102","0","0","102","0","102","0","0","102","102","102","Thu Oct  4 21:47:53 2018","The main experiment item","yes","NA","Sternburg Task.osexp","/Users/danieldalton","no","mono","no","18","no","white","no","yes","768","legacy","90","11","/Users/danieldalton/subject-3.csv","legacy","8 9 5 6 7","Jazzy James","3.1.9","1","y","0","right","left","left","NA","right","1205","121289","23285","NA","1205","2","legacy","5","1024","2","48000","-16","Sternburgtask","3","odd","8","810435","229185","811489","813724","778074","2224","205898","812507","123531","815736","2198","NA","811478","815736","816945","New experiment","97","122091","103","yes","1024"
"94.2307692308","94.2307692308","1183.80769231","1183.80769231","black","no","experiment","legacy","legacy","legacy","0","uniform","1","undefined","1","right","103","0","103","103","103","0","0","103","0","103","0","0","103","103","103","Thu Oct  4 21:47:53 2018","The main experiment item","yes","NA","Sternburg Task.osexp","/Users/danieldalton","no","mono","no","18","no","white","no","yes","768","legacy","91","11","/Users/danieldalton/subject-3.csv","legacy","5 2","Jazzy James","3.1.9","0","n","0","right","left","left","NA","right","1025","121289","23285","NA","1025","2","legacy","2","1024","2","48000","-16","Sternburgtask","3","odd","7","810435","229185","818006","820241","816957","2224","205898","819024","123531","822255","2198","NA","817997","822255","823283","New experiment","98","123116","104","yes","1024"
"94.2857142857","94.2857142857","1184.14285714","1184.14285714","black","no","experiment","legacy","legacy","legacy","0","uniform","1","undefined","1","right","104","0","104","104","104","0","0","104","0","104","0","0","104","104","104","Thu Oct  4 21:47:53 2018","The main experiment item","yes","NA","Sternburg Task.osexp","/Users/danieldalton","no","mono","no","18","no","white","no","yes","768","legacy","92","11","/Users/danieldalton/subject-3.csv","legacy","7 6 4 8 1 2","Jazzy James","3.1.9","0","n","0","right","left","left","NA","right","1219","121289","23285","NA","1219","2","legacy","6","1024","2","48000","-16","Sternburgtask","3","odd","9","823297","229185","824352","826588","816957","2224","205898","825366","123531","828604","2198","NA","824341","828604","829826","New experiment","99","124335","105","yes","1024"
"94.3396226415","94.3396226415","1185.1509434","1185.1509434","black","no","experiment","legacy","legacy","legacy","0","uniform","1","undefined","1","right","105","0","105","105","105","0","0","105","0","105","0","0","105","105","105","Thu Oct  4 21:47:53 2018","The main experiment item","yes","NA","Sternburg Task.osexp","/Users/danieldalton","no","mono","no","18","no","white","no","yes","768","legacy","93","11","/Users/danieldalton/subject-3.csv","legacy","6 8 4","Jazzy James","3.1.9","0","n","0","right","left","left","NA","right","1291","121289","23285","NA","1291","2","legacy","3","1024","2","48000","-16","Sternburgtask","3","odd","1","829840","229185","830892","833127","816957","2224","205898","831908","123531","835147","2198","NA","830881","835147","836441","New experiment","100","125626","106","yes","1024"
"94.3925233645","94.3925233645","1184.42990654","1184.42990654","black","no","experiment","legacy","legacy","legacy","0","uniform","1","undefined","1","left","106","0","106","106","106","0","0","106","0","106","0","0","106","106","106","Thu Oct  4 21:47:53 2018","The main experiment item","yes","NA","Sternburg Task.osexp","/Users/danieldalton","no","mono","no","18","no","white","no","yes","768","legacy","94","11","/Users/danieldalton/subject-3.csv","legacy","6 7 8 5","Jazzy James","3.1.9","3","y","0","left","left","left","NA","left","1108","121289","23285","NA","1108","2","legacy","4","1024","2","48000","-16","Sternburgtask","3","odd","8","836456","229185","837510","839740","816957","2224","205898","838524","123531","841753","2198","NA","837499","841754","842865","New experiment","101","126734","107","yes","1024"
"94.4444444444","94.4444444444","1181.5","1181.5","black","no","experiment","legacy","legacy","legacy","0","uniform","1","undefined","1","right","107","0","107","107","107","0","0","107","0","107","0","0","107","107","107","Thu Oct  4 21:47:53 2018","The main experiment item","yes","NA","Sternburg Task.osexp","/Users/danieldalton","no","mono","no","18","no","white","no","yes","768","legacy","95","11","/Users/danieldalton/subject-3.csv","legacy","8 4 3 5","Jazzy James","3.1.9","0","n","0","right","left","left","NA","right","868","121289","23285","NA","868","2","legacy","4","1024","2","48000","-16","Sternburgtask","3","odd","6","842879","229185","843935","846171","816957","2224","205898","844949","123531","848185","2198","NA","843924","848185","849056","New experiment","102","127602","108","yes","1024"
"93.5779816514","93.5779816514","1183.09174312","1183.09174312","black","no","experiment","legacy","legacy","legacy","0","uniform","0","undefined","0","left","108","0","108","108","108","0","0","108","0","108","0","0","108","108","108","Thu Oct  4 21:47:53 2018","The main experiment item","yes","NA","Sternburg Task.osexp","/Users/danieldalton","no","mono","no","18","no","white","no","yes","768","legacy","96","11","/Users/danieldalton/subject-3.csv","legacy","3 4 9 6 2 9","Jazzy James","3.1.9","5","y","0","right","left","left","NA","right","1355","121289","23285","NA","1355","2","legacy","6","1024","2","48000","-16","Sternburgtask","3","odd","2","849070","229185","850120","852358","816957","2224","205898","851138","123531","854380","2198","NA","850110","854380","855738","New experiment","102","128957","109","yes","1024"
"93.6363636364","93.6363636364","1181.59090909","1181.59090909","black","no","experiment","legacy","legacy","legacy","0","uniform","1","undefined","1","right","109","0","109","109","109","0","0","109","0","109","0","0","109","109","109","Thu Oct  4 21:47:53 2018","The main experiment item","yes","NA","Sternburg Task.osexp","/Users/danieldalton","no","mono","no","18","no","white","no","yes","768","legacy","97","11","/Users/danieldalton/subject-3.csv","legacy","9 7 4 5 8","Jazzy James","3.1.9","0","n","0","right","left","left","NA","right","1018","121289","23285","NA","1018","2","legacy","5","1024","2","48000","-16","Sternburgtask","3","odd","6","849070","229185","856805","859036","855752","2224","205898","857820","123531","861049","2198","NA","856794","861049","862070","New experiment","103","129975","110","yes","1024"
"93.6936936937","93.6936936937","1180.06306306","1180.06306306","black","no","experiment","legacy","legacy","legacy","0","uniform","1","undefined","1","right","110","0","110","110","110","0","0","110","0","110","0","0","110","110","110","Thu Oct  4 21:47:53 2018","The main experiment item","yes","NA","Sternburg Task.osexp","/Users/danieldalton","no","mono","no","18","no","white","no","yes","768","legacy","98","11","/Users/danieldalton/subject-3.csv","legacy","1 6 4 3 9 7","Jazzy James","3.1.9","0","n","0","right","left","left","NA","right","1012","121289","23285","NA","1012","2","legacy","6","1024","2","48000","-16","Sternburgtask","3","odd","8","862084","229185","863135","865369","855752","2224","205898","864153","123531","867383","2198","NA","863125","867383","868397","New experiment","104","130987","111","yes","1024"
"93.75","93.75","1179.125","1179.125","black","no","experiment","legacy","legacy","legacy","0","uniform","1","undefined","1","left","111","0","111","111","111","0","0","111","0","111","0","0","111","111","111","Thu Oct  4 21:47:53 2018","The main experiment item","yes","NA","Sternburg Task.osexp","/Users/danieldalton","no","mono","no","18","no","white","no","yes","768","legacy","99","11","/Users/danieldalton/subject-3.csv","legacy","9 3 8 2 1 4","Jazzy James","3.1.9","3","y","0","left","left","left","NA","left","1075","121289","23285","NA","1075","2","legacy","6","1024","2","48000","-16","Sternburgtask","3","odd","8","868410","229185","869462","871694","855752","2224","205898","870478","123531","873711","2198","NA","869451","873711","874789","New experiment","105","132062","112","yes","1024"
"93.8053097345","93.8053097345","1177.80530973","1177.80530973","black","no","experiment","legacy","legacy","legacy","0","uniform","1","undefined","1","left","112","0","112","112","112","0","0","112","0","112","0","0","112","112","112","Thu Oct  4 21:47:53 2018","The main experiment item","yes","NA","Sternburg Task.osexp","/Users/danieldalton","no","mono","no","18","no","white","no","yes","768","legacy","100","11","/Users/danieldalton/subject-3.csv","legacy","4 1 8 7 5","Jazzy James","3.1.9","3","y","0","left","left","left","NA","left","1030","121289","23285","NA","1030","2","legacy","5","1024","2","48000","-16","Sternburgtask","3","odd","8","874804","229185","875857","878087","855752","2224","205898","876871","123531","880103","2198","NA","875846","880103","881136","New experiment","106","133092","113","yes","1024"
"93.8596491228","93.8596491228","1177.20175439","1177.20175439","black","no","experiment","legacy","legacy","legacy","0","uniform","1","undefined","1","left","113","0","113","113","113","0","0","113","0","113","0","0","113","113","113","Thu Oct  4 21:47:53 2018","The main experiment item","yes","NA","Sternburg Task.osexp","/Users/danieldalton","no","mono","no","18","no","white","no","yes","768","legacy","101","11","/Users/danieldalton/subject-3.csv","legacy","2 8 5 1","Jazzy James","3.1.9","4","y","0","left","left","left","NA","left","1109","121289","23285","NA","1109","2","legacy","4","1024","2","48000","-16","Sternburgtask","3","odd","1","881150","229185","882200","884436","855752","2224","205898","883220","123531","886452","2198","NA","882189","886452","887564","New experiment","107","134201","114","yes","1024"
"93.9130434783","93.9130434783","1173.97391304","1173.97391304","black","no","experiment","legacy","legacy","legacy","0","uniform","1","undefined","1","left","114","0","114","114","114","0","0","114","0","114","0","0","114","114","114","Thu Oct  4 21:47:53 2018","The main experiment item","yes","NA","Sternburg Task.osexp","/Users/danieldalton","no","mono","no","18","no","white","no","yes","768","legacy","102","11","/Users/danieldalton/subject-3.csv","legacy","8","Jazzy James","3.1.9","1","y","0","left","left","left","NA","left","806","121289","23285","NA","806","2","legacy","1","1024","2","48000","-16","Sternburgtask","3","odd","8","887578","229185","888632","890865","855752","2224","205898","889647","123531","892877","2198","NA","888622","892878","893687","New experiment","108","135007","115","yes","1024"
"93.9655172414","93.9655172414","1172.46551724","1172.46551724","black","no","experiment","legacy","legacy","legacy","0","uniform","1","undefined","1","right","115","0","115","115","115","0","0","115","0","115","0","0","115","115","115","Thu Oct  4 21:47:53 2018","The main experiment item","yes","NA","Sternburg Task.osexp","/Users/danieldalton","no","mono","no","18","no","white","no","yes","768","legacy","103","11","/Users/danieldalton/subject-3.csv","legacy","2 8 6 3 1","Jazzy James","3.1.9","0","n","0","right","left","left","NA","right","999","121289","23285","NA","999","2","legacy","5","1024","2","48000","-16","Sternburgtask","3","odd","7","893701","229185","894754","896984","855752","2224","205898","895768","123531","898997","2198","NA","894742","898998","900000","New experiment","109","136006","116","yes","1024"
"93.1623931624","93.1623931624","1179.53846154","1179.53846154","black","no","experiment","legacy","legacy","legacy","0","uniform","0","undefined","0","left","116","0","116","116","116","0","0","116","0","116","0","0","116","116","116","Thu Oct  4 21:47:53 2018","The main experiment item","yes","NA","Sternburg Task.osexp","/Users/danieldalton","no","mono","no","18","no","white","no","yes","768","legacy","104","11","/Users/danieldalton/subject-3.csv","legacy","7 1 8 5 6 2","Jazzy James","3.1.9","2","y","0","None","left","left","NA","None","2000","121289","23285","NA","2000","2","legacy","6","1024","2","48000","-16","Sternburgtask","3","odd","1","900014","229185","901065","903300","855752","2224","205898","902083","123531","905313","2198","NA","901054","905313","907314","New experiment","109","138006","117","yes","1024"
"93.2203389831","93.2203389831","1178.44067797","1178.44067797","black","no","experiment","legacy","legacy","legacy","0","uniform","1","undefined","1","right","117","0","117","117","117","0","0","117","0","117","0","0","117","117","117","Thu Oct  4 21:47:53 2018","The main experiment item","yes","NA","Sternburg Task.osexp","/Users/danieldalton","no","mono","no","18","no","white","no","yes","768","legacy","105","11","/Users/danieldalton/subject-3.csv","legacy","8 5 7 3 6","Jazzy James","3.1.9","0","n","0","right","left","left","NA","right","1050","121289","23285","NA","1050","2","legacy","5","1024","2","48000","-16","Sternburgtask","3","odd","9","900014","229185","908396","910629","907328","2224","205898","909411","123531","912641","2198","NA","908384","912642","913696","New experiment","110","139056","118","yes","1024"
"93.2773109244","93.2773109244","1178.98319328","1178.98319328","black","no","experiment","legacy","legacy","legacy","0","uniform","1","undefined","1","left","118","0","118","118","118","0","0","118","0","118","0","0","118","118","118","Thu Oct  4 21:47:53 2018","The main experiment item","yes","NA","Sternburg Task.osexp","/Users/danieldalton","no","mono","no","18","no","white","no","yes","768","legacy","106","11","/Users/danieldalton/subject-3.csv","legacy","3 5 4 7","Jazzy James","3.1.9","1","y","0","left","left","left","NA","left","1243","121289","23285","NA","1243","2","legacy","4","1024","2","48000","-16","Sternburgtask","3","odd","3","913711","229185","914768","917002","907328","2224","205898","915784","123531","919015","2198","NA","914757","919016","920263","New experiment","111","140299","119","yes","1024"
"93.3333333333","93.3333333333","1177.275","1177.275","black","no","experiment","legacy","legacy","legacy","0","uniform","1","undefined","1","right","119","0","119","119","119","0","0","119","0","119","0","0","119","119","119","Thu Oct  4 21:47:53 2018","The main experiment item","yes","NA","Sternburg Task.osexp","/Users/danieldalton","no","mono","no","18","no","white","no","yes","768","legacy","107","11","/Users/danieldalton/subject-3.csv","legacy","2 3 8 5 6 7","Jazzy James","3.1.9","0","n","0","right","left","left","NA","right","974","121289","23285","NA","974","2","legacy","6","1024","2","48000","-16","Sternburgtask","3","odd","1","920278","229185","921330","923560","907328","2224","205898","922340","123531","925575","2198","NA","921318","925575","926552","New experiment","112","141273","120","yes","1024"
"93.3884297521","93.3884297521","1182.17355372","1182.17355372","black","no","experiment","legacy","legacy","legacy","0","uniform","1","undefined","1","right","120","0","120","120","120","0","0","120","0","120","0","0","120","120","120","Thu Oct  4 21:47:53 2018","The main experiment item","yes","NA","Sternburg Task.osexp","/Users/danieldalton","no","mono","no","18","no","white","no","yes","768","legacy","108","11","/Users/danieldalton/subject-3.csv","legacy","3 4 9 6 7 8","Jazzy James","3.1.9","0","n","0","right","left","left","NA","right","1770","121289","23285","NA","1770","2","legacy","6","1024","2","48000","-16","Sternburgtask","3","odd","2","926566","229185","927618","929850","907328","2224","205898","928633","123531","931863","2198","NA","927606","931863","933636","New experiment","113","143043","121","yes","1024"
