"acc","accuracy","average_response_time","avg_rt","background","bidi","block","canvas_backend","clock_backend","color_backend","compensation","coordinates","correct","correct_instruction1","correct_keyboard_response","correct_response","count_ISI","count_correctFeedback","count_expSequence","count_experiment","count_experimentLoop","count_fixation","count_incorrectFeedback","count_instruction1","count_instructions2","count_keyboard_response","count_logger","count_memorySet","count_practiceLoop","count_probe","count_thankYou","datetime","description","disable_garbage_collection","empty_column","experiment_file","experiment_path","font_bold","font_family","font_italic","font_size","font_underline","foreground","form_clicks","fullscreen","height","keyboard_backend","live_row","live_row_practiceLoop","logfile","mouse_backend","numberSet","opensesame_codename","opensesame_version","posInSet","present","repeat_cycle","response","response_instruction1","response_instructions2","response_keyboard_response","response_thankYou","response_time","response_time_instruction1","response_time_instructions2","response_time_keyboard_response","response_time_thankYou","round_decimals","sampler_backend","setSize","sound_buf_size","sound_channels","sound_freq","sound_sample_size","start","subject_nr","subject_parity","target","time_ISI","time_correctFeedback","time_expSequence","time_experiment","time_experimentLoop","time_fixation","time_incorrectFeedback","time_instruction1","time_instructions2","time_keyboard_response","time_logger","time_memorySet","time_practiceLoop","time_probe","time_thankYou","title","total_correct","total_response_time","total_responses","uniform_coordinates","width"
"100","100","1661","1661","black","no","practice","legacy","legacy","legacy","0","uniform","1","undefined","1","left","0","0","0","0","0","0","0","0","0","0","0","0","0","0","0","10/05/18 14:43:52","The main experiment item","yes","NA","Sternbergtask.osexp","C:\Users\Knitwitty\Desktop","no","mono","no","18","no","white","no","yes","768","legacy","0","0","C:/Users/Knitwitty/Documents/subject-2.csv","legacy","1 7 9 8 5","Jazzy James","3.1.9","4","y","0","left","right","NA","left","NA","1661","31612","NA","1661","NA","2","legacy","5","1024","2","48000","-16","experiment","2","even","8","42859","NA","40644","3052","NA","40648","NA","3057","NA","44865","46527","41653","34671","44864","NA","Sternberg task","1","1661","1","yes","1024"
"100","100","1221","1221","black","no","practice","legacy","legacy","legacy","0","uniform","1","undefined","1","left","1","1","1","0","0","1","1","0","0","1","1","1","0","1","0","10/05/18 14:43:52","The main experiment item","yes","NA","Sternbergtask.osexp","C:\Users\Knitwitty\Desktop","no","mono","no","18","no","white","no","yes","768","legacy","1","1","C:/Users/Knitwitty/Documents/subject-2.csv","legacy","2 9 4","Jazzy James","3.1.9","3","y","0","left","right","NA","left","NA","781","31612","NA","781","NA","2","legacy","3","1024","2","48000","-16","experiment","2","even","4","49954","46561","47739","3052","NA","47744","NA","3057","NA","51960","52743","48749","34671","51960","NA","Sternberg task","2","2442","2","yes","1024"
"100","100","992","992","black","no","practice","legacy","legacy","legacy","0","uniform","1","undefined","1","left","2","2","2","0","0","2","2","0","0","2","2","2","0","2","0","10/05/18 14:43:52","The main experiment item","yes","NA","Sternbergtask.osexp","C:\Users\Knitwitty\Desktop","no","mono","no","18","no","white","no","yes","768","legacy","2","2","C:/Users/Knitwitty/Documents/subject-2.csv","legacy","1 5 2 9","Jazzy James","3.1.9","2","y","0","left","right","NA","left","NA","534","31612","NA","534","NA","2","legacy","4","1024","2","48000","-16","experiment","2","even","5","56154","52759","53940","3052","NA","53944","NA","3057","NA","58160","58695","54949","34671","58160","NA","Sternberg task","3","2976","3","yes","1024"
"100","100","896","896","black","no","practice","legacy","legacy","legacy","0","uniform","1","undefined","1","right","3","3","3","0","0","3","3","0","0","3","3","3","0","3","0","10/05/18 14:43:52","The main experiment item","yes","NA","Sternbergtask.osexp","C:\Users\Knitwitty\Desktop","no","mono","no","18","no","white","no","yes","768","legacy","3","3","C:/Users/Knitwitty/Documents/subject-2.csv","legacy","3 1 9 4","Jazzy James","3.1.9","0","n","0","right","right","NA","right","NA","608","31612","NA","608","NA","2","legacy","4","1024","2","48000","-16","experiment","2","even","6","62102","58711","59887","3052","NA","59891","NA","3057","NA","64109","64719","60896","34671","64108","NA","Sternberg task","4","3584","4","yes","1024"
"100","100","834.8","834.8","black","no","practice","legacy","legacy","legacy","0","uniform","1","undefined","1","right","4","4","4","0","0","4","4","0","0","4","4","4","0","4","0","10/05/18 14:43:52","The main experiment item","yes","NA","Sternbergtask.osexp","C:\Users\Knitwitty\Desktop","no","mono","no","18","no","white","no","yes","768","legacy","4","4","C:/Users/Knitwitty/Documents/subject-2.csv","legacy","9 6 7 4 5","Jazzy James","3.1.9","0","n","0","right","right","NA","right","NA","590","31612","NA","590","NA","2","legacy","5","1024","2","48000","-16","experiment","2","even","3","68129","64735","65913","3052","NA","65917","NA","3057","NA","70136","70727","66923","34671","70135","NA","Sternberg task","5","4174","5","yes","1024"
"100","100","807.333333333","807.333333333","black","no","practice","legacy","legacy","legacy","0","uniform","1","undefined","1","right","5","5","5","0","0","5","5","0","0","5","5","5","0","5","0","10/05/18 14:43:52","The main experiment item","yes","NA","Sternbergtask.osexp","C:\Users\Knitwitty\Desktop","no","mono","no","18","no","white","no","yes","768","legacy","5","5","C:/Users/Knitwitty/Documents/subject-2.csv","legacy","5","Jazzy James","3.1.9","0","n","0","right","right","NA","right","NA","670","31612","NA","670","NA","2","legacy","1","1024","2","48000","-16","experiment","2","even","3","74146","70743","71931","3052","NA","71936","NA","3057","NA","76152","76823","72941","34671","76152","NA","Sternberg task","6","4844","6","yes","1024"
"100","100","782.285714286","782.285714286","black","no","practice","legacy","legacy","legacy","0","uniform","1","undefined","1","left","6","6","6","0","0","6","6","0","0","6","6","6","0","6","0","10/05/18 14:43:52","The main experiment item","yes","NA","Sternbergtask.osexp","C:\Users\Knitwitty\Desktop","no","mono","no","18","no","white","no","yes","768","legacy","6","6","C:/Users/Knitwitty/Documents/subject-2.csv","legacy","6","Jazzy James","3.1.9","1","y","0","left","right","NA","left","NA","632","31612","NA","632","NA","2","legacy","1","1024","2","48000","-16","experiment","2","even","6","80247","76840","78032","3052","NA","78037","NA","3057","NA","82254","82887","79042","34671","82253","NA","Sternberg task","7","5476","7","yes","1024"
"100","100","740.75","740.75","black","no","practice","legacy","legacy","legacy","0","uniform","1","undefined","1","left","7","7","7","0","0","7","7","0","0","7","7","7","0","7","0","10/05/18 14:43:52","The main experiment item","yes","NA","Sternbergtask.osexp","C:\Users\Knitwitty\Desktop","no","mono","no","18","no","white","no","yes","768","legacy","7","7","C:/Users/Knitwitty/Documents/subject-2.csv","legacy","4 8","Jazzy James","3.1.9","1","y","0","left","right","NA","left","NA","450","31612","NA","450","NA","2","legacy","2","1024","2","48000","-16","experiment","2","even","4","86301","82904","84086","3052","NA","84090","NA","3057","NA","88308","88759","85096","34671","88307","NA","Sternberg task","8","5926","8","yes","1024"
"100","100","720.333333333","720.333333333","black","no","practice","legacy","legacy","legacy","0","uniform","1","undefined","1","right","8","8","8","0","0","8","8","0","0","8","8","8","0","8","0","10/05/18 14:43:52","The main experiment item","yes","NA","Sternbergtask.osexp","C:\Users\Knitwitty\Desktop","no","mono","no","18","no","white","no","yes","768","legacy","8","8","C:/Users/Knitwitty/Documents/subject-2.csv","legacy","4 1 5","Jazzy James","3.1.9","0","n","0","right","right","NA","right","NA","557","31612","NA","557","NA","2","legacy","3","1024","2","48000","-16","experiment","2","even","2","92187","88775","89972","3052","NA","89976","NA","3057","NA","94193","94751","90981","34671","94193","NA","Sternberg task","9","6483","9","yes","1024"
"100","100","712.6","712.6","black","no","practice","legacy","legacy","legacy","0","uniform","1","undefined","1","right","9","9","9","0","0","9","9","0","0","9","9","9","0","9","0","10/05/18 14:43:52","The main experiment item","yes","NA","Sternbergtask.osexp","C:\Users\Knitwitty\Desktop","no","mono","no","18","no","white","no","yes","768","legacy","9","9","C:/Users/Knitwitty/Documents/subject-2.csv","legacy","5 7 8 4 1 2","Jazzy James","3.1.9","0","n","0","right","right","NA","right","NA","643","31612","NA","643","NA","2","legacy","6","1024","2","48000","-16","experiment","2","even","6","98164","94768","95949","3052","NA","95953","NA","3057","NA","100170","100815","96959","34671","100170","NA","Sternberg task","10","7126","10","yes","1024"
"100","100","708.636363636","708.636363636","black","no","practice","legacy","legacy","legacy","0","uniform","1","undefined","1","right","10","10","10","0","0","10","10","0","0","10","10","10","0","10","0","10/05/18 14:43:52","The main experiment item","yes","NA","Sternbergtask.osexp","C:\Users\Knitwitty\Desktop","no","mono","no","18","no","white","no","yes","768","legacy","10","10","C:/Users/Knitwitty/Documents/subject-2.csv","legacy","2 1","Jazzy James","3.1.9","0","n","0","right","right","NA","right","NA","669","31612","NA","669","NA","2","legacy","2","1024","2","48000","-16","experiment","2","even","5","104220","100831","102005","3052","NA","102009","NA","3057","NA","106226","106897","103014","34671","106226","NA","Sternberg task","11","7795","11","yes","1024"
"100","100","710.833333333","710.833333333","black","no","practice","legacy","legacy","legacy","0","uniform","1","undefined","1","left","11","11","11","0","0","11","11","0","0","11","11","11","0","11","0","10/05/18 14:43:52","The main experiment item","yes","NA","Sternbergtask.osexp","C:\Users\Knitwitty\Desktop","no","mono","no","18","no","white","no","yes","768","legacy","11","11","C:/Users/Knitwitty/Documents/subject-2.csv","legacy","4 3 1 7 9 8","Jazzy James","3.1.9","1","y","0","left","right","NA","left","NA","735","31612","NA","735","NA","2","legacy","6","1024","2","48000","-16","experiment","2","even","4","110305","106913","108091","3052","NA","108095","NA","3057","NA","112311","113048","109100","34671","112311","NA","Sternberg task","12","8530","12","yes","1024"
"100","100","700.153846154","700.153846154","black","no","experiment","legacy","legacy","legacy","0","uniform","1","undefined","1","left","12","12","12","0","0","12","12","0","0","12","12","12","0","12","0","10/05/18 14:43:52","The main experiment item","yes","NA","Sternbergtask.osexp","C:\Users\Knitwitty\Desktop","no","mono","no","18","no","white","no","yes","768","legacy","0","11","C:/Users/Knitwitty/Documents/subject-2.csv","legacy","8 9 5 6 7","Jazzy James","3.1.9","1","y","0","left","right","right","left","NA","572","31612","8319","572","NA","2","legacy","5","1024","2","48000","-16","experiment","2","even","8","125003","113064","122788","3052","122447","122792","NA","3057","114126","127009","127583","123797","34671","127009","NA","Sternberg task","13","9102","13","yes","1024"
"100","100","711","711","black","no","experiment","legacy","legacy","legacy","0","uniform","1","undefined","1","left","13","13","13","0","0","13","13","0","0","13","13","13","0","13","0","10/05/18 14:43:52","The main experiment item","yes","NA","Sternbergtask.osexp","C:\Users\Knitwitty\Desktop","no","mono","no","18","no","white","no","yes","768","legacy","1","11","C:/Users/Knitwitty/Documents/subject-2.csv","legacy","1 4 9 3 2 5","Jazzy James","3.1.9","3","y","0","left","right","right","left","NA","852","31612","8319","852","NA","2","legacy","6","1024","2","48000","-16","experiment","2","even","9","131004","127598","128788","3052","122447","128792","NA","3057","114126","133010","133864","129798","34671","133010","NA","Sternberg task","14","9954","14","yes","1024"
"100","100","704.866666667","704.866666667","black","no","experiment","legacy","legacy","legacy","0","uniform","1","undefined","1","right","14","14","14","0","0","14","14","0","0","14","14","14","0","14","0","10/05/18 14:43:52","The main experiment item","yes","NA","Sternbergtask.osexp","C:\Users\Knitwitty\Desktop","no","mono","no","18","no","white","no","yes","768","legacy","2","11","C:/Users/Knitwitty/Documents/subject-2.csv","legacy","8 5 4 2 9 6","Jazzy James","3.1.9","0","n","0","right","right","right","right","NA","619","31612","8319","619","NA","2","legacy","6","1024","2","48000","-16","experiment","2","even","3","137275","133879","135060","3052","122447","135065","NA","3057","114126","139282","139903","136070","34671","139281","NA","Sternberg task","15","10573","15","yes","1024"
"100","100","712.25","712.25","black","no","experiment","legacy","legacy","legacy","0","uniform","1","undefined","1","left","15","15","15","0","0","15","15","0","0","15","15","15","0","15","0","10/05/18 14:43:52","The main experiment item","yes","NA","Sternbergtask.osexp","C:\Users\Knitwitty\Desktop","no","mono","no","18","no","white","no","yes","768","legacy","3","11","C:/Users/Knitwitty/Documents/subject-2.csv","legacy","9 1 7 2","Jazzy James","3.1.9","2","y","0","left","right","right","left","NA","823","31612","8319","823","NA","2","legacy","4","1024","2","48000","-16","experiment","2","even","1","143319","139919","141104","3052","122447","141108","NA","3057","114126","145326","146151","142113","34671","145325","NA","Sternberg task","16","11396","16","yes","1024"
"100","100","710.588235294","710.588235294","black","no","experiment","legacy","legacy","legacy","0","uniform","1","undefined","1","right","16","16","16","0","0","16","16","0","0","16","16","16","0","16","0","10/05/18 14:43:52","The main experiment item","yes","NA","Sternbergtask.osexp","C:\Users\Knitwitty\Desktop","no","mono","no","18","no","white","no","yes","768","legacy","4","11","C:/Users/Knitwitty/Documents/subject-2.csv","legacy","9 7 4 5 8","Jazzy James","3.1.9","0","n","0","right","right","right","right","NA","684","31612","8319","684","NA","2","legacy","5","1024","2","48000","-16","experiment","2","even","6","149562","146166","147348","3052","122447","147352","NA","3057","114126","151569","152255","148357","34671","151568","NA","Sternberg task","17","12080","17","yes","1024"
"100","100","704.333333333","704.333333333","black","no","experiment","legacy","legacy","legacy","0","uniform","1","undefined","1","left","17","17","17","0","0","17","17","0","0","17","17","17","0","17","0","10/05/18 14:43:52","The main experiment item","yes","NA","Sternbergtask.osexp","C:\Users\Knitwitty\Desktop","no","mono","no","18","no","white","no","yes","768","legacy","5","11","C:/Users/Knitwitty/Documents/subject-2.csv","legacy","5 7 3 6 2","Jazzy James","3.1.9","5","y","0","left","right","right","left","NA","598","31612","8319","598","NA","2","legacy","5","1024","2","48000","-16","experiment","2","even","2","155674","152271","153459","3052","122447","153464","NA","3057","114126","157680","158280","154469","34671","157680","NA","Sternberg task","18","12678","18","yes","1024"
"100","100","698.473684211","698.473684211","black","no","experiment","legacy","legacy","legacy","0","uniform","1","undefined","1","left","18","18","18","0","0","18","18","0","0","18","18","18","0","18","0","10/05/18 14:43:52","The main experiment item","yes","NA","Sternbergtask.osexp","C:\Users\Knitwitty\Desktop","no","mono","no","18","no","white","no","yes","768","legacy","6","11","C:/Users/Knitwitty/Documents/subject-2.csv","legacy","6 7 9 3 1 2","Jazzy James","3.1.9","1","y","0","left","right","right","left","NA","593","31612","8319","593","NA","2","legacy","6","1024","2","48000","-16","experiment","2","even","6","161694","158296","159479","3052","122447","159483","NA","3057","114126","163700","164295","160488","34671","163700","NA","Sternberg task","19","13271","19","yes","1024"
"100","100","698.45","698.45","black","no","experiment","legacy","legacy","legacy","0","uniform","1","undefined","1","right","19","19","19","0","0","19","19","0","0","19","19","19","0","19","0","10/05/18 14:43:52","The main experiment item","yes","NA","Sternbergtask.osexp","C:\Users\Knitwitty\Desktop","no","mono","no","18","no","white","no","yes","768","legacy","7","11","C:/Users/Knitwitty/Documents/subject-2.csv","legacy","1 3 2 6 9","Jazzy James","3.1.9","0","n","0","right","right","right","right","NA","698","31612","8319","698","NA","2","legacy","5","1024","2","48000","-16","experiment","2","even","5","167710","164311","165494","3052","122447","165499","NA","3057","114126","169716","170416","166504","34671","169715","NA","Sternberg task","20","13969","20","yes","1024"
"100","100","706.952380952","706.952380952","black","no","experiment","legacy","legacy","legacy","0","uniform","1","undefined","1","right","20","20","20","0","0","20","20","0","0","20","20","20","0","20","0","10/05/18 14:43:52","The main experiment item","yes","NA","Sternbergtask.osexp","C:\Users\Knitwitty\Desktop","no","mono","no","18","no","white","no","yes","768","legacy","8","11","C:/Users/Knitwitty/Documents/subject-2.csv","legacy","6 9 4 5 2","Jazzy James","3.1.9","0","n","0","right","right","right","right","NA","877","31612","8319","877","NA","2","legacy","5","1024","2","48000","-16","experiment","2","even","1","173826","170432","171610","3052","122447","171615","NA","3057","114126","175832","176712","172621","34671","175832","NA","Sternberg task","21","14846","21","yes","1024"
"100","100","701.045454545","701.045454545","black","no","experiment","legacy","legacy","legacy","0","uniform","1","undefined","1","right","21","21","21","0","0","21","21","0","0","21","21","21","0","21","0","10/05/18 14:43:52","The main experiment item","yes","NA","Sternbergtask.osexp","C:\Users\Knitwitty\Desktop","no","mono","no","18","no","white","no","yes","768","legacy","9","11","C:/Users/Knitwitty/Documents/subject-2.csv","legacy","5","Jazzy James","3.1.9","0","n","0","right","right","right","right","NA","577","31612","8319","577","NA","2","legacy","1","1024","2","48000","-16","experiment","2","even","8","180118","176728","177904","3052","122447","177908","NA","3057","114126","182125","182704","178913","34671","182124","NA","Sternberg task","22","15423","22","yes","1024"
"100","100","695.869565217","695.869565217","black","no","experiment","legacy","legacy","legacy","0","uniform","1","undefined","1","left","22","22","22","0","0","22","22","0","0","22","22","22","0","22","0","10/05/18 14:43:52","The main experiment item","yes","NA","Sternbergtask.osexp","C:\Users\Knitwitty\Desktop","no","mono","no","18","no","white","no","yes","768","legacy","10","11","C:/Users/Knitwitty/Documents/subject-2.csv","legacy","9 8 4","Jazzy James","3.1.9","1","y","0","left","right","right","left","NA","582","31612","8319","582","NA","2","legacy","3","1024","2","48000","-16","experiment","2","even","9","186113","182720","183898","3052","122447","183902","NA","3057","114126","188119","188703","184908","34671","188119","NA","Sternberg task","23","16005","23","yes","1024"
"100","100","694.583333333","694.583333333","black","no","experiment","legacy","legacy","legacy","0","uniform","1","undefined","1","left","23","23","23","0","0","23","23","0","0","23","23","23","0","23","0","10/05/18 14:43:52","The main experiment item","yes","NA","Sternbergtask.osexp","C:\Users\Knitwitty\Desktop","no","mono","no","18","no","white","no","yes","768","legacy","11","11","C:/Users/Knitwitty/Documents/subject-2.csv","legacy","9 6 2 4 1","Jazzy James","3.1.9","4","y","0","left","right","right","left","NA","665","31612","8319","665","NA","2","legacy","5","1024","2","48000","-16","experiment","2","even","4","192116","188719","189902","3052","122447","189906","NA","3057","114126","194124","194791","190911","34671","194123","NA","Sternberg task","24","16670","24","yes","1024"
"100","100","689.04","689.04","black","no","experiment","legacy","legacy","legacy","0","uniform","1","undefined","1","right","24","24","24","0","0","24","24","0","0","24","24","24","0","24","0","10/05/18 14:43:52","The main experiment item","yes","NA","Sternbergtask.osexp","C:\Users\Knitwitty\Desktop","no","mono","no","18","no","white","no","yes","768","legacy","12","11","C:/Users/Knitwitty/Documents/subject-2.csv","legacy","7 1","Jazzy James","3.1.9","0","n","0","right","right","right","right","NA","556","31612","8319","556","NA","2","legacy","2","1024","2","48000","-16","experiment","2","even","8","198205","194807","195990","3052","122447","195994","NA","3057","114126","200210","200768","196999","34671","200210","NA","Sternberg task","25","17226","25","yes","1024"
"100","100","691.307692308","691.307692308","black","no","experiment","legacy","legacy","legacy","0","uniform","1","undefined","1","right","25","25","25","0","0","25","25","0","0","25","25","25","0","25","0","10/05/18 14:43:52","The main experiment item","yes","NA","Sternbergtask.osexp","C:\Users\Knitwitty\Desktop","no","mono","no","18","no","white","no","yes","768","legacy","13","11","C:/Users/Knitwitty/Documents/subject-2.csv","legacy","6 9 5","Jazzy James","3.1.9","0","n","0","right","right","right","right","NA","748","31612","8319","748","NA","2","legacy","3","1024","2","48000","-16","experiment","2","even","8","204178","200784","201963","3052","122447","201967","NA","3057","114126","206185","206936","202972","34671","206184","NA","Sternberg task","26","17974","26","yes","1024"
"100","100","686.222222222","686.222222222","black","no","experiment","legacy","legacy","legacy","0","uniform","1","undefined","1","right","26","26","26","0","0","26","26","0","0","26","26","26","0","26","0","10/05/18 14:43:52","The main experiment item","yes","NA","Sternbergtask.osexp","C:\Users\Knitwitty\Desktop","no","mono","no","18","no","white","no","yes","768","legacy","14","11","C:/Users/Knitwitty/Documents/subject-2.csv","legacy","1 7 5 2","Jazzy James","3.1.9","0","n","0","right","right","right","right","NA","554","31612","8319","554","NA","2","legacy","4","1024","2","48000","-16","experiment","2","even","3","210351","206952","208136","3052","122447","208140","NA","3057","114126","212356","212913","209145","34671","212356","NA","Sternberg task","27","18528","27","yes","1024"
"100","100","707","707","black","no","experiment","legacy","legacy","legacy","0","uniform","1","undefined","1","right","27","27","27","0","0","27","27","0","0","27","27","27","0","27","0","10/05/18 14:43:52","The main experiment item","yes","NA","Sternbergtask.osexp","C:\Users\Knitwitty\Desktop","no","mono","no","18","no","white","no","yes","768","legacy","15","11","C:/Users/Knitwitty/Documents/subject-2.csv","legacy","5 9 2 3","Jazzy James","3.1.9","0","n","0","right","right","right","right","NA","1268","31612","8319","1268","NA","2","legacy","4","1024","2","48000","-16","experiment","2","even","8","216324","212929","214109","3052","122447","214113","NA","3057","114126","218330","219600","215118","34671","218329","NA","Sternberg task","28","19796","28","yes","1024"
"100","100","719.689655172","719.689655172","black","no","experiment","legacy","legacy","legacy","0","uniform","1","undefined","1","right","28","28","28","0","0","28","28","0","0","28","28","28","0","28","0","10/05/18 14:43:52","The main experiment item","yes","NA","Sternbergtask.osexp","C:\Users\Knitwitty\Desktop","no","mono","no","18","no","white","no","yes","768","legacy","16","11","C:/Users/Knitwitty/Documents/subject-2.csv","legacy","8 9","Jazzy James","3.1.9","0","n","0","right","right","right","right","NA","1075","31612","8319","1075","NA","2","legacy","2","1024","2","48000","-16","experiment","2","even","5","223012","219615","220796","3052","122447","220801","NA","3057","114126","225018","226096","221806","34671","225017","NA","Sternberg task","29","20871","29","yes","1024"
"100","100","715.833333333","715.833333333","black","no","experiment","legacy","legacy","legacy","0","uniform","1","undefined","1","left","29","29","29","0","0","29","29","0","0","29","29","29","0","29","0","10/05/18 14:43:52","The main experiment item","yes","NA","Sternbergtask.osexp","C:\Users\Knitwitty\Desktop","no","mono","no","18","no","white","no","yes","768","legacy","17","11","C:/Users/Knitwitty/Documents/subject-2.csv","legacy","7 8 6 3 1","Jazzy James","3.1.9","5","y","0","left","right","right","left","NA","604","31612","8319","604","NA","2","legacy","5","1024","2","48000","-16","experiment","2","even","1","229603","226216","227388","3052","122447","227392","NA","3057","114126","231609","232216","228397","34671","231608","NA","Sternberg task","30","21475","30","yes","1024"
"100","100","721.322580645","721.322580645","black","no","experiment","legacy","legacy","legacy","0","uniform","1","undefined","1","left","30","30","30","0","0","30","30","0","0","30","30","30","0","30","0","10/05/18 14:43:52","The main experiment item","yes","NA","Sternbergtask.osexp","C:\Users\Knitwitty\Desktop","no","mono","no","18","no","white","no","yes","768","legacy","18","11","C:/Users/Knitwitty/Documents/subject-2.csv","legacy","7 6","Jazzy James","3.1.9","2","y","0","left","right","right","left","NA","886","31612","8319","886","NA","2","legacy","2","1024","2","48000","-16","experiment","2","even","6","235625","232232","233410","3052","122447","233414","NA","3057","114126","237631","238520","234420","34671","237631","NA","Sternberg task","31","22361","31","yes","1024"
"100","100","727.65625","727.65625","black","no","experiment","legacy","legacy","legacy","0","uniform","1","undefined","1","left","31","31","31","0","0","31","31","0","0","31","31","31","0","31","0","10/05/18 14:43:52","The main experiment item","yes","NA","Sternbergtask.osexp","C:\Users\Knitwitty\Desktop","no","mono","no","18","no","white","no","yes","768","legacy","19","11","C:/Users/Knitwitty/Documents/subject-2.csv","legacy","3 9 6 2","Jazzy James","3.1.9","4","y","0","left","right","right","left","NA","924","31612","8319","924","NA","2","legacy","4","1024","2","48000","-16","experiment","2","even","2","241932","238536","239716","3052","122447","239721","NA","3057","114126","243938","244864","240726","34671","243937","NA","Sternberg task","32","23285","32","yes","1024"
"100","100","724.909090909","724.909090909","black","no","experiment","legacy","legacy","legacy","0","uniform","1","undefined","1","left","32","32","32","0","0","32","32","0","0","32","32","32","0","32","0","10/05/18 14:43:52","The main experiment item","yes","NA","Sternbergtask.osexp","C:\Users\Knitwitty\Desktop","no","mono","no","18","no","white","no","yes","768","legacy","20","11","C:/Users/Knitwitty/Documents/subject-2.csv","legacy","2 3 7 4","Jazzy James","3.1.9","1","y","0","left","right","right","left","NA","637","31612","8319","637","NA","2","legacy","4","1024","2","48000","-16","experiment","2","even","2","248274","244880","246059","3052","122447","246063","NA","3057","114126","250280","250920","247069","34671","250280","NA","Sternberg task","33","23922","33","yes","1024"
"100","100","721.735294118","721.735294118","black","no","experiment","legacy","legacy","legacy","0","uniform","1","undefined","1","left","33","33","33","0","0","33","33","0","0","33","33","33","0","33","0","10/05/18 14:43:52","The main experiment item","yes","NA","Sternbergtask.osexp","C:\Users\Knitwitty\Desktop","no","mono","no","18","no","white","no","yes","768","legacy","21","11","C:/Users/Knitwitty/Documents/subject-2.csv","legacy","2 4 8 5 1 3","Jazzy James","3.1.9","1","y","0","left","right","right","left","NA","617","31612","8319","617","NA","2","legacy","6","1024","2","48000","-16","experiment","2","even","2","254334","250936","252118","3052","122447","252122","NA","3057","114126","256340","256960","253128","34671","256340","NA","Sternberg task","34","24539","34","yes","1024"
"100","100","720.114285714","720.114285714","black","no","experiment","legacy","legacy","legacy","0","uniform","1","undefined","1","left","34","34","34","0","0","34","34","0","0","34","34","34","0","34","0","10/05/18 14:43:52","The main experiment item","yes","NA","Sternbergtask.osexp","C:\Users\Knitwitty\Desktop","no","mono","no","18","no","white","no","yes","768","legacy","22","11","C:/Users/Knitwitty/Documents/subject-2.csv","legacy","8 9 6 1","Jazzy James","3.1.9","2","y","0","left","right","right","left","NA","665","31612","8319","665","NA","2","legacy","4","1024","2","48000","-16","experiment","2","even","9","260366","256976","258152","3052","122447","258156","NA","3057","114126","262373","263040","259161","34671","262372","NA","Sternberg task","35","25204","35","yes","1024"
"100","100","718.194444444","718.194444444","black","no","experiment","legacy","legacy","legacy","0","uniform","1","undefined","1","right","35","35","35","0","0","35","35","0","0","35","35","35","0","35","0","10/05/18 14:43:52","The main experiment item","yes","NA","Sternbergtask.osexp","C:\Users\Knitwitty\Desktop","no","mono","no","18","no","white","no","yes","768","legacy","23","11","C:/Users/Knitwitty/Documents/subject-2.csv","legacy","1 6 4 3 9 7","Jazzy James","3.1.9","0","n","0","right","right","right","right","NA","651","31612","8319","651","NA","2","legacy","6","1024","2","48000","-16","experiment","2","even","8","266453","263057","264239","3052","122447","264243","NA","3057","114126","268459","269113","265248","34671","268459","NA","Sternberg task","36","25855","36","yes","1024"
"100","100","713.945945946","713.945945946","black","no","experiment","legacy","legacy","legacy","0","uniform","1","undefined","1","right","36","36","36","0","0","36","36","0","0","36","36","36","0","36","0","10/05/18 14:43:52","The main experiment item","yes","NA","Sternbergtask.osexp","C:\Users\Knitwitty\Desktop","no","mono","no","18","no","white","no","yes","768","legacy","24","11","C:/Users/Knitwitty/Documents/subject-2.csv","legacy","4 8 1 2","Jazzy James","3.1.9","0","n","0","right","right","right","right","NA","561","31612","8319","561","NA","2","legacy","4","1024","2","48000","-16","experiment","2","even","7","272517","269128","270302","3052","122447","270306","NA","3057","114126","274524","275088","271311","34671","274523","NA","Sternberg task","37","26416","37","yes","1024"
"100","100","706.526315789","706.526315789","black","no","experiment","legacy","legacy","legacy","0","uniform","1","undefined","1","left","37","37","37","0","0","37","37","0","0","37","37","37","0","37","0","10/05/18 14:43:52","The main experiment item","yes","NA","Sternbergtask.osexp","C:\Users\Knitwitty\Desktop","no","mono","no","18","no","white","no","yes","768","legacy","25","11","C:/Users/Knitwitty/Documents/subject-2.csv","legacy","6 8 9 3 4 9","Jazzy James","3.1.9","5","y","0","left","right","right","left","NA","432","31612","8319","432","NA","2","legacy","6","1024","2","48000","-16","experiment","2","even","4","278496","275104","276280","3052","122447","276284","NA","3057","114126","280502","280937","277289","34671","280501","NA","Sternberg task","38","26848","38","yes","1024"
"100","100","704.384615385","704.384615385","black","no","experiment","legacy","legacy","legacy","0","uniform","1","undefined","1","right","38","38","38","0","0","38","38","0","0","38","38","38","0","38","0","10/05/18 14:43:52","The main experiment item","yes","NA","Sternbergtask.osexp","C:\Users\Knitwitty\Desktop","no","mono","no","18","no","white","no","yes","768","legacy","26","11","C:/Users/Knitwitty/Documents/subject-2.csv","legacy","9","Jazzy James","3.1.9","0","n","0","right","right","right","right","NA","623","31612","8319","623","NA","2","legacy","1","1024","2","48000","-16","experiment","2","even","6","284344","280953","282129","3052","122447","282134","NA","3057","114126","286350","286976","283140","34671","286350","NA","Sternberg task","39","27471","39","yes","1024"
"97.5","97.5","706.75","706.75","black","no","experiment","legacy","legacy","legacy","0","uniform","0","undefined","0","left","39","39","39","0","0","39","39","0","0","39","39","39","0","39","0","10/05/18 14:43:52","The main experiment item","yes","NA","Sternbergtask.osexp","C:\Users\Knitwitty\Desktop","no","mono","no","18","no","white","no","yes","768","legacy","27","11","C:/Users/Knitwitty/Documents/subject-2.csv","legacy","8 5 4 7 3 1","Jazzy James","3.1.9","2","y","0","right","right","right","right","NA","799","31612","8319","799","NA","2","legacy","6","1024","2","48000","-16","experiment","2","even","5","290391","286993","288174","3052","122447","288178","NA","3057","114126","292398","293201","289185","34671","292397","NA","Sternberg task","39","28270","40","yes","1024"
"97.5609756098","97.5609756098","703.804878049","703.804878049","black","no","experiment","legacy","legacy","legacy","0","uniform","1","undefined","1","left","40","40","40","0","0","40","40","0","0","40","40","40","0","40","0","10/05/18 14:43:52","The main experiment item","yes","NA","Sternbergtask.osexp","C:\Users\Knitwitty\Desktop","no","mono","no","18","no","white","no","yes","768","legacy","28","11","C:/Users/Knitwitty/Documents/subject-2.csv","legacy","5 2 9 6 1 7","Jazzy James","3.1.9","3","y","0","left","right","right","left","NA","586","31612","8319","586","NA","2","legacy","6","1024","2","48000","-16","experiment","2","even","9","296605","286993","294391","3052","122447","294395","293217","3057","114126","298611","299201","295400","34671","298611","NA","Sternberg task","40","28856","41","yes","1024"
"97.619047619","97.619047619","701.166666667","701.166666667","black","no","experiment","legacy","legacy","legacy","0","uniform","1","undefined","1","left","41","41","41","0","0","41","41","0","0","41","41","41","0","41","0","10/05/18 14:43:52","The main experiment item","yes","NA","Sternbergtask.osexp","C:\Users\Knitwitty\Desktop","no","mono","no","18","no","white","no","yes","768","legacy","29","11","C:/Users/Knitwitty/Documents/subject-2.csv","legacy","9 4 2","Jazzy James","3.1.9","1","y","0","left","right","right","left","NA","593","31612","8319","593","NA","2","legacy","3","1024","2","48000","-16","experiment","2","even","9","302607","299216","300392","3052","122447","300396","293217","3057","114126","304613","305209","301401","34671","304613","NA","Sternberg task","41","29449","42","yes","1024"
"97.6744186047","97.6744186047","701.604651163","701.604651163","black","no","experiment","legacy","legacy","legacy","0","uniform","1","undefined","1","right","42","42","42","0","0","42","42","0","0","42","42","42","0","42","0","10/05/18 14:43:52","The main experiment item","yes","NA","Sternbergtask.osexp","C:\Users\Knitwitty\Desktop","no","mono","no","18","no","white","no","yes","768","legacy","30","11","C:/Users/Knitwitty/Documents/subject-2.csv","legacy","7 3 2 8","Jazzy James","3.1.9","0","n","0","right","right","right","right","NA","720","31612","8319","720","NA","2","legacy","4","1024","2","48000","-16","experiment","2","even","4","308615","305225","306400","3052","122447","306404","293217","3057","114126","310622","311344","307409","34671","310621","NA","Sternberg task","42","30169","43","yes","1024"
"97.7272727273","97.7272727273","698.636363636","698.636363636","black","no","experiment","legacy","legacy","legacy","0","uniform","1","undefined","1","left","43","43","43","0","0","43","43","0","0","43","43","43","0","43","0","10/05/18 14:43:52","The main experiment item","yes","NA","Sternbergtask.osexp","C:\Users\Knitwitty\Desktop","no","mono","no","18","no","white","no","yes","768","legacy","31","11","C:/Users/Knitwitty/Documents/subject-2.csv","legacy","2 6 1 7 4","Jazzy James","3.1.9","2","y","0","left","right","right","left","NA","571","31612","8319","571","NA","2","legacy","5","1024","2","48000","-16","experiment","2","even","6","314756","311360","312540","3052","122447","312544","293217","3057","114126","316763","317337","313550","34671","316762","NA","Sternberg task","43","30740","44","yes","1024"
"97.7777777778","97.7777777778","698.2","698.2","black","no","experiment","legacy","legacy","legacy","0","uniform","1","undefined","1","left","44","44","44","0","0","44","44","0","0","44","44","44","0","44","0","10/05/18 14:43:52","The main experiment item","yes","NA","Sternbergtask.osexp","C:\Users\Knitwitty\Desktop","no","mono","no","18","no","white","no","yes","768","legacy","32","11","C:/Users/Knitwitty/Documents/subject-2.csv","legacy","8 7 3","Jazzy James","3.1.9","1","y","0","left","right","right","left","NA","679","31612","8319","679","NA","2","legacy","3","1024","2","48000","-16","experiment","2","even","8","320753","317353","318536","3052","122447","318540","293217","3057","114126","322758","323440","319546","34671","322758","NA","Sternberg task","44","31419","45","yes","1024"
"97.8260869565","97.8260869565","697.456521739","697.456521739","black","no","experiment","legacy","legacy","legacy","0","uniform","1","undefined","1","left","45","45","45","0","0","45","45","0","0","45","45","45","0","45","0","10/05/18 14:43:52","The main experiment item","yes","NA","Sternbergtask.osexp","C:\Users\Knitwitty\Desktop","no","mono","no","18","no","white","no","yes","768","legacy","33","11","C:/Users/Knitwitty/Documents/subject-2.csv","legacy","9 3 8 2 1 4","Jazzy James","3.1.9","3","y","0","left","right","right","left","NA","664","31612","8319","664","NA","2","legacy","6","1024","2","48000","-16","experiment","2","even","8","326849","323461","324634","3052","122447","324638","293217","3057","114126","328854","329521","325643","34671","328854","NA","Sternberg task","45","32083","46","yes","1024"
"97.8723404255","97.8723404255","707.382978723","707.382978723","black","no","experiment","legacy","legacy","legacy","0","uniform","1","undefined","1","right","46","46","46","0","0","46","46","0","0","46","46","46","0","46","0","10/05/18 14:43:52","The main experiment item","yes","NA","Sternbergtask.osexp","C:\Users\Knitwitty\Desktop","no","mono","no","18","no","white","no","yes","768","legacy","34","11","C:/Users/Knitwitty/Documents/subject-2.csv","legacy","8 4 3 9","Jazzy James","3.1.9","0","n","0","right","right","right","right","NA","1164","31612","8319","1164","NA","2","legacy","4","1024","2","48000","-16","experiment","2","even","5","332939","329545","330722","3052","122447","330727","293217","3057","114126","334946","336114","331733","34671","334945","NA","Sternberg task","46","33247","47","yes","1024"
"97.9166666667","97.9166666667","730.9375","730.9375","black","no","experiment","legacy","legacy","legacy","0","uniform","1","undefined","1","left","47","47","47","0","0","47","47","0","0","47","47","47","0","47","0","10/05/18 14:43:52","The main experiment item","yes","NA","Sternbergtask.osexp","C:\Users\Knitwitty\Desktop","no","mono","no","18","no","white","no","yes","768","legacy","35","11","C:/Users/Knitwitty/Documents/subject-2.csv","legacy","3 4 9 6 2 9","Jazzy James","3.1.9","5","y","0","left","right","right","left","NA","1838","31612","8319","1838","NA","2","legacy","6","1024","2","48000","-16","experiment","2","even","2","339529","336129","337313","3052","122447","337317","293217","3057","114126","341535","343377","338323","34671","341534","NA","Sternberg task","47","35085","48","yes","1024"
"97.9591836735","97.9591836735","731.693877551","731.693877551","black","no","experiment","legacy","legacy","legacy","0","uniform","1","undefined","1","left","48","48","48","0","0","48","48","0","0","48","48","48","0","48","0","10/05/18 14:43:52","The main experiment item","yes","NA","Sternbergtask.osexp","C:\Users\Knitwitty\Desktop","no","mono","no","18","no","white","no","yes","768","legacy","36","11","C:/Users/Knitwitty/Documents/subject-2.csv","legacy","4 6 2 5 1","Jazzy James","3.1.9","5","y","0","left","right","right","left","NA","768","31612","8319","768","NA","2","legacy","5","1024","2","48000","-16","experiment","2","even","1","346793","343392","344577","3052","122447","344582","293217","3057","114126","348798","349569","345587","34671","348798","NA","Sternberg task","48","35853","49","yes","1024"
"98","98","727.3","727.3","black","no","experiment","legacy","legacy","legacy","0","uniform","1","undefined","1","left","49","49","49","0","0","49","49","0","0","49","49","49","0","49","0","10/05/18 14:43:52","The main experiment item","yes","NA","Sternbergtask.osexp","C:\Users\Knitwitty\Desktop","no","mono","no","18","no","white","no","yes","768","legacy","37","11","C:/Users/Knitwitty/Documents/subject-2.csv","legacy","4","Jazzy James","3.1.9","1","y","0","left","right","right","left","NA","512","31612","8319","512","NA","2","legacy","1","1024","2","48000","-16","experiment","2","even","4","352975","349585","350760","3052","122447","350765","293217","3057","114126","354981","355496","351770","34671","354981","NA","Sternberg task","49","36365","50","yes","1024"
"98.0392156863","98.0392156863","726.725490196","726.725490196","black","no","experiment","legacy","legacy","legacy","0","uniform","1","undefined","1","left","50","50","50","0","0","50","50","0","0","50","50","50","0","50","0","10/05/18 14:43:52","The main experiment item","yes","NA","Sternbergtask.osexp","C:\Users\Knitwitty\Desktop","no","mono","no","18","no","white","no","yes","768","legacy","38","11","C:/Users/Knitwitty/Documents/subject-2.csv","legacy","4 1 8 7 5","Jazzy James","3.1.9","3","y","0","left","right","right","left","NA","698","31612","8319","698","NA","2","legacy","5","1024","2","48000","-16","experiment","2","even","8","358911","355512","356695","3052","122447","356699","293217","3057","114126","360916","361617","357705","34671","360916","NA","Sternberg task","50","37063","51","yes","1024"
"98.0769230769","98.0769230769","733.711538462","733.711538462","black","no","experiment","legacy","legacy","legacy","0","uniform","1","undefined","1","right","51","51","51","0","0","51","51","0","0","51","51","51","0","51","0","10/05/18 14:43:52","The main experiment item","yes","NA","Sternbergtask.osexp","C:\Users\Knitwitty\Desktop","no","mono","no","18","no","white","no","yes","768","legacy","39","11","C:/Users/Knitwitty/Documents/subject-2.csv","legacy","2 5 1 4","Jazzy James","3.1.9","0","n","0","right","right","right","right","NA","1090","31612","8319","1090","NA","2","legacy","4","1024","2","48000","-16","experiment","2","even","6","365024","361633","362809","3052","122447","362814","293217","3057","114126","367027","368121","363819","34671","367027","NA","Sternberg task","51","38153","52","yes","1024"
"98.1132075472","98.1132075472","734","734","black","no","experiment","legacy","legacy","legacy","0","uniform","1","undefined","1","right","52","52","52","0","0","52","52","0","0","52","52","52","0","52","0","10/05/18 14:43:52","The main experiment item","yes","NA","Sternbergtask.osexp","C:\Users\Knitwitty\Desktop","no","mono","no","18","no","white","no","yes","768","legacy","40","11","C:/Users/Knitwitty/Documents/subject-2.csv","legacy","2 6 4 3 9","Jazzy James","3.1.9","0","n","0","right","right","right","right","NA","749","31612","8319","749","NA","2","legacy","5","1024","2","48000","-16","experiment","2","even","1","371529","368136","369314","3052","122447","369318","293217","3057","114126","373536","374288","370323","34671","373536","NA","Sternberg task","52","38902","53","yes","1024"
"98.1481481481","98.1481481481","732.055555556","732.055555556","black","no","experiment","legacy","legacy","legacy","0","uniform","1","undefined","1","right","53","53","53","0","0","53","53","0","0","53","53","53","0","53","0","10/05/18 14:43:52","The main experiment item","yes","NA","Sternbergtask.osexp","C:\Users\Knitwitty\Desktop","no","mono","no","18","no","white","no","yes","768","legacy","41","11","C:/Users/Knitwitty/Documents/subject-2.csv","legacy","9 8 2 7 4","Jazzy James","3.1.9","0","n","0","right","right","right","right","NA","629","31612","8319","629","NA","2","legacy","5","1024","2","48000","-16","experiment","2","even","5","377697","374304","375481","3052","122447","375486","293217","3057","114126","379704","380336","376491","34671","379703","NA","Sternberg task","53","39531","54","yes","1024"
"98.1818181818","98.1818181818","730.654545455","730.654545455","black","no","experiment","legacy","legacy","legacy","0","uniform","1","undefined","1","right","54","54","54","0","0","54","54","0","0","54","54","54","0","54","0","10/05/18 14:43:52","The main experiment item","yes","NA","Sternbergtask.osexp","C:\Users\Knitwitty\Desktop","no","mono","no","18","no","white","no","yes","768","legacy","42","11","C:/Users/Knitwitty/Documents/subject-2.csv","legacy","9 5 3 2 8 6","Jazzy James","3.1.9","0","n","0","right","right","right","right","NA","655","31612","8319","655","NA","2","legacy","6","1024","2","48000","-16","experiment","2","even","7","383752","380352","381537","3052","122447","381541","293217","3057","114126","385759","386418","382547","34671","385758","NA","Sternberg task","54","40186","55","yes","1024"
"98.2142857143","98.2142857143","730.678571429","730.678571429","black","no","experiment","legacy","legacy","legacy","0","uniform","1","undefined","1","left","55","55","55","0","0","55","55","0","0","55","55","55","0","55","0","10/05/18 14:43:52","The main experiment item","yes","NA","Sternbergtask.osexp","C:\Users\Knitwitty\Desktop","no","mono","no","18","no","white","no","yes","768","legacy","43","11","C:/Users/Knitwitty/Documents/subject-2.csv","legacy","6 7 8 5","Jazzy James","3.1.9","3","y","0","left","right","right","left","NA","732","31612","8319","732","NA","2","legacy","4","1024","2","48000","-16","experiment","2","even","8","389827","386434","387611","3052","122447","387615","293217","3057","114126","391834","392569","388621","34671","391833","NA","Sternberg task","55","40918","56","yes","1024"
"98.2456140351","98.2456140351","728.473684211","728.473684211","black","no","experiment","legacy","legacy","legacy","0","uniform","1","undefined","1","right","56","56","56","0","0","56","56","0","0","56","56","56","0","56","0","10/05/18 14:43:52","The main experiment item","yes","NA","Sternbergtask.osexp","C:\Users\Knitwitty\Desktop","no","mono","no","18","no","white","no","yes","768","legacy","44","11","C:/Users/Knitwitty/Documents/subject-2.csv","legacy","7 8 6 1","Jazzy James","3.1.9","0","n","0","right","right","right","right","NA","605","31612","8319","605","NA","2","legacy","4","1024","2","48000","-16","experiment","2","even","3","395978","392585","393762","3052","122447","393767","293217","3057","114126","397984","398594","394773","34671","397983","NA","Sternberg task","56","41523","57","yes","1024"
"98.275862069","98.275862069","730.706896552","730.706896552","black","no","experiment","legacy","legacy","legacy","0","uniform","1","undefined","1","right","57","57","57","0","0","57","57","0","0","57","57","57","0","57","0","10/05/18 14:43:52","The main experiment item","yes","NA","Sternbergtask.osexp","C:\Users\Knitwitty\Desktop","no","mono","no","18","no","white","no","yes","768","legacy","45","11","C:/Users/Knitwitty/Documents/subject-2.csv","legacy","6 9 7 3 8 2","Jazzy James","3.1.9","0","n","0","right","right","right","right","NA","858","31612","8319","858","NA","2","legacy","6","1024","2","48000","-16","experiment","2","even","5","402005","398609","399789","3052","122447","399793","293217","3057","114126","404012","404874","400799","34671","404011","NA","Sternberg task","57","42381","58","yes","1024"
"98.3050847458","98.3050847458","731.966101695","731.966101695","black","no","experiment","legacy","legacy","legacy","0","uniform","1","undefined","1","left","58","58","58","0","0","58","58","0","0","58","58","58","0","58","0","10/05/18 14:43:52","The main experiment item","yes","NA","Sternbergtask.osexp","C:\Users\Knitwitty\Desktop","no","mono","no","18","no","white","no","yes","768","legacy","46","11","C:/Users/Knitwitty/Documents/subject-2.csv","legacy","2 5 4 8 7","Jazzy James","3.1.9","3","y","0","left","right","right","left","NA","805","31612","8319","805","NA","2","legacy","5","1024","2","48000","-16","experiment","2","even","4","408291","404890","406076","3052","122447","406080","293217","3057","114126","410297","411106","407085","34671","410296","NA","Sternberg task","58","43186","59","yes","1024"
"98.3333333333","98.3333333333","730.666666667","730.666666667","black","no","experiment","legacy","legacy","legacy","0","uniform","1","undefined","1","right","59","59","59","0","0","59","59","0","0","59","59","59","0","59","0","10/05/18 14:43:52","The main experiment item","yes","NA","Sternbergtask.osexp","C:\Users\Knitwitty\Desktop","no","mono","no","18","no","white","no","yes","768","legacy","47","11","C:/Users/Knitwitty/Documents/subject-2.csv","legacy","1 7 8 3 9","Jazzy James","3.1.9","0","n","0","right","right","right","right","NA","654","31612","8319","654","NA","2","legacy","5","1024","2","48000","-16","experiment","2","even","2","414522","411121","412306","3052","122447","412311","293217","3057","114126","416528","417185","413316","34671","416528","NA","Sternberg task","59","43840","60","yes","1024"
"98.3606557377","98.3606557377","725.737704918","725.737704918","black","no","experiment","legacy","legacy","legacy","0","uniform","1","undefined","1","left","60","60","60","0","0","60","60","0","0","60","60","60","0","60","0","10/05/18 14:43:52","The main experiment item","yes","NA","Sternbergtask.osexp","C:\Users\Knitwitty\Desktop","no","mono","no","18","no","white","no","yes","768","legacy","48","11","C:/Users/Knitwitty/Documents/subject-2.csv","legacy","5 2 6","Jazzy James","3.1.9","2","y","0","left","right","right","left","NA","430","31612","8319","430","NA","2","legacy","3","1024","2","48000","-16","experiment","2","even","2","420595","417201","418380","3052","122447","418384","293217","3057","114126","422600","423033","419389","34671","422600","NA","Sternberg task","60","44270","61","yes","1024"
"98.3870967742","98.3870967742","726.983870968","726.983870968","black","no","experiment","legacy","legacy","legacy","0","uniform","1","undefined","1","left","61","61","61","0","0","61","61","0","0","61","61","61","0","61","0","10/05/18 14:43:52","The main experiment item","yes","NA","Sternbergtask.osexp","C:\Users\Knitwitty\Desktop","no","mono","no","18","no","white","no","yes","768","legacy","49","11","C:/Users/Knitwitty/Documents/subject-2.csv","legacy","4 1 5","Jazzy James","3.1.9","2","y","0","left","right","right","left","NA","803","31612","8319","803","NA","2","legacy","3","1024","2","48000","-16","experiment","2","even","1","426444","423049","424230","3052","122447","424234","293217","3057","114126","428451","429258","425239","34671","428450","NA","Sternberg task","61","45073","62","yes","1024"
"96.8253968254","96.8253968254","735.380952381","735.380952381","black","no","experiment","legacy","legacy","legacy","0","uniform","0","undefined","0","left","62","62","62","0","0","62","62","0","0","62","62","62","0","62","0","10/05/18 14:43:52","The main experiment item","yes","NA","Sternbergtask.osexp","C:\Users\Knitwitty\Desktop","no","mono","no","18","no","white","no","yes","768","legacy","50","11","C:/Users/Knitwitty/Documents/subject-2.csv","legacy","9 3 1 2 5","Jazzy James","3.1.9","4","y","0","right","right","right","right","NA","1256","31612","8319","1256","NA","2","legacy","5","1024","2","48000","-16","experiment","2","even","2","432671","429274","430455","3052","122447","430459","293217","3057","114126","434677","435937","431465","34671","434676","NA","Sternberg task","61","46329","63","yes","1024"
"96.875","96.875","733.46875","733.46875","black","no","experiment","legacy","legacy","legacy","0","uniform","1","undefined","1","right","63","63","63","0","0","63","63","0","0","63","63","63","0","63","0","10/05/18 14:43:52","The main experiment item","yes","NA","Sternbergtask.osexp","C:\Users\Knitwitty\Desktop","no","mono","no","18","no","white","no","yes","768","legacy","51","11","C:/Users/Knitwitty/Documents/subject-2.csv","legacy","6 8","Jazzy James","3.1.9","0","n","0","right","right","right","right","NA","613","31612","8319","613","NA","2","legacy","2","1024","2","48000","-16","experiment","2","even","9","439354","429274","437139","3052","122447","437143","435953","3057","114126","441360","441977","438148","34671","441360","NA","Sternberg task","62","46942","64","yes","1024"
"96.9230769231","96.9230769231","731.384615385","731.384615385","black","no","experiment","legacy","legacy","legacy","0","uniform","1","undefined","1","right","64","64","64","0","0","64","64","0","0","64","64","64","0","64","0","10/05/18 14:43:52","The main experiment item","yes","NA","Sternbergtask.osexp","C:\Users\Knitwitty\Desktop","no","mono","no","18","no","white","no","yes","768","legacy","52","11","C:/Users/Knitwitty/Documents/subject-2.csv","legacy","6 7 5 9","Jazzy James","3.1.9","0","n","0","right","right","right","right","NA","598","31612","8319","598","NA","2","legacy","4","1024","2","48000","-16","experiment","2","even","2","445385","441992","443171","3052","122447","443175","435953","3057","114126","447391","447993","444180","34671","447391","NA","Sternberg task","63","47540","65","yes","1024"
"96.9696969697","96.9696969697","729.909090909","729.909090909","black","no","experiment","legacy","legacy","legacy","0","uniform","1","undefined","1","right","65","65","65","0","0","65","65","0","0","65","65","65","0","65","0","10/05/18 14:43:52","The main experiment item","yes","NA","Sternbergtask.osexp","C:\Users\Knitwitty\Desktop","no","mono","no","18","no","white","no","yes","768","legacy","53","11","C:/Users/Knitwitty/Documents/subject-2.csv","legacy","1 5 3 2 8","Jazzy James","3.1.9","0","n","0","right","right","right","right","NA","634","31612","8319","634","NA","2","legacy","5","1024","2","48000","-16","experiment","2","even","4","451406","448009","449190","3052","122447","449194","435953","3057","114126","453411","454049","450200","34671","453411","NA","Sternberg task","64","48174","66","yes","1024"
"97.0149253731","97.0149253731","736.686567164","736.686567164","black","no","experiment","legacy","legacy","legacy","0","uniform","1","undefined","1","left","66","66","66","0","0","66","66","0","0","66","66","66","0","66","0","10/05/18 14:43:52","The main experiment item","yes","NA","Sternbergtask.osexp","C:\Users\Knitwitty\Desktop","no","mono","no","18","no","white","no","yes","768","legacy","54","11","C:/Users/Knitwitty/Documents/subject-2.csv","legacy","5 7 8 2 3 8","Jazzy James","3.1.9","5","y","0","left","right","right","left","NA","1184","31612","8319","1184","NA","2","legacy","6","1024","2","48000","-16","experiment","2","even","3","457463","454065","455249","3052","122447","455253","435953","3057","114126","459469","460657","456258","34671","459469","NA","Sternberg task","65","49358","67","yes","1024"
"97.0588235294","97.0588235294","734.75","734.75","black","no","experiment","legacy","legacy","legacy","0","uniform","1","undefined","1","left","67","67","67","0","0","67","67","0","0","67","67","67","0","67","0","10/05/18 14:43:52","The main experiment item","yes","NA","Sternbergtask.osexp","C:\Users\Knitwitty\Desktop","no","mono","no","18","no","white","no","yes","768","legacy","55","11","C:/Users/Knitwitty/Documents/subject-2.csv","legacy","7 8 4 6 9 5","Jazzy James","3.1.9","4","y","0","left","right","right","left","NA","605","31612","8319","605","NA","2","legacy","6","1024","2","48000","-16","experiment","2","even","6","464066","460672","461851","3052","122447","461855","435953","3057","114126","466072","466681","462860","34671","466072","NA","Sternberg task","66","49963","68","yes","1024"
"97.1014492754","97.1014492754","736.405797101","736.405797101","black","no","experiment","legacy","legacy","legacy","0","uniform","1","undefined","1","left","68","68","68","0","0","68","68","0","0","68","68","68","0","68","0","10/05/18 14:43:52","The main experiment item","yes","NA","Sternbergtask.osexp","C:\Users\Knitwitty\Desktop","no","mono","no","18","no","white","no","yes","768","legacy","56","11","C:/Users/Knitwitty/Documents/subject-2.csv","legacy","6 5","Jazzy James","3.1.9","2","y","0","left","right","right","left","NA","849","31612","8319","849","NA","2","legacy","2","1024","2","48000","-16","experiment","2","even","5","470102","466696","467886","3052","122447","467891","435953","3057","114126","472108","472961","468897","34671","472108","NA","Sternberg task","67","50812","69","yes","1024"
"97.1428571429","97.1428571429","735.371428571","735.371428571","black","no","experiment","legacy","legacy","legacy","0","uniform","1","undefined","1","right","69","69","69","0","0","69","69","0","0","69","69","69","0","69","0","10/05/18 14:43:52","The main experiment item","yes","NA","Sternbergtask.osexp","C:\Users\Knitwitty\Desktop","no","mono","no","18","no","white","no","yes","768","legacy","57","11","C:/Users/Knitwitty/Documents/subject-2.csv","legacy","3 4 9 6 7 8","Jazzy James","3.1.9","0","n","0","right","right","right","right","NA","664","31612","8319","664","NA","2","legacy","6","1024","2","48000","-16","experiment","2","even","2","476366","472977","474151","3052","122447","474155","435953","3057","114126","478373","479041","475161","34671","478372","NA","Sternberg task","68","51476","70","yes","1024"
"97.1830985915","97.1830985915","733.042253521","733.042253521","black","no","experiment","legacy","legacy","legacy","0","uniform","1","undefined","1","right","70","70","70","0","0","70","70","0","0","70","70","70","0","70","0","10/05/18 14:43:52","The main experiment item","yes","NA","Sternbergtask.osexp","C:\Users\Knitwitty\Desktop","no","mono","no","18","no","white","no","yes","768","legacy","58","11","C:/Users/Knitwitty/Documents/subject-2.csv","legacy","4 2 7 6 1 3","Jazzy James","3.1.9","0","n","0","right","right","right","right","NA","570","31612","8319","570","NA","2","legacy","6","1024","2","48000","-16","experiment","2","even","8","482453","479057","480238","3052","122447","480242","435953","3057","114126","484460","485034","481248","34671","484459","NA","Sternberg task","69","52046","71","yes","1024"
"97.2222222222","97.2222222222","731.444444444","731.444444444","black","no","experiment","legacy","legacy","legacy","0","uniform","1","undefined","1","right","71","71","71","0","0","71","71","0","0","71","71","71","0","71","0","10/05/18 14:43:52","The main experiment item","yes","NA","Sternbergtask.osexp","C:\Users\Knitwitty\Desktop","no","mono","no","18","no","white","no","yes","768","legacy","59","11","C:/Users/Knitwitty/Documents/subject-2.csv","legacy","1 6 4","Jazzy James","3.1.9","0","n","0","right","right","right","right","NA","618","31612","8319","618","NA","2","legacy","3","1024","2","48000","-16","experiment","2","even","7","488445","485055","486229","3052","122447","486233","435953","3057","114126","490451","491073","487239","34671","490451","NA","Sternberg task","70","52664","72","yes","1024"
"97.2602739726","97.2602739726","730.904109589","730.904109589","black","no","experiment","legacy","legacy","legacy","0","uniform","1","undefined","1","right","72","72","72","0","0","72","72","0","0","72","72","72","0","72","0","10/05/18 14:43:52","The main experiment item","yes","NA","Sternbergtask.osexp","C:\Users\Knitwitty\Desktop","no","mono","no","18","no","white","no","yes","768","legacy","60","11","C:/Users/Knitwitty/Documents/subject-2.csv","legacy","6 9 4 5 3 2","Jazzy James","3.1.9","0","n","0","right","right","right","right","NA","692","31612","8319","692","NA","2","legacy","6","1024","2","48000","-16","experiment","2","even","8","494475","491095","492260","3052","122447","492264","435953","3057","114126","496481","497178","493269","34671","496481","NA","Sternberg task","71","53356","73","yes","1024"
"97.2972972973","97.2972972973","729.337837838","729.337837838","black","no","experiment","legacy","legacy","legacy","0","uniform","1","undefined","1","left","73","73","73","0","0","73","73","0","0","73","73","73","0","73","0","10/05/18 14:43:52","The main experiment item","yes","NA","Sternbergtask.osexp","C:\Users\Knitwitty\Desktop","no","mono","no","18","no","white","no","yes","768","legacy","61","11","C:/Users/Knitwitty/Documents/subject-2.csv","legacy","8 1 6","Jazzy James","3.1.9","3","y","0","left","right","right","left","NA","615","31612","8319","615","NA","2","legacy","3","1024","2","48000","-16","experiment","2","even","6","500584","497194","498370","3052","122447","498374","435953","3057","114126","502590","503210","499379","34671","502590","NA","Sternberg task","72","53971","74","yes","1024"
"97.3333333333","97.3333333333","727.106666667","727.106666667","black","no","experiment","legacy","legacy","legacy","0","uniform","1","undefined","1","right","74","74","74","0","0","74","74","0","0","74","74","74","0","74","0","10/05/18 14:43:52","The main experiment item","yes","NA","Sternbergtask.osexp","C:\Users\Knitwitty\Desktop","no","mono","no","18","no","white","no","yes","768","legacy","62","11","C:/Users/Knitwitty/Documents/subject-2.csv","legacy","7 9 1 6","Jazzy James","3.1.9","0","n","0","right","right","right","right","NA","562","31612","8319","562","NA","2","legacy","4","1024","2","48000","-16","experiment","2","even","4","506621","503226","504406","3052","122447","504410","435953","3057","114126","508628","509194","505415","34671","508627","NA","Sternberg task","73","54533","75","yes","1024"
"96.0526315789","96.0526315789","726.092105263","726.092105263","black","no","experiment","legacy","legacy","legacy","0","uniform","0","undefined","0","right","75","75","75","0","0","75","75","0","0","75","75","75","0","75","0","10/05/18 14:43:52","The main experiment item","yes","NA","Sternbergtask.osexp","C:\Users\Knitwitty\Desktop","no","mono","no","18","no","white","no","yes","768","legacy","63","11","C:/Users/Knitwitty/Documents/subject-2.csv","legacy","7 1 8 4 9 3","Jazzy James","3.1.9","0","n","0","left","right","right","left","NA","650","31612","8319","650","NA","2","legacy","6","1024","2","48000","-16","experiment","2","even","6","512606","509210","510390","3052","122447","510394","435953","3057","114126","514612","515266","511400","34671","514612","NA","Sternberg task","73","55183","76","yes","1024"
"96.1038961039","96.1038961039","723.363636364","723.363636364","black","no","experiment","legacy","legacy","legacy","0","uniform","1","undefined","1","right","76","76","76","0","0","76","76","0","0","76","76","76","0","76","0","10/05/18 14:43:52","The main experiment item","yes","NA","Sternbergtask.osexp","C:\Users\Knitwitty\Desktop","no","mono","no","18","no","white","no","yes","768","legacy","64","11","C:/Users/Knitwitty/Documents/subject-2.csv","legacy","1 4 9 2 5","Jazzy James","3.1.9","0","n","0","right","right","right","right","NA","516","31612","8319","516","NA","2","legacy","5","1024","2","48000","-16","experiment","2","even","7","518668","509210","516454","3052","122447","516458","515281","3057","114126","520673","521194","517463","34671","520673","NA","Sternberg task","74","55699","77","yes","1024"
"96.1538461538","96.1538461538","721.615384615","721.615384615","black","no","experiment","legacy","legacy","legacy","0","uniform","1","undefined","1","right","77","77","77","0","0","77","77","0","0","77","77","77","0","77","0","10/05/18 14:43:52","The main experiment item","yes","NA","Sternbergtask.osexp","C:\Users\Knitwitty\Desktop","no","mono","no","18","no","white","no","yes","768","legacy","65","11","C:/Users/Knitwitty/Documents/subject-2.csv","legacy","3 9 8 1 6 4","Jazzy James","3.1.9","0","n","0","right","right","right","right","NA","587","31612","8319","587","NA","2","legacy","6","1024","2","48000","-16","experiment","2","even","7","524604","521210","522390","3052","122447","522394","515281","3057","114126","526610","527202","523399","34671","526609","NA","Sternberg task","75","56286","78","yes","1024"
"96.2025316456","96.2025316456","720.139240506","720.139240506","black","no","experiment","legacy","legacy","legacy","0","uniform","1","undefined","1","right","78","78","78","0","0","78","78","0","0","78","78","78","0","78","0","10/05/18 14:43:52","The main experiment item","yes","NA","Sternbergtask.osexp","C:\Users\Knitwitty\Desktop","no","mono","no","18","no","white","no","yes","768","legacy","66","11","C:/Users/Knitwitty/Documents/subject-2.csv","legacy","7 4 2 8 1 9","Jazzy James","3.1.9","0","n","0","right","right","right","right","NA","605","31612","8319","605","NA","2","legacy","6","1024","2","48000","-16","experiment","2","even","5","530602","527218","528386","3052","122447","528390","515281","3057","114126","532608","533217","529396","34671","532607","NA","Sternberg task","76","56891","79","yes","1024"
"96.25","96.25","717.6375","717.6375","black","no","experiment","legacy","legacy","legacy","0","uniform","1","undefined","1","left","79","79","79","0","0","79","79","0","0","79","79","79","0","79","0","10/05/18 14:43:52","The main experiment item","yes","NA","Sternbergtask.osexp","C:\Users\Knitwitty\Desktop","no","mono","no","18","no","white","no","yes","768","legacy","67","11","C:/Users/Knitwitty/Documents/subject-2.csv","legacy","3 4","Jazzy James","3.1.9","1","y","0","left","right","right","left","NA","520","31612","8319","520","NA","2","legacy","2","1024","2","48000","-16","experiment","2","even","3","536631","533232","534416","3052","122447","534420","515281","3057","114126","538637","539162","535425","34671","538636","NA","Sternberg task","77","57411","80","yes","1024"
"95.0617283951","95.0617283951","716.419753086","716.419753086","black","no","experiment","legacy","legacy","legacy","0","uniform","0","undefined","0","left","80","80","80","0","0","80","80","0","0","80","80","80","0","80","0","10/05/18 14:43:52","The main experiment item","yes","NA","Sternbergtask.osexp","C:\Users\Knitwitty\Desktop","no","mono","no","18","no","white","no","yes","768","legacy","68","11","C:/Users/Knitwitty/Documents/subject-2.csv","legacy","6 2","Jazzy James","3.1.9","1","y","0","right","right","right","right","NA","619","31612","8319","619","NA","2","legacy","2","1024","2","48000","-16","experiment","2","even","6","542572","539177","540358","3052","122447","540362","515281","3057","114126","544578","545202","541367","34671","544578","NA","Sternberg task","77","58030","81","yes","1024"
"93.9024390244","93.9024390244","732.073170732","732.073170732","black","no","experiment","legacy","legacy","legacy","0","uniform","0","undefined","0","right","81","81","81","0","0","81","81","0","0","81","81","81","0","81","0","10/05/18 14:43:52","The main experiment item","yes","NA","Sternbergtask.osexp","C:\Users\Knitwitty\Desktop","no","mono","no","18","no","white","no","yes","768","legacy","69","11","C:/Users/Knitwitty/Documents/subject-2.csv","legacy","5 3 2 6 9 8","Jazzy James","3.1.9","0","n","0","None","right","right","None","NA","2000","31612","8319","2000","NA","2","legacy","6","1024","2","48000","-16","experiment","2","even","4","548606","539177","546391","3052","122447","546395","545218","3057","114126","550613","552617","547401","34671","550612","NA","Sternberg task","77","60030","82","yes","1024"
"93.9759036145","93.9759036145","732.710843373","732.710843373","black","no","experiment","legacy","legacy","legacy","0","uniform","1","undefined","1","left","82","82","82","0","0","82","82","0","0","82","82","82","0","82","0","10/05/18 14:43:52","The main experiment item","yes","NA","Sternbergtask.osexp","C:\Users\Knitwitty\Desktop","no","mono","no","18","no","white","no","yes","768","legacy","70","11","C:/Users/Knitwitty/Documents/subject-2.csv","legacy","7 2 3","Jazzy James","3.1.9","3","y","0","left","right","right","left","NA","785","31612","8319","785","NA","2","legacy","3","1024","2","48000","-16","experiment","2","even","3","556039","539177","553823","3052","122447","553827","552634","3057","114126","558044","558834","554833","34671","558044","NA","Sternberg task","78","60815","83","yes","1024"
"94.0476190476","94.0476190476","732.226190476","732.226190476","black","no","experiment","legacy","legacy","legacy","0","uniform","1","undefined","1","left","83","83","83","0","0","83","83","0","0","83","83","83","0","83","0","10/05/18 14:43:52","The main experiment item","yes","NA","Sternbergtask.osexp","C:\Users\Knitwitty\Desktop","no","mono","no","18","no","white","no","yes","768","legacy","71","11","C:/Users/Knitwitty/Documents/subject-2.csv","legacy","6 1 2","Jazzy James","3.1.9","3","y","0","left","right","right","left","NA","692","31612","8319","692","NA","2","legacy","3","1024","2","48000","-16","experiment","2","even","2","562259","558849","560044","3052","122447","560048","552634","3057","114126","564265","564962","561053","34671","564264","NA","Sternberg task","79","61507","84","yes","1024"
"94.1176470588","94.1176470588","730.682352941","730.682352941","black","no","experiment","legacy","legacy","legacy","0","uniform","1","undefined","1","right","84","84","84","0","0","84","84","0","0","84","84","84","0","84","0","10/05/18 14:43:52","The main experiment item","yes","NA","Sternbergtask.osexp","C:\Users\Knitwitty\Desktop","no","mono","no","18","no","white","no","yes","768","legacy","72","11","C:/Users/Knitwitty/Documents/subject-2.csv","legacy","1 7 5 2 9","Jazzy James","3.1.9","0","n","0","right","right","right","right","NA","601","31612","8319","601","NA","2","legacy","5","1024","2","48000","-16","experiment","2","even","3","568373","564978","566158","3052","122447","566163","552634","3057","114126","570380","570986","567168","34671","570379","NA","Sternberg task","80","62108","85","yes","1024"
"94.1860465116","94.1860465116","731.174418605","731.174418605","black","no","experiment","legacy","legacy","legacy","0","uniform","1","undefined","1","left","85","85","85","0","0","85","85","0","0","85","85","85","0","85","0","10/05/18 14:43:52","The main experiment item","yes","NA","Sternbergtask.osexp","C:\Users\Knitwitty\Desktop","no","mono","no","18","no","white","no","yes","768","legacy","73","11","C:/Users/Knitwitty/Documents/subject-2.csv","legacy","3 5 7 1","Jazzy James","3.1.9","3","y","0","left","right","right","left","NA","773","31612","8319","773","NA","2","legacy","4","1024","2","48000","-16","experiment","2","even","7","574401","571002","572185","3052","122447","572190","552634","3057","114126","576408","577186","573195","34671","576407","NA","Sternberg task","81","62881","86","yes","1024"
"93.1034482759","93.1034482759","729.034482759","729.034482759","black","no","experiment","legacy","legacy","legacy","0","uniform","0","undefined","0","left","86","86","86","0","0","86","86","0","0","86","86","86","0","86","0","10/05/18 14:43:52","The main experiment item","yes","NA","Sternbergtask.osexp","C:\Users\Knitwitty\Desktop","no","mono","no","18","no","white","no","yes","768","legacy","74","11","C:/Users/Knitwitty/Documents/subject-2.csv","legacy","2 8 5 1","Jazzy James","3.1.9","4","y","0","right","right","right","right","NA","545","31612","8319","545","NA","2","legacy","4","1024","2","48000","-16","experiment","2","even","1","580598","577209","578383","3052","122447","578387","552634","3057","114126","582604","583154","579392","34671","582603","NA","Sternberg task","81","63426","87","yes","1024"
"93.1818181818","93.1818181818","727.068181818","727.068181818","black","no","experiment","legacy","legacy","legacy","0","uniform","1","undefined","1","left","87","87","87","0","0","87","87","0","0","87","87","87","0","87","0","10/05/18 14:43:52","The main experiment item","yes","NA","Sternbergtask.osexp","C:\Users\Knitwitty\Desktop","no","mono","no","18","no","white","no","yes","768","legacy","75","11","C:/Users/Knitwitty/Documents/subject-2.csv","legacy","4 3 2 5 8","Jazzy James","3.1.9","2","y","0","left","right","right","left","NA","556","31612","8319","556","NA","2","legacy","5","1024","2","48000","-16","experiment","2","even","3","586564","577209","584349","3052","122447","584354","583170","3057","114126","588570","589131","585359","34671","588570","NA","Sternberg task","82","63982","88","yes","1024"
"93.2584269663","93.2584269663","725.134831461","725.134831461","black","no","experiment","legacy","legacy","legacy","0","uniform","1","undefined","1","right","88","88","88","0","0","88","88","0","0","88","88","88","0","88","0","10/05/18 14:43:52","The main experiment item","yes","NA","Sternbergtask.osexp","C:\Users\Knitwitty\Desktop","no","mono","no","18","no","white","no","yes","768","legacy","76","11","C:/Users/Knitwitty/Documents/subject-2.csv","legacy","1","Jazzy James","3.1.9","0","n","0","right","right","right","right","NA","555","31612","8319","555","NA","2","legacy","1","1024","2","48000","-16","experiment","2","even","7","592540","589147","590325","3052","122447","590329","583170","3057","114126","594546","595106","591334","34671","594545","NA","Sternberg task","83","64537","89","yes","1024"
"92.2222222222","92.2222222222","726.911111111","726.911111111","black","no","experiment","legacy","legacy","legacy","0","uniform","0","undefined","0","left","89","89","89","0","0","89","89","0","0","89","89","89","0","89","0","10/05/18 14:43:52","The main experiment item","yes","NA","Sternbergtask.osexp","C:\Users\Knitwitty\Desktop","no","mono","no","18","no","white","no","yes","768","legacy","77","11","C:/Users/Knitwitty/Documents/subject-2.csv","legacy","8 5 3 7 4 6","Jazzy James","3.1.9","6","y","0","right","right","right","right","NA","885","31612","8319","885","NA","2","legacy","6","1024","2","48000","-16","experiment","2","even","6","598522","595122","596307","3052","122447","596311","583170","3057","114126","600528","601418","597316","34671","600528","NA","Sternberg task","83","65422","90","yes","1024"
"92.3076923077","92.3076923077","725.582417582","725.582417582","black","no","experiment","legacy","legacy","legacy","0","uniform","1","undefined","1","right","90","90","90","0","0","90","90","0","0","90","90","90","0","90","0","10/05/18 14:43:52","The main experiment item","yes","NA","Sternbergtask.osexp","C:\Users\Knitwitty\Desktop","no","mono","no","18","no","white","no","yes","768","legacy","78","11","C:/Users/Knitwitty/Documents/subject-2.csv","legacy","3 4 2","Jazzy James","3.1.9","0","n","0","right","right","right","right","NA","606","31612","8319","606","NA","2","legacy","3","1024","2","48000","-16","experiment","2","even","5","604826","595122","602611","3052","122447","602615","601434","3057","114126","606832","607443","603620","34671","606831","NA","Sternberg task","84","66028","91","yes","1024"
"92.3913043478","92.3913043478","723.97826087","723.97826087","black","no","experiment","legacy","legacy","legacy","0","uniform","1","undefined","1","right","91","91","91","0","0","91","91","0","0","91","91","91","0","91","0","10/05/18 14:43:52","The main experiment item","yes","NA","Sternbergtask.osexp","C:\Users\Knitwitty\Desktop","no","mono","no","18","no","white","no","yes","768","legacy","79","11","C:/Users/Knitwitty/Documents/subject-2.csv","legacy","5 2","Jazzy James","3.1.9","0","n","0","right","right","right","right","NA","578","31612","8319","578","NA","2","legacy","2","1024","2","48000","-16","experiment","2","even","7","610853","607459","608638","3052","122447","608642","601434","3057","114126","612859","613443","609647","34671","612859","NA","Sternberg task","85","66606","92","yes","1024"
"92.4731182796","92.4731182796","723.978494624","723.978494624","black","no","experiment","legacy","legacy","legacy","0","uniform","1","undefined","1","right","92","92","92","0","0","92","92","0","0","92","92","92","0","92","0","10/05/18 14:43:52","The main experiment item","yes","NA","Sternbergtask.osexp","C:\Users\Knitwitty\Desktop","no","mono","no","18","no","white","no","yes","768","legacy","80","11","C:/Users/Knitwitty/Documents/subject-2.csv","legacy","2 8 9","Jazzy James","3.1.9","0","n","0","right","right","right","right","NA","724","31612","8319","724","NA","2","legacy","3","1024","2","48000","-16","experiment","2","even","6","616971","613567","614755","3052","122447","614759","601434","3057","114126","618977","619707","615765","34671","618976","NA","Sternberg task","86","67330","93","yes","1024"
"91.4893617021","91.4893617021","724.425531915","724.425531915","black","no","experiment","legacy","legacy","legacy","0","uniform","0","undefined","0","right","93","93","93","0","0","93","93","0","0","93","93","93","0","93","0","10/05/18 14:43:52","The main experiment item","yes","NA","Sternbergtask.osexp","C:\Users\Knitwitty\Desktop","no","mono","no","18","no","white","no","yes","768","legacy","81","11","C:/Users/Knitwitty/Documents/subject-2.csv","legacy","8 4 3 5","Jazzy James","3.1.9","0","n","0","left","right","right","left","NA","766","31612","8319","766","NA","2","legacy","4","1024","2","48000","-16","experiment","2","even","6","623111","619723","620897","3052","122447","620901","601434","3057","114126","625119","625890","621907","34671","625116","NA","Sternberg task","86","68096","94","yes","1024"
"91.5789473684","91.5789473684","723.105263158","723.105263158","black","no","experiment","legacy","legacy","legacy","0","uniform","1","undefined","1","right","94","94","94","0","0","94","94","0","0","94","94","94","0","94","0","10/05/18 14:43:52","The main experiment item","yes","NA","Sternbergtask.osexp","C:\Users\Knitwitty\Desktop","no","mono","no","18","no","white","no","yes","768","legacy","82","11","C:/Users/Knitwitty/Documents/subject-2.csv","legacy","1 8 7","Jazzy James","3.1.9","0","n","0","right","right","right","right","NA","599","31612","8319","599","NA","2","legacy","3","1024","2","48000","-16","experiment","2","even","4","629336","619723","627121","3052","122447","627125","625906","3057","114126","631342","631946","628130","34671","631342","NA","Sternberg task","87","68695","95","yes","1024"
"91.6666666667","91.6666666667","720.96875","720.96875","black","no","experiment","legacy","legacy","legacy","0","uniform","1","undefined","1","right","95","95","95","0","0","95","95","0","0","95","95","95","0","95","0","10/05/18 14:43:52","The main experiment item","yes","NA","Sternbergtask.osexp","C:\Users\Knitwitty\Desktop","no","mono","no","18","no","white","no","yes","768","legacy","83","11","C:/Users/Knitwitty/Documents/subject-2.csv","legacy","8 5 7 3 6","Jazzy James","3.1.9","0","n","0","right","right","right","right","NA","518","31612","8319","518","NA","2","legacy","5","1024","2","48000","-16","experiment","2","even","9","635361","631962","633146","3052","122447","633150","625906","3057","114126","637367","637891","634155","34671","637366","NA","Sternberg task","88","69213","96","yes","1024"
"91.7525773196","91.7525773196","718.917525773","718.917525773","black","no","experiment","legacy","legacy","legacy","0","uniform","1","undefined","1","right","96","96","96","0","0","96","96","0","0","96","96","96","0","96","0","10/05/18 14:43:52","The main experiment item","yes","NA","Sternbergtask.osexp","C:\Users\Knitwitty\Desktop","no","mono","no","18","no","white","no","yes","768","legacy","84","11","C:/Users/Knitwitty/Documents/subject-2.csv","legacy","2 3 8 5 6 7","Jazzy James","3.1.9","0","n","0","right","right","right","right","NA","522","31612","8319","522","NA","2","legacy","6","1024","2","48000","-16","experiment","2","even","1","641302","637906","639087","3052","122447","639091","625906","3057","114126","643307","643835","640096","34671","643307","NA","Sternberg task","89","69735","97","yes","1024"
"91.8367346939","91.8367346939","716.5","716.5","black","no","experiment","legacy","legacy","legacy","0","uniform","1","undefined","1","left","97","97","97","0","0","97","97","0","0","97","97","97","0","97","0","10/05/18 14:43:52","The main experiment item","yes","NA","Sternbergtask.osexp","C:\Users\Knitwitty\Desktop","no","mono","no","18","no","white","no","yes","768","legacy","85","11","C:/Users/Knitwitty/Documents/subject-2.csv","legacy","3 5 4 7","Jazzy James","3.1.9","1","y","0","left","right","right","left","NA","482","31612","8319","482","NA","2","legacy","4","1024","2","48000","-16","experiment","2","even","3","647237","643851","645023","3052","122447","645027","625906","3057","114126","649243","649730","646032","34671","649242","NA","Sternberg task","90","70217","98","yes","1024"
"90.9090909091","90.9090909091","714.484848485","714.484848485","black","no","experiment","legacy","legacy","legacy","0","uniform","0","undefined","0","left","98","98","98","0","0","98","98","0","0","98","98","98","0","98","0","10/05/18 14:43:52","The main experiment item","yes","NA","Sternbergtask.osexp","C:\Users\Knitwitty\Desktop","no","mono","no","18","no","white","no","yes","768","legacy","86","11","C:/Users/Knitwitty/Documents/subject-2.csv","legacy","7 4 2 6 3 5","Jazzy James","3.1.9","6","y","0","right","right","right","right","NA","517","31612","8319","517","NA","2","legacy","6","1024","2","48000","-16","experiment","2","even","5","653153","649747","650936","3052","122447","650940","625906","3057","114126","655160","655683","651949","34671","655158","NA","Sternberg task","90","70734","99","yes","1024"
"91","91","712.59","712.59","black","no","experiment","legacy","legacy","legacy","0","uniform","1","undefined","1","right","99","99","99","0","0","99","99","0","0","99","99","99","0","99","0","10/05/18 14:43:52","The main experiment item","yes","NA","Sternbergtask.osexp","C:\Users\Knitwitty\Desktop","no","mono","no","18","no","white","no","yes","768","legacy","87","11","C:/Users/Knitwitty/Documents/subject-2.csv","legacy","4 2 6 9","Jazzy James","3.1.9","0","n","0","right","right","right","right","NA","525","31612","8319","525","NA","2","legacy","4","1024","2","48000","-16","experiment","2","even","7","659091","649747","656876","3052","122447","656880","655699","3057","114126","661096","661626","657885","34671","661096","NA","Sternberg task","91","71259","100","yes","1024"
"91.0891089109","91.0891089109","710.188118812","710.188118812","black","no","experiment","legacy","legacy","legacy","0","uniform","1","undefined","1","left","100","100","100","0","0","100","100","0","0","100","100","100","0","100","0","10/05/18 14:43:52","The main experiment item","yes","NA","Sternbergtask.osexp","C:\Users\Knitwitty\Desktop","no","mono","no","18","no","white","no","yes","768","legacy","88","11","C:/Users/Knitwitty/Documents/subject-2.csv","legacy","4 6 5 8","Jazzy James","3.1.9","1","y","0","left","right","right","left","NA","470","31612","8319","470","NA","2","legacy","4","1024","2","48000","-16","experiment","2","even","4","665033","661642","662818","3052","122447","662822","655699","3057","114126","667039","667515","663827","34671","667038","NA","Sternberg task","92","71729","101","yes","1024"
"90.1960784314","90.1960784314","722.833333333","722.833333333","black","no","experiment","legacy","legacy","legacy","0","uniform","0","undefined","0","left","101","101","101","0","0","101","101","0","0","101","101","101","0","101","0","10/05/18 14:43:52","The main experiment item","yes","NA","Sternbergtask.osexp","C:\Users\Knitwitty\Desktop","no","mono","no","18","no","white","no","yes","768","legacy","89","11","C:/Users/Knitwitty/Documents/subject-2.csv","legacy","8 9 5 7 1 6","Jazzy James","3.1.9","4","y","0","None","right","right","None","NA","2000","31612","8319","2000","NA","2","legacy","6","1024","2","48000","-16","experiment","2","even","7","670920","667531","668705","3052","122447","668709","655699","3057","114126","672926","674931","669714","34671","672925","NA","Sternberg task","92","73729","102","yes","1024"
"90.2912621359","90.2912621359","722.67961165","722.67961165","black","no","experiment","legacy","legacy","legacy","0","uniform","1","undefined","1","left","102","102","102","0","0","102","102","0","0","102","102","102","0","102","0","10/05/18 14:43:52","The main experiment item","yes","NA","Sternbergtask.osexp","C:\Users\Knitwitty\Desktop","no","mono","no","18","no","white","no","yes","768","legacy","90","11","C:/Users/Knitwitty/Documents/subject-2.csv","legacy","7 1 3","Jazzy James","3.1.9","2","y","0","left","right","right","left","NA","707","31612","8319","707","NA","2","legacy","3","1024","2","48000","-16","experiment","2","even","1","678348","667531","676133","3052","122447","676138","674947","3057","114126","680354","681067","677143","34671","680353","NA","Sternberg task","93","74436","103","yes","1024"
"90.3846153846","90.3846153846","722.067307692","722.067307692","black","no","experiment","legacy","legacy","legacy","0","uniform","1","undefined","1","right","103","103","103","0","0","103","103","0","0","103","103","103","0","103","0","10/05/18 14:43:52","The main experiment item","yes","NA","Sternbergtask.osexp","C:\Users\Knitwitty\Desktop","no","mono","no","18","no","white","no","yes","768","legacy","91","11","C:/Users/Knitwitty/Documents/subject-2.csv","legacy","8 6 3 4 7","Jazzy James","3.1.9","0","n","0","right","right","right","right","NA","659","31612","8319","659","NA","2","legacy","5","1024","2","48000","-16","experiment","2","even","1","684476","681083","682261","3052","122447","682265","674947","3057","114126","686482","687147","683270","34671","686482","NA","Sternberg task","94","75095","104","yes","1024"
"90.4761904762","90.4761904762","720.047619048","720.047619048","black","no","experiment","legacy","legacy","legacy","0","uniform","1","undefined","1","left","104","104","104","0","0","104","104","0","0","104","104","104","0","104","0","10/05/18 14:43:52","The main experiment item","yes","NA","Sternbergtask.osexp","C:\Users\Knitwitty\Desktop","no","mono","no","18","no","white","no","yes","768","legacy","92","11","C:/Users/Knitwitty/Documents/subject-2.csv","legacy","2 3","Jazzy James","3.1.9","1","y","0","left","right","right","left","NA","510","31612","8319","510","NA","2","legacy","2","1024","2","48000","-16","experiment","2","even","2","690562","687163","688347","3052","122447","688351","674947","3057","114126","692568","693083","689356","34671","692568","NA","Sternberg task","95","75605","105","yes","1024"
"90.5660377358","90.5660377358","719.226415094","719.226415094","black","no","experiment","legacy","legacy","legacy","0","uniform","1","undefined","1","right","105","105","105","0","0","105","105","0","0","105","105","105","0","105","0","10/05/18 14:43:52","The main experiment item","yes","NA","Sternbergtask.osexp","C:\Users\Knitwitty\Desktop","no","mono","no","18","no","white","no","yes","768","legacy","93","11","C:/Users/Knitwitty/Documents/subject-2.csv","legacy","5 3 8 7 2 4","Jazzy James","3.1.9","0","n","0","right","right","right","right","NA","633","31612","8319","633","NA","2","legacy","6","1024","2","48000","-16","experiment","2","even","9","696494","693099","694278","3052","122447","694282","674947","3057","114126","698500","699139","695288","34671","698500","NA","Sternberg task","96","76238","106","yes","1024"
"90.6542056075","90.6542056075","719.61682243","719.61682243","black","no","experiment","legacy","legacy","legacy","0","uniform","1","undefined","1","right","106","106","106","0","0","106","106","0","0","106","106","106","0","106","0","10/05/18 14:43:52","The main experiment item","yes","NA","Sternbergtask.osexp","C:\Users\Knitwitty\Desktop","no","mono","no","18","no","white","no","yes","768","legacy","94","11","C:/Users/Knitwitty/Documents/subject-2.csv","legacy","4 1","Jazzy James","3.1.9","0","n","0","right","right","right","right","NA","761","31612","8319","761","NA","2","legacy","2","1024","2","48000","-16","experiment","2","even","6","702552","699157","700335","3052","122447","700339","674947","3057","114126","704557","705323","701346","34671","704557","NA","Sternberg task","97","76999","107","yes","1024"
"90.7407407407","90.7407407407","718.287037037","718.287037037","black","no","experiment","legacy","legacy","legacy","0","uniform","1","undefined","1","right","107","107","107","0","0","107","107","0","0","107","107","107","0","107","0","10/05/18 14:43:52","The main experiment item","yes","NA","Sternbergtask.osexp","C:\Users\Knitwitty\Desktop","no","mono","no","18","no","white","no","yes","768","legacy","95","11","C:/Users/Knitwitty/Documents/subject-2.csv","legacy","1 4 9 3","Jazzy James","3.1.9","0","n","0","right","right","right","right","NA","576","31612","8319","576","NA","2","legacy","4","1024","2","48000","-16","experiment","2","even","5","708744","705344","706529","3052","122447","706533","674947","3057","114126","710749","711331","707538","34671","710749","NA","Sternberg task","98","77575","108","yes","1024"
"89.9082568807","89.9082568807","718.669724771","718.669724771","black","no","experiment","legacy","legacy","legacy","0","uniform","0","undefined","0","left","108","108","108","0","0","108","108","0","0","108","108","108","0","108","0","10/05/18 14:43:52","The main experiment item","yes","NA","Sternbergtask.osexp","C:\Users\Knitwitty\Desktop","no","mono","no","18","no","white","no","yes","768","legacy","96","11","C:/Users/Knitwitty/Documents/subject-2.csv","legacy","8","Jazzy James","3.1.9","1","y","0","right","right","right","right","NA","760","31612","8319","760","NA","2","legacy","1","1024","2","48000","-16","experiment","2","even","8","714743","711347","712528","3052","122447","712532","674947","3057","114126","716749","717515","713537","34671","716749","NA","Sternberg task","98","78335","109","yes","1024"
"90","90","717.518181818","717.518181818","black","no","experiment","legacy","legacy","legacy","0","uniform","1","undefined","1","right","109","109","109","0","0","109","109","0","0","109","109","109","0","109","0","10/05/18 14:43:52","The main experiment item","yes","NA","Sternbergtask.osexp","C:\Users\Knitwitty\Desktop","no","mono","no","18","no","white","no","yes","768","legacy","97","11","C:/Users/Knitwitty/Documents/subject-2.csv","legacy","2 8 9 4 1","Jazzy James","3.1.9","0","n","0","right","right","right","right","NA","592","31612","8319","592","NA","2","legacy","5","1024","2","48000","-16","experiment","2","even","5","720926","711347","718710","3052","122447","718714","717532","3057","114126","722933","723531","719720","34671","722932","NA","Sternberg task","99","78927","110","yes","1024"
"90.0900900901","90.0900900901","716.117117117","716.117117117","black","no","experiment","legacy","legacy","legacy","0","uniform","1","undefined","1","right","110","110","110","0","0","110","110","0","0","110","110","110","0","110","0","10/05/18 14:43:52","The main experiment item","yes","NA","Sternbergtask.osexp","C:\Users\Knitwitty\Desktop","no","mono","no","18","no","white","no","yes","768","legacy","98","11","C:/Users/Knitwitty/Documents/subject-2.csv","legacy","5 7 3","Jazzy James","3.1.9","0","n","0","right","right","right","right","NA","562","31612","8319","562","NA","2","legacy","3","1024","2","48000","-16","experiment","2","even","9","726941","723547","724726","3052","122447","724730","717532","3057","114126","728947","729515","725735","34671","728946","NA","Sternberg task","100","79489","111","yes","1024"
"90.1785714286","90.1785714286","713.428571429","713.428571429","black","no","experiment","legacy","legacy","legacy","0","uniform","1","undefined","1","left","111","111","111","0","0","111","111","0","0","111","111","111","0","111","0","10/05/18 14:43:52","The main experiment item","yes","NA","Sternbergtask.osexp","C:\Users\Knitwitty\Desktop","no","mono","no","18","no","white","no","yes","768","legacy","99","11","C:/Users/Knitwitty/Documents/subject-2.csv","legacy","9 5 3 8 4","Jazzy James","3.1.9","1","y","0","left","right","right","left","NA","415","31612","8319","415","NA","2","legacy","5","1024","2","48000","-16","experiment","2","even","9","732927","729531","730710","3052","122447","730715","717532","3057","114126","734934","735355","731720","34671","734933","NA","Sternberg task","101","79904","112","yes","1024"
"90.2654867257","90.2654867257","712.097345133","712.097345133","black","no","experiment","legacy","legacy","legacy","0","uniform","1","undefined","1","right","112","112","112","0","0","112","112","0","0","112","112","112","0","112","0","10/05/18 14:43:52","The main experiment item","yes","NA","Sternbergtask.osexp","C:\Users\Knitwitty\Desktop","no","mono","no","18","no","white","no","yes","768","legacy","100","11","C:/Users/Knitwitty/Documents/subject-2.csv","legacy","6 3 1 7 9 8","Jazzy James","3.1.9","0","n","0","right","right","right","right","NA","563","31612","8319","563","NA","2","legacy","6","1024","2","48000","-16","experiment","2","even","4","738773","735371","736557","3052","122447","736562","717532","3057","114126","740778","741347","737567","34671","740778","NA","Sternberg task","102","80467","113","yes","1024"
"90.350877193","90.350877193","710.421052632","710.421052632","black","no","experiment","legacy","legacy","legacy","0","uniform","1","undefined","1","left","113","113","113","0","0","113","113","0","0","113","113","113","0","113","0","10/05/18 14:43:52","The main experiment item","yes","NA","Sternbergtask.osexp","C:\Users\Knitwitty\Desktop","no","mono","no","18","no","white","no","yes","768","legacy","101","11","C:/Users/Knitwitty/Documents/subject-2.csv","legacy","3 9 7 6 4","Jazzy James","3.1.9","3","y","0","left","right","right","left","NA","521","31612","8319","521","NA","2","legacy","5","1024","2","48000","-16","experiment","2","even","7","744757","741363","742542","3052","122447","742546","717532","3057","114126","746764","747291","743551","34671","746763","NA","Sternberg task","103","80988","114","yes","1024"
"90.4347826087","90.4347826087","714.765217391","714.765217391","black","no","experiment","legacy","legacy","legacy","0","uniform","1","undefined","1","left","114","114","114","0","0","114","114","0","0","114","114","114","0","114","0","10/05/18 14:43:52","The main experiment item","yes","NA","Sternbergtask.osexp","C:\Users\Knitwitty\Desktop","no","mono","no","18","no","white","no","yes","768","legacy","102","11","C:/Users/Knitwitty/Documents/subject-2.csv","legacy","6 9 7 4 5 1","Jazzy James","3.1.9","2","y","0","left","right","right","left","NA","1210","31612","8319","1210","NA","2","legacy","6","1024","2","48000","-16","experiment","2","even","9","750702","747307","748486","3052","122447","748491","717532","3057","114126","752707","753923","749496","34671","752707","NA","Sternberg task","104","82198","115","yes","1024"
"89.6551724138","89.6551724138","714.551724138","714.551724138","black","no","experiment","legacy","legacy","legacy","0","uniform","0","undefined","0","left","115","115","115","0","0","115","115","0","0","115","115","115","0","115","0","10/05/18 14:43:52","The main experiment item","yes","NA","Sternbergtask.osexp","C:\Users\Knitwitty\Desktop","no","mono","no","18","no","white","no","yes","768","legacy","103","11","C:/Users/Knitwitty/Documents/subject-2.csv","legacy","7 1 8 5 6 2","Jazzy James","3.1.9","2","y","0","right","right","right","right","NA","690","31612","8319","690","NA","2","legacy","6","1024","2","48000","-16","experiment","2","even","1","757341","753939","755126","3052","122447","755130","717532","3057","114126","759347","760043","756135","34671","759346","NA","Sternberg task","104","82888","116","yes","1024"
"89.7435897436","89.7435897436","713.307692308","713.307692308","black","no","experiment","legacy","legacy","legacy","0","uniform","1","undefined","1","left","116","116","116","0","0","116","116","0","0","116","116","116","0","116","0","10/05/18 14:43:52","The main experiment item","yes","NA","Sternbergtask.osexp","C:\Users\Knitwitty\Desktop","no","mono","no","18","no","white","no","yes","768","legacy","104","11","C:/Users/Knitwitty/Documents/subject-2.csv","legacy","3 2 1 4 7","Jazzy James","3.1.9","2","y","0","left","right","right","left","NA","569","31612","8319","569","NA","2","legacy","5","1024","2","48000","-16","experiment","2","even","2","763462","753939","761246","3052","122447","761250","760057","3057","114126","765468","766044","762256","34671","765468","NA","Sternberg task","105","83457","117","yes","1024"
"89.8305084746","89.8305084746","712.652542373","712.652542373","black","no","experiment","legacy","legacy","legacy","0","uniform","1","undefined","1","right","117","117","117","0","0","117","117","0","0","117","117","117","0","117","0","10/05/18 14:43:52","The main experiment item","yes","NA","Sternbergtask.osexp","C:\Users\Knitwitty\Desktop","no","mono","no","18","no","white","no","yes","768","legacy","105","11","C:/Users/Knitwitty/Documents/subject-2.csv","legacy","2 7 5","Jazzy James","3.1.9","0","n","0","right","right","right","right","NA","636","31612","8319","636","NA","2","legacy","3","1024","2","48000","-16","experiment","2","even","8","769460","766060","767244","3052","122447","767249","760057","3057","114126","771465","772108","768254","34671","771465","NA","Sternberg task","106","84093","118","yes","1024"
"89.9159663866","89.9159663866","709.831932773","709.831932773","black","no","experiment","legacy","legacy","legacy","0","uniform","1","undefined","1","left","118","118","118","0","0","118","118","0","0","118","118","118","0","118","0","10/05/18 14:43:52","The main experiment item","yes","NA","Sternbergtask.osexp","C:\Users\Knitwitty\Desktop","no","mono","no","18","no","white","no","yes","768","legacy","106","11","C:/Users/Knitwitty/Documents/subject-2.csv","legacy","7","Jazzy James","3.1.9","1","y","0","left","right","right","left","NA","377","31612","8319","377","NA","2","legacy","1","1024","2","48000","-16","experiment","2","even","7","775519","772124","773304","3052","122447","773308","760057","3057","114126","777524","777907","774313","34671","777524","NA","Sternberg task","107","84470","119","yes","1024"
"90","90","710.55","710.55","black","no","experiment","legacy","legacy","legacy","0","uniform","1","undefined","1","right","119","119","119","0","0","119","119","0","0","119","119","119","0","119","0","10/05/18 14:43:52","The main experiment item","yes","NA","Sternbergtask.osexp","C:\Users\Knitwitty\Desktop","no","mono","no","18","no","white","no","yes","768","legacy","107","11","C:/Users/Knitwitty/Documents/subject-2.csv","legacy","2 8 6 3 1","Jazzy James","3.1.9","0","n","0","right","right","right","right","NA","796","31612","8319","796","NA","2","legacy","5","1024","2","48000","-16","experiment","2","even","7","781315","777923","779101","3052","122447","779105","760057","3057","114126","783321","784123","780110","34671","783321","NA","Sternberg task","108","85266","120","yes","1024"
"90.0826446281","90.0826446281","710.842975207","710.842975207","black","no","experiment","legacy","legacy","legacy","0","uniform","1","undefined","1","left","120","120","120","0","0","120","120","0","0","120","120","120","0","120","0","10/05/18 14:43:52","The main experiment item","yes","NA","Sternbergtask.osexp","C:\Users\Knitwitty\Desktop","no","mono","no","18","no","white","no","yes","768","legacy","108","11","C:/Users/Knitwitty/Documents/subject-2.csv","legacy","8 5 1 3 9","Jazzy James","3.1.9","4","y","0","left","right","right","left","NA","746","31612","8319","746","NA","2","legacy","5","1024","2","48000","-16","experiment","2","even","3","787541","784139","785325","3052","122447","785330","760057","3057","114126","789547","790300","786335","34671","789546","NA","Sternberg task","109","86012","121","yes","1024"
