"acc","accuracy","average_response_time","avg_rt","background","block","canvas_backend","clock_backend","color_backend","compensation","coordinates","correct","correct_instruction1","correct_keyboard_response","correct_response","count_ISI","count_correctFeedback","count_expSequence","count_experiment","count_experimentLoop","count_fixation","count_incorrectFeedback","count_instruction1","count_instructions2","count_keyboard_response","count_memorySet","count_new_logger","count_practiceLoop","count_probe","count_thankYou","datetime","description","disable_garbage_collection","experiment_file","experiment_path","font_bold","font_family","font_italic","font_size","font_underline","foreground","form_clicks","fullscreen","height","keyboard_backend","live_row","live_row_practiceLoop","logfile","mouse_backend","numberSet","opensesame_codename","opensesame_version","posInSet","present","repeat_cycle","response","response_instruction1","response_instructions2","response_keyboard_response","response_thankYou","response_time","response_time_instruction1","response_time_instructions2","response_time_keyboard_response","response_time_thankYou","round_decimals","sampler_backend","setSize","sound_buf_size","sound_channels","sound_freq","sound_sample_size","start","subject_nr","subject_parity","target","time_ISI","time_correctFeedback","time_expSequence","time_experiment","time_experimentLoop","time_fixation","time_incorrectFeedback","time_instruction1","time_instructions2","time_keyboard_response","time_memorySet","time_new_logger","time_practiceLoop","time_probe","time_thankYou","title","total_correct","total_response_time","total_responses","uniform_coordinates","width"
"100","100","1404","1404","black","practice","xpyriment","legacy","legacy","0","uniform","1","undefined","1","left","0","0","0","0","0","0","0","0","0","0","0","0","0","0","0","10/07/18 21:32:44","The main experiment item","yes","Sternburgtask.osexp","C:/Users/Owner/Documents","no","mono","no","18","no","white","no","yes","768","legacy","0","0","C:/Users/Owner/Documents/ctsubject-1.csv","xpyriment","2 9 4","Kafkaesque Koffka","3.2.5","3","y","0","left","right","NA","left","NA","1404","66083","NA","1404","NA","2","legacy","3","1024","2","48000","-16","experiment","1","odd","4","71228","NA","68931","1719","NA","68993","NA","1751","NA","73232","70023","74636","67835","73231","NA","Sternburg task","1","1404","1","yes","1024"
"100","100","1258","1258","black","practice","xpyriment","legacy","legacy","0","uniform","1","undefined","1","right","1","1","1","0","0","1","1","0","0","1","1","1","0","1","0","10/07/18 21:32:44","The main experiment item","yes","Sternburgtask.osexp","C:/Users/Owner/Documents","no","mono","no","18","no","white","no","yes","768","legacy","1","1","C:/Users/Owner/Documents/ctsubject-1.csv","xpyriment","9 6 7 4 5","Kafkaesque Koffka","3.2.5","0","n","0","right","right","NA","right","NA","1112","66083","NA","1112","NA","2","legacy","5","1024","2","48000","-16","experiment","1","odd","3","78680","74755","76389","1719","NA","76445","NA","1751","NA","80696","77474","81809","67835","80695","NA","Sternburg task","2","2516","2","yes","1024"
"100","100","1221","1221","black","practice","xpyriment","legacy","legacy","0","uniform","1","undefined","1","left","2","2","2","0","0","2","2","0","0","2","2","2","0","2","0","10/07/18 21:32:44","The main experiment item","yes","Sternburgtask.osexp","C:/Users/Owner/Documents","no","mono","no","18","no","white","no","yes","768","legacy","2","2","C:/Users/Owner/Documents/ctsubject-1.csv","xpyriment","6","Kafkaesque Koffka","3.2.5","1","y","0","left","right","NA","left","NA","1147","66083","NA","1147","NA","2","legacy","1","1024","2","48000","-16","experiment","1","odd","6","85835","81879","83539","1719","NA","83601","NA","1751","NA","87852","84631","89000","67835","87851","NA","Sternburg task","3","3663","3","yes","1024"
"100","100","1174.25","1174.25","black","practice","xpyriment","legacy","legacy","0","uniform","1","undefined","1","left","3","3","3","0","0","3","3","0","0","3","3","3","0","3","0","10/07/18 21:32:44","The main experiment item","yes","Sternburgtask.osexp","C:/Users/Owner/Documents","no","mono","no","18","no","white","no","yes","768","legacy","3","3","C:/Users/Owner/Documents/ctsubject-1.csv","xpyriment","1 5 2 9","Kafkaesque Koffka","3.2.5","2","y","0","left","right","NA","left","NA","1034","66083","NA","1034","NA","2","legacy","4","1024","2","48000","-16","experiment","1","odd","5","93002","89051","90694","1719","NA","90757","NA","1751","NA","95007","91797","96042","67835","95007","NA","Sternburg task","4","4697","4","yes","1024"
"100","100","1069.6","1069.6","black","practice","xpyriment","legacy","legacy","0","uniform","1","undefined","1","left","4","4","4","0","0","4","4","0","0","4","4","4","0","4","0","10/07/18 21:32:44","The main experiment item","yes","Sternburgtask.osexp","C:/Users/Owner/Documents","no","mono","no","18","no","white","no","yes","768","legacy","4","4","C:/Users/Owner/Documents/ctsubject-1.csv","xpyriment","4 8","Kafkaesque Koffka","3.2.5","1","y","0","left","right","NA","left","NA","651","66083","NA","651","NA","2","legacy","2","1024","2","48000","-16","experiment","1","odd","4","100049","96100","97740","1719","NA","97802","NA","1751","NA","102064","98833","102716","67835","102064","NA","Sternburg task","5","5348","5","yes","1024"
"100","100","989.666666667","989.666666667","black","practice","xpyriment","legacy","legacy","0","uniform","1","undefined","1","right","5","5","5","0","0","5","5","0","0","5","5","5","0","5","0","10/07/18 21:32:44","The main experiment item","yes","Sternburgtask.osexp","C:/Users/Owner/Documents","no","mono","no","18","no","white","no","yes","768","legacy","5","5","C:/Users/Owner/Documents/ctsubject-1.csv","xpyriment","5 7 8 4 1 2","Kafkaesque Koffka","3.2.5","0","n","0","right","right","NA","right","NA","590","66083","NA","590","NA","2","legacy","6","1024","2","48000","-16","experiment","1","odd","6","106702","102773","104408","1719","NA","104469","NA","1751","NA","108719","105499","109310","67835","108719","NA","Sternburg task","6","5938","6","yes","1024"
"100","100","965.714285714","965.714285714","black","practice","xpyriment","legacy","legacy","0","uniform","1","undefined","1","right","6","6","6","0","0","6","6","0","0","6","6","6","0","6","0","10/07/18 21:32:44","The main experiment item","yes","Sternburgtask.osexp","C:/Users/Owner/Documents","no","mono","no","18","no","white","no","yes","768","legacy","6","6","C:/Users/Owner/Documents/ctsubject-1.csv","xpyriment","3 1 9 4","Kafkaesque Koffka","3.2.5","0","n","0","right","right","NA","right","NA","822","66083","NA","822","NA","2","legacy","4","1024","2","48000","-16","experiment","1","odd","6","113314","109364","111007","1719","NA","111067","NA","1751","NA","115318","112096","116141","67835","115318","NA","Sternburg task","7","6760","7","yes","1024"
"87.5","87.5","932","932","black","practice","xpyriment","legacy","legacy","0","uniform","0","undefined","0","left","7","7","7","0","0","7","7","0","0","7","7","7","0","7","0","10/07/18 21:32:44","The main experiment item","yes","Sternburgtask.osexp","C:/Users/Owner/Documents","no","mono","no","18","no","white","no","yes","768","legacy","7","7","C:/Users/Owner/Documents/ctsubject-1.csv","xpyriment","4 3 1 7 9 8","Kafkaesque Koffka","3.2.5","1","y","0","right","right","NA","right","NA","696","66083","NA","696","NA","2","legacy","6","1024","2","48000","-16","experiment","1","odd","4","120134","116193","117837","1719","NA","117899","NA","1751","NA","122138","118930","122835","67835","122138","NA","Sternburg task","7","7456","8","yes","1024"
"88.8888888889","88.8888888889","892.333333333","892.333333333","black","practice","xpyriment","legacy","legacy","0","uniform","1","undefined","1","right","8","8","8","0","0","8","8","0","0","8","8","8","0","8","0","10/07/18 21:32:44","The main experiment item","yes","Sternburgtask.osexp","C:/Users/Owner/Documents","no","mono","no","18","no","white","no","yes","768","legacy","8","8","C:/Users/Owner/Documents/ctsubject-1.csv","xpyriment","2 1","Kafkaesque Koffka","3.2.5","0","n","0","right","right","NA","right","NA","575","66083","NA","575","NA","2","legacy","2","1024","2","48000","-16","experiment","1","odd","5","127207","116193","124896","1719","NA","124961","123263","1751","NA","129211","125989","129787","67835","129210","NA","Sternburg task","8","8031","9","yes","1024"
"80","80","861.7","861.7","black","practice","xpyriment","legacy","legacy","0","uniform","0","undefined","0","left","9","9","9","0","0","9","9","0","0","9","9","9","0","9","0","10/07/18 21:32:44","The main experiment item","yes","Sternburgtask.osexp","C:/Users/Owner/Documents","no","mono","no","18","no","white","no","yes","768","legacy","9","9","C:/Users/Owner/Documents/ctsubject-1.csv","xpyriment","1 7 9 8 5","Kafkaesque Koffka","3.2.5","4","y","0","right","right","NA","right","NA","586","66083","NA","586","NA","2","legacy","5","1024","2","48000","-16","experiment","1","odd","8","133788","129848","131509","1719","NA","131558","123263","1751","NA","135791","132583","136378","67835","135791","NA","Sternburg task","8","8617","10","yes","1024"
"81.8181818182","81.8181818182","843","843","black","practice","xpyriment","legacy","legacy","0","uniform","1","undefined","1","right","10","10","10","0","0","10","10","0","0","10","10","10","0","10","0","10/07/18 21:32:44","The main experiment item","yes","Sternburgtask.osexp","C:/Users/Owner/Documents","no","mono","no","18","no","white","no","yes","768","legacy","10","10","C:/Users/Owner/Documents/ctsubject-1.csv","xpyriment","5","Kafkaesque Koffka","3.2.5","0","n","0","right","right","NA","right","NA","656","66083","NA","656","NA","2","legacy","1","1024","2","48000","-16","experiment","1","odd","3","140372","129848","138072","1719","NA","138139","136438","1751","NA","142375","139169","143032","67835","142375","NA","Sternburg task","9","9273","11","yes","1024"
"83.3333333333","83.3333333333","828.833333333","828.833333333","black","practice","xpyriment","legacy","legacy","0","uniform","1","undefined","1","right","11","11","11","0","0","11","11","0","0","11","11","11","0","11","0","10/07/18 21:32:44","The main experiment item","yes","Sternburgtask.osexp","C:/Users/Owner/Documents","no","mono","no","18","no","white","no","yes","768","legacy","11","11","C:/Users/Owner/Documents/ctsubject-1.csv","xpyriment","4 1 5","Kafkaesque Koffka","3.2.5","0","n","0","right","right","NA","right","NA","673","66083","NA","673","NA","2","legacy","3","1024","2","48000","-16","experiment","1","odd","2","147007","143089","144731","1719","NA","144787","136438","1751","NA","149023","145803","149697","67835","149023","NA","Sternburg task","10","9946","12","yes","1024"
"84.6153846154","84.6153846154","807.846153846","807.846153846","black","experiment","xpyriment","legacy","legacy","0","uniform","1","undefined","1","left","12","12","12","0","0","12","12","0","0","12","12","12","0","12","0","10/07/18 21:32:44","The main experiment item","yes","Sternburgtask.osexp","C:/Users/Owner/Documents","no","mono","no","18","no","white","no","yes","768","legacy","0","11","C:/Users/Owner/Documents/ctsubject-1.csv","xpyriment","3 5 4 7","Kafkaesque Koffka","3.2.5","1","y","0","left","right","left","left","NA","556","66083","12480","556","NA","2","legacy","4","1024","2","48000","-16","experiment","1","odd","3","166196","149751","163924","1719","163301","163964","136438","1751","150820","168212","164992","168769","67835","168212","NA","Sternburg task","11","10502","13","yes","1024"
"85.7142857143","85.7142857143","785.857142857","785.857142857","black","experiment","xpyriment","legacy","legacy","0","uniform","1","undefined","1","right","13","13","13","0","0","13","13","0","0","13","13","13","0","13","0","10/07/18 21:32:44","The main experiment item","yes","Sternburgtask.osexp","C:/Users/Owner/Documents","no","mono","no","18","no","white","no","yes","768","legacy","1","11","C:/Users/Owner/Documents/ctsubject-1.csv","xpyriment","5 2","Kafkaesque Koffka","3.2.5","0","n","0","right","right","left","right","NA","500","66083","12480","500","NA","2","legacy","2","1024","2","48000","-16","experiment","1","odd","7","172769","168821","170476","1719","163301","170525","136438","1751","150820","174785","171554","175285","67835","174785","NA","Sternburg task","12","11002","14","yes","1024"
"86.6666666667","86.6666666667","760.266666667","760.266666667","black","experiment","xpyriment","legacy","legacy","0","uniform","1","undefined","1","left","14","14","14","0","0","14","14","0","0","14","14","14","0","14","0","10/07/18 21:32:44","The main experiment item","yes","Sternburgtask.osexp","C:/Users/Owner/Documents","no","mono","no","18","no","white","no","yes","768","legacy","2","11","C:/Users/Owner/Documents/ctsubject-1.csv","xpyriment","6 7 9 3 1 2","Kafkaesque Koffka","3.2.5","1","y","0","left","right","left","left","NA","402","66083","12480","402","NA","2","legacy","6","1024","2","48000","-16","experiment","1","odd","6","179278","175334","176983","1719","163301","177031","136438","1751","150820","181281","178062","181684","67835","181281","NA","Sternburg task","13","11404","15","yes","1024"
"87.5","87.5","754.875","754.875","black","experiment","xpyriment","legacy","legacy","0","uniform","1","undefined","1","right","15","15","15","0","0","15","15","0","0","15","15","15","0","15","0","10/07/18 21:32:44","The main experiment item","yes","Sternburgtask.osexp","C:/Users/Owner/Documents","no","mono","no","18","no","white","no","yes","768","legacy","3","11","C:/Users/Owner/Documents/ctsubject-1.csv","xpyriment","9 5 3 2 8 6","Kafkaesque Koffka","3.2.5","0","n","0","right","right","left","right","NA","674","66083","12480","674","NA","2","legacy","6","1024","2","48000","-16","experiment","1","odd","7","185699","181719","183393","1719","163301","183452","136438","1751","150820","187715","184482","188389","67835","187715","NA","Sternburg task","14","12078","16","yes","1024"
"88.2352941176","88.2352941176","745.529411765","745.529411765","black","experiment","xpyriment","legacy","legacy","0","uniform","1","undefined","1","right","16","16","16","0","0","16","16","0","0","16","16","16","0","16","0","10/07/18 21:32:44","The main experiment item","yes","Sternburgtask.osexp","C:/Users/Owner/Documents","no","mono","no","18","no","white","no","yes","768","legacy","4","11","C:/Users/Owner/Documents/ctsubject-1.csv","xpyriment","8 6 3 4 7","Kafkaesque Koffka","3.2.5","0","n","0","right","right","left","right","NA","596","66083","12480","596","NA","2","legacy","5","1024","2","48000","-16","experiment","1","odd","1","192374","188446","190090","1719","163301","190140","136438","1751","150820","194377","191170","194975","67835","194377","NA","Sternburg task","15","12674","17","yes","1024"
"83.3333333333","83.3333333333","734.777777778","734.777777778","black","experiment","xpyriment","legacy","legacy","0","uniform","0","undefined","0","left","17","17","17","0","0","17","17","0","0","17","17","17","0","17","0","10/07/18 21:32:44","The main experiment item","yes","Sternburgtask.osexp","C:/Users/Owner/Documents","no","mono","no","18","no","white","no","yes","768","legacy","5","11","C:/Users/Owner/Documents/ctsubject-1.csv","xpyriment","7 4 2 6 3 5","Kafkaesque Koffka","3.2.5","6","y","0","right","right","left","right","NA","552","66083","12480","552","NA","2","legacy","6","1024","2","48000","-16","experiment","1","odd","5","198997","195045","196693","1719","163301","196741","136438","1751","150820","201000","197781","201552","67835","201000","NA","Sternburg task","15","13226","18","yes","1024"
"84.2105263158","84.2105263158","734.578947368","734.578947368","black","experiment","xpyriment","legacy","legacy","0","uniform","1","undefined","1","left","18","18","18","0","0","18","18","0","0","18","18","18","0","18","0","10/07/18 21:32:44","The main experiment item","yes","Sternburgtask.osexp","C:/Users/Owner/Documents","no","mono","no","18","no","white","no","yes","768","legacy","6","11","C:/Users/Owner/Documents/ctsubject-1.csv","xpyriment","3 2 1 4 7","Kafkaesque Koffka","3.2.5","2","y","0","left","right","left","left","NA","731","66083","12480","731","NA","2","legacy","5","1024","2","48000","-16","experiment","1","odd","2","205534","195045","203259","1719","163301","203307","201605","1751","150820","207549","204330","208281","67835","207549","NA","Sternburg task","16","13957","19","yes","1024"
"85","85","729","729","black","experiment","xpyriment","legacy","legacy","0","uniform","1","undefined","1","left","19","19","19","0","0","19","19","0","0","19","19","19","0","19","0","10/07/18 21:32:44","The main experiment item","yes","Sternburgtask.osexp","C:/Users/Owner/Documents","no","mono","no","18","no","white","no","yes","768","legacy","7","11","C:/Users/Owner/Documents/ctsubject-1.csv","xpyriment","2 8 5 1","Kafkaesque Koffka","3.2.5","4","y","0","left","right","left","left","NA","623","66083","12480","623","NA","2","legacy","4","1024","2","48000","-16","experiment","1","odd","1","212258","208339","209979","1719","163301","210028","201605","1751","150820","214274","211053","214899","67835","214274","NA","Sternburg task","17","14580","20","yes","1024"
"85.7142857143","85.7142857143","722.095238095","722.095238095","black","experiment","xpyriment","legacy","legacy","0","uniform","1","undefined","1","right","20","20","20","0","0","20","20","0","0","20","20","20","0","20","0","10/07/18 21:32:44","The main experiment item","yes","Sternburgtask.osexp","C:/Users/Owner/Documents","no","mono","no","18","no","white","no","yes","768","legacy","8","11","C:/Users/Owner/Documents/ctsubject-1.csv","xpyriment","8 4 3 9","Kafkaesque Koffka","3.2.5","0","n","0","right","right","left","right","NA","584","66083","12480","584","NA","2","legacy","4","1024","2","48000","-16","experiment","1","odd","5","218899","214962","216589","1719","163301","216651","201605","1751","150820","220903","217683","221488","67835","220903","NA","Sternburg task","18","15164","21","yes","1024"
"86.3636363636","86.3636363636","720.227272727","720.227272727","black","experiment","xpyriment","legacy","legacy","0","uniform","1","undefined","1","left","21","21","21","0","0","21","21","0","0","21","21","21","0","21","0","10/07/18 21:32:44","The main experiment item","yes","Sternburgtask.osexp","C:/Users/Owner/Documents","no","mono","no","18","no","white","no","yes","768","legacy","9","11","C:/Users/Owner/Documents/ctsubject-1.csv","xpyriment","9 1 6 7 8","Kafkaesque Koffka","3.2.5","1","y","0","left","right","left","left","NA","681","66083","12480","681","NA","2","legacy","5","1024","2","48000","-16","experiment","1","odd","9","225472","221541","223183","1719","163301","223233","201605","1751","150820","227475","224268","228158","67835","227475","NA","Sternburg task","19","15845","22","yes","1024"
"86.9565217391","86.9565217391","712.782608696","712.782608696","black","experiment","xpyriment","legacy","legacy","0","uniform","1","undefined","1","right","22","22","22","0","0","22","22","0","0","22","22","22","0","22","0","10/07/18 21:32:44","The main experiment item","yes","Sternburgtask.osexp","C:/Users/Owner/Documents","no","mono","no","18","no","white","no","yes","768","legacy","10","11","C:/Users/Owner/Documents/ctsubject-1.csv","xpyriment","5 9 2 3","Kafkaesque Koffka","3.2.5","0","n","0","right","right","left","right","NA","549","66083","12480","549","NA","2","legacy","4","1024","2","48000","-16","experiment","1","odd","8","232127","228191","229850","1719","163301","229896","201605","1751","150820","234143","230922","234693","67835","234143","NA","Sternburg task","20","16394","23","yes","1024"
"87.5","87.5","711.208333333","711.208333333","black","experiment","xpyriment","legacy","legacy","0","uniform","1","undefined","1","right","23","23","23","0","0","23","23","0","0","23","23","23","0","23","0","10/07/18 21:32:44","The main experiment item","yes","Sternburgtask.osexp","C:/Users/Owner/Documents","no","mono","no","18","no","white","no","yes","768","legacy","11","11","C:/Users/Owner/Documents/ctsubject-1.csv","xpyriment","7 3 2 8","Kafkaesque Koffka","3.2.5","0","n","0","right","right","left","right","NA","675","66083","12480","675","NA","2","legacy","4","1024","2","48000","-16","experiment","1","odd","4","238703","234731","236423","1719","163301","236468","201605","1751","150820","240706","237499","241383","67835","240706","NA","Sternburg task","21","17069","24","yes","1024"
"88","88","706.2","706.2","black","experiment","xpyriment","legacy","legacy","0","uniform","1","undefined","1","right","24","24","24","0","0","24","24","0","0","24","24","24","0","24","0","10/07/18 21:32:44","The main experiment item","yes","Sternburgtask.osexp","C:/Users/Owner/Documents","no","mono","no","18","no","white","no","yes","768","legacy","12","11","C:/Users/Owner/Documents/ctsubject-1.csv","xpyriment","1 7 5 2 9","Kafkaesque Koffka","3.2.5","0","n","0","right","right","left","right","NA","586","66083","12480","586","NA","2","legacy","5","1024","2","48000","-16","experiment","1","odd","3","245391","241438","243110","1719","163301","243159","201605","1751","150820","247394","244187","247982","67835","247394","NA","Sternburg task","22","17655","25","yes","1024"
"84.6153846154","84.6153846154","698.269230769","698.269230769","black","experiment","xpyriment","legacy","legacy","0","uniform","0","undefined","0","right","25","25","25","0","0","25","25","0","0","25","25","25","0","25","0","10/07/18 21:32:44","The main experiment item","yes","Sternburgtask.osexp","C:/Users/Owner/Documents","no","mono","no","18","no","white","no","yes","768","legacy","13","11","C:/Users/Owner/Documents/ctsubject-1.csv","xpyriment","6 2 9 3 8 4","Kafkaesque Koffka","3.2.5","0","n","0","left","right","left","left","NA","500","66083","12480","500","NA","2","legacy","6","1024","2","48000","-16","experiment","1","odd","1","251981","248034","249676","1719","163301","249728","201605","1751","150820","253985","250765","254486","67835","253984","NA","Sternburg task","22","18155","26","yes","1024"
"85.1851851852","85.1851851852","689.555555556","689.555555556","black","experiment","xpyriment","legacy","legacy","0","uniform","1","undefined","1","right","26","26","26","0","0","26","26","0","0","26","26","26","0","26","0","10/07/18 21:32:44","The main experiment item","yes","Sternburgtask.osexp","C:/Users/Owner/Documents","no","mono","no","18","no","white","no","yes","768","legacy","14","11","C:/Users/Owner/Documents/ctsubject-1.csv","xpyriment","6 3 1 7 9 8","Kafkaesque Koffka","3.2.5","0","n","0","right","right","left","right","NA","463","66083","12480","463","NA","2","legacy","6","1024","2","48000","-16","experiment","1","odd","4","258503","248034","256210","1719","163301","256258","254559","1751","150820","260519","257286","260982","67835","260519","NA","Sternburg task","23","18618","27","yes","1024"
"82.1428571429","82.1428571429","686.75","686.75","black","experiment","xpyriment","legacy","legacy","0","uniform","0","undefined","0","left","27","27","27","0","0","27","27","0","0","27","27","27","0","27","0","10/07/18 21:32:44","The main experiment item","yes","Sternburgtask.osexp","C:/Users/Owner/Documents","no","mono","no","18","no","white","no","yes","768","legacy","15","11","C:/Users/Owner/Documents/ctsubject-1.csv","xpyriment","3 4 9 6 2 9","Kafkaesque Koffka","3.2.5","5","y","0","right","right","left","right","NA","611","66083","12480","611","NA","2","legacy","6","1024","2","48000","-16","experiment","1","odd","2","264944","261013","262667","1719","163301","262712","254559","1751","150820","266959","263740","267572","67835","266959","NA","Sternburg task","23","19229","28","yes","1024"
"79.3103448276","79.3103448276","682.068965517","682.068965517","black","experiment","xpyriment","legacy","legacy","0","uniform","0","undefined","0","right","28","28","28","0","0","28","28","0","0","28","28","28","0","28","0","10/07/18 21:32:44","The main experiment item","yes","Sternburgtask.osexp","C:/Users/Owner/Documents","no","mono","no","18","no","white","no","yes","768","legacy","16","11","C:/Users/Owner/Documents/ctsubject-1.csv","xpyriment","5 3 2 6 9 8","Kafkaesque Koffka","3.2.5","0","n","0","left","right","left","left","NA","551","66083","12480","551","NA","2","legacy","6","1024","2","48000","-16","experiment","1","odd","4","271552","261013","269261","1719","163301","269319","267615","1751","150820","273555","270348","274108","67835","273555","NA","Sternburg task","23","19780","29","yes","1024"
"80","80","678.533333333","678.533333333","black","experiment","xpyriment","legacy","legacy","0","uniform","1","undefined","1","right","29","29","29","0","0","29","29","0","0","29","29","29","0","29","0","10/07/18 21:32:44","The main experiment item","yes","Sternburgtask.osexp","C:/Users/Owner/Documents","no","mono","no","18","no","white","no","yes","768","legacy","17","11","C:/Users/Owner/Documents/ctsubject-1.csv","xpyriment","4 2 6 9","Kafkaesque Koffka","3.2.5","0","n","0","right","right","left","right","NA","576","66083","12480","576","NA","2","legacy","4","1024","2","48000","-16","experiment","1","odd","7","278158","261013","275851","1719","163301","275902","274138","1751","150820","280161","276941","280738","67835","280161","NA","Sternburg task","24","20356","30","yes","1024"
"77.4193548387","77.4193548387","678.387096774","678.387096774","black","experiment","xpyriment","legacy","legacy","0","uniform","0","undefined","0","left","30","30","30","0","0","30","30","0","0","30","30","30","0","30","0","10/07/18 21:32:44","The main experiment item","yes","Sternburgtask.osexp","C:/Users/Owner/Documents","no","mono","no","18","no","white","no","yes","768","legacy","18","11","C:/Users/Owner/Documents/ctsubject-1.csv","xpyriment","8 3","Kafkaesque Koffka","3.2.5","2","y","0","right","right","left","right","NA","674","66083","12480","674","NA","2","legacy","2","1024","2","48000","-16","experiment","1","odd","3","284737","280802","282463","1719","163301","282507","274138","1751","150820","286740","283532","287415","67835","286740","NA","Sternburg task","24","21030","31","yes","1024"
"78.125","78.125","686.5625","686.5625","black","experiment","xpyriment","legacy","legacy","0","uniform","1","undefined","1","right","31","31","31","0","0","31","31","0","0","31","31","31","0","31","0","10/07/18 21:32:44","The main experiment item","yes","Sternburgtask.osexp","C:/Users/Owner/Documents","no","mono","no","18","no","white","no","yes","768","legacy","19","11","C:/Users/Owner/Documents/ctsubject-1.csv","xpyriment","6 9 4 5 2","Kafkaesque Koffka","3.2.5","0","n","0","right","right","left","right","NA","940","66083","12480","940","NA","2","legacy","5","1024","2","48000","-16","experiment","1","odd","1","291454","280802","289159","1719","163301","289222","287474","1751","150820","293458","290250","294399","67835","293458","NA","Sternburg task","25","21970","32","yes","1024"
"78.7878787879","78.7878787879","684.909090909","684.909090909","black","experiment","xpyriment","legacy","legacy","0","uniform","1","undefined","1","right","32","32","32","0","0","32","32","0","0","32","32","32","0","32","0","10/07/18 21:32:44","The main experiment item","yes","Sternburgtask.osexp","C:/Users/Owner/Documents","no","mono","no","18","no","white","no","yes","768","legacy","20","11","C:/Users/Owner/Documents/ctsubject-1.csv","xpyriment","7 9 1 6","Kafkaesque Koffka","3.2.5","0","n","0","right","right","left","right","NA","632","66083","12480","632","NA","2","legacy","4","1024","2","48000","-16","experiment","1","odd","4","298427","294464","296135","1719","163301","296193","287474","1751","150820","300430","297222","301063","67835","300430","NA","Sternburg task","26","22602","33","yes","1024"
"79.4117647059","79.4117647059","680.117647059","680.117647059","black","experiment","xpyriment","legacy","legacy","0","uniform","1","undefined","1","right","33","33","33","0","0","33","33","0","0","33","33","33","0","33","0","10/07/18 21:32:44","The main experiment item","yes","Sternburgtask.osexp","C:/Users/Owner/Documents","no","mono","no","18","no","white","no","yes","768","legacy","21","11","C:/Users/Owner/Documents/ctsubject-1.csv","xpyriment","9 7 4 5 8","Kafkaesque Koffka","3.2.5","0","n","0","right","right","left","right","NA","522","66083","12480","522","NA","2","legacy","5","1024","2","48000","-16","experiment","1","odd","6","305049","301119","302771","1719","163301","302815","287474","1751","150820","307053","303845","307577","67835","307052","NA","Sternburg task","27","23124","34","yes","1024"
"77.1428571429","77.1428571429","680.428571429","680.428571429","black","experiment","xpyriment","legacy","legacy","0","uniform","0","undefined","0","left","34","34","34","0","0","34","34","0","0","34","34","34","0","34","0","10/07/18 21:32:44","The main experiment item","yes","Sternburgtask.osexp","C:/Users/Owner/Documents","no","mono","no","18","no","white","no","yes","768","legacy","22","11","C:/Users/Owner/Documents/ctsubject-1.csv","xpyriment","6 7 8 5","Kafkaesque Koffka","3.2.5","3","y","0","right","right","left","right","NA","691","66083","12480","691","NA","2","legacy","4","1024","2","48000","-16","experiment","1","odd","8","311589","307659","309311","1719","163301","309355","287474","1751","150820","313592","310385","314284","67835","313592","NA","Sternburg task","27","23815","35","yes","1024"
"77.7777777778","77.7777777778","678.166666667","678.166666667","black","experiment","xpyriment","legacy","legacy","0","uniform","1","undefined","1","right","35","35","35","0","0","35","35","0","0","35","35","35","0","35","0","10/07/18 21:32:44","The main experiment item","yes","Sternburgtask.osexp","C:/Users/Owner/Documents","no","mono","no","18","no","white","no","yes","768","legacy","23","11","C:/Users/Owner/Documents/ctsubject-1.csv","xpyriment","9","Kafkaesque Koffka","3.2.5","0","n","0","right","right","left","right","NA","599","66083","12480","599","NA","2","legacy","1","1024","2","48000","-16","experiment","1","odd","6","318257","307659","315978","1719","163301","316023","314332","1751","150820","320274","317053","320874","67835","320274","NA","Sternburg task","28","24414","36","yes","1024"
"78.3783783784","78.3783783784","675.216216216","675.216216216","black","experiment","xpyriment","legacy","legacy","0","uniform","1","undefined","1","right","36","36","36","0","0","36","36","0","0","36","36","36","0","36","0","10/07/18 21:32:44","The main experiment item","yes","Sternburgtask.osexp","C:/Users/Owner/Documents","no","mono","no","18","no","white","no","yes","768","legacy","24","11","C:/Users/Owner/Documents/ctsubject-1.csv","xpyriment","1 8 7","Kafkaesque Koffka","3.2.5","0","n","0","right","right","left","right","NA","569","66083","12480","569","NA","2","legacy","3","1024","2","48000","-16","experiment","1","odd","4","324900","320940","322597","1719","163301","322653","314332","1751","150820","326905","323684","327477","67835","326904","NA","Sternburg task","29","24983","37","yes","1024"
"78.9473684211","78.9473684211","674","674","black","experiment","xpyriment","legacy","legacy","0","uniform","1","undefined","1","right","37","37","37","0","0","37","37","0","0","37","37","37","0","37","0","10/07/18 21:32:44","The main experiment item","yes","Sternburgtask.osexp","C:/Users/Owner/Documents","no","mono","no","18","no","white","no","yes","768","legacy","25","11","C:/Users/Owner/Documents/ctsubject-1.csv","xpyriment","2 3 8 5 6 7","Kafkaesque Koffka","3.2.5","0","n","0","right","right","left","right","NA","629","66083","12480","629","NA","2","legacy","6","1024","2","48000","-16","experiment","1","odd","1","331451","327529","329176","1719","163301","329220","314332","1751","150820","333454","330247","334085","67835","333454","NA","Sternburg task","30","25612","38","yes","1024"
"79.4871794872","79.4871794872","673.076923077","673.076923077","black","experiment","xpyriment","legacy","legacy","0","uniform","1","undefined","1","right","38","38","38","0","0","38","38","0","0","38","38","38","0","38","0","10/07/18 21:32:44","The main experiment item","yes","Sternburgtask.osexp","C:/Users/Owner/Documents","no","mono","no","18","no","white","no","yes","768","legacy","26","11","C:/Users/Owner/Documents/ctsubject-1.csv","xpyriment","1 4 9 3","Kafkaesque Koffka","3.2.5","0","n","0","right","right","left","right","NA","638","66083","12480","638","NA","2","legacy","4","1024","2","48000","-16","experiment","1","odd","5","338145","334187","335854","1719","163301","335918","314332","1751","150820","340163","336941","340803","67835","340162","NA","Sternburg task","31","26250","39","yes","1024"
"80","80","678.5","678.5","black","experiment","xpyriment","legacy","legacy","0","uniform","1","undefined","1","left","39","39","39","0","0","39","39","0","0","39","39","39","0","39","0","10/07/18 21:32:44","The main experiment item","yes","Sternburgtask.osexp","C:/Users/Owner/Documents","no","mono","no","18","no","white","no","yes","768","legacy","27","11","C:/Users/Owner/Documents/ctsubject-1.csv","xpyriment","6 9 7 4 5 1","Kafkaesque Koffka","3.2.5","2","y","0","left","right","left","left","NA","890","66083","12480","890","NA","2","legacy","6","1024","2","48000","-16","experiment","1","odd","9","344802","340859","342524","1719","163301","342568","314332","1751","150820","346818","343598","347709","67835","346818","NA","Sternburg task","32","27140","40","yes","1024"
"80.487804878","80.487804878","676.43902439","676.43902439","black","experiment","xpyriment","legacy","legacy","0","uniform","1","undefined","1","right","40","40","40","0","0","40","40","0","0","40","40","40","0","40","0","10/07/18 21:32:44","The main experiment item","yes","Sternburgtask.osexp","C:/Users/Owner/Documents","no","mono","no","18","no","white","no","yes","768","legacy","28","11","C:/Users/Owner/Documents/ctsubject-1.csv","xpyriment","6 8","Kafkaesque Koffka","3.2.5","0","n","0","right","right","left","right","NA","594","66083","12480","594","NA","2","legacy","2","1024","2","48000","-16","experiment","1","odd","9","351738","347815","349461","1719","163301","349505","314332","1751","150820","353741","350534","354335","67835","353741","NA","Sternburg task","33","27734","41","yes","1024"
"80.9523809524","80.9523809524","673.523809524","673.523809524","black","experiment","xpyriment","legacy","legacy","0","uniform","1","undefined","1","right","41","41","41","0","0","41","41","0","0","41","41","41","0","41","0","10/07/18 21:32:44","The main experiment item","yes","Sternburgtask.osexp","C:/Users/Owner/Documents","no","mono","no","18","no","white","no","yes","768","legacy","29","11","C:/Users/Owner/Documents/ctsubject-1.csv","xpyriment","7 1","Kafkaesque Koffka","3.2.5","0","n","0","right","right","left","right","NA","554","66083","12480","554","NA","2","legacy","2","1024","2","48000","-16","experiment","1","odd","8","358350","354407","356075","1719","163301","356118","314332","1751","150820","360354","357146","360909","67835","360354","NA","Sternburg task","34","28288","42","yes","1024"
"81.3953488372","81.3953488372","670.325581395","670.325581395","black","experiment","xpyriment","legacy","legacy","0","uniform","1","undefined","1","left","42","42","42","0","0","42","42","0","0","42","42","42","0","42","0","10/07/18 21:32:44","The main experiment item","yes","Sternburgtask.osexp","C:/Users/Owner/Documents","no","mono","no","18","no","white","no","yes","768","legacy","30","11","C:/Users/Owner/Documents/ctsubject-1.csv","xpyriment","4 9 7 8 5 3","Kafkaesque Koffka","3.2.5","4","y","0","left","right","left","left","NA","536","66083","12480","536","NA","2","legacy","6","1024","2","48000","-16","experiment","1","odd","8","364904","360980","362625","1719","163301","362669","314332","1751","150820","366920","363700","367458","67835","366920","NA","Sternburg task","35","28824","43","yes","1024"
"81.8181818182","81.8181818182","665.522727273","665.522727273","black","experiment","xpyriment","legacy","legacy","0","uniform","1","undefined","1","left","43","43","43","0","0","43","43","0","0","43","43","43","0","43","0","10/07/18 21:32:44","The main experiment item","yes","Sternburgtask.osexp","C:/Users/Owner/Documents","no","mono","no","18","no","white","no","yes","768","legacy","31","11","C:/Users/Owner/Documents/ctsubject-1.csv","xpyriment","4 3 2 5 8","Kafkaesque Koffka","3.2.5","2","y","0","left","right","left","left","NA","459","66083","12480","459","NA","2","legacy","5","1024","2","48000","-16","experiment","1","odd","3","371460","367512","369185","1719","163301","369229","314332","1751","150820","373477","370256","373938","67835","373477","NA","Sternburg task","36","29283","44","yes","1024"
"82.2222222222","82.2222222222","661.933333333","661.933333333","black","experiment","xpyriment","legacy","legacy","0","uniform","1","undefined","1","right","44","44","44","0","0","44","44","0","0","44","44","44","0","44","0","10/07/18 21:32:44","The main experiment item","yes","Sternburgtask.osexp","C:/Users/Owner/Documents","no","mono","no","18","no","white","no","yes","768","legacy","32","11","C:/Users/Owner/Documents/ctsubject-1.csv","xpyriment","6 9 7 3 8 2","Kafkaesque Koffka","3.2.5","0","n","0","right","right","left","right","NA","504","66083","12480","504","NA","2","legacy","6","1024","2","48000","-16","experiment","1","odd","5","377916","373985","375642","1719","163301","375685","314332","1751","150820","379932","376712","380437","67835","379932","NA","Sternburg task","37","29787","45","yes","1024"
"82.6086956522","82.6086956522","660.413043478","660.413043478","black","experiment","xpyriment","legacy","legacy","0","uniform","1","undefined","1","right","45","45","45","0","0","45","45","0","0","45","45","45","0","45","0","10/07/18 21:32:44","The main experiment item","yes","Sternburgtask.osexp","C:/Users/Owner/Documents","no","mono","no","18","no","white","no","yes","768","legacy","33","11","C:/Users/Owner/Documents/ctsubject-1.csv","xpyriment","1 4 9 2 5","Kafkaesque Koffka","3.2.5","0","n","0","right","right","left","right","NA","592","66083","12480","592","NA","2","legacy","5","1024","2","48000","-16","experiment","1","odd","7","384440","380497","382161","1719","163301","382205","314332","1751","150820","386455","383235","387049","67835","386455","NA","Sternburg task","38","30379","46","yes","1024"
"82.9787234043","82.9787234043","658.446808511","658.446808511","black","experiment","xpyriment","legacy","legacy","0","uniform","1","undefined","1","right","46","46","46","0","0","46","46","0","0","46","46","46","0","46","0","10/07/18 21:32:44","The main experiment item","yes","Sternburgtask.osexp","C:/Users/Owner/Documents","no","mono","no","18","no","white","no","yes","768","legacy","34","11","C:/Users/Owner/Documents/ctsubject-1.csv","xpyriment","6 9 4 5 3 2","Kafkaesque Koffka","3.2.5","0","n","0","right","right","left","right","NA","568","66083","12480","568","NA","2","legacy","6","1024","2","48000","-16","experiment","1","odd","8","391096","387122","388814","1719","163301","388859","314332","1751","150820","393111","389891","393681","67835","393111","NA","Sternburg task","39","30947","47","yes","1024"
"83.3333333333","83.3333333333","654.354166667","654.354166667","black","experiment","xpyriment","legacy","legacy","0","uniform","1","undefined","1","left","47","47","47","0","0","47","47","0","0","47","47","47","0","47","0","10/07/18 21:32:44","The main experiment item","yes","Sternburgtask.osexp","C:/Users/Owner/Documents","no","mono","no","18","no","white","no","yes","768","legacy","35","11","C:/Users/Owner/Documents/ctsubject-1.csv","xpyriment","3 9 6 2","Kafkaesque Koffka","3.2.5","4","y","0","left","right","left","left","NA","462","66083","12480","462","NA","2","legacy","4","1024","2","48000","-16","experiment","1","odd","2","397673","393743","395385","1719","163301","395440","314332","1751","150820","399677","396469","400140","67835","399677","NA","Sternburg task","40","31409","48","yes","1024"
"83.6734693878","83.6734693878","649.795918367","649.795918367","black","experiment","xpyriment","legacy","legacy","0","uniform","1","undefined","1","left","48","48","48","0","0","48","48","0","0","48","48","48","0","48","0","10/07/18 21:32:44","The main experiment item","yes","Sternburgtask.osexp","C:/Users/Owner/Documents","no","mono","no","18","no","white","no","yes","768","legacy","36","11","C:/Users/Owner/Documents/ctsubject-1.csv","xpyriment","9 4 2","Kafkaesque Koffka","3.2.5","1","y","0","left","right","left","left","NA","431","66083","12480","431","NA","2","legacy","3","1024","2","48000","-16","experiment","1","odd","9","404144","400195","401846","1719","163301","401897","314332","1751","150820","406149","402926","406583","67835","406148","NA","Sternburg task","41","31840","49","yes","1024"
"82","82","648.28","648.28","black","experiment","xpyriment","legacy","legacy","0","uniform","0","undefined","0","left","49","49","49","0","0","49","49","0","0","49","49","49","0","49","0","10/07/18 21:32:44","The main experiment item","yes","Sternburgtask.osexp","C:/Users/Owner/Documents","no","mono","no","18","no","white","no","yes","768","legacy","37","11","C:/Users/Owner/Documents/ctsubject-1.csv","xpyriment","8 1 6","Kafkaesque Koffka","3.2.5","3","y","0","right","right","left","right","NA","574","66083","12480","574","NA","2","legacy","3","1024","2","48000","-16","experiment","1","odd","6","410617","406659","408317","1719","163301","408372","314332","1751","150820","412633","409401","413210","67835","412633","NA","Sternburg task","41","32414","50","yes","1024"
"82.3529411765","82.3529411765","650.725490196","650.725490196","black","experiment","xpyriment","legacy","legacy","0","uniform","1","undefined","1","right","50","50","50","0","0","50","50","0","0","50","50","50","0","50","0","10/07/18 21:32:44","The main experiment item","yes","Sternburgtask.osexp","C:/Users/Owner/Documents","no","mono","no","18","no","white","no","yes","768","legacy","38","11","C:/Users/Owner/Documents/ctsubject-1.csv","xpyriment","8 4 3 5","Kafkaesque Koffka","3.2.5","0","n","0","right","right","left","right","NA","773","66083","12480","773","NA","2","legacy","4","1024","2","48000","-16","experiment","1","odd","6","417223","406659","414935","1719","163301","414978","413282","1751","150820","419240","416006","420014","67835","419239","NA","Sternburg task","42","33187","51","yes","1024"
"82.6923076923","82.6923076923","647.057692308","647.057692308","black","experiment","xpyriment","legacy","legacy","0","uniform","1","undefined","1","left","51","51","51","0","0","51","51","0","0","51","51","51","0","51","0","10/07/18 21:32:44","The main experiment item","yes","Sternburgtask.osexp","C:/Users/Owner/Documents","no","mono","no","18","no","white","no","yes","768","legacy","39","11","C:/Users/Owner/Documents/ctsubject-1.csv","xpyriment","7 8 4 6 9 5","Kafkaesque Koffka","3.2.5","4","y","0","left","right","left","left","NA","460","66083","12480","460","NA","2","legacy","6","1024","2","48000","-16","experiment","1","odd","6","423998","420071","421719","1719","163301","421764","413282","1751","150820","426001","422794","426462","67835","426001","NA","Sternburg task","43","33647","52","yes","1024"
"83.0188679245","83.0188679245","650.566037736","650.566037736","black","experiment","xpyriment","legacy","legacy","0","uniform","1","undefined","1","right","52","52","52","0","0","52","52","0","0","52","52","52","0","52","0","10/07/18 21:32:44","The main experiment item","yes","Sternburgtask.osexp","C:/Users/Owner/Documents","no","mono","no","18","no","white","no","yes","768","legacy","40","11","C:/Users/Owner/Documents/ctsubject-1.csv","xpyriment","1 6 4 3 9 7","Kafkaesque Koffka","3.2.5","0","n","0","right","right","left","right","NA","833","66083","12480","833","NA","2","legacy","6","1024","2","48000","-16","experiment","1","odd","8","430486","426517","428195","1719","163301","428238","413282","1751","150820","432503","429270","433337","67835","432502","NA","Sternburg task","44","34480","53","yes","1024"
"83.3333333333","83.3333333333","650.555555556","650.555555556","black","experiment","xpyriment","legacy","legacy","0","uniform","1","undefined","1","left","53","53","53","0","0","53","53","0","0","53","53","53","0","53","0","10/07/18 21:32:44","The main experiment item","yes","Sternburgtask.osexp","C:/Users/Owner/Documents","no","mono","no","18","no","white","no","yes","768","legacy","41","11","C:/Users/Owner/Documents/ctsubject-1.csv","xpyriment","9 5 8 1","Kafkaesque Koffka","3.2.5","2","y","0","left","right","left","left","NA","650","66083","12480","650","NA","2","legacy","4","1024","2","48000","-16","experiment","1","odd","5","437318","433394","435045","1719","163301","435090","413282","1751","150820","439321","436114","439973","67835","439321","NA","Sternburg task","45","35130","54","yes","1024"
"83.6363636364","83.6363636364","649.672727273","649.672727273","black","experiment","xpyriment","legacy","legacy","0","uniform","1","undefined","1","right","54","54","54","0","0","54","54","0","0","54","54","54","0","54","0","10/07/18 21:32:44","The main experiment item","yes","Sternburgtask.osexp","C:/Users/Owner/Documents","no","mono","no","18","no","white","no","yes","768","legacy","42","11","C:/Users/Owner/Documents/ctsubject-1.csv","xpyriment","4 8 1 2","Kafkaesque Koffka","3.2.5","0","n","0","right","right","left","right","NA","602","66083","12480","602","NA","2","legacy","4","1024","2","48000","-16","experiment","1","odd","7","443999","440040","441698","1719","163301","441754","413282","1751","150820","446003","442781","446606","67835","446003","NA","Sternburg task","46","35732","55","yes","1024"
"82.1428571429","82.1428571429","647.607142857","647.607142857","black","experiment","xpyriment","legacy","legacy","0","uniform","0","undefined","0","left","55","55","55","0","0","55","55","0","0","55","55","55","0","55","0","10/07/18 21:32:44","The main experiment item","yes","Sternburgtask.osexp","C:/Users/Owner/Documents","no","mono","no","18","no","white","no","yes","768","legacy","43","11","C:/Users/Owner/Documents/ctsubject-1.csv","xpyriment","7 2 3","Kafkaesque Koffka","3.2.5","3","y","0","right","right","left","right","NA","534","66083","12480","534","NA","2","legacy","3","1024","2","48000","-16","experiment","1","odd","3","450588","446663","448302","1719","163301","448358","413282","1751","150820","452604","449384","453141","67835","452604","NA","Sternburg task","46","36266","56","yes","1024"
"82.4561403509","82.4561403509","647.912280702","647.912280702","black","experiment","xpyriment","legacy","legacy","0","uniform","1","undefined","1","right","56","56","56","0","0","56","56","0","0","56","56","56","0","56","0","10/07/18 21:32:44","The main experiment item","yes","Sternburgtask.osexp","C:/Users/Owner/Documents","no","mono","no","18","no","white","no","yes","768","legacy","44","11","C:/Users/Owner/Documents/ctsubject-1.csv","xpyriment","1 4 3 6 5","Kafkaesque Koffka","3.2.5","0","n","0","right","right","left","right","NA","665","66083","12480","665","NA","2","legacy","5","1024","2","48000","-16","experiment","1","odd","8","457180","446663","454874","1719","163301","454931","453214","1751","150820","459184","455964","459851","67835","459184","NA","Sternburg task","47","36931","57","yes","1024"
"82.7586206897","82.7586206897","648.879310345","648.879310345","black","experiment","xpyriment","legacy","legacy","0","uniform","1","undefined","1","right","57","57","57","0","0","57","57","0","0","57","57","57","0","57","0","10/07/18 21:32:44","The main experiment item","yes","Sternburgtask.osexp","C:/Users/Owner/Documents","no","mono","no","18","no","white","no","yes","768","legacy","45","11","C:/Users/Owner/Documents/ctsubject-1.csv","xpyriment","5 7 3","Kafkaesque Koffka","3.2.5","0","n","0","right","right","left","right","NA","704","66083","12480","704","NA","2","legacy","3","1024","2","48000","-16","experiment","1","odd","9","463818","459887","461534","1719","163301","461590","453214","1751","150820","465834","462612","466541","67835","465834","NA","Sternburg task","48","37635","58","yes","1024"
"83.0508474576","83.0508474576","647.423728814","647.423728814","black","experiment","xpyriment","legacy","legacy","0","uniform","1","undefined","1","right","58","58","58","0","0","58","58","0","0","58","58","58","0","58","0","10/07/18 21:32:44","The main experiment item","yes","Sternburgtask.osexp","C:/Users/Owner/Documents","no","mono","no","18","no","white","no","yes","768","legacy","46","11","C:/Users/Owner/Documents/ctsubject-1.csv","xpyriment","3 9 1","Kafkaesque Koffka","3.2.5","0","n","0","right","right","left","right","NA","563","66083","12480","563","NA","2","legacy","3","1024","2","48000","-16","experiment","1","odd","7","470527","466582","468224","1719","163301","468279","453214","1751","150820","472530","469310","473095","67835","472530","NA","Sternburg task","49","38198","59","yes","1024"
"83.3333333333","83.3333333333","644.8","644.8","black","experiment","xpyriment","legacy","legacy","0","uniform","1","undefined","1","left","59","59","59","0","0","59","59","0","0","59","59","59","0","59","0","10/07/18 21:32:44","The main experiment item","yes","Sternburgtask.osexp","C:/Users/Owner/Documents","no","mono","no","18","no","white","no","yes","768","legacy","47","11","C:/Users/Owner/Documents/ctsubject-1.csv","xpyriment","2 3 7 4","Kafkaesque Koffka","3.2.5","1","y","0","left","right","left","left","NA","490","66083","12480","490","NA","2","legacy","4","1024","2","48000","-16","experiment","1","odd","2","477079","473156","474803","1719","163301","474847","453214","1751","150820","479095","475875","479587","67835","479095","NA","Sternburg task","50","38688","60","yes","1024"
"83.606557377","83.606557377","642.295081967","642.295081967","black","experiment","xpyriment","legacy","legacy","0","uniform","1","undefined","1","left","60","60","60","0","0","60","60","0","0","60","60","60","0","60","0","10/07/18 21:32:44","The main experiment item","yes","Sternburgtask.osexp","C:/Users/Owner/Documents","no","mono","no","18","no","white","no","yes","768","legacy","48","11","C:/Users/Owner/Documents/ctsubject-1.csv","xpyriment","7","Kafkaesque Koffka","3.2.5","1","y","0","left","right","left","left","NA","492","66083","12480","492","NA","2","legacy","1","1024","2","48000","-16","experiment","1","odd","7","483585","479650","481308","1719","163301","481351","453214","1751","150820","485601","482381","486096","67835","485601","NA","Sternburg task","51","39180","61","yes","1024"
"82.2580645161","82.2580645161","642.161290323","642.161290323","black","experiment","xpyriment","legacy","legacy","0","uniform","0","undefined","0","left","61","61","61","0","0","61","61","0","0","61","61","61","0","61","0","10/07/18 21:32:44","The main experiment item","yes","Sternburgtask.osexp","C:/Users/Owner/Documents","no","mono","no","18","no","white","no","yes","768","legacy","49","11","C:/Users/Owner/Documents/ctsubject-1.csv","xpyriment","2 6 1 7 4","Kafkaesque Koffka","3.2.5","2","y","0","right","right","left","right","NA","634","66083","12480","634","NA","2","legacy","5","1024","2","48000","-16","experiment","1","odd","6","490094","486163","487812","1719","163301","487857","453214","1751","150820","492110","488878","492745","67835","492110","NA","Sternburg task","51","39814","62","yes","1024"
"82.5396825397","82.5396825397","646.53968254","646.53968254","black","experiment","xpyriment","legacy","legacy","0","uniform","1","undefined","1","right","62","62","62","0","0","62","62","0","0","62","62","62","0","62","0","10/07/18 21:32:44","The main experiment item","yes","Sternburgtask.osexp","C:/Users/Owner/Documents","no","mono","no","18","no","white","no","yes","768","legacy","50","11","C:/Users/Owner/Documents/ctsubject-1.csv","xpyriment","1 7 5 2","Kafkaesque Koffka","3.2.5","0","n","0","right","right","left","right","NA","918","66083","12480","918","NA","2","legacy","4","1024","2","48000","-16","experiment","1","odd","3","496769","486163","494466","1719","163301","494522","492803","1751","150820","498772","495552","499693","67835","498772","NA","Sternburg task","52","40732","63","yes","1024"
"82.8125","82.8125","647.875","647.875","black","experiment","xpyriment","legacy","legacy","0","uniform","1","undefined","1","left","63","63","63","0","0","63","63","0","0","63","63","63","0","63","0","10/07/18 21:32:44","The main experiment item","yes","Sternburgtask.osexp","C:/Users/Owner/Documents","no","mono","no","18","no","white","no","yes","768","legacy","51","11","C:/Users/Owner/Documents/ctsubject-1.csv","xpyriment","7 1 8 5 6 2","Kafkaesque Koffka","3.2.5","2","y","0","left","right","left","left","NA","732","66083","12480","732","NA","2","legacy","6","1024","2","48000","-16","experiment","1","odd","1","503664","499725","501375","1719","163301","501418","492803","1751","150820","505667","502460","506401","67835","505667","NA","Sternburg task","53","41464","64","yes","1024"
"81.5384615385","81.5384615385","649.061538462","649.061538462","black","experiment","xpyriment","legacy","legacy","0","uniform","0","undefined","0","left","64","64","64","0","0","64","64","0","0","64","64","64","0","64","0","10/07/18 21:32:44","The main experiment item","yes","Sternburgtask.osexp","C:/Users/Owner/Documents","no","mono","no","18","no","white","no","yes","768","legacy","52","11","C:/Users/Owner/Documents/ctsubject-1.csv","xpyriment","5 7 8 2 3 8","Kafkaesque Koffka","3.2.5","5","y","0","right","right","left","right","NA","725","66083","12480","725","NA","2","legacy","6","1024","2","48000","-16","experiment","1","odd","3","510396","506453","508096","1719","163301","508151","492803","1751","150820","512412","509180","513140","67835","512411","NA","Sternburg task","53","42189","65","yes","1024"
"81.8181818182","81.8181818182","651.939393939","651.939393939","black","experiment","xpyriment","legacy","legacy","0","uniform","1","undefined","1","left","65","65","65","0","0","65","65","0","0","65","65","65","0","65","0","10/07/18 21:32:44","The main experiment item","yes","Sternburgtask.osexp","C:/Users/Owner/Documents","no","mono","no","18","no","white","no","yes","768","legacy","53","11","C:/Users/Owner/Documents/ctsubject-1.csv","xpyriment","8 9 6 1","Kafkaesque Koffka","3.2.5","2","y","0","left","right","left","left","NA","839","66083","12480","839","NA","2","legacy","4","1024","2","48000","-16","experiment","1","odd","9","517185","506453","514885","1719","163301","514940","513199","1751","150820","519201","515968","520042","67835","519201","NA","Sternburg task","54","43028","66","yes","1024"
"82.0895522388","82.0895522388","651.104477612","651.104477612","black","experiment","xpyriment","legacy","legacy","0","uniform","1","undefined","1","left","66","66","66","0","0","66","66","0","0","66","66","66","0","66","0","10/07/18 21:32:44","The main experiment item","yes","Sternburgtask.osexp","C:/Users/Owner/Documents","no","mono","no","18","no","white","no","yes","768","legacy","54","11","C:/Users/Owner/Documents/ctsubject-1.csv","xpyriment","4","Kafkaesque Koffka","3.2.5","1","y","0","left","right","left","left","NA","596","66083","12480","596","NA","2","legacy","1","1024","2","48000","-16","experiment","1","odd","4","523986","520072","521711","1719","163301","521755","513199","1751","150820","525989","522782","526587","67835","525989","NA","Sternburg task","55","43624","67","yes","1024"
"82.3529411765","82.3529411765","647.676470588","647.676470588","black","experiment","xpyriment","legacy","legacy","0","uniform","1","undefined","1","left","67","67","67","0","0","67","67","0","0","67","67","67","0","67","0","10/07/18 21:32:44","The main experiment item","yes","Sternburgtask.osexp","C:/Users/Owner/Documents","no","mono","no","18","no","white","no","yes","768","legacy","55","11","C:/Users/Owner/Documents/ctsubject-1.csv","xpyriment","8 9 5 6 7","Kafkaesque Koffka","3.2.5","1","y","0","left","right","left","left","NA","418","66083","12480","418","NA","2","legacy","5","1024","2","48000","-16","experiment","1","odd","8","530647","526651","528343","1719","163301","528403","513199","1751","150820","532664","529432","533085","67835","532664","NA","Sternburg task","56","44042","68","yes","1024"
"82.6086956522","82.6086956522","648.057971014","648.057971014","black","experiment","xpyriment","legacy","legacy","0","uniform","1","undefined","1","right","68","68","68","0","0","68","68","0","0","68","68","68","0","68","0","10/07/18 21:32:44","The main experiment item","yes","Sternburgtask.osexp","C:/Users/Owner/Documents","no","mono","no","18","no","white","no","yes","768","legacy","56","11","C:/Users/Owner/Documents/ctsubject-1.csv","xpyriment","5","Kafkaesque Koffka","3.2.5","0","n","0","right","right","left","right","NA","674","66083","12480","674","NA","2","legacy","1","1024","2","48000","-16","experiment","1","odd","8","537104","533142","534807","1719","163301","534859","513199","1751","150820","539109","535889","539786","67835","539109","NA","Sternburg task","57","44716","69","yes","1024"
"82.8571428571","82.8571428571","652.514285714","652.514285714","black","experiment","xpyriment","legacy","legacy","0","uniform","1","undefined","1","right","69","69","69","0","0","69","69","0","0","69","69","69","0","69","0","10/07/18 21:32:44","The main experiment item","yes","Sternburgtask.osexp","C:/Users/Owner/Documents","no","mono","no","18","no","white","no","yes","768","legacy","57","11","C:/Users/Owner/Documents/ctsubject-1.csv","xpyriment","1 3 2 6 9","Kafkaesque Koffka","3.2.5","0","n","0","right","right","left","right","NA","960","66083","12480","960","NA","2","legacy","5","1024","2","48000","-16","experiment","1","odd","5","543829","539848","541525","1719","163301","541566","513199","1751","150820","545832","542613","546795","67835","545832","NA","Sternburg task","58","45676","70","yes","1024"
"83.0985915493","83.0985915493","650.774647887","650.774647887","black","experiment","xpyriment","legacy","legacy","0","uniform","1","undefined","1","left","70","70","70","0","0","70","70","0","0","70","70","70","0","70","0","10/07/18 21:32:44","The main experiment item","yes","Sternburgtask.osexp","C:/Users/Owner/Documents","no","mono","no","18","no","white","no","yes","768","legacy","58","11","C:/Users/Owner/Documents/ctsubject-1.csv","xpyriment","9 1 7 2","Kafkaesque Koffka","3.2.5","2","y","0","left","right","left","left","NA","529","66083","12480","529","NA","2","legacy","4","1024","2","48000","-16","experiment","1","odd","1","550835","546889","548538","1719","163301","548580","513199","1751","150820","552839","549619","553370","67835","552838","NA","Sternburg task","59","46205","71","yes","1024"
"83.3333333333","83.3333333333","654.25","654.25","black","experiment","xpyriment","legacy","legacy","0","uniform","1","undefined","1","left","71","71","71","0","0","71","71","0","0","71","71","71","0","71","0","10/07/18 21:32:44","The main experiment item","yes","Sternburgtask.osexp","C:/Users/Owner/Documents","no","mono","no","18","no","white","no","yes","768","legacy","59","11","C:/Users/Owner/Documents/ctsubject-1.csv","xpyriment","6 1 2","Kafkaesque Koffka","3.2.5","3","y","0","left","right","left","left","NA","901","66083","12480","901","NA","2","legacy","3","1024","2","48000","-16","experiment","1","odd","2","557375","553421","555100","1719","163301","555141","513199","1751","150820","559378","556170","560281","67835","559378","NA","Sternburg task","60","47106","72","yes","1024"
"82.1917808219","82.1917808219","654.698630137","654.698630137","black","experiment","xpyriment","legacy","legacy","0","uniform","0","undefined","0","left","72","72","72","0","0","72","72","0","0","72","72","72","0","72","0","10/07/18 21:32:44","The main experiment item","yes","Sternburgtask.osexp","C:/Users/Owner/Documents","no","mono","no","18","no","white","no","yes","768","legacy","60","11","C:/Users/Owner/Documents/ctsubject-1.csv","xpyriment","6 8 9 3 4 9","Kafkaesque Koffka","3.2.5","5","y","0","right","right","left","right","NA","687","66083","12480","687","NA","2","legacy","6","1024","2","48000","-16","experiment","1","odd","4","564262","560311","561971","1719","163301","562013","513199","1751","150820","566278","563046","566966","67835","566278","NA","Sternburg task","60","47793","73","yes","1024"
"82.4324324324","82.4324324324","654.72972973","654.72972973","black","experiment","xpyriment","legacy","legacy","0","uniform","1","undefined","1","left","73","73","73","0","0","73","73","0","0","73","73","73","0","73","0","10/07/18 21:32:44","The main experiment item","yes","Sternburgtask.osexp","C:/Users/Owner/Documents","no","mono","no","18","no","white","no","yes","768","legacy","61","11","C:/Users/Owner/Documents/ctsubject-1.csv","xpyriment","4 1 8 7 5","Kafkaesque Koffka","3.2.5","3","y","0","left","right","left","left","NA","657","66083","12480","657","NA","2","legacy","5","1024","2","48000","-16","experiment","1","odd","8","570949","560311","568692","1719","163301","568736","566999","1751","150820","572965","569746","573623","67835","572965","NA","Sternburg task","61","48450","74","yes","1024"
"82.6666666667","82.6666666667","653.386666667","653.386666667","black","experiment","xpyriment","legacy","legacy","0","uniform","1","undefined","1","right","74","74","74","0","0","74","74","0","0","74","74","74","0","74","0","10/07/18 21:32:44","The main experiment item","yes","Sternburgtask.osexp","C:/Users/Owner/Documents","no","mono","no","18","no","white","no","yes","768","legacy","62","11","C:/Users/Owner/Documents/ctsubject-1.csv","xpyriment","2 8 7 9 5 3","Kafkaesque Koffka","3.2.5","0","n","0","right","right","left","right","NA","554","66083","12480","554","NA","2","legacy","6","1024","2","48000","-16","experiment","1","odd","6","577976","573678","575690","1719","163301","575738","566999","1751","150820","579980","576759","580537","67835","579980","NA","Sternburg task","62","49004","75","yes","1024"
"82.8947368421","82.8947368421","652.631578947","652.631578947","black","experiment","xpyriment","legacy","legacy","0","uniform","1","undefined","1","left","75","75","75","0","0","75","75","0","0","75","75","75","0","75","0","10/07/18 21:32:44","The main experiment item","yes","Sternburgtask.osexp","C:/Users/Owner/Documents","no","mono","no","18","no","white","no","yes","768","legacy","63","11","C:/Users/Owner/Documents/ctsubject-1.csv","xpyriment","5 7 3 6 2","Kafkaesque Koffka","3.2.5","5","y","0","left","right","left","left","NA","596","66083","12480","596","NA","2","legacy","5","1024","2","48000","-16","experiment","1","odd","2","584532","580603","582252","1719","163301","582297","566999","1751","150820","586535","583328","587132","67835","586535","NA","Sternburg task","63","49600","76","yes","1024"
"83.1168831169","83.1168831169","651.415584416","651.415584416","black","experiment","xpyriment","legacy","legacy","0","uniform","1","undefined","1","right","76","76","76","0","0","76","76","0","0","76","76","76","0","76","0","10/07/18 21:32:44","The main experiment item","yes","Sternburgtask.osexp","C:/Users/Owner/Documents","no","mono","no","18","no","white","no","yes","768","legacy","64","11","C:/Users/Owner/Documents/ctsubject-1.csv","xpyriment","2 8 6 3 1","Kafkaesque Koffka","3.2.5","0","n","0","right","right","left","right","NA","559","66083","12480","559","NA","2","legacy","5","1024","2","48000","-16","experiment","1","odd","7","591119","587185","588835","1719","163301","588886","566999","1751","150820","593135","589915","593696","67835","593134","NA","Sternburg task","64","50159","77","yes","1024"
"82.0512820513","82.0512820513","650.371794872","650.371794872","black","experiment","xpyriment","legacy","legacy","0","uniform","0","undefined","0","right","77","77","77","0","0","77","77","0","0","77","77","77","0","77","0","10/07/18 21:32:44","The main experiment item","yes","Sternburgtask.osexp","C:/Users/Owner/Documents","no","mono","no","18","no","white","no","yes","768","legacy","65","11","C:/Users/Owner/Documents/ctsubject-1.csv","xpyriment","6 7 5 9","Kafkaesque Koffka","3.2.5","0","n","0","left","right","left","left","NA","570","66083","12480","570","NA","2","legacy","4","1024","2","48000","-16","experiment","1","odd","2","597694","593749","595402","1719","163301","595448","566999","1751","150820","599709","596478","600282","67835","599709","NA","Sternburg task","64","50729","78","yes","1024"
"82.2784810127","82.2784810127","648.987341772","648.987341772","black","experiment","xpyriment","legacy","legacy","0","uniform","1","undefined","1","right","78","78","78","0","0","78","78","0","0","78","78","78","0","78","0","10/07/18 21:32:44","The main experiment item","yes","Sternburgtask.osexp","C:/Users/Owner/Documents","no","mono","no","18","no","white","no","yes","768","legacy","66","11","C:/Users/Owner/Documents/ctsubject-1.csv","xpyriment","1","Kafkaesque Koffka","3.2.5","0","n","0","right","right","left","right","NA","541","66083","12480","541","NA","2","legacy","1","1024","2","48000","-16","experiment","1","odd","7","604266","593749","601989","1719","163301","602033","600338","1751","150820","606284","603061","606828","67835","606283","NA","Sternburg task","65","51270","79","yes","1024"
"82.5","82.5","647","647","black","experiment","xpyriment","legacy","legacy","0","uniform","1","undefined","1","right","79","79","79","0","0","79","79","0","0","79","79","79","0","79","0","10/07/18 21:32:44","The main experiment item","yes","Sternburgtask.osexp","C:/Users/Owner/Documents","no","mono","no","18","no","white","no","yes","768","legacy","67","11","C:/Users/Owner/Documents/ctsubject-1.csv","xpyriment","3 4 2","Kafkaesque Koffka","3.2.5","0","n","0","right","right","left","right","NA","490","66083","12480","490","NA","2","legacy","3","1024","2","48000","-16","experiment","1","odd","5","610842","606896","608540","1719","163301","608595","600338","1751","150820","612846","609625","613340","67835","612846","NA","Sternburg task","66","51760","80","yes","1024"
"81.4814814815","81.4814814815","647.012345679","647.012345679","black","experiment","xpyriment","legacy","legacy","0","uniform","0","undefined","0","left","80","80","80","0","0","80","80","0","0","80","80","80","0","80","0","10/07/18 21:32:44","The main experiment item","yes","Sternburgtask.osexp","C:/Users/Owner/Documents","no","mono","no","18","no","white","no","yes","768","legacy","68","11","C:/Users/Owner/Documents/ctsubject-1.csv","xpyriment","3 9 7 6 4","Kafkaesque Koffka","3.2.5","3","y","0","right","right","left","right","NA","648","66083","12480","648","NA","2","legacy","5","1024","2","48000","-16","experiment","1","odd","7","617398","613397","615096","1719","163301","615151","600338","1751","150820","619401","616181","620050","67835","619401","NA","Sternburg task","66","52408","81","yes","1024"
"80.487804878","80.487804878","644.817073171","644.817073171","black","experiment","xpyriment","legacy","legacy","0","uniform","0","undefined","0","right","81","81","81","0","0","81","81","0","0","81","81","81","0","81","0","10/07/18 21:32:44","The main experiment item","yes","Sternburgtask.osexp","C:/Users/Owner/Documents","no","mono","no","18","no","white","no","yes","768","legacy","69","11","C:/Users/Owner/Documents/ctsubject-1.csv","xpyriment","7 1 8 4 9 3","Kafkaesque Koffka","3.2.5","0","n","0","left","right","left","left","NA","467","66083","12480","467","NA","2","legacy","6","1024","2","48000","-16","experiment","1","odd","6","624035","613397","621758","1719","163301","621801","620102","1751","150820","626053","622831","626522","67835","626052","NA","Sternburg task","66","52875","82","yes","1024"
"80.7228915663","80.7228915663","642.927710843","642.927710843","black","experiment","xpyriment","legacy","legacy","0","uniform","1","undefined","1","left","82","82","82","0","0","82","82","0","0","82","82","82","0","82","0","10/07/18 21:32:44","The main experiment item","yes","Sternburgtask.osexp","C:/Users/Owner/Documents","no","mono","no","18","no","white","no","yes","768","legacy","70","11","C:/Users/Owner/Documents/ctsubject-1.csv","xpyriment","2 3","Kafkaesque Koffka","3.2.5","1","y","0","left","right","left","left","NA","488","66083","12480","488","NA","2","legacy","2","1024","2","48000","-16","experiment","1","odd","2","630493","613397","628221","1719","163301","628264","626576","1751","150820","632509","629289","633000","67835","632509","NA","Sternburg task","67","53363","83","yes","1024"
"80.9523809524","80.9523809524","640.607142857","640.607142857","black","experiment","xpyriment","legacy","legacy","0","uniform","1","undefined","1","left","83","83","83","0","0","83","83","0","0","83","83","83","0","83","0","10/07/18 21:32:44","The main experiment item","yes","Sternburgtask.osexp","C:/Users/Owner/Documents","no","mono","no","18","no","white","no","yes","768","legacy","71","11","C:/Users/Owner/Documents/ctsubject-1.csv","xpyriment","4 6 2 5 1","Kafkaesque Koffka","3.2.5","5","y","0","left","right","left","left","NA","448","66083","12480","448","NA","2","legacy","5","1024","2","48000","-16","experiment","1","odd","1","636999","633049","634698","1719","163301","634754","626576","1751","150820","639015","635781","639465","67835","639015","NA","Sternburg task","68","53811","84","yes","1024"
"80","80","645.823529412","645.823529412","black","experiment","xpyriment","legacy","legacy","0","uniform","0","undefined","0","right","84","84","84","0","0","84","84","0","0","84","84","84","0","84","0","10/07/18 21:32:44","The main experiment item","yes","Sternburgtask.osexp","C:/Users/Owner/Documents","no","mono","no","18","no","white","no","yes","768","legacy","72","11","C:/Users/Owner/Documents/ctsubject-1.csv","xpyriment","4 2 7 6 1 3","Kafkaesque Koffka","3.2.5","0","n","0","left","right","left","left","NA","1084","66083","12480","1084","NA","2","legacy","6","1024","2","48000","-16","experiment","1","odd","8","643498","639523","641206","1719","163301","641251","626576","1751","150820","645501","642294","646587","67835","645501","NA","Sternburg task","68","54895","85","yes","1024"
"80.2325581395","80.2325581395","646.034883721","646.034883721","black","experiment","xpyriment","legacy","legacy","0","uniform","1","undefined","1","left","85","85","85","0","0","85","85","0","0","85","85","85","0","85","0","10/07/18 21:32:44","The main experiment item","yes","Sternburgtask.osexp","C:/Users/Owner/Documents","no","mono","no","18","no","white","no","yes","768","legacy","73","11","C:/Users/Owner/Documents/ctsubject-1.csv","xpyriment","5 2 9 6 1 7","Kafkaesque Koffka","3.2.5","3","y","0","left","right","left","left","NA","664","66083","12480","664","NA","2","legacy","6","1024","2","48000","-16","experiment","1","odd","9","650579","639523","648290","1719","163301","648348","646635","1751","150820","652594","649375","653260","67835","652594","NA","Sternburg task","69","55559","86","yes","1024"
"79.3103448276","79.3103448276","646.827586207","646.827586207","black","experiment","xpyriment","legacy","legacy","0","uniform","0","undefined","0","left","86","86","86","0","0","86","86","0","0","86","86","86","0","86","0","10/07/18 21:32:44","The main experiment item","yes","Sternburgtask.osexp","C:/Users/Owner/Documents","no","mono","no","18","no","white","no","yes","768","legacy","74","11","C:/Users/Owner/Documents/ctsubject-1.csv","xpyriment","6 9 3 1","Kafkaesque Koffka","3.2.5","4","y","0","right","right","left","right","NA","715","66083","12480","715","NA","2","legacy","4","1024","2","48000","-16","experiment","1","odd","1","657236","653291","654947","1719","163301","655004","646635","1751","150820","659239","656031","659956","67835","659239","NA","Sternburg task","69","56274","87","yes","1024"
"78.4090909091","78.4090909091","647.034090909","647.034090909","black","experiment","xpyriment","legacy","legacy","0","uniform","0","undefined","0","right","87","87","87","0","0","87","87","0","0","87","87","87","0","87","0","10/07/18 21:32:44","The main experiment item","yes","Sternburgtask.osexp","C:/Users/Owner/Documents","no","mono","no","18","no","white","no","yes","768","legacy","75","11","C:/Users/Owner/Documents/ctsubject-1.csv","xpyriment","8 5 7 3 6","Kafkaesque Koffka","3.2.5","0","n","0","left","right","left","left","NA","665","66083","12480","665","NA","2","legacy","5","1024","2","48000","-16","experiment","1","odd","9","664032","653291","661734","1719","163301","661786","660081","1751","150820","666035","662828","666703","67835","666035","NA","Sternburg task","69","56939","88","yes","1024"
"78.6516853933","78.6516853933","647.382022472","647.382022472","black","experiment","xpyriment","legacy","legacy","0","uniform","1","undefined","1","right","88","88","88","0","0","88","88","0","0","88","88","88","0","88","0","10/07/18 21:32:44","The main experiment item","yes","Sternburgtask.osexp","C:/Users/Owner/Documents","no","mono","no","18","no","white","no","yes","768","legacy","76","11","C:/Users/Owner/Documents/ctsubject-1.csv","xpyriment","5 3 8 7 2 4","Kafkaesque Koffka","3.2.5","0","n","0","right","right","left","right","NA","678","66083","12480","678","NA","2","legacy","6","1024","2","48000","-16","experiment","1","odd","9","670716","653291","668417","1719","163301","668463","666772","1751","150820","672720","669499","673400","67835","672719","NA","Sternburg task","70","57617","89","yes","1024"
"78.8888888889","78.8888888889","645.9","645.9","black","experiment","xpyriment","legacy","legacy","0","uniform","1","undefined","1","left","89","89","89","0","0","89","89","0","0","89","89","89","0","89","0","10/07/18 21:32:44","The main experiment item","yes","Sternburgtask.osexp","C:/Users/Owner/Documents","no","mono","no","18","no","white","no","yes","768","legacy","77","11","C:/Users/Owner/Documents/ctsubject-1.csv","xpyriment","6 2","Kafkaesque Koffka","3.2.5","1","y","0","left","right","left","left","NA","514","66083","12480","514","NA","2","legacy","2","1024","2","48000","-16","experiment","1","odd","6","677384","673459","675108","1719","163301","675151","666772","1751","150820","679402","676180","679919","67835","679401","NA","Sternburg task","71","58131","90","yes","1024"
"79.1208791209","79.1208791209","644.582417582","644.582417582","black","experiment","xpyriment","legacy","legacy","0","uniform","1","undefined","1","right","90","90","90","0","0","90","90","0","0","90","90","90","0","90","0","10/07/18 21:32:44","The main experiment item","yes","Sternburgtask.osexp","C:/Users/Owner/Documents","no","mono","no","18","no","white","no","yes","768","legacy","78","11","C:/Users/Owner/Documents/ctsubject-1.csv","xpyriment","4 1","Kafkaesque Koffka","3.2.5","0","n","0","right","right","left","right","NA","526","66083","12480","526","NA","2","legacy","2","1024","2","48000","-16","experiment","1","odd","6","683935","679994","681648","1719","163301","681691","666772","1751","150820","685938","682731","686469","67835","685938","NA","Sternburg task","72","58657","91","yes","1024"
"79.347826087","79.347826087","643.945652174","643.945652174","black","experiment","xpyriment","legacy","legacy","0","uniform","1","undefined","1","left","91","91","91","0","0","91","91","0","0","91","91","91","0","91","0","10/07/18 21:32:44","The main experiment item","yes","Sternburgtask.osexp","C:/Users/Owner/Documents","no","mono","no","18","no","white","no","yes","768","legacy","79","11","C:/Users/Owner/Documents/ctsubject-1.csv","xpyriment","2 5 4 8 7","Kafkaesque Koffka","3.2.5","3","y","0","left","right","left","left","NA","586","66083","12480","586","NA","2","legacy","5","1024","2","48000","-16","experiment","1","odd","4","690475","686523","688189","1719","163301","688233","666772","1751","150820","692478","689270","693068","67835","692478","NA","Sternburg task","73","59243","92","yes","1024"
"79.5698924731","79.5698924731","643.924731183","643.924731183","black","experiment","xpyriment","legacy","legacy","0","uniform","1","undefined","1","right","92","92","92","0","0","92","92","0","0","92","92","92","0","92","0","10/07/18 21:32:44","The main experiment item","yes","Sternburgtask.osexp","C:/Users/Owner/Documents","no","mono","no","18","no","white","no","yes","768","legacy","80","11","C:/Users/Owner/Documents/ctsubject-1.csv","xpyriment","2 6 4 3 9","Kafkaesque Koffka","3.2.5","0","n","0","right","right","left","right","NA","642","66083","12480","642","NA","2","legacy","5","1024","2","48000","-16","experiment","1","odd","1","697124","693148","694845","1719","163301","694889","666772","1751","150820","699127","695920","699772","67835","699127","NA","Sternburg task","74","59885","93","yes","1024"
"78.7234042553","78.7234042553","642.617021277","642.617021277","black","experiment","xpyriment","legacy","legacy","0","uniform","0","undefined","0","right","93","93","93","0","0","93","93","0","0","93","93","93","0","93","0","10/07/18 21:32:44","The main experiment item","yes","Sternburgtask.osexp","C:/Users/Owner/Documents","no","mono","no","18","no","white","no","yes","768","legacy","81","11","C:/Users/Owner/Documents/ctsubject-1.csv","xpyriment","8 2 1 4 5 9","Kafkaesque Koffka","3.2.5","0","n","0","left","right","left","left","NA","521","66083","12480","521","NA","2","legacy","6","1024","2","48000","-16","experiment","1","odd","7","703779","699837","701499","1719","163301","701545","666772","1751","150820","705795","702575","706318","67835","705795","NA","Sternburg task","74","60406","94","yes","1024"
"78.9473684211","78.9473684211","639.894736842","639.894736842","black","experiment","xpyriment","legacy","legacy","0","uniform","1","undefined","1","left","94","94","94","0","0","94","94","0","0","94","94","94","0","94","0","10/07/18 21:32:44","The main experiment item","yes","Sternburgtask.osexp","C:/Users/Owner/Documents","no","mono","no","18","no","white","no","yes","768","legacy","82","11","C:/Users/Owner/Documents/ctsubject-1.csv","xpyriment","3 5 9 6 2 4","Kafkaesque Koffka","3.2.5","1","y","0","left","right","left","left","NA","384","66083","12480","384","NA","2","legacy","6","1024","2","48000","-16","experiment","1","odd","3","710288","699837","707999","1719","163301","708058","706369","1751","150820","712291","709084","712677","67835","712291","NA","Sternburg task","75","60790","95","yes","1024"
"79.1666666667","79.1666666667","639.135416667","639.135416667","black","experiment","xpyriment","legacy","legacy","0","uniform","1","undefined","1","right","95","95","95","0","0","95","95","0","0","95","95","95","0","95","0","10/07/18 21:32:44","The main experiment item","yes","Sternburgtask.osexp","C:/Users/Owner/Documents","no","mono","no","18","no","white","no","yes","768","legacy","83","11","C:/Users/Owner/Documents/ctsubject-1.csv","xpyriment","9 8 2 7 4","Kafkaesque Koffka","3.2.5","0","n","0","right","right","left","right","NA","567","66083","12480","567","NA","2","legacy","5","1024","2","48000","-16","experiment","1","odd","5","716692","712760","714409","1719","163301","714459","706369","1751","150820","718708","715488","719278","67835","718708","NA","Sternburg task","76","61357","96","yes","1024"
"79.381443299","79.381443299","637.773195876","637.773195876","black","experiment","xpyriment","legacy","legacy","0","uniform","1","undefined","1","right","96","96","96","0","0","96","96","0","0","96","96","96","0","96","0","10/07/18 21:32:44","The main experiment item","yes","Sternburgtask.osexp","C:/Users/Owner/Documents","no","mono","no","18","no","white","no","yes","768","legacy","84","11","C:/Users/Owner/Documents/ctsubject-1.csv","xpyriment","8 9","Kafkaesque Koffka","3.2.5","0","n","0","right","right","left","right","NA","507","66083","12480","507","NA","2","legacy","2","1024","2","48000","-16","experiment","1","odd","5","723299","719340","721006","1719","163301","721052","706369","1751","150820","725315","722082","725825","67835","725315","NA","Sternburg task","77","61864","97","yes","1024"
"79.5918367347","79.5918367347","637.540816327","637.540816327","black","experiment","xpyriment","legacy","legacy","0","uniform","1","undefined","1","right","97","97","97","0","0","97","97","0","0","97","97","97","0","97","0","10/07/18 21:32:44","The main experiment item","yes","Sternburgtask.osexp","C:/Users/Owner/Documents","no","mono","no","18","no","white","no","yes","768","legacy","85","11","C:/Users/Owner/Documents/ctsubject-1.csv","xpyriment","3 4 9 6 7 8","Kafkaesque Koffka","3.2.5","0","n","0","right","right","left","right","NA","615","66083","12480","615","NA","2","legacy","6","1024","2","48000","-16","experiment","1","odd","2","729825","725873","727533","1719","163301","727592","706369","1751","150820","731828","728621","732444","67835","731828","NA","Sternburg task","78","62479","98","yes","1024"
"79.797979798","79.797979798","637.222222222","637.222222222","black","experiment","xpyriment","legacy","legacy","0","uniform","1","undefined","1","right","98","98","98","0","0","98","98","0","0","98","98","98","0","98","0","10/07/18 21:32:44","The main experiment item","yes","Sternburgtask.osexp","C:/Users/Owner/Documents","no","mono","no","18","no","white","no","yes","768","legacy","86","11","C:/Users/Owner/Documents/ctsubject-1.csv","xpyriment","2 8 9","Kafkaesque Koffka","3.2.5","0","n","0","right","right","left","right","NA","606","66083","12480","606","NA","2","legacy","3","1024","2","48000","-16","experiment","1","odd","6","736514","732512","734205","1719","163301","734265","706369","1751","150820","738517","735297","739125","67835","738517","NA","Sternburg task","79","63085","99","yes","1024"
"80","80","636.75","636.75","black","experiment","xpyriment","legacy","legacy","0","uniform","1","undefined","1","right","99","99","99","0","0","99","99","0","0","99","99","99","0","99","0","10/07/18 21:32:44","The main experiment item","yes","Sternburgtask.osexp","C:/Users/Owner/Documents","no","mono","no","18","no","white","no","yes","768","legacy","87","11","C:/Users/Owner/Documents/ctsubject-1.csv","xpyriment","3 9 8 1 6 4","Kafkaesque Koffka","3.2.5","0","n","0","right","right","left","right","NA","590","66083","12480","590","NA","2","legacy","6","1024","2","48000","-16","experiment","1","odd","7","743118","739175","740828","1719","163301","740872","706369","1751","150820","745134","741901","745727","67835","745134","NA","Sternburg task","80","63675","100","yes","1024"
"80.198019802","80.198019802","637.217821782","637.217821782","black","experiment","xpyriment","legacy","legacy","0","uniform","1","undefined","1","left","100","100","100","0","0","100","100","0","0","100","100","100","0","100","0","10/07/18 21:32:44","The main experiment item","yes","Sternburgtask.osexp","C:/Users/Owner/Documents","no","mono","no","18","no","white","no","yes","768","legacy","88","11","C:/Users/Owner/Documents/ctsubject-1.csv","xpyriment","2 4 6 9","Kafkaesque Koffka","3.2.5","3","y","0","left","right","left","left","NA","684","66083","12480","684","NA","2","legacy","4","1024","2","48000","-16","experiment","1","odd","6","749758","745824","747469","1719","163301","747527","706369","1751","150820","751774","748554","752461","67835","751774","NA","Sternburg task","81","64359","101","yes","1024"
"80.3921568627","80.3921568627","636.676470588","636.676470588","black","experiment","xpyriment","legacy","legacy","0","uniform","1","undefined","1","right","101","101","101","0","0","101","101","0","0","101","101","101","0","101","0","10/07/18 21:32:44","The main experiment item","yes","Sternburgtask.osexp","C:/Users/Owner/Documents","no","mono","no","18","no","white","no","yes","768","legacy","89","11","C:/Users/Owner/Documents/ctsubject-1.csv","xpyriment","2 7 5","Kafkaesque Koffka","3.2.5","0","n","0","right","right","left","right","NA","582","66083","12480","582","NA","2","legacy","3","1024","2","48000","-16","experiment","1","odd","8","756461","752522","754182","1719","163301","754228","706369","1751","150820","758479","755257","759064","67835","758478","NA","Sternburg task","82","64941","102","yes","1024"
"80.5825242718","80.5825242718","638.058252427","638.058252427","black","experiment","xpyriment","legacy","legacy","0","uniform","1","undefined","1","left","102","102","102","0","0","102","102","0","0","102","102","102","0","102","0","10/07/18 21:32:44","The main experiment item","yes","Sternburgtask.osexp","C:/Users/Owner/Documents","no","mono","no","18","no","white","no","yes","768","legacy","90","11","C:/Users/Owner/Documents/ctsubject-1.csv","xpyriment","6 5","Kafkaesque Koffka","3.2.5","2","y","0","left","right","left","left","NA","779","66083","12480","779","NA","2","legacy","2","1024","2","48000","-16","experiment","1","odd","5","763071","759111","760768","1719","163301","760826","706369","1751","150820","765087","761854","765869","67835","765086","NA","Sternburg task","83","65720","103","yes","1024"
"80.7692307692","80.7692307692","639.798076923","639.798076923","black","experiment","xpyriment","legacy","legacy","0","uniform","1","undefined","1","left","103","103","103","0","0","103","103","0","0","103","103","103","0","103","0","10/07/18 21:32:44","The main experiment item","yes","Sternburgtask.osexp","C:/Users/Owner/Documents","no","mono","no","18","no","white","no","yes","768","legacy","91","11","C:/Users/Owner/Documents/ctsubject-1.csv","xpyriment","8 5 4 7 3 1","Kafkaesque Koffka","3.2.5","2","y","0","left","right","left","left","NA","819","66083","12480","819","NA","2","legacy","6","1024","2","48000","-16","experiment","1","odd","5","769885","765935","767597","1719","163301","767643","706369","1751","150820","771888","768681","772708","67835","771888","NA","Sternburg task","84","66539","104","yes","1024"
"80.9523809524","80.9523809524","641.180952381","641.180952381","black","experiment","xpyriment","legacy","legacy","0","uniform","1","undefined","1","left","104","104","104","0","0","104","104","0","0","104","104","104","0","104","0","10/07/18 21:32:44","The main experiment item","yes","Sternburgtask.osexp","C:/Users/Owner/Documents","no","mono","no","18","no","white","no","yes","768","legacy","92","11","C:/Users/Owner/Documents/ctsubject-1.csv","xpyriment","1 4 9 3 2 5","Kafkaesque Koffka","3.2.5","3","y","0","left","right","left","left","NA","785","66083","12480","785","NA","2","legacy","6","1024","2","48000","-16","experiment","1","odd","9","776681","772757","774407","1719","163301","774452","706369","1751","150820","778697","775477","779485","67835","778697","NA","Sternburg task","85","67324","105","yes","1024"
"81.1320754717","81.1320754717","642.650943396","642.650943396","black","experiment","xpyriment","legacy","legacy","0","uniform","1","undefined","1","right","105","105","105","0","0","105","105","0","0","105","105","105","0","105","0","10/07/18 21:32:44","The main experiment item","yes","Sternburgtask.osexp","C:/Users/Owner/Documents","no","mono","no","18","no","white","no","yes","768","legacy","93","11","C:/Users/Owner/Documents/ctsubject-1.csv","xpyriment","7 6 4 8 1 2","Kafkaesque Koffka","3.2.5","0","n","0","right","right","left","right","NA","797","66083","12480","797","NA","2","legacy","6","1024","2","48000","-16","experiment","1","odd","9","783488","779547","781211","1719","163301","781255","706369","1751","150820","785506","782284","786306","67835","785505","NA","Sternburg task","86","68121","106","yes","1024"
"81.308411215","81.308411215","641.252336449","641.252336449","black","experiment","xpyriment","legacy","legacy","0","uniform","1","undefined","1","left","106","106","106","0","0","106","106","0","0","106","106","106","0","106","0","10/07/18 21:32:44","The main experiment item","yes","Sternburgtask.osexp","C:/Users/Owner/Documents","no","mono","no","18","no","white","no","yes","768","legacy","94","11","C:/Users/Owner/Documents/ctsubject-1.csv","xpyriment","9 3 8 2 1 4","Kafkaesque Koffka","3.2.5","3","y","0","left","right","left","left","NA","493","66083","12480","493","NA","2","legacy","6","1024","2","48000","-16","experiment","1","odd","8","790313","786385","788031","1719","163301","788079","706369","1751","150820","792317","789108","792813","67835","792316","NA","Sternburg task","87","68614","107","yes","1024"
"81.4814814815","81.4814814815","641.12037037","641.12037037","black","experiment","xpyriment","legacy","legacy","0","uniform","1","undefined","1","right","107","107","107","0","0","107","107","0","0","107","107","107","0","107","0","10/07/18 21:32:44","The main experiment item","yes","Sternburgtask.osexp","C:/Users/Owner/Documents","no","mono","no","18","no","white","no","yes","768","legacy","95","11","C:/Users/Owner/Documents/ctsubject-1.csv","xpyriment","7 8 6 1","Kafkaesque Koffka","3.2.5","0","n","0","right","right","left","right","NA","627","66083","12480","627","NA","2","legacy","4","1024","2","48000","-16","experiment","1","odd","3","796852","792870","794543","1719","163301","794604","706369","1751","150820","798857","795634","799487","67835","798857","NA","Sternburg task","88","69241","108","yes","1024"
"81.6513761468","81.6513761468","641.146788991","641.146788991","black","experiment","xpyriment","legacy","legacy","0","uniform","1","undefined","1","left","108","108","108","0","0","108","108","0","0","108","108","108","0","108","0","10/07/18 21:32:44","The main experiment item","yes","Sternburgtask.osexp","C:/Users/Owner/Documents","no","mono","no","18","no","white","no","yes","768","legacy","96","11","C:/Users/Owner/Documents/ctsubject-1.csv","xpyriment","7 6","Kafkaesque Koffka","3.2.5","2","y","0","left","right","left","left","NA","644","66083","12480","644","NA","2","legacy","2","1024","2","48000","-16","experiment","1","odd","6","803475","799538","801195","1719","163301","801241","706369","1751","150820","805491","802271","806137","67835","805490","NA","Sternburg task","89","69885","109","yes","1024"
"81.8181818182","81.8181818182","640.445454545","640.445454545","black","experiment","xpyriment","legacy","legacy","0","uniform","1","undefined","1","left","109","109","109","0","0","109","109","0","0","109","109","109","0","109","0","10/07/18 21:32:44","The main experiment item","yes","Sternburgtask.osexp","C:/Users/Owner/Documents","no","mono","no","18","no","white","no","yes","768","legacy","97","11","C:/Users/Owner/Documents/ctsubject-1.csv","xpyriment","2 4 8 5 1 3","Kafkaesque Koffka","3.2.5","1","y","0","left","right","left","left","NA","564","66083","12480","564","NA","2","legacy","6","1024","2","48000","-16","experiment","1","odd","2","810189","806221","807913","1719","163301","807958","706369","1751","150820","812192","808985","812761","67835","812192","NA","Sternburg task","90","70449","110","yes","1024"
"81.981981982","81.981981982","640.315315315","640.315315315","black","experiment","xpyriment","legacy","legacy","0","uniform","1","undefined","1","right","110","110","110","0","0","110","110","0","0","110","110","110","0","110","0","10/07/18 21:32:44","The main experiment item","yes","Sternburgtask.osexp","C:/Users/Owner/Documents","no","mono","no","18","no","white","no","yes","768","legacy","98","11","C:/Users/Owner/Documents/ctsubject-1.csv","xpyriment","2 8 9 4 1","Kafkaesque Koffka","3.2.5","0","n","0","right","right","left","right","NA","626","66083","12480","626","NA","2","legacy","5","1024","2","48000","-16","experiment","1","odd","5","816735","812796","814449","1719","163301","814501","706369","1751","150820","818751","815531","819382","67835","818751","NA","Sternburg task","91","71075","111","yes","1024"
"82.1428571429","82.1428571429","639.375","639.375","black","experiment","xpyriment","legacy","legacy","0","uniform","1","undefined","1","left","111","111","111","0","0","111","111","0","0","111","111","111","0","111","0","10/07/18 21:32:44","The main experiment item","yes","Sternburgtask.osexp","C:/Users/Owner/Documents","no","mono","no","18","no","white","no","yes","768","legacy","99","11","C:/Users/Owner/Documents/ctsubject-1.csv","xpyriment","8 9 5 7 1 6","Kafkaesque Koffka","3.2.5","4","y","0","left","right","left","left","NA","535","66083","12480","535","NA","2","legacy","6","1024","2","48000","-16","experiment","1","odd","7","823360","819418","821081","1719","163301","821126","706369","1751","150820","825376","822156","825913","67835","825376","NA","Sternburg task","92","71610","112","yes","1024"
"82.3008849558","82.3008849558","638.495575221","638.495575221","black","experiment","xpyriment","legacy","legacy","0","uniform","1","undefined","1","right","112","112","112","0","0","112","112","0","0","112","112","112","0","112","0","10/07/18 21:32:44","The main experiment item","yes","Sternburgtask.osexp","C:/Users/Owner/Documents","no","mono","no","18","no","white","no","yes","768","legacy","100","11","C:/Users/Owner/Documents/ctsubject-1.csv","xpyriment","1 5 3 2 8","Kafkaesque Koffka","3.2.5","0","n","0","right","right","left","right","NA","540","66083","12480","540","NA","2","legacy","5","1024","2","48000","-16","experiment","1","odd","4","829934","825964","827646","1719","163301","827703","706369","1751","150820","831950","828729","832493","67835","831949","NA","Sternburg task","93","72150","113","yes","1024"
"82.4561403509","82.4561403509","638.087719298","638.087719298","black","experiment","xpyriment","legacy","legacy","0","uniform","1","undefined","1","left","113","113","113","0","0","113","113","0","0","113","113","113","0","113","0","10/07/18 21:32:44","The main experiment item","yes","Sternburgtask.osexp","C:/Users/Owner/Documents","no","mono","no","18","no","white","no","yes","768","legacy","101","11","C:/Users/Owner/Documents/ctsubject-1.csv","xpyriment","4 1 5","Kafkaesque Koffka","3.2.5","2","y","0","left","right","left","left","NA","592","66083","12480","592","NA","2","legacy","3","1024","2","48000","-16","experiment","1","odd","1","836476","832543","834194","1719","163301","834243","706369","1751","150820","838480","835258","839074","67835","838480","NA","Sternburg task","94","72742","114","yes","1024"
"82.6086956522","82.6086956522","637.060869565","637.060869565","black","experiment","xpyriment","legacy","legacy","0","uniform","1","undefined","1","right","114","114","114","0","0","114","114","0","0","114","114","114","0","114","0","10/07/18 21:32:44","The main experiment item","yes","Sternburgtask.osexp","C:/Users/Owner/Documents","no","mono","no","18","no","white","no","yes","768","legacy","102","11","C:/Users/Owner/Documents/ctsubject-1.csv","xpyriment","7 1 5 6 3","Kafkaesque Koffka","3.2.5","0","n","0","right","right","left","right","NA","520","66083","12480","520","NA","2","legacy","5","1024","2","48000","-16","experiment","1","odd","8","843066","839121","840771","1719","163301","840831","706369","1751","150820","845070","841862","845593","67835","845070","NA","Sternburg task","95","73262","115","yes","1024"
"81.8965517241","81.8965517241","638.232758621","638.232758621","black","experiment","xpyriment","legacy","legacy","0","uniform","0","undefined","0","right","115","115","115","0","0","115","115","0","0","115","115","115","0","115","0","10/07/18 21:32:44","The main experiment item","yes","Sternburgtask.osexp","C:/Users/Owner/Documents","no","mono","no","18","no","white","no","yes","768","legacy","103","11","C:/Users/Owner/Documents/ctsubject-1.csv","xpyriment","8 5 4 2 9 6","Kafkaesque Koffka","3.2.5","0","n","0","left","right","left","left","NA","773","66083","12480","773","NA","2","legacy","6","1024","2","48000","-16","experiment","1","odd","3","849604","845668","847301","1719","163301","847373","706369","1751","150820","851608","848399","852383","67835","851607","NA","Sternburg task","95","74035","116","yes","1024"
"82.0512820513","82.0512820513","638.290598291","638.290598291","black","experiment","xpyriment","legacy","legacy","0","uniform","1","undefined","1","right","116","116","116","0","0","116","116","0","0","116","116","116","0","116","0","10/07/18 21:32:44","The main experiment item","yes","Sternburgtask.osexp","C:/Users/Owner/Documents","no","mono","no","18","no","white","no","yes","768","legacy","104","11","C:/Users/Owner/Documents/ctsubject-1.csv","xpyriment","6 9 5","Kafkaesque Koffka","3.2.5","0","n","0","right","right","left","right","NA","645","66083","12480","645","NA","2","legacy","3","1024","2","48000","-16","experiment","1","odd","8","856426","845668","854109","1719","163301","854181","852449","1751","150820","858442","855209","859092","67835","858441","NA","Sternburg task","96","74680","117","yes","1024"
"82.2033898305","82.2033898305","637.93220339","637.93220339","black","experiment","xpyriment","legacy","legacy","0","uniform","1","undefined","1","right","117","117","117","0","0","117","117","0","0","117","117","117","0","117","0","10/07/18 21:32:44","The main experiment item","yes","Sternburgtask.osexp","C:/Users/Owner/Documents","no","mono","no","18","no","white","no","yes","768","legacy","105","11","C:/Users/Owner/Documents/ctsubject-1.csv","xpyriment","6 8 4","Kafkaesque Koffka","3.2.5","0","n","0","right","right","left","right","NA","596","66083","12480","596","NA","2","legacy","3","1024","2","48000","-16","experiment","1","odd","1","863083","859147","860791","1719","163301","860850","852449","1751","150820","865087","861879","865687","67835","865086","NA","Sternburg task","97","75276","118","yes","1024"
"82.3529411765","82.3529411765","638.260504202","638.260504202","black","experiment","xpyriment","legacy","legacy","0","uniform","1","undefined","1","left","118","118","118","0","0","118","118","0","0","118","118","118","0","118","0","10/07/18 21:32:44","The main experiment item","yes","Sternburgtask.osexp","C:/Users/Owner/Documents","no","mono","no","18","no","white","no","yes","768","legacy","106","11","C:/Users/Owner/Documents/ctsubject-1.csv","xpyriment","3 4","Kafkaesque Koffka","3.2.5","1","y","0","left","right","left","left","NA","677","66083","12480","677","NA","2","legacy","2","1024","2","48000","-16","experiment","1","odd","3","869707","865737","867389","1719","163301","867460","852449","1751","150820","871710","868491","872390","67835","871710","NA","Sternburg task","98","75953","119","yes","1024"
"82.5","82.5","638.066666667","638.066666667","black","experiment","xpyriment","legacy","legacy","0","uniform","1","undefined","1","left","119","119","119","0","0","119","119","0","0","119","119","119","0","119","0","10/07/18 21:32:44","The main experiment item","yes","Sternburgtask.osexp","C:/Users/Owner/Documents","no","mono","no","18","no","white","no","yes","768","legacy","107","11","C:/Users/Owner/Documents/ctsubject-1.csv","xpyriment","9 6 2 4 1","Kafkaesque Koffka","3.2.5","4","y","0","left","right","left","left","NA","615","66083","12480","615","NA","2","legacy","5","1024","2","48000","-16","experiment","1","odd","4","876397","872449","874088","1719","163301","874149","852449","1751","150820","878400","875179","879017","67835","878400","NA","Sternburg task","99","76568","120","yes","1024"
"82.6446280992","82.6446280992","637.272727273","637.272727273","black","experiment","xpyriment","legacy","legacy","0","uniform","1","undefined","1","right","120","120","120","0","0","120","120","0","0","120","120","120","0","120","0","10/07/18 21:32:44","The main experiment item","yes","Sternburgtask.osexp","C:/Users/Owner/Documents","no","mono","no","18","no","white","no","yes","768","legacy","108","11","C:/Users/Owner/Documents/ctsubject-1.csv","xpyriment","7 9","Kafkaesque Koffka","3.2.5","0","n","0","right","right","left","right","NA","542","66083","12480","542","NA","2","legacy","2","1024","2","48000","-16","experiment","1","odd","1","883051","879060","880742","1719","163301","880803","852449","1751","150820","885056","881834","885604","67835","885056","NA","Sternburg task","100","77110","121","yes","1024"
