acc,accuracy,average_response_time,avg_rt,background,canvas_backend,clock_backend,color_backend,compensation,condition,coordinates,correct,correct_instructions1,correct_keyboard_response,correct_response,count_Block1,count_Block2,count_Block3,count_ISI,count_errorFeedback,count_experiment,count_faster,count_finish,count_fixation,count_instruction2,count_instructions1,count_instructions3,count_keyboard_response,count_logger,count_sequence,count_stimulus,datetime,deadline,description,disable_garbage_collection,experiment_file,experiment_path,font_bold,font_family,font_italic,font_size,font_underline,foreground,form_clicks,fullscreen,height,keyboard_backend,live_row,live_row_Block1,logfile,mouse_backend,opensesame_codename,opensesame_version,repeat_cycle,response,response_finish,response_instruction2,response_instructions1,response_instructions3,response_keyboard_response,response_time,response_time_finish,response_time_instruction2,response_time_instructions1,response_time_instructions3,response_time_keyboard_response,round_decimals,sampler_backend,sound_buf_size,sound_channels,sound_freq,sound_sample_size,start,stimulus,subject_nr,subject_parity,time_Block1,time_Block2,time_Block3,time_ISI,time_errorFeedback,time_experiment,time_faster,time_finish,time_fixation,time_instruction2,time_instructions1,time_instructions3,time_keyboard_response,time_logger,time_sequence,time_stimulus,title,total_correct,total_response_time,total_responses,uniform_coordinates,width
100,100,956,956,black,legacy,legacy,legacy,0,incongruent,uniform,1,undefined,1,h,0,0,0,0,0,0,0,0,0,0,0,0,0,0,0,0,Thu Sep 19 21:13:52 2019,1500,The main experiment item,yes,CB-FlankerTask-Lab1.2.osexp,/Users/cristianbotello/Desktop/Advanced Quant,no,mono,no,18,no,white,no,no,768,legacy,0,0,/Users/cristianbotello/Desktop/Advanced Quant/CB-subject-3.csv,legacy,Kafkaesque Koffka,3.2.8,0,h,NA,NA,s,NA,h,956,NA,NA,52436,NA,956,2,legacy,1024,2,48000,-16,experiment,SSHSS,3,odd,55151,NA,NA,NA,NA,2673,NA,NA,55266,NA,2705,NA,55381,56339,55255,55381,Flanker Task,1,956,1,yes,1024
100,100,800.5,800.5,black,legacy,legacy,legacy,0,congruent,uniform,1,undefined,1,s,0,0,0,1,1,0,1,0,1,0,0,0,1,1,1,1,Thu Sep 19 21:13:52 2019,1500,The main experiment item,yes,CB-FlankerTask-Lab1.2.osexp,/Users/cristianbotello/Desktop/Advanced Quant,no,mono,no,18,no,white,no,no,768,legacy,1,1,/Users/cristianbotello/Desktop/Advanced Quant/CB-subject-3.csv,legacy,Kafkaesque Koffka,3.2.8,0,s,NA,NA,s,NA,s,645,NA,NA,52436,NA,645,2,legacy,1024,2,48000,-16,experiment,SSSSS,3,odd,55151,NA,NA,56362,NA,2673,NA,NA,57493,NA,2705,NA,57608,58255,57482,57608,Flanker Task,2,1601,2,yes,1024
100,100,769,769,black,legacy,legacy,legacy,0,incongruent,uniform,1,undefined,1,s,0,0,0,2,2,0,2,0,2,0,0,0,2,2,2,2,Thu Sep 19 21:13:52 2019,1500,The main experiment item,yes,CB-FlankerTask-Lab1.2.osexp,/Users/cristianbotello/Desktop/Advanced Quant,no,mono,no,18,no,white,no,no,768,legacy,2,2,/Users/cristianbotello/Desktop/Advanced Quant/CB-subject-3.csv,legacy,Kafkaesque Koffka,3.2.8,0,s,NA,NA,s,NA,s,706,NA,NA,52436,NA,706,2,legacy,1024,2,48000,-16,experiment,HHSHH,3,odd,55151,NA,NA,58269,NA,2673,NA,NA,59368,NA,2705,NA,59479,60187,59357,59479,Flanker Task,3,2307,3,yes,1024
100,100,718.25,718.25,black,legacy,legacy,legacy,0,incongruent,uniform,1,undefined,1,h,0,0,0,3,3,0,3,0,3,0,0,0,3,3,3,3,Thu Sep 19 21:13:52 2019,1500,The main experiment item,yes,CB-FlankerTask-Lab1.2.osexp,/Users/cristianbotello/Desktop/Advanced Quant,no,mono,no,18,no,white,no,no,768,legacy,3,3,/Users/cristianbotello/Desktop/Advanced Quant/CB-subject-3.csv,legacy,Kafkaesque Koffka,3.2.8,0,h,NA,NA,s,NA,h,566,NA,NA,52436,NA,566,2,legacy,1024,2,48000,-16,experiment,SSHSS,3,odd,55151,NA,NA,60201,NA,2673,NA,NA,61300,NA,2705,NA,61411,61979,61289,61411,Flanker Task,4,2873,4,yes,1024
100,100,702.6,702.6,black,legacy,legacy,legacy,0,incongruent,uniform,1,undefined,1,s,0,0,0,4,4,0,4,0,4,0,0,0,4,4,4,4,Thu Sep 19 21:13:52 2019,1500,The main experiment item,yes,CB-FlankerTask-Lab1.2.osexp,/Users/cristianbotello/Desktop/Advanced Quant,no,mono,no,18,no,white,no,no,768,legacy,4,4,/Users/cristianbotello/Desktop/Advanced Quant/CB-subject-3.csv,legacy,Kafkaesque Koffka,3.2.8,0,s,NA,NA,s,NA,s,640,NA,NA,52436,NA,640,2,legacy,1024,2,48000,-16,experiment,HHSHH,3,odd,55151,NA,NA,61994,NA,2673,NA,NA,63114,NA,2705,NA,63230,63871,63103,63229,Flanker Task,5,3513,5,yes,1024
100,100,683.8333333,683.8333333,black,legacy,legacy,legacy,0,congruent,uniform,1,undefined,1,h,0,0,0,5,5,0,5,0,5,0,0,0,5,5,5,5,Thu Sep 19 21:13:52 2019,1500,The main experiment item,yes,CB-FlankerTask-Lab1.2.osexp,/Users/cristianbotello/Desktop/Advanced Quant,no,mono,no,18,no,white,no,no,768,legacy,5,5,/Users/cristianbotello/Desktop/Advanced Quant/CB-subject-3.csv,legacy,Kafkaesque Koffka,3.2.8,0,h,NA,NA,s,NA,h,590,NA,NA,52436,NA,590,2,legacy,1024,2,48000,-16,experiment,HHHHH,3,odd,55151,NA,NA,63885,NA,2673,NA,NA,64984,NA,2705,NA,65100,65691,64973,65100,Flanker Task,6,4103,6,yes,1024
100,100,669,669,black,legacy,legacy,legacy,0,incongruent,uniform,1,undefined,1,s,0,0,0,6,6,0,6,0,6,0,0,0,6,6,6,6,Thu Sep 19 21:13:52 2019,1500,The main experiment item,yes,CB-FlankerTask-Lab1.2.osexp,/Users/cristianbotello/Desktop/Advanced Quant,no,mono,no,18,no,white,no,no,768,legacy,6,6,/Users/cristianbotello/Desktop/Advanced Quant/CB-subject-3.csv,legacy,Kafkaesque Koffka,3.2.8,0,s,NA,NA,s,NA,s,580,NA,NA,52436,NA,580,2,legacy,1024,2,48000,-16,experiment,HHSHH,3,odd,55151,NA,NA,65709,NA,2673,NA,NA,66826,NA,2705,NA,66941,67522,66815,66941,Flanker Task,7,4683,7,yes,1024
100,100,654.75,654.75,black,legacy,legacy,legacy,0,congruent,uniform,1,undefined,1,h,0,0,0,7,7,0,7,0,7,0,0,0,7,7,7,7,Thu Sep 19 21:13:52 2019,1500,The main experiment item,yes,CB-FlankerTask-Lab1.2.osexp,/Users/cristianbotello/Desktop/Advanced Quant,no,mono,no,18,no,white,no,no,768,legacy,7,7,/Users/cristianbotello/Desktop/Advanced Quant/CB-subject-3.csv,legacy,Kafkaesque Koffka,3.2.8,0,h,NA,NA,s,NA,h,555,NA,NA,52436,NA,555,2,legacy,1024,2,48000,-16,experiment,HHHHH,3,odd,55151,NA,NA,67538,NA,2673,NA,NA,68636,NA,2705,NA,68752,69309,68625,68751,Flanker Task,8,5238,8,yes,1024
100,100,646.6666667,646.6666667,black,legacy,legacy,legacy,0,congruent,uniform,1,undefined,1,s,0,0,0,8,8,0,8,0,8,0,0,0,8,8,8,8,Thu Sep 19 21:13:52 2019,1500,The main experiment item,yes,CB-FlankerTask-Lab1.2.osexp,/Users/cristianbotello/Desktop/Advanced Quant,no,mono,no,18,no,white,no,no,768,legacy,8,8,/Users/cristianbotello/Desktop/Advanced Quant/CB-subject-3.csv,legacy,Kafkaesque Koffka,3.2.8,0,s,NA,NA,s,NA,s,582,NA,NA,52436,NA,582,2,legacy,1024,2,48000,-16,experiment,SSSSS,3,odd,55151,NA,NA,69342,NA,2673,NA,NA,70457,NA,2705,NA,70573,71157,70446,70572,Flanker Task,9,5820,9,yes,1024
100,100,636.9,636.9,black,legacy,legacy,legacy,0,incongruent,uniform,1,undefined,1,h,0,0,0,9,9,0,9,0,9,0,0,0,9,9,9,9,Thu Sep 19 21:13:52 2019,1500,The main experiment item,yes,CB-FlankerTask-Lab1.2.osexp,/Users/cristianbotello/Desktop/Advanced Quant,no,mono,no,18,no,white,no,no,768,legacy,9,9,/Users/cristianbotello/Desktop/Advanced Quant/CB-subject-3.csv,legacy,Kafkaesque Koffka,3.2.8,0,h,NA,NA,s,NA,h,549,NA,NA,52436,NA,549,2,legacy,1024,2,48000,-16,experiment,SSHSS,3,odd,55151,NA,NA,71172,NA,2673,NA,NA,72271,NA,2705,NA,72385,72936,72259,72385,Flanker Task,10,6369,10,yes,1024
100,100,618.5454545,618.5454545,black,legacy,legacy,legacy,0,congruent,uniform,1,undefined,1,s,0,0,0,10,10,0,10,0,10,0,0,0,10,10,10,10,Thu Sep 19 21:13:52 2019,1500,The main experiment item,yes,CB-FlankerTask-Lab1.2.osexp,/Users/cristianbotello/Desktop/Advanced Quant,no,mono,no,18,no,white,no,no,768,legacy,10,10,/Users/cristianbotello/Desktop/Advanced Quant/CB-subject-3.csv,legacy,Kafkaesque Koffka,3.2.8,0,s,NA,NA,s,NA,s,435,NA,NA,52436,NA,435,2,legacy,1024,2,48000,-16,experiment,SSSSS,3,odd,55151,NA,NA,72960,NA,2673,NA,NA,74080,NA,2705,NA,74195,74632,74069,74195,Flanker Task,11,6804,11,yes,1024
100,100,614.6666667,614.6666667,black,legacy,legacy,legacy,0,incongruent,uniform,1,undefined,1,h,0,0,0,11,11,0,11,0,11,0,0,0,11,11,11,11,Thu Sep 19 21:13:52 2019,1500,The main experiment item,yes,CB-FlankerTask-Lab1.2.osexp,/Users/cristianbotello/Desktop/Advanced Quant,no,mono,no,18,no,white,no,no,768,legacy,11,11,/Users/cristianbotello/Desktop/Advanced Quant/CB-subject-3.csv,legacy,Kafkaesque Koffka,3.2.8,0,h,NA,NA,s,NA,h,572,NA,NA,52436,NA,572,2,legacy,1024,2,48000,-16,experiment,SSHSS,3,odd,55151,NA,NA,74646,NA,2673,NA,NA,75745,NA,2705,NA,75860,76434,75733,75860,Flanker Task,12,7376,12,yes,1024
100,100,605.3846154,605.3846154,black,legacy,legacy,legacy,0,incongruent,uniform,1,undefined,1,h,0,0,0,12,12,0,12,0,12,0,0,0,12,12,12,12,Thu Sep 19 21:13:52 2019,1500,The main experiment item,yes,CB-FlankerTask-Lab1.2.osexp,/Users/cristianbotello/Desktop/Advanced Quant,no,mono,no,18,no,white,no,no,768,legacy,12,12,/Users/cristianbotello/Desktop/Advanced Quant/CB-subject-3.csv,legacy,Kafkaesque Koffka,3.2.8,0,h,NA,NA,s,NA,h,494,NA,NA,52436,NA,494,2,legacy,1024,2,48000,-16,experiment,SSHSS,3,odd,55151,NA,NA,76456,NA,2673,NA,NA,77582,NA,2705,NA,77698,78194,77571,77698,Flanker Task,13,7870,13,yes,1024
100,100,594.5,594.5,black,legacy,legacy,legacy,0,congruent,uniform,1,undefined,1,h,0,0,0,13,13,0,13,0,13,0,0,0,13,13,13,13,Thu Sep 19 21:13:52 2019,1500,The main experiment item,yes,CB-FlankerTask-Lab1.2.osexp,/Users/cristianbotello/Desktop/Advanced Quant,no,mono,no,18,no,white,no,no,768,legacy,13,13,/Users/cristianbotello/Desktop/Advanced Quant/CB-subject-3.csv,legacy,Kafkaesque Koffka,3.2.8,0,h,NA,NA,s,NA,h,453,NA,NA,52436,NA,453,2,legacy,1024,2,48000,-16,experiment,HHHHH,3,odd,55151,NA,NA,78208,NA,2673,NA,NA,79307,NA,2705,NA,79421,79875,79296,79421,Flanker Task,14,8323,14,yes,1024
100,100,587.1333333,587.1333333,black,legacy,legacy,legacy,0,congruent,uniform,1,undefined,1,h,0,0,0,14,14,0,14,0,14,0,0,0,14,14,14,14,Thu Sep 19 21:13:52 2019,1500,The main experiment item,yes,CB-FlankerTask-Lab1.2.osexp,/Users/cristianbotello/Desktop/Advanced Quant,no,mono,no,18,no,white,no,no,768,legacy,14,14,/Users/cristianbotello/Desktop/Advanced Quant/CB-subject-3.csv,legacy,Kafkaesque Koffka,3.2.8,0,h,NA,NA,s,NA,h,484,NA,NA,52436,NA,484,2,legacy,1024,2,48000,-16,experiment,HHHHH,3,odd,55151,NA,NA,79891,NA,2673,NA,NA,81010,NA,2705,NA,81125,81610,81000,81125,Flanker Task,15,8807,15,yes,1024
100,100,595.1875,595.1875,black,legacy,legacy,legacy,0,incongruent,uniform,1,undefined,1,h,0,0,0,15,15,0,15,0,15,0,0,0,15,15,15,15,Thu Sep 19 21:13:52 2019,1500,The main experiment item,yes,CB-FlankerTask-Lab1.2.osexp,/Users/cristianbotello/Desktop/Advanced Quant,no,mono,no,18,no,white,no,no,768,legacy,15,15,/Users/cristianbotello/Desktop/Advanced Quant/CB-subject-3.csv,legacy,Kafkaesque Koffka,3.2.8,0,h,NA,NA,s,NA,h,716,NA,NA,52436,NA,716,2,legacy,1024,2,48000,-16,experiment,SSHSS,3,odd,55151,NA,NA,81625,NA,2673,NA,NA,82724,NA,2705,NA,82835,83552,82713,82835,Flanker Task,16,9523,16,yes,1024
100,100,591.0588235,591.0588235,black,legacy,legacy,legacy,0,incongruent,uniform,1,undefined,1,s,0,0,0,16,16,0,16,0,16,0,0,0,16,16,16,16,Thu Sep 19 21:13:52 2019,1500,The main experiment item,yes,CB-FlankerTask-Lab1.2.osexp,/Users/cristianbotello/Desktop/Advanced Quant,no,mono,no,18,no,white,no,no,768,legacy,16,16,/Users/cristianbotello/Desktop/Advanced Quant/CB-subject-3.csv,legacy,Kafkaesque Koffka,3.2.8,0,s,NA,NA,s,NA,s,525,NA,NA,52436,NA,525,2,legacy,1024,2,48000,-16,experiment,HHSHH,3,odd,55151,NA,NA,83579,NA,2673,NA,NA,84706,NA,2705,NA,84821,85348,84694,84820,Flanker Task,17,10048,17,yes,1024
100,100,585.7777778,585.7777778,black,legacy,legacy,legacy,0,congruent,uniform,1,undefined,1,s,0,0,0,17,17,0,17,0,17,0,0,0,17,17,17,17,Thu Sep 19 21:13:52 2019,1500,The main experiment item,yes,CB-FlankerTask-Lab1.2.osexp,/Users/cristianbotello/Desktop/Advanced Quant,no,mono,no,18,no,white,no,no,768,legacy,17,17,/Users/cristianbotello/Desktop/Advanced Quant/CB-subject-3.csv,legacy,Kafkaesque Koffka,3.2.8,0,s,NA,NA,s,NA,s,496,NA,NA,52436,NA,496,2,legacy,1024,2,48000,-16,experiment,SSSSS,3,odd,55151,NA,NA,85362,NA,2673,NA,NA,86461,NA,2705,NA,86577,87075,86449,86577,Flanker Task,18,10544,18,yes,1024
100,100,592.9473684,592.9473684,black,legacy,legacy,legacy,0,incongruent,uniform,1,undefined,1,s,0,0,0,18,18,0,18,0,18,0,0,0,18,18,18,18,Thu Sep 19 21:13:52 2019,1500,The main experiment item,yes,CB-FlankerTask-Lab1.2.osexp,/Users/cristianbotello/Desktop/Advanced Quant,no,mono,no,18,no,white,no,no,768,legacy,18,18,/Users/cristianbotello/Desktop/Advanced Quant/CB-subject-3.csv,legacy,Kafkaesque Koffka,3.2.8,0,s,NA,NA,s,NA,s,722,NA,NA,52436,NA,722,2,legacy,1024,2,48000,-16,experiment,HHSHH,3,odd,55151,NA,NA,87100,NA,2673,NA,NA,88219,NA,2705,NA,88330,89054,88207,88330,Flanker Task,19,11266,19,yes,1024
100,100,590.45,590.45,black,legacy,legacy,legacy,0,incongruent,uniform,1,undefined,1,s,0,0,0,19,19,0,19,0,19,0,0,0,19,19,19,19,Thu Sep 19 21:13:52 2019,1500,The main experiment item,yes,CB-FlankerTask-Lab1.2.osexp,/Users/cristianbotello/Desktop/Advanced Quant,no,mono,no,18,no,white,no,no,768,legacy,19,19,/Users/cristianbotello/Desktop/Advanced Quant/CB-subject-3.csv,legacy,Kafkaesque Koffka,3.2.8,0,s,NA,NA,s,NA,s,543,NA,NA,52436,NA,543,2,legacy,1024,2,48000,-16,experiment,HHSHH,3,odd,55151,NA,NA,89068,NA,2673,NA,NA,90168,NA,2705,NA,90280,90825,90156,90280,Flanker Task,20,11809,20,yes,1024
100,100,585.3809524,585.3809524,black,legacy,legacy,legacy,0,incongruent,uniform,1,undefined,1,s,0,0,0,20,20,0,20,0,20,0,0,0,20,20,20,20,Thu Sep 19 21:13:52 2019,1500,The main experiment item,yes,CB-FlankerTask-Lab1.2.osexp,/Users/cristianbotello/Desktop/Advanced Quant,no,mono,no,18,no,white,no,no,768,legacy,20,20,/Users/cristianbotello/Desktop/Advanced Quant/CB-subject-3.csv,legacy,Kafkaesque Koffka,3.2.8,0,s,NA,NA,s,NA,s,484,NA,NA,52436,NA,484,2,legacy,1024,2,48000,-16,experiment,HHSHH,3,odd,55151,NA,NA,90839,NA,2673,NA,NA,91938,NA,2705,NA,92053,92539,91926,92053,Flanker Task,21,12293,21,yes,1024
100,100,580.6363636,580.6363636,black,legacy,legacy,legacy,0,congruent,uniform,1,undefined,1,h,0,0,0,21,21,0,21,0,21,0,0,0,21,21,21,21,Thu Sep 19 21:13:52 2019,1500,The main experiment item,yes,CB-FlankerTask-Lab1.2.osexp,/Users/cristianbotello/Desktop/Advanced Quant,no,mono,no,18,no,white,no,no,768,legacy,21,21,/Users/cristianbotello/Desktop/Advanced Quant/CB-subject-3.csv,legacy,Kafkaesque Koffka,3.2.8,0,h,NA,NA,s,NA,h,481,NA,NA,52436,NA,481,2,legacy,1024,2,48000,-16,experiment,HHHHH,3,odd,55151,NA,NA,92568,NA,2673,NA,NA,93688,NA,2705,NA,93803,94286,93676,93803,Flanker Task,22,12774,22,yes,1024
100,100,583.5217391,583.5217391,black,legacy,legacy,legacy,0,incongruent,uniform,1,undefined,1,s,0,0,0,22,22,0,22,0,22,0,0,0,22,22,22,22,Thu Sep 19 21:13:52 2019,1500,The main experiment item,yes,CB-FlankerTask-Lab1.2.osexp,/Users/cristianbotello/Desktop/Advanced Quant,no,mono,no,18,no,white,no,no,768,legacy,22,22,/Users/cristianbotello/Desktop/Advanced Quant/CB-subject-3.csv,legacy,Kafkaesque Koffka,3.2.8,0,s,NA,NA,s,NA,s,647,NA,NA,52436,NA,647,2,legacy,1024,2,48000,-16,experiment,HHSHH,3,odd,55151,NA,NA,94300,NA,2673,NA,NA,95400,NA,2705,NA,95515,96164,95388,95515,Flanker Task,23,13421,23,yes,1024
100,100,577.7916667,577.7916667,black,legacy,legacy,legacy,0,incongruent,uniform,1,undefined,1,s,0,0,0,23,23,0,23,0,23,0,0,0,23,23,23,23,Thu Sep 19 21:13:52 2019,1500,The main experiment item,yes,CB-FlankerTask-Lab1.2.osexp,/Users/cristianbotello/Desktop/Advanced Quant,no,mono,no,18,no,white,no,no,768,legacy,23,23,/Users/cristianbotello/Desktop/Advanced Quant/CB-subject-3.csv,legacy,Kafkaesque Koffka,3.2.8,0,s,NA,NA,s,NA,s,446,NA,NA,52436,NA,446,2,legacy,1024,2,48000,-16,experiment,HHSHH,3,odd,55151,NA,NA,96187,NA,2673,NA,NA,97308,NA,2705,NA,97420,97867,97296,97420,Flanker Task,24,13867,24,yes,1024
100,100,574,574,black,legacy,legacy,legacy,0,congruent,uniform,1,undefined,1,h,0,0,0,24,24,0,24,0,24,0,0,0,24,24,24,24,Thu Sep 19 21:13:52 2019,1500,The main experiment item,yes,CB-FlankerTask-Lab1.2.osexp,/Users/cristianbotello/Desktop/Advanced Quant,no,mono,no,18,no,white,no,no,768,legacy,24,24,/Users/cristianbotello/Desktop/Advanced Quant/CB-subject-3.csv,legacy,Kafkaesque Koffka,3.2.8,0,h,NA,NA,s,NA,h,483,NA,NA,52436,NA,483,2,legacy,1024,2,48000,-16,experiment,HHHHH,3,odd,55151,NA,NA,97882,NA,2673,NA,NA,98981,NA,2705,NA,99096,99581,98970,99096,Flanker Task,25,14350,25,yes,1024
100,100,570.2307692,570.2307692,black,legacy,legacy,legacy,0,incongruent,uniform,1,undefined,1,h,0,0,0,25,25,0,25,0,25,0,0,0,25,25,25,25,Thu Sep 19 21:13:52 2019,1500,The main experiment item,yes,CB-FlankerTask-Lab1.2.osexp,/Users/cristianbotello/Desktop/Advanced Quant,no,mono,no,18,no,white,no,no,768,legacy,25,25,/Users/cristianbotello/Desktop/Advanced Quant/CB-subject-3.csv,legacy,Kafkaesque Koffka,3.2.8,0,h,NA,NA,s,NA,h,476,NA,NA,52436,NA,476,2,legacy,1024,2,48000,-16,experiment,SSHSS,3,odd,55151,NA,NA,99599,NA,2673,NA,NA,100720,NA,2705,NA,100833,101310,100709,100833,Flanker Task,26,14826,26,yes,1024
100,100,566.1481481,566.1481481,black,legacy,legacy,legacy,0,incongruent,uniform,1,undefined,1,s,0,0,0,26,26,0,26,0,26,0,0,0,26,26,26,26,Thu Sep 19 21:13:52 2019,1500,The main experiment item,yes,CB-FlankerTask-Lab1.2.osexp,/Users/cristianbotello/Desktop/Advanced Quant,no,mono,no,18,no,white,no,no,768,legacy,26,26,/Users/cristianbotello/Desktop/Advanced Quant/CB-subject-3.csv,legacy,Kafkaesque Koffka,3.2.8,0,s,NA,NA,s,NA,s,460,NA,NA,52436,NA,460,2,legacy,1024,2,48000,-16,experiment,HHSHH,3,odd,55151,NA,NA,101325,NA,2673,NA,NA,102425,NA,2705,NA,102538,103000,102413,102537,Flanker Task,27,15286,27,yes,1024
100,100,566.7142857,566.7142857,black,legacy,legacy,legacy,0,congruent,uniform,1,undefined,1,h,0,0,0,27,27,0,27,0,27,0,0,0,27,27,27,27,Thu Sep 19 21:13:52 2019,1500,The main experiment item,yes,CB-FlankerTask-Lab1.2.osexp,/Users/cristianbotello/Desktop/Advanced Quant,no,mono,no,18,no,white,no,no,768,legacy,27,27,/Users/cristianbotello/Desktop/Advanced Quant/CB-subject-3.csv,legacy,Kafkaesque Koffka,3.2.8,0,h,NA,NA,s,NA,h,582,NA,NA,52436,NA,582,2,legacy,1024,2,48000,-16,experiment,HHHHH,3,odd,55151,NA,NA,103025,NA,2673,NA,NA,104147,NA,2705,NA,104263,104847,104136,104263,Flanker Task,28,15868,28,yes,1024
100,100,563.3448276,563.3448276,black,legacy,legacy,legacy,0,incongruent,uniform,1,undefined,1,s,0,0,0,28,28,0,28,0,28,0,0,0,28,28,28,28,Thu Sep 19 21:13:52 2019,1500,The main experiment item,yes,CB-FlankerTask-Lab1.2.osexp,/Users/cristianbotello/Desktop/Advanced Quant,no,mono,no,18,no,white,no,no,768,legacy,28,28,/Users/cristianbotello/Desktop/Advanced Quant/CB-subject-3.csv,legacy,Kafkaesque Koffka,3.2.8,0,s,NA,NA,s,NA,s,469,NA,NA,52436,NA,469,2,legacy,1024,2,48000,-16,experiment,HHSHH,3,odd,55151,NA,NA,104861,NA,2673,NA,NA,105961,NA,2705,NA,106076,106547,105950,106076,Flanker Task,29,16337,29,yes,1024
100,100,560.4666667,560.4666667,black,legacy,legacy,legacy,0,congruent,uniform,1,undefined,1,s,0,0,0,29,29,0,29,0,29,0,0,0,29,29,29,29,Thu Sep 19 21:13:52 2019,1500,The main experiment item,yes,CB-FlankerTask-Lab1.2.osexp,/Users/cristianbotello/Desktop/Advanced Quant,no,mono,no,18,no,white,no,no,768,legacy,29,29,/Users/cristianbotello/Desktop/Advanced Quant/CB-subject-3.csv,legacy,Kafkaesque Koffka,3.2.8,0,s,NA,NA,s,NA,s,477,NA,NA,52436,NA,477,2,legacy,1024,2,48000,-16,experiment,SSSSS,3,odd,55151,NA,NA,106563,NA,2673,NA,NA,107677,NA,2705,NA,107788,108267,107665,107788,Flanker Task,30,16814,30,yes,1024
100,100,556.5483871,556.5483871,black,legacy,legacy,legacy,0,congruent,uniform,1,undefined,1,s,0,0,0,30,30,0,30,0,30,0,0,0,30,30,30,30,Thu Sep 19 21:13:52 2019,1500,The main experiment item,yes,CB-FlankerTask-Lab1.2.osexp,/Users/cristianbotello/Desktop/Advanced Quant,no,mono,no,18,no,white,no,no,768,legacy,30,30,/Users/cristianbotello/Desktop/Advanced Quant/CB-subject-3.csv,legacy,Kafkaesque Koffka,3.2.8,0,s,NA,NA,s,NA,s,439,NA,NA,52436,NA,439,2,legacy,1024,2,48000,-16,experiment,SSSSS,3,odd,55151,NA,NA,108281,NA,2673,NA,NA,109380,NA,2705,NA,109495,109936,109368,109495,Flanker Task,31,17253,31,yes,1024
100,100,552.875,552.875,black,legacy,legacy,legacy,0,congruent,uniform,1,undefined,1,h,0,0,0,31,31,0,31,0,31,0,0,0,31,31,31,31,Thu Sep 19 21:13:52 2019,1500,The main experiment item,yes,CB-FlankerTask-Lab1.2.osexp,/Users/cristianbotello/Desktop/Advanced Quant,no,mono,no,18,no,white,no,no,768,legacy,31,31,/Users/cristianbotello/Desktop/Advanced Quant/CB-subject-3.csv,legacy,Kafkaesque Koffka,3.2.8,0,h,NA,NA,s,NA,h,439,NA,NA,52436,NA,439,2,legacy,1024,2,48000,-16,experiment,HHHHH,3,odd,55151,NA,NA,109968,NA,2673,NA,NA,111092,NA,2705,NA,111207,111648,111081,111207,Flanker Task,32,17692,32,yes,1024
100,100,548.5757576,548.5757576,black,legacy,legacy,legacy,0,congruent,uniform,1,undefined,1,s,0,0,0,32,32,0,32,0,32,0,0,0,32,32,32,32,Thu Sep 19 21:13:52 2019,1500,The main experiment item,yes,CB-FlankerTask-Lab1.2.osexp,/Users/cristianbotello/Desktop/Advanced Quant,no,mono,no,18,no,white,no,no,768,legacy,32,32,/Users/cristianbotello/Desktop/Advanced Quant/CB-subject-3.csv,legacy,Kafkaesque Koffka,3.2.8,0,s,NA,NA,s,NA,s,411,NA,NA,52436,NA,411,2,legacy,1024,2,48000,-16,experiment,SSSSS,3,odd,55151,NA,NA,111662,NA,2673,NA,NA,112760,NA,2705,NA,112875,113288,112749,112875,Flanker Task,33,18103,33,yes,1024
100,100,548.5294118,548.5294118,black,legacy,legacy,legacy,0,incongruent,uniform,1,undefined,1,h,0,0,0,33,33,0,33,0,33,0,0,0,33,33,33,33,Thu Sep 19 21:13:52 2019,1500,The main experiment item,yes,CB-FlankerTask-Lab1.2.osexp,/Users/cristianbotello/Desktop/Advanced Quant,no,mono,no,18,no,white,no,no,768,legacy,33,33,/Users/cristianbotello/Desktop/Advanced Quant/CB-subject-3.csv,legacy,Kafkaesque Koffka,3.2.8,0,h,NA,NA,s,NA,h,547,NA,NA,52436,NA,547,2,legacy,1024,2,48000,-16,experiment,SSHSS,3,odd,55151,NA,NA,113310,NA,2673,NA,NA,114432,NA,2705,NA,114547,115096,114421,114547,Flanker Task,34,18650,34,yes,1024
100,100,545.3714286,545.3714286,black,legacy,legacy,legacy,0,incongruent,uniform,1,undefined,1,s,0,0,0,34,34,0,34,0,34,0,0,0,34,34,34,34,Thu Sep 19 21:13:52 2019,1500,The main experiment item,yes,CB-FlankerTask-Lab1.2.osexp,/Users/cristianbotello/Desktop/Advanced Quant,no,mono,no,18,no,white,no,no,768,legacy,34,34,/Users/cristianbotello/Desktop/Advanced Quant/CB-subject-3.csv,legacy,Kafkaesque Koffka,3.2.8,0,s,NA,NA,s,NA,s,438,NA,NA,52436,NA,438,2,legacy,1024,2,48000,-16,experiment,HHSHH,3,odd,55151,NA,NA,115110,NA,2673,NA,NA,116210,NA,2705,NA,116325,116765,116198,116325,Flanker Task,35,19088,35,yes,1024
100,100,542.5555556,542.5555556,black,legacy,legacy,legacy,0,congruent,uniform,1,undefined,1,h,0,0,0,35,35,0,35,0,35,0,0,0,35,35,35,35,Thu Sep 19 21:13:52 2019,1500,The main experiment item,yes,CB-FlankerTask-Lab1.2.osexp,/Users/cristianbotello/Desktop/Advanced Quant,no,mono,no,18,no,white,no,no,768,legacy,35,35,/Users/cristianbotello/Desktop/Advanced Quant/CB-subject-3.csv,legacy,Kafkaesque Koffka,3.2.8,0,h,NA,NA,s,NA,h,444,NA,NA,52436,NA,444,2,legacy,1024,2,48000,-16,experiment,HHHHH,3,odd,55151,NA,NA,116786,NA,2673,NA,NA,117906,NA,2705,NA,118017,118463,117894,118017,Flanker Task,36,19532,36,yes,1024
100,100,542.5405405,542.5405405,black,legacy,legacy,legacy,0,incongruent,uniform,1,undefined,1,h,0,0,0,36,36,0,36,0,36,0,0,0,36,36,36,36,Thu Sep 19 21:13:52 2019,1500,The main experiment item,yes,CB-FlankerTask-Lab1.2.osexp,/Users/cristianbotello/Desktop/Advanced Quant,no,mono,no,18,no,white,no,no,768,legacy,36,36,/Users/cristianbotello/Desktop/Advanced Quant/CB-subject-3.csv,legacy,Kafkaesque Koffka,3.2.8,0,h,NA,NA,s,NA,h,542,NA,NA,52436,NA,542,2,legacy,1024,2,48000,-16,experiment,SSHSS,3,odd,55151,NA,NA,118478,NA,2673,NA,NA,119578,NA,2705,NA,119692,120236,119566,119692,Flanker Task,37,20074,37,yes,1024
100,100,542.2631579,542.2631579,black,legacy,legacy,legacy,0,incongruent,uniform,1,undefined,1,s,0,0,0,37,37,0,37,0,37,0,0,0,37,37,37,37,Thu Sep 19 21:13:52 2019,1500,The main experiment item,yes,CB-FlankerTask-Lab1.2.osexp,/Users/cristianbotello/Desktop/Advanced Quant,no,mono,no,18,no,white,no,no,768,legacy,37,37,/Users/cristianbotello/Desktop/Advanced Quant/CB-subject-3.csv,legacy,Kafkaesque Koffka,3.2.8,0,s,NA,NA,s,NA,s,532,NA,NA,52436,NA,532,2,legacy,1024,2,48000,-16,experiment,HHSHH,3,odd,55151,NA,NA,120255,NA,2673,NA,NA,121376,NA,2705,NA,121491,122025,121365,121491,Flanker Task,38,20606,38,yes,1024
100,100,540.1794872,540.1794872,black,legacy,legacy,legacy,0,congruent,uniform,1,undefined,1,s,0,0,0,38,38,0,38,0,38,0,0,0,38,38,38,38,Thu Sep 19 21:13:52 2019,1500,The main experiment item,yes,CB-FlankerTask-Lab1.2.osexp,/Users/cristianbotello/Desktop/Advanced Quant,no,mono,no,18,no,white,no,no,768,legacy,38,38,/Users/cristianbotello/Desktop/Advanced Quant/CB-subject-3.csv,legacy,Kafkaesque Koffka,3.2.8,0,s,NA,NA,s,NA,s,461,NA,NA,52436,NA,461,2,legacy,1024,2,48000,-16,experiment,SSSSS,3,odd,55151,NA,NA,122040,NA,2673,NA,NA,123139,NA,2705,NA,123252,123715,123127,123251,Flanker Task,39,21067,39,yes,1024
100,100,537.575,537.575,black,legacy,legacy,legacy,0,congruent,uniform,1,undefined,1,h,0,0,0,39,39,0,39,0,39,0,0,0,39,39,39,39,Thu Sep 19 21:13:52 2019,1500,The main experiment item,yes,CB-FlankerTask-Lab1.2.osexp,/Users/cristianbotello/Desktop/Advanced Quant,no,mono,no,18,no,white,no,no,768,legacy,39,39,/Users/cristianbotello/Desktop/Advanced Quant/CB-subject-3.csv,legacy,Kafkaesque Koffka,3.2.8,0,h,NA,NA,s,NA,h,436,NA,NA,52436,NA,436,2,legacy,1024,2,48000,-16,experiment,HHHHH,3,odd,55151,NA,NA,123742,NA,2673,NA,NA,124864,NA,2705,NA,124979,125417,124853,124979,Flanker Task,40,21503,40,yes,1024
100,100,535.6829268,535.6829268,black,legacy,legacy,legacy,0,congruent,uniform,1,undefined,1,h,0,0,0,40,40,0,40,0,40,0,0,0,40,40,40,40,Thu Sep 19 21:13:52 2019,1500,The main experiment item,yes,CB-FlankerTask-Lab1.2.osexp,/Users/cristianbotello/Desktop/Advanced Quant,no,mono,no,18,no,white,no,no,768,legacy,40,40,/Users/cristianbotello/Desktop/Advanced Quant/CB-subject-3.csv,legacy,Kafkaesque Koffka,3.2.8,0,h,NA,NA,s,NA,h,460,NA,NA,52436,NA,460,2,legacy,1024,2,48000,-16,experiment,HHHHH,3,odd,55151,NA,NA,125432,NA,2673,NA,NA,126530,NA,2705,NA,126644,127106,126519,126644,Flanker Task,41,21963,41,yes,1024
100,100,532.4047619,532.4047619,black,legacy,legacy,legacy,0,congruent,uniform,1,undefined,1,h,0,0,0,41,41,0,41,0,41,0,0,0,41,41,41,41,Thu Sep 19 21:13:52 2019,1500,The main experiment item,yes,CB-FlankerTask-Lab1.2.osexp,/Users/cristianbotello/Desktop/Advanced Quant,no,mono,no,18,no,white,no,no,768,legacy,41,41,/Users/cristianbotello/Desktop/Advanced Quant/CB-subject-3.csv,legacy,Kafkaesque Koffka,3.2.8,0,h,NA,NA,s,NA,h,398,NA,NA,52436,NA,398,2,legacy,1024,2,48000,-16,experiment,HHHHH,3,odd,55151,NA,NA,127128,NA,2673,NA,NA,128242,NA,2705,NA,128356,128756,128230,128356,Flanker Task,42,22361,42,yes,1024
100,100,531.6046512,531.6046512,black,legacy,legacy,legacy,0,incongruent,uniform,1,undefined,1,h,0,0,0,42,42,0,42,0,42,0,0,0,42,42,42,42,Thu Sep 19 21:13:52 2019,1500,The main experiment item,yes,CB-FlankerTask-Lab1.2.osexp,/Users/cristianbotello/Desktop/Advanced Quant,no,mono,no,18,no,white,no,no,768,legacy,42,42,/Users/cristianbotello/Desktop/Advanced Quant/CB-subject-3.csv,legacy,Kafkaesque Koffka,3.2.8,0,h,NA,NA,s,NA,h,498,NA,NA,52436,NA,498,2,legacy,1024,2,48000,-16,experiment,SSHSS,3,odd,55151,NA,NA,128770,NA,2673,NA,NA,129870,NA,2705,NA,129985,130485,129859,129985,Flanker Task,43,22859,43,yes,1024
100,100,527.4318182,527.4318182,black,legacy,legacy,legacy,0,incongruent,uniform,1,undefined,1,h,0,0,0,43,43,0,43,0,43,0,0,0,43,43,43,43,Thu Sep 19 21:13:52 2019,1500,The main experiment item,yes,CB-FlankerTask-Lab1.2.osexp,/Users/cristianbotello/Desktop/Advanced Quant,no,mono,no,18,no,white,no,no,768,legacy,43,43,/Users/cristianbotello/Desktop/Advanced Quant/CB-subject-3.csv,legacy,Kafkaesque Koffka,3.2.8,0,h,NA,NA,s,NA,h,348,NA,NA,52436,NA,348,2,legacy,1024,2,48000,-16,experiment,SSHSS,3,odd,55151,NA,NA,130501,NA,2673,NA,NA,131622,NA,2705,NA,131736,132086,131610,131736,Flanker Task,44,23207,44,yes,1024
100,100,525.3333333,525.3333333,black,legacy,legacy,legacy,0,congruent,uniform,1,undefined,1,s,0,0,0,44,44,0,44,0,44,0,0,0,44,44,44,44,Thu Sep 19 21:13:52 2019,1500,The main experiment item,yes,CB-FlankerTask-Lab1.2.osexp,/Users/cristianbotello/Desktop/Advanced Quant,no,mono,no,18,no,white,no,no,768,legacy,44,44,/Users/cristianbotello/Desktop/Advanced Quant/CB-subject-3.csv,legacy,Kafkaesque Koffka,3.2.8,0,s,NA,NA,s,NA,s,433,NA,NA,52436,NA,433,2,legacy,1024,2,48000,-16,experiment,SSSSS,3,odd,55151,NA,NA,132100,NA,2673,NA,NA,133199,NA,2705,NA,133311,133746,133188,133310,Flanker Task,45,23640,45,yes,1024
100,100,522.3043478,522.3043478,black,legacy,legacy,legacy,0,congruent,uniform,1,undefined,1,s,0,0,0,45,45,0,45,0,45,0,0,0,45,45,45,45,Thu Sep 19 21:13:52 2019,1500,The main experiment item,yes,CB-FlankerTask-Lab1.2.osexp,/Users/cristianbotello/Desktop/Advanced Quant,no,mono,no,18,no,white,no,no,768,legacy,45,45,/Users/cristianbotello/Desktop/Advanced Quant/CB-subject-3.csv,legacy,Kafkaesque Koffka,3.2.8,0,s,NA,NA,s,NA,s,386,NA,NA,52436,NA,386,2,legacy,1024,2,48000,-16,experiment,SSSSS,3,odd,55151,NA,NA,133762,NA,2673,NA,NA,134879,NA,2705,NA,134994,135383,134868,134994,Flanker Task,46,24026,46,yes,1024
97.87234043,97.87234043,521.0851064,521.0851064,black,legacy,legacy,legacy,0,incongruent,uniform,0,undefined,0,s,0,0,0,46,46,0,46,0,46,0,0,0,46,46,46,46,Thu Sep 19 21:13:52 2019,1500,The main experiment item,yes,CB-FlankerTask-Lab1.2.osexp,/Users/cristianbotello/Desktop/Advanced Quant,no,mono,no,18,no,white,no,no,768,legacy,46,46,/Users/cristianbotello/Desktop/Advanced Quant/CB-subject-3.csv,legacy,Kafkaesque Koffka,3.2.8,0,h,NA,NA,s,NA,h,465,NA,NA,52436,NA,465,2,legacy,1024,2,48000,-16,experiment,HHSHH,3,odd,55151,NA,NA,135397,NA,2673,NA,NA,136496,NA,2705,NA,136611,137079,136485,136611,Flanker Task,46,24491,47,yes,1024
97.91666667,97.91666667,521.6458333,521.6458333,black,legacy,legacy,legacy,0,incongruent,uniform,1,undefined,1,h,0,0,0,47,47,0,47,0,47,0,0,0,47,47,47,47,Thu Sep 19 21:13:52 2019,1500,The main experiment item,yes,CB-FlankerTask-Lab1.2.osexp,/Users/cristianbotello/Desktop/Advanced Quant,no,mono,no,18,no,white,no,no,768,legacy,47,47,/Users/cristianbotello/Desktop/Advanced Quant/CB-subject-3.csv,legacy,Kafkaesque Koffka,3.2.8,0,h,NA,NA,s,NA,h,548,NA,NA,52436,NA,548,2,legacy,1024,2,48000,-16,experiment,SSHSS,3,odd,55151,NA,NA,137614,137101,2673,NA,NA,138713,NA,2705,NA,138828,139379,138701,138828,Flanker Task,47,25039,48,yes,1024
97.95918367,97.95918367,519.9387755,519.9387755,black,legacy,legacy,legacy,0,congruent,uniform,1,undefined,1,h,0,0,0,48,48,0,48,0,48,0,0,0,48,48,48,48,Thu Sep 19 21:13:52 2019,1500,The main experiment item,yes,CB-FlankerTask-Lab1.2.osexp,/Users/cristianbotello/Desktop/Advanced Quant,no,mono,no,18,no,white,no,no,768,legacy,48,48,/Users/cristianbotello/Desktop/Advanced Quant/CB-subject-3.csv,legacy,Kafkaesque Koffka,3.2.8,0,h,NA,NA,s,NA,h,438,NA,NA,52436,NA,438,2,legacy,1024,2,48000,-16,experiment,HHHHH,3,odd,55151,NA,NA,139409,137101,2673,NA,NA,140525,NA,2705,NA,140640,141080,140513,140640,Flanker Task,48,25477,49,yes,1024
98,98,519.38,519.38,black,legacy,legacy,legacy,0,incongruent,uniform,1,undefined,1,h,0,0,0,49,49,0,49,0,49,0,0,0,49,49,49,49,Thu Sep 19 21:13:52 2019,1500,The main experiment item,yes,CB-FlankerTask-Lab1.2.osexp,/Users/cristianbotello/Desktop/Advanced Quant,no,mono,no,18,no,white,no,no,768,legacy,49,49,/Users/cristianbotello/Desktop/Advanced Quant/CB-subject-3.csv,legacy,Kafkaesque Koffka,3.2.8,0,h,NA,NA,s,NA,h,492,NA,NA,52436,NA,492,2,legacy,1024,2,48000,-16,experiment,SSHSS,3,odd,55151,NA,NA,141094,137101,2673,NA,NA,142193,NA,2705,NA,142308,142802,142182,142308,Flanker Task,49,25969,50,yes,1024
98.03921569,98.03921569,516.2941176,516.2941176,black,legacy,legacy,legacy,0,incongruent,uniform,1,undefined,1,h,0,0,0,50,50,0,50,0,50,0,0,0,50,50,50,50,Thu Sep 19 21:13:52 2019,1500,The main experiment item,yes,CB-FlankerTask-Lab1.2.osexp,/Users/cristianbotello/Desktop/Advanced Quant,no,mono,no,18,no,white,no,no,768,legacy,50,50,/Users/cristianbotello/Desktop/Advanced Quant/CB-subject-3.csv,legacy,Kafkaesque Koffka,3.2.8,0,h,NA,NA,s,NA,h,362,NA,NA,52436,NA,362,2,legacy,1024,2,48000,-16,experiment,SSHSS,3,odd,55151,NA,NA,142818,137101,2673,NA,NA,143940,NA,2705,NA,144055,144419,143928,144054,Flanker Task,50,26331,51,yes,1024
98.07692308,98.07692308,513.9807692,513.9807692,black,legacy,legacy,legacy,0,incongruent,uniform,1,undefined,1,h,0,0,0,51,51,0,51,0,51,0,0,0,51,51,51,51,Thu Sep 19 21:13:52 2019,1500,The main experiment item,yes,CB-FlankerTask-Lab1.2.osexp,/Users/cristianbotello/Desktop/Advanced Quant,no,mono,no,18,no,white,no,no,768,legacy,51,51,/Users/cristianbotello/Desktop/Advanced Quant/CB-subject-3.csv,legacy,Kafkaesque Koffka,3.2.8,0,h,NA,NA,s,NA,h,396,NA,NA,52436,NA,396,2,legacy,1024,2,48000,-16,experiment,SSHSS,3,odd,55151,NA,NA,144433,137101,2673,NA,NA,145532,NA,2705,NA,145647,146045,145521,145647,Flanker Task,51,26727,52,yes,1024
98.11320755,98.11320755,512.9622642,512.9622642,black,legacy,legacy,legacy,0,incongruent,uniform,1,undefined,1,h,0,0,0,52,52,0,52,0,52,0,0,0,52,52,52,52,Thu Sep 19 21:13:52 2019,1500,The main experiment item,yes,CB-FlankerTask-Lab1.2.osexp,/Users/cristianbotello/Desktop/Advanced Quant,no,mono,no,18,no,white,no,no,768,legacy,52,52,/Users/cristianbotello/Desktop/Advanced Quant/CB-subject-3.csv,legacy,Kafkaesque Koffka,3.2.8,0,h,NA,NA,s,NA,h,460,NA,NA,52436,NA,460,2,legacy,1024,2,48000,-16,experiment,SSHSS,3,odd,55151,NA,NA,146071,137101,2673,NA,NA,147190,NA,2705,NA,147301,147763,147178,147301,Flanker Task,52,27187,53,yes,1024
98.14814815,98.14814815,510.7407407,510.7407407,black,legacy,legacy,legacy,0,congruent,uniform,1,undefined,1,h,0,0,0,53,53,0,53,0,53,0,0,0,53,53,53,53,Thu Sep 19 21:13:52 2019,1500,The main experiment item,yes,CB-FlankerTask-Lab1.2.osexp,/Users/cristianbotello/Desktop/Advanced Quant,no,mono,no,18,no,white,no,no,768,legacy,53,53,/Users/cristianbotello/Desktop/Advanced Quant/CB-subject-3.csv,legacy,Kafkaesque Koffka,3.2.8,0,h,NA,NA,s,NA,h,393,NA,NA,52436,NA,393,2,legacy,1024,2,48000,-16,experiment,HHHHH,3,odd,55151,NA,NA,147777,137101,2673,NA,NA,148876,NA,2705,NA,148992,149387,148865,148991,Flanker Task,53,27580,54,yes,1024
98.18181818,98.18181818,507.8727273,507.8727273,black,legacy,legacy,legacy,0,congruent,uniform,1,undefined,1,h,0,0,0,54,54,0,54,0,54,0,0,0,54,54,54,54,Thu Sep 19 21:13:52 2019,1500,The main experiment item,yes,CB-FlankerTask-Lab1.2.osexp,/Users/cristianbotello/Desktop/Advanced Quant,no,mono,no,18,no,white,no,no,768,legacy,54,54,/Users/cristianbotello/Desktop/Advanced Quant/CB-subject-3.csv,legacy,Kafkaesque Koffka,3.2.8,0,h,NA,NA,s,NA,h,353,NA,NA,52436,NA,353,2,legacy,1024,2,48000,-16,experiment,HHHHH,3,odd,55151,NA,NA,149408,137101,2673,NA,NA,150533,NA,2705,NA,150648,151003,150521,150648,Flanker Task,54,27933,55,yes,1024
98.21428571,98.21428571,506.9464286,506.9464286,black,legacy,legacy,legacy,0,incongruent,uniform,1,undefined,1,h,0,0,0,55,55,0,55,0,55,0,0,0,55,55,55,55,Thu Sep 19 21:13:52 2019,1500,The main experiment item,yes,CB-FlankerTask-Lab1.2.osexp,/Users/cristianbotello/Desktop/Advanced Quant,no,mono,no,18,no,white,no,no,768,legacy,55,55,/Users/cristianbotello/Desktop/Advanced Quant/CB-subject-3.csv,legacy,Kafkaesque Koffka,3.2.8,0,h,NA,NA,s,NA,h,456,NA,NA,52436,NA,456,2,legacy,1024,2,48000,-16,experiment,SSHSS,3,odd,55151,NA,NA,151017,137101,2673,NA,NA,152117,NA,2705,NA,152228,152687,152105,152228,Flanker Task,55,28389,56,yes,1024
96.49122807,96.49122807,503.7368421,503.7368421,black,legacy,legacy,legacy,0,incongruent,uniform,0,undefined,0,s,0,0,0,56,56,0,56,0,56,0,0,0,56,56,56,56,Thu Sep 19 21:13:52 2019,1500,The main experiment item,yes,CB-FlankerTask-Lab1.2.osexp,/Users/cristianbotello/Desktop/Advanced Quant,no,mono,no,18,no,white,no,no,768,legacy,56,56,/Users/cristianbotello/Desktop/Advanced Quant/CB-subject-3.csv,legacy,Kafkaesque Koffka,3.2.8,0,h,NA,NA,s,NA,h,324,NA,NA,52436,NA,324,2,legacy,1024,2,48000,-16,experiment,HHSHH,3,odd,55151,NA,NA,152703,137101,2673,NA,NA,153827,NA,2705,NA,153939,154265,153816,153938,Flanker Task,55,28713,57,yes,1024
96.55172414,96.55172414,501.4827586,501.4827586,black,legacy,legacy,legacy,0,incongruent,uniform,1,undefined,1,h,0,0,0,57,57,0,57,0,57,0,0,0,57,57,57,57,Thu Sep 19 21:13:52 2019,1500,The main experiment item,yes,CB-FlankerTask-Lab1.2.osexp,/Users/cristianbotello/Desktop/Advanced Quant,no,mono,no,18,no,white,no,no,768,legacy,57,57,/Users/cristianbotello/Desktop/Advanced Quant/CB-subject-3.csv,legacy,Kafkaesque Koffka,3.2.8,0,h,NA,NA,s,NA,h,373,NA,NA,52436,NA,373,2,legacy,1024,2,48000,-16,experiment,SSHSS,3,odd,55151,NA,NA,154796,154280,2673,NA,NA,155918,NA,2705,NA,156033,156408,155906,156033,Flanker Task,56,29086,58,yes,1024
96.61016949,96.61016949,500.5084746,500.5084746,black,legacy,legacy,legacy,0,congruent,uniform,1,undefined,1,h,0,0,0,58,58,0,58,0,58,0,0,0,58,58,58,58,Thu Sep 19 21:13:52 2019,1500,The main experiment item,yes,CB-FlankerTask-Lab1.2.osexp,/Users/cristianbotello/Desktop/Advanced Quant,no,mono,no,18,no,white,no,no,768,legacy,58,58,/Users/cristianbotello/Desktop/Advanced Quant/CB-subject-3.csv,legacy,Kafkaesque Koffka,3.2.8,0,h,NA,NA,s,NA,h,444,NA,NA,52436,NA,444,2,legacy,1024,2,48000,-16,experiment,HHHHH,3,odd,55151,NA,NA,156423,154280,2673,NA,NA,157522,NA,2705,NA,157637,158084,157511,157637,Flanker Task,57,29530,59,yes,1024
96.66666667,96.66666667,498.7166667,498.7166667,black,legacy,legacy,legacy,0,congruent,uniform,1,undefined,1,s,0,0,0,59,59,0,59,0,59,0,0,0,59,59,59,59,Thu Sep 19 21:13:52 2019,1500,The main experiment item,yes,CB-FlankerTask-Lab1.2.osexp,/Users/cristianbotello/Desktop/Advanced Quant,no,mono,no,18,no,white,no,no,768,legacy,59,59,/Users/cristianbotello/Desktop/Advanced Quant/CB-subject-3.csv,legacy,Kafkaesque Koffka,3.2.8,0,s,NA,NA,s,NA,s,393,NA,NA,52436,NA,393,2,legacy,1024,2,48000,-16,experiment,SSSSS,3,odd,55151,NA,NA,158100,154280,2673,NA,NA,159220,NA,2705,NA,159335,159730,159209,159335,Flanker Task,58,29923,60,yes,1024
96.72131148,96.72131148,498.7213115,498.7213115,black,legacy,legacy,legacy,0,congruent,uniform,1,undefined,1,s,0,0,0,60,60,0,60,0,60,0,0,0,60,60,60,60,Thu Sep 19 21:13:52 2019,1500,The main experiment item,yes,CB-FlankerTask-Lab1.2.osexp,/Users/cristianbotello/Desktop/Advanced Quant,no,mono,no,18,no,white,no,no,768,legacy,60,60,/Users/cristianbotello/Desktop/Advanced Quant/CB-subject-3.csv,legacy,Kafkaesque Koffka,3.2.8,0,s,NA,NA,s,NA,s,499,NA,NA,52436,NA,499,2,legacy,1024,2,48000,-16,experiment,SSSSS,3,odd,55151,NA,NA,159744,154280,2673,NA,NA,160843,NA,2705,NA,160954,161456,160831,160954,Flanker Task,59,30422,61,yes,1024
96.77419355,96.77419355,496.3870968,496.3870968,black,legacy,legacy,legacy,0,congruent,uniform,1,undefined,1,s,0,0,0,61,61,0,61,0,61,0,0,0,61,61,61,61,Thu Sep 19 21:13:52 2019,1500,The main experiment item,yes,CB-FlankerTask-Lab1.2.osexp,/Users/cristianbotello/Desktop/Advanced Quant,no,mono,no,18,no,white,no,no,768,legacy,61,61,/Users/cristianbotello/Desktop/Advanced Quant/CB-subject-3.csv,legacy,Kafkaesque Koffka,3.2.8,0,s,NA,NA,s,NA,s,354,NA,NA,52436,NA,354,2,legacy,1024,2,48000,-16,experiment,SSSSS,3,odd,55151,NA,NA,161481,154280,2673,NA,NA,162594,NA,2705,NA,162709,163065,162583,162709,Flanker Task,60,30776,62,yes,1024
96.82539683,96.82539683,495.984127,495.984127,black,legacy,legacy,legacy,0,incongruent,uniform,1,undefined,1,s,0,0,0,62,62,0,62,0,62,0,0,0,62,62,62,62,Thu Sep 19 21:13:52 2019,1500,The main experiment item,yes,CB-FlankerTask-Lab1.2.osexp,/Users/cristianbotello/Desktop/Advanced Quant,no,mono,no,18,no,white,no,no,768,legacy,62,62,/Users/cristianbotello/Desktop/Advanced Quant/CB-subject-3.csv,legacy,Kafkaesque Koffka,3.2.8,0,s,NA,NA,s,NA,s,471,NA,NA,52436,NA,471,2,legacy,1024,2,48000,-16,experiment,HHSHH,3,odd,55151,NA,NA,163079,154280,2673,NA,NA,164179,NA,2705,NA,164290,164764,164168,164290,Flanker Task,61,31247,63,yes,1024
96.875,96.875,495.90625,495.90625,black,legacy,legacy,legacy,0,congruent,uniform,1,undefined,1,h,0,0,0,63,63,0,63,0,63,0,0,0,63,63,63,63,Thu Sep 19 21:13:52 2019,1500,The main experiment item,yes,CB-FlankerTask-Lab1.2.osexp,/Users/cristianbotello/Desktop/Advanced Quant,no,mono,no,18,no,white,no,no,768,legacy,63,63,/Users/cristianbotello/Desktop/Advanced Quant/CB-subject-3.csv,legacy,Kafkaesque Koffka,3.2.8,0,h,NA,NA,s,NA,h,491,NA,NA,52436,NA,491,2,legacy,1024,2,48000,-16,experiment,HHHHH,3,odd,55151,NA,NA,164791,154280,2673,NA,NA,165913,NA,2705,NA,166029,166522,165902,166029,Flanker Task,62,31738,64,yes,1024
96.92307692,96.92307692,496.5384615,496.5384615,black,legacy,legacy,legacy,0,congruent,uniform,1,undefined,1,s,0,0,0,64,64,0,64,0,64,0,0,0,64,64,64,64,Thu Sep 19 21:13:52 2019,1500,The main experiment item,yes,CB-FlankerTask-Lab1.2.osexp,/Users/cristianbotello/Desktop/Advanced Quant,no,mono,no,18,no,white,no,no,768,legacy,64,64,/Users/cristianbotello/Desktop/Advanced Quant/CB-subject-3.csv,legacy,Kafkaesque Koffka,3.2.8,0,s,NA,NA,s,NA,s,537,NA,NA,52436,NA,537,2,legacy,1024,2,48000,-16,experiment,SSSSS,3,odd,55151,NA,NA,166537,154280,2673,NA,NA,167636,NA,2705,NA,167751,168290,167624,167751,Flanker Task,63,32275,65,yes,1024
96.96969697,96.96969697,495.7424242,495.7424242,black,legacy,legacy,legacy,0,incongruent,uniform,1,undefined,1,h,0,0,0,65,65,0,65,0,65,0,0,0,65,65,65,65,Thu Sep 19 21:13:52 2019,1500,The main experiment item,yes,CB-FlankerTask-Lab1.2.osexp,/Users/cristianbotello/Desktop/Advanced Quant,no,mono,no,18,no,white,no,no,768,legacy,65,65,/Users/cristianbotello/Desktop/Advanced Quant/CB-subject-3.csv,legacy,Kafkaesque Koffka,3.2.8,0,h,NA,NA,s,NA,h,444,NA,NA,52436,NA,444,2,legacy,1024,2,48000,-16,experiment,SSHSS,3,odd,55151,NA,NA,168307,154280,2673,NA,NA,169429,NA,2705,NA,169542,169989,169417,169541,Flanker Task,64,32719,66,yes,1024
97.01492537,97.01492537,496.2089552,496.2089552,black,legacy,legacy,legacy,0,congruent,uniform,1,undefined,1,h,0,0,0,66,66,0,66,0,66,0,0,0,66,66,66,66,Thu Sep 19 21:13:52 2019,1500,The main experiment item,yes,CB-FlankerTask-Lab1.2.osexp,/Users/cristianbotello/Desktop/Advanced Quant,no,mono,no,18,no,white,no,no,768,legacy,66,66,/Users/cristianbotello/Desktop/Advanced Quant/CB-subject-3.csv,legacy,Kafkaesque Koffka,3.2.8,0,h,NA,NA,s,NA,h,527,NA,NA,52436,NA,527,2,legacy,1024,2,48000,-16,experiment,HHHHH,3,odd,55151,NA,NA,170002,154280,2673,NA,NA,171102,NA,2705,NA,171217,171747,171091,171217,Flanker Task,65,33246,67,yes,1024
97.05882353,97.05882353,497.5147059,497.5147059,black,legacy,legacy,legacy,0,incongruent,uniform,1,undefined,1,s,0,0,0,67,67,0,67,0,67,0,0,0,67,67,67,67,Thu Sep 19 21:13:52 2019,1500,The main experiment item,yes,CB-FlankerTask-Lab1.2.osexp,/Users/cristianbotello/Desktop/Advanced Quant,no,mono,no,18,no,white,no,no,768,legacy,67,67,/Users/cristianbotello/Desktop/Advanced Quant/CB-subject-3.csv,legacy,Kafkaesque Koffka,3.2.8,0,s,NA,NA,s,NA,s,585,NA,NA,52436,NA,585,2,legacy,1024,2,48000,-16,experiment,HHSHH,3,odd,55151,NA,NA,171780,154280,2673,NA,NA,172900,NA,2705,NA,173014,173601,172888,173014,Flanker Task,66,33831,68,yes,1024
97.10144928,97.10144928,497.1594203,497.1594203,black,legacy,legacy,legacy,0,congruent,uniform,1,undefined,1,s,0,0,0,68,68,0,68,0,68,0,0,0,68,68,68,68,Thu Sep 19 21:13:52 2019,1500,The main experiment item,yes,CB-FlankerTask-Lab1.2.osexp,/Users/cristianbotello/Desktop/Advanced Quant,no,mono,no,18,no,white,no,no,768,legacy,68,68,/Users/cristianbotello/Desktop/Advanced Quant/CB-subject-3.csv,legacy,Kafkaesque Koffka,3.2.8,0,s,NA,NA,s,NA,s,473,NA,NA,52436,NA,473,2,legacy,1024,2,48000,-16,experiment,SSSSS,3,odd,55151,NA,NA,173616,154280,2673,NA,NA,174714,NA,2705,NA,174829,175305,174703,174829,Flanker Task,67,34304,69,yes,1024
97.14285714,97.14285714,497.1,497.1,black,legacy,legacy,legacy,0,congruent,uniform,1,undefined,1,s,0,0,0,69,69,0,69,0,69,0,0,0,69,69,69,69,Thu Sep 19 21:13:52 2019,1500,The main experiment item,yes,CB-FlankerTask-Lab1.2.osexp,/Users/cristianbotello/Desktop/Advanced Quant,no,mono,no,18,no,white,no,no,768,legacy,69,69,/Users/cristianbotello/Desktop/Advanced Quant/CB-subject-3.csv,legacy,Kafkaesque Koffka,3.2.8,0,s,NA,NA,s,NA,s,493,NA,NA,52436,NA,493,2,legacy,1024,2,48000,-16,experiment,SSSSS,3,odd,55151,NA,NA,175322,154280,2673,NA,NA,176442,NA,2705,NA,176557,177052,176431,176557,Flanker Task,68,34797,70,yes,1024
97.18309859,97.18309859,495.915493,495.915493,black,legacy,legacy,legacy,0,congruent,uniform,1,undefined,1,s,0,0,0,70,70,0,70,0,70,0,0,0,70,70,70,70,Thu Sep 19 21:13:52 2019,1500,The main experiment item,yes,CB-FlankerTask-Lab1.2.osexp,/Users/cristianbotello/Desktop/Advanced Quant,no,mono,no,18,no,white,no,no,768,legacy,70,70,/Users/cristianbotello/Desktop/Advanced Quant/CB-subject-3.csv,legacy,Kafkaesque Koffka,3.2.8,0,s,NA,NA,s,NA,s,413,NA,NA,52436,NA,413,2,legacy,1024,2,48000,-16,experiment,SSSSS,3,odd,55151,NA,NA,177066,154280,2673,NA,NA,178165,NA,2705,NA,178281,178696,178154,178281,Flanker Task,69,35210,71,yes,1024
97.22222222,97.22222222,498.5833333,498.5833333,black,legacy,legacy,legacy,0,incongruent,uniform,1,undefined,1,s,0,0,0,71,71,0,71,0,71,0,0,0,71,71,71,71,Thu Sep 19 21:13:52 2019,1500,The main experiment item,yes,CB-FlankerTask-Lab1.2.osexp,/Users/cristianbotello/Desktop/Advanced Quant,no,mono,no,18,no,white,no,no,768,legacy,71,71,/Users/cristianbotello/Desktop/Advanced Quant/CB-subject-3.csv,legacy,Kafkaesque Koffka,3.2.8,0,s,NA,NA,s,NA,s,688,NA,NA,52436,NA,688,2,legacy,1024,2,48000,-16,experiment,HHSHH,3,odd,55151,NA,NA,178723,154280,2673,NA,NA,179844,NA,2705,NA,179959,180649,179832,179959,Flanker Task,70,35898,72,yes,1024
97.26027397,97.26027397,500.0821918,500.0821918,black,legacy,legacy,legacy,0,incongruent,uniform,1,undefined,1,h,0,0,0,72,72,0,72,0,72,0,0,0,72,72,72,72,Thu Sep 19 21:13:52 2019,1500,The main experiment item,yes,CB-FlankerTask-Lab1.2.osexp,/Users/cristianbotello/Desktop/Advanced Quant,no,mono,no,18,no,white,no,no,768,legacy,72,72,/Users/cristianbotello/Desktop/Advanced Quant/CB-subject-3.csv,legacy,Kafkaesque Koffka,3.2.8,0,h,NA,NA,s,NA,h,608,NA,NA,52436,NA,608,2,legacy,1024,2,48000,-16,experiment,SSHSS,3,odd,55151,NA,NA,180663,154280,2673,NA,NA,181763,NA,2705,NA,181874,182484,181751,181874,Flanker Task,71,36506,73,yes,1024
97.2972973,97.2972973,500.7837838,500.7837838,black,legacy,legacy,legacy,0,congruent,uniform,1,undefined,1,s,0,0,0,73,73,0,73,0,73,0,0,0,73,73,73,73,Thu Sep 19 21:13:52 2019,1500,The main experiment item,yes,CB-FlankerTask-Lab1.2.osexp,/Users/cristianbotello/Desktop/Advanced Quant,no,mono,no,18,no,white,no,no,768,legacy,73,73,/Users/cristianbotello/Desktop/Advanced Quant/CB-subject-3.csv,legacy,Kafkaesque Koffka,3.2.8,0,s,NA,NA,s,NA,s,552,NA,NA,52436,NA,552,2,legacy,1024,2,48000,-16,experiment,SSSSS,3,odd,55151,NA,NA,182498,154280,2673,NA,NA,183597,NA,2705,NA,183712,184266,183586,183712,Flanker Task,72,37058,74,yes,1024
97.33333333,97.33333333,499.3733333,499.3733333,black,legacy,legacy,legacy,0,congruent,uniform,1,undefined,1,s,0,0,0,74,74,0,74,0,74,0,0,0,74,74,74,74,Thu Sep 19 21:13:52 2019,1500,The main experiment item,yes,CB-FlankerTask-Lab1.2.osexp,/Users/cristianbotello/Desktop/Advanced Quant,no,mono,no,18,no,white,no,no,768,legacy,74,74,/Users/cristianbotello/Desktop/Advanced Quant/CB-subject-3.csv,legacy,Kafkaesque Koffka,3.2.8,0,s,NA,NA,s,NA,s,395,NA,NA,52436,NA,395,2,legacy,1024,2,48000,-16,experiment,SSSSS,3,odd,55151,NA,NA,184283,154280,2673,NA,NA,185407,NA,2705,NA,185522,185919,185396,185522,Flanker Task,73,37453,75,yes,1024
97.36842105,97.36842105,499.1315789,499.1315789,black,legacy,legacy,legacy,0,incongruent,uniform,1,undefined,1,s,0,0,0,75,75,0,75,0,75,0,0,0,75,75,75,75,Thu Sep 19 21:13:52 2019,1500,The main experiment item,yes,CB-FlankerTask-Lab1.2.osexp,/Users/cristianbotello/Desktop/Advanced Quant,no,mono,no,18,no,white,no,no,768,legacy,75,75,/Users/cristianbotello/Desktop/Advanced Quant/CB-subject-3.csv,legacy,Kafkaesque Koffka,3.2.8,0,s,NA,NA,s,NA,s,481,NA,NA,52436,NA,481,2,legacy,1024,2,48000,-16,experiment,HHSHH,3,odd,55151,NA,NA,185933,154280,2673,NA,NA,187032,NA,2705,NA,187143,187628,187020,187143,Flanker Task,74,37934,76,yes,1024
97.4025974,97.4025974,499.4675325,499.4675325,black,legacy,legacy,legacy,0,congruent,uniform,1,undefined,1,h,0,0,0,76,76,0,76,0,76,0,0,0,76,76,76,76,Thu Sep 19 21:13:52 2019,1500,The main experiment item,yes,CB-FlankerTask-Lab1.2.osexp,/Users/cristianbotello/Desktop/Advanced Quant,no,mono,no,18,no,white,no,no,768,legacy,76,76,/Users/cristianbotello/Desktop/Advanced Quant/CB-subject-3.csv,legacy,Kafkaesque Koffka,3.2.8,0,h,NA,NA,s,NA,h,525,NA,NA,52436,NA,525,2,legacy,1024,2,48000,-16,experiment,HHHHH,3,odd,55151,NA,NA,187654,154280,2673,NA,NA,188776,NA,2705,NA,188891,189419,188764,188890,Flanker Task,75,38459,77,yes,1024
97.43589744,97.43589744,497.7179487,497.7179487,black,legacy,legacy,legacy,0,congruent,uniform,1,undefined,1,s,0,0,0,77,77,0,77,0,77,0,0,0,77,77,77,77,Thu Sep 19 21:13:52 2019,1500,The main experiment item,yes,CB-FlankerTask-Lab1.2.osexp,/Users/cristianbotello/Desktop/Advanced Quant,no,mono,no,18,no,white,no,no,768,legacy,77,77,/Users/cristianbotello/Desktop/Advanced Quant/CB-subject-3.csv,legacy,Kafkaesque Koffka,3.2.8,0,s,NA,NA,s,NA,s,363,NA,NA,52436,NA,363,2,legacy,1024,2,48000,-16,experiment,SSSSS,3,odd,55151,NA,NA,189433,154280,2673,NA,NA,190533,NA,2705,NA,190648,191018,190521,190648,Flanker Task,76,38822,78,yes,1024
97.46835443,97.46835443,498.8607595,498.8607595,black,legacy,legacy,legacy,0,incongruent,uniform,1,undefined,1,s,0,0,0,78,78,0,78,0,78,0,0,0,78,78,78,78,Thu Sep 19 21:13:52 2019,1500,The main experiment item,yes,CB-FlankerTask-Lab1.2.osexp,/Users/cristianbotello/Desktop/Advanced Quant,no,mono,no,18,no,white,no,no,768,legacy,78,78,/Users/cristianbotello/Desktop/Advanced Quant/CB-subject-3.csv,legacy,Kafkaesque Koffka,3.2.8,0,s,NA,NA,s,NA,s,588,NA,NA,52436,NA,588,2,legacy,1024,2,48000,-16,experiment,HHSHH,3,odd,55151,NA,NA,191044,154280,2673,NA,NA,192167,NA,2705,NA,192282,192872,192155,192282,Flanker Task,77,39410,79,yes,1024
97.5,97.5,498.9875,498.9875,black,legacy,legacy,legacy,0,congruent,uniform,1,undefined,1,h,0,0,0,79,79,0,79,0,79,0,0,0,79,79,79,79,Thu Sep 19 21:13:52 2019,1500,The main experiment item,yes,CB-FlankerTask-Lab1.2.osexp,/Users/cristianbotello/Desktop/Advanced Quant,no,mono,no,18,no,white,no,no,768,legacy,79,79,/Users/cristianbotello/Desktop/Advanced Quant/CB-subject-3.csv,legacy,Kafkaesque Koffka,3.2.8,0,h,NA,NA,s,NA,h,509,NA,NA,52436,NA,509,2,legacy,1024,2,48000,-16,experiment,HHHHH,3,odd,55151,NA,NA,192887,154280,2673,NA,NA,193985,NA,2705,NA,194100,194612,193974,194100,Flanker Task,78,39919,80,yes,1024
97.5308642,97.5308642,501.8024691,501.8024691,black,legacy,legacy,legacy,0,incongruent,uniform,1,undefined,1,s,0,0,0,80,80,0,80,0,80,0,0,0,80,80,80,80,Thu Sep 19 21:13:52 2019,600,The main experiment item,yes,CB-FlankerTask-Lab1.2.osexp,/Users/cristianbotello/Desktop/Advanced Quant,no,mono,no,18,no,white,no,no,768,legacy,0,79,/Users/cristianbotello/Desktop/Advanced Quant/CB-subject-3.csv,legacy,Kafkaesque Koffka,3.2.8,0,s,NA,s,s,NA,s,727,NA,10727,52436,NA,727,2,legacy,1024,2,48000,-16,experiment,HHSHH,3,odd,55151,206408,NA,194628,154280,2673,NA,NA,206521,195665,2705,NA,206636,207366,206510,206636,Flanker Task,79,40646,81,yes,1024
97.56097561,97.56097561,499.8902439,499.8902439,black,legacy,legacy,legacy,0,congruent,uniform,1,undefined,1,s,0,0,0,81,81,0,81,0,81,0,0,0,81,81,81,81,Thu Sep 19 21:13:52 2019,600,The main experiment item,yes,CB-FlankerTask-Lab1.2.osexp,/Users/cristianbotello/Desktop/Advanced Quant,no,mono,no,18,no,white,no,no,768,legacy,1,79,/Users/cristianbotello/Desktop/Advanced Quant/CB-subject-3.csv,legacy,Kafkaesque Koffka,3.2.8,0,s,NA,s,s,NA,s,345,NA,10727,52436,NA,345,2,legacy,1024,2,48000,-16,experiment,SSSSS,3,odd,55151,206408,NA,207893,154280,2673,207380,NA,208992,195665,2705,NA,209107,209455,208981,209107,Flanker Task,80,40991,82,yes,1024
97.59036145,97.59036145,498.7228916,498.7228916,black,legacy,legacy,legacy,0,congruent,uniform,1,undefined,1,s,0,0,0,82,82,0,82,0,82,0,0,0,82,82,82,82,Thu Sep 19 21:13:52 2019,600,The main experiment item,yes,CB-FlankerTask-Lab1.2.osexp,/Users/cristianbotello/Desktop/Advanced Quant,no,mono,no,18,no,white,no,no,768,legacy,2,79,/Users/cristianbotello/Desktop/Advanced Quant/CB-subject-3.csv,legacy,Kafkaesque Koffka,3.2.8,0,s,NA,s,s,NA,s,403,NA,10727,52436,NA,403,2,legacy,1024,2,48000,-16,experiment,SSSSS,3,odd,55151,206408,NA,209469,154280,2673,207380,NA,210593,195665,2705,NA,210709,211115,210582,210709,Flanker Task,81,41394,83,yes,1024
96.42857143,96.42857143,498.9047619,498.9047619,black,legacy,legacy,legacy,0,incongruent,uniform,0,undefined,0,s,0,0,0,83,83,0,83,0,83,0,0,0,83,83,83,83,Thu Sep 19 21:13:52 2019,600,The main experiment item,yes,CB-FlankerTask-Lab1.2.osexp,/Users/cristianbotello/Desktop/Advanced Quant,no,mono,no,18,no,white,no,no,768,legacy,3,79,/Users/cristianbotello/Desktop/Advanced Quant/CB-subject-3.csv,legacy,Kafkaesque Koffka,3.2.8,0,h,NA,s,s,NA,h,514,NA,10727,52436,NA,514,2,legacy,1024,2,48000,-16,experiment,HHSHH,3,odd,55151,206408,NA,211129,154280,2673,207380,NA,212228,195665,2705,NA,212343,212861,212217,212343,Flanker Task,81,41908,84,yes,1024
95.29411765,95.29411765,497.3294118,497.3294118,black,legacy,legacy,legacy,0,incongruent,uniform,0,undefined,0,h,0,0,0,84,84,0,84,0,84,0,0,0,84,84,84,84,Thu Sep 19 21:13:52 2019,600,The main experiment item,yes,CB-FlankerTask-Lab1.2.osexp,/Users/cristianbotello/Desktop/Advanced Quant,no,mono,no,18,no,white,no,no,768,legacy,4,79,/Users/cristianbotello/Desktop/Advanced Quant/CB-subject-3.csv,legacy,Kafkaesque Koffka,3.2.8,0,s,NA,s,s,NA,s,365,NA,10727,52436,NA,365,2,legacy,1024,2,48000,-16,experiment,SSHSS,3,odd,55151,206408,NA,213406,212893,2673,207380,NA,214505,195665,2705,NA,214620,214988,214494,214620,Flanker Task,81,42273,85,yes,1024
95.34883721,95.34883721,496.7209302,496.7209302,black,legacy,legacy,legacy,0,congruent,uniform,1,undefined,1,s,0,0,0,85,85,0,85,0,85,0,0,0,85,85,85,85,Thu Sep 19 21:13:52 2019,600,The main experiment item,yes,CB-FlankerTask-Lab1.2.osexp,/Users/cristianbotello/Desktop/Advanced Quant,no,mono,no,18,no,white,no,no,768,legacy,5,79,/Users/cristianbotello/Desktop/Advanced Quant/CB-subject-3.csv,legacy,Kafkaesque Koffka,3.2.8,0,s,NA,s,s,NA,s,445,NA,10727,52436,NA,445,2,legacy,1024,2,48000,-16,experiment,SSSSS,3,odd,55151,206408,NA,215528,215015,2673,207380,NA,216628,195665,2705,NA,216742,217190,216617,216742,Flanker Task,82,42718,86,yes,1024
95.40229885,95.40229885,495.5862069,495.5862069,black,legacy,legacy,legacy,0,congruent,uniform,1,undefined,1,h,0,0,0,86,86,0,86,0,86,0,0,0,86,86,86,86,Thu Sep 19 21:13:52 2019,600,The main experiment item,yes,CB-FlankerTask-Lab1.2.osexp,/Users/cristianbotello/Desktop/Advanced Quant,no,mono,no,18,no,white,no,no,768,legacy,6,79,/Users/cristianbotello/Desktop/Advanced Quant/CB-subject-3.csv,legacy,Kafkaesque Koffka,3.2.8,0,h,NA,s,s,NA,h,398,NA,10727,52436,NA,398,2,legacy,1024,2,48000,-16,experiment,HHHHH,3,odd,55151,206408,NA,217213,215015,2673,207380,NA,218336,195665,2705,NA,218451,218851,218324,218451,Flanker Task,83,43116,87,yes,1024
95.45454545,95.45454545,495.7272727,495.7272727,black,legacy,legacy,legacy,0,incongruent,uniform,1,undefined,1,s,0,0,0,87,87,0,87,0,87,0,0,0,87,87,87,87,Thu Sep 19 21:13:52 2019,600,The main experiment item,yes,CB-FlankerTask-Lab1.2.osexp,/Users/cristianbotello/Desktop/Advanced Quant,no,mono,no,18,no,white,no,no,768,legacy,7,79,/Users/cristianbotello/Desktop/Advanced Quant/CB-subject-3.csv,legacy,Kafkaesque Koffka,3.2.8,0,s,NA,s,s,NA,s,508,NA,10727,52436,NA,508,2,legacy,1024,2,48000,-16,experiment,HHSHH,3,odd,55151,206408,NA,218866,215015,2673,207380,NA,219966,195665,2705,NA,220081,220592,219955,220081,Flanker Task,84,43624,88,yes,1024
95.50561798,95.50561798,494.0561798,494.0561798,black,legacy,legacy,legacy,0,congruent,uniform,1,undefined,1,h,0,0,0,88,88,0,88,0,88,0,0,0,88,88,88,88,Thu Sep 19 21:13:52 2019,600,The main experiment item,yes,CB-FlankerTask-Lab1.2.osexp,/Users/cristianbotello/Desktop/Advanced Quant,no,mono,no,18,no,white,no,no,768,legacy,8,79,/Users/cristianbotello/Desktop/Advanced Quant/CB-subject-3.csv,legacy,Kafkaesque Koffka,3.2.8,0,h,NA,s,s,NA,h,347,NA,10727,52436,NA,347,2,legacy,1024,2,48000,-16,experiment,HHHHH,3,odd,55151,206408,NA,220607,215015,2673,207380,NA,221729,195665,2705,NA,221844,222193,221717,221844,Flanker Task,85,43971,89,yes,1024
95.55555556,95.55555556,493.0111111,493.0111111,black,legacy,legacy,legacy,0,congruent,uniform,1,undefined,1,s,0,0,0,89,89,0,89,0,89,0,0,0,89,89,89,89,Thu Sep 19 21:13:52 2019,600,The main experiment item,yes,CB-FlankerTask-Lab1.2.osexp,/Users/cristianbotello/Desktop/Advanced Quant,no,mono,no,18,no,white,no,no,768,legacy,9,79,/Users/cristianbotello/Desktop/Advanced Quant/CB-subject-3.csv,legacy,Kafkaesque Koffka,3.2.8,0,s,NA,s,s,NA,s,400,NA,10727,52436,NA,400,2,legacy,1024,2,48000,-16,experiment,SSSSS,3,odd,55151,206408,NA,222207,215015,2673,207380,NA,223306,195665,2705,NA,223421,223823,223295,223421,Flanker Task,86,44371,90,yes,1024
95.6043956,95.6043956,491.5714286,491.5714286,black,legacy,legacy,legacy,0,congruent,uniform,1,undefined,1,s,0,0,0,90,90,0,90,0,90,0,0,0,90,90,90,90,Thu Sep 19 21:13:52 2019,600,The main experiment item,yes,CB-FlankerTask-Lab1.2.osexp,/Users/cristianbotello/Desktop/Advanced Quant,no,mono,no,18,no,white,no,no,768,legacy,10,79,/Users/cristianbotello/Desktop/Advanced Quant/CB-subject-3.csv,legacy,Kafkaesque Koffka,3.2.8,0,s,NA,s,s,NA,s,362,NA,10727,52436,NA,362,2,legacy,1024,2,48000,-16,experiment,SSSSS,3,odd,55151,206408,NA,223846,215015,2673,207380,NA,224962,195665,2705,NA,225077,225442,224950,225077,Flanker Task,87,44733,91,yes,1024
94.56521739,94.56521739,490.4021739,490.4021739,black,legacy,legacy,legacy,0,incongruent,uniform,0,undefined,0,s,0,0,0,91,91,0,91,0,91,0,0,0,91,91,91,91,Thu Sep 19 21:13:52 2019,600,The main experiment item,yes,CB-FlankerTask-Lab1.2.osexp,/Users/cristianbotello/Desktop/Advanced Quant,no,mono,no,18,no,white,no,no,768,legacy,11,79,/Users/cristianbotello/Desktop/Advanced Quant/CB-subject-3.csv,legacy,Kafkaesque Koffka,3.2.8,0,h,NA,s,s,NA,h,384,NA,10727,52436,NA,384,2,legacy,1024,2,48000,-16,experiment,HHSHH,3,odd,55151,206408,NA,225456,215015,2673,207380,NA,226556,195665,2705,NA,226671,227058,226544,226671,Flanker Task,87,45117,92,yes,1024
94.62365591,94.62365591,489.0752688,489.0752688,black,legacy,legacy,legacy,0,congruent,uniform,1,undefined,1,h,0,0,0,92,92,0,92,0,92,0,0,0,92,92,92,92,Thu Sep 19 21:13:52 2019,600,The main experiment item,yes,CB-FlankerTask-Lab1.2.osexp,/Users/cristianbotello/Desktop/Advanced Quant,no,mono,no,18,no,white,no,no,768,legacy,12,79,/Users/cristianbotello/Desktop/Advanced Quant/CB-subject-3.csv,legacy,Kafkaesque Koffka,3.2.8,0,h,NA,s,s,NA,h,367,NA,10727,52436,NA,367,2,legacy,1024,2,48000,-16,experiment,HHHHH,3,odd,55151,206408,NA,227587,227074,2673,207380,NA,228686,195665,2705,NA,228801,229171,228675,228801,Flanker Task,88,45484,93,yes,1024
94.68085106,94.68085106,488.2978723,488.2978723,black,legacy,legacy,legacy,0,incongruent,uniform,1,undefined,1,s,0,0,0,93,93,0,93,0,93,0,0,0,93,93,93,93,Thu Sep 19 21:13:52 2019,600,The main experiment item,yes,CB-FlankerTask-Lab1.2.osexp,/Users/cristianbotello/Desktop/Advanced Quant,no,mono,no,18,no,white,no,no,768,legacy,13,79,/Users/cristianbotello/Desktop/Advanced Quant/CB-subject-3.csv,legacy,Kafkaesque Koffka,3.2.8,0,s,NA,s,s,NA,s,416,NA,10727,52436,NA,416,2,legacy,1024,2,48000,-16,experiment,HHSHH,3,odd,55151,206408,NA,229201,227074,2673,207380,NA,230315,195665,2705,NA,230430,230849,230304,230430,Flanker Task,89,45900,94,yes,1024
94.73684211,94.73684211,490.7157895,490.7157895,black,legacy,legacy,legacy,0,incongruent,uniform,1,undefined,1,h,0,0,0,94,94,0,94,0,94,0,0,0,94,94,94,94,Thu Sep 19 21:13:52 2019,600,The main experiment item,yes,CB-FlankerTask-Lab1.2.osexp,/Users/cristianbotello/Desktop/Advanced Quant,no,mono,no,18,no,white,no,no,768,legacy,14,79,/Users/cristianbotello/Desktop/Advanced Quant/CB-subject-3.csv,legacy,Kafkaesque Koffka,3.2.8,0,h,NA,s,s,NA,h,718,NA,10727,52436,NA,718,2,legacy,1024,2,48000,-16,experiment,SSHSS,3,odd,55151,206408,NA,230863,227074,2673,207380,NA,231963,195665,2705,NA,232077,232798,231951,232077,Flanker Task,90,46618,95,yes,1024
94.79166667,94.79166667,490.09375,490.09375,black,legacy,legacy,legacy,0,congruent,uniform,1,undefined,1,s,0,0,0,95,95,0,95,0,95,0,0,0,95,95,95,95,Thu Sep 19 21:13:52 2019,600,The main experiment item,yes,CB-FlankerTask-Lab1.2.osexp,/Users/cristianbotello/Desktop/Advanced Quant,no,mono,no,18,no,white,no,no,768,legacy,15,79,/Users/cristianbotello/Desktop/Advanced Quant/CB-subject-3.csv,legacy,Kafkaesque Koffka,3.2.8,0,s,NA,s,s,NA,s,431,NA,10727,52436,NA,431,2,legacy,1024,2,48000,-16,experiment,SSSSS,3,odd,55151,206408,NA,233339,227074,2673,232826,NA,234438,195665,2705,NA,234552,234986,234427,234552,Flanker Task,91,47049,96,yes,1024
94.84536082,94.84536082,489.6597938,489.6597938,black,legacy,legacy,legacy,0,incongruent,uniform,1,undefined,1,h,0,0,0,96,96,0,96,0,96,0,0,0,96,96,96,96,Thu Sep 19 21:13:52 2019,600,The main experiment item,yes,CB-FlankerTask-Lab1.2.osexp,/Users/cristianbotello/Desktop/Advanced Quant,no,mono,no,18,no,white,no,no,768,legacy,16,79,/Users/cristianbotello/Desktop/Advanced Quant/CB-subject-3.csv,legacy,Kafkaesque Koffka,3.2.8,0,h,NA,s,s,NA,h,448,NA,10727,52436,NA,448,2,legacy,1024,2,48000,-16,experiment,SSHSS,3,odd,55151,206408,NA,235019,227074,2673,232826,NA,236130,195665,2705,NA,236245,236695,236118,236245,Flanker Task,92,47497,97,yes,1024
93.87755102,93.87755102,488.9591837,488.9591837,black,legacy,legacy,legacy,0,incongruent,uniform,0,undefined,0,h,0,0,0,97,97,0,97,0,97,0,0,0,97,97,97,97,Thu Sep 19 21:13:52 2019,600,The main experiment item,yes,CB-FlankerTask-Lab1.2.osexp,/Users/cristianbotello/Desktop/Advanced Quant,no,mono,no,18,no,white,no,no,768,legacy,17,79,/Users/cristianbotello/Desktop/Advanced Quant/CB-subject-3.csv,legacy,Kafkaesque Koffka,3.2.8,0,s,NA,s,s,NA,s,421,NA,10727,52436,NA,421,2,legacy,1024,2,48000,-16,experiment,SSHSS,3,odd,55151,206408,NA,236711,227074,2673,232826,NA,237811,195665,2705,NA,237926,238353,237800,237926,Flanker Task,92,47918,98,yes,1024
92.92929293,92.92929293,487.7979798,487.7979798,black,legacy,legacy,legacy,0,incongruent,uniform,0,undefined,0,h,0,0,0,98,98,0,98,0,98,0,0,0,98,98,98,98,Thu Sep 19 21:13:52 2019,600,The main experiment item,yes,CB-FlankerTask-Lab1.2.osexp,/Users/cristianbotello/Desktop/Advanced Quant,no,mono,no,18,no,white,no,no,768,legacy,18,79,/Users/cristianbotello/Desktop/Advanced Quant/CB-subject-3.csv,legacy,Kafkaesque Koffka,3.2.8,0,s,NA,s,s,NA,s,374,NA,10727,52436,NA,374,2,legacy,1024,2,48000,-16,experiment,SSHSS,3,odd,55151,206408,NA,238883,238370,2673,232826,NA,239981,195665,2705,NA,240096,240473,239970,240096,Flanker Task,92,48292,99,yes,1024
93,93,489.11,489.11,black,legacy,legacy,legacy,0,incongruent,uniform,1,undefined,1,s,0,0,0,99,99,0,99,0,99,0,0,0,99,99,99,99,Thu Sep 19 21:13:52 2019,600,The main experiment item,yes,CB-FlankerTask-Lab1.2.osexp,/Users/cristianbotello/Desktop/Advanced Quant,no,mono,no,18,no,white,no,no,768,legacy,19,79,/Users/cristianbotello/Desktop/Advanced Quant/CB-subject-3.csv,legacy,Kafkaesque Koffka,3.2.8,0,s,NA,s,s,NA,s,619,NA,10727,52436,NA,619,2,legacy,1024,2,48000,-16,experiment,HHSHH,3,odd,55151,206408,NA,241001,240489,2673,232826,NA,242102,195665,2705,NA,242217,242846,242091,242216,Flanker Task,93,48911,100,yes,1024
93.06930693,93.06930693,487.7920792,487.7920792,black,legacy,legacy,legacy,0,congruent,uniform,1,undefined,1,s,0,0,0,100,100,0,100,0,100,0,0,0,100,100,100,100,Thu Sep 19 21:13:52 2019,600,The main experiment item,yes,CB-FlankerTask-Lab1.2.osexp,/Users/cristianbotello/Desktop/Advanced Quant,no,mono,no,18,no,white,no,no,768,legacy,20,79,/Users/cristianbotello/Desktop/Advanced Quant/CB-subject-3.csv,legacy,Kafkaesque Koffka,3.2.8,0,s,NA,s,s,NA,s,356,NA,10727,52436,NA,356,2,legacy,1024,2,48000,-16,experiment,SSSSS,3,odd,55151,206408,NA,243384,240489,2673,242871,NA,244482,195665,2705,NA,244597,244960,244471,244596,Flanker Task,94,49267,101,yes,1024
93.1372549,93.1372549,486.9607843,486.9607843,black,legacy,legacy,legacy,0,congruent,uniform,1,undefined,1,h,0,0,0,101,101,0,101,0,101,0,0,0,101,101,101,101,Thu Sep 19 21:13:52 2019,600,The main experiment item,yes,CB-FlankerTask-Lab1.2.osexp,/Users/cristianbotello/Desktop/Advanced Quant,no,mono,no,18,no,white,no,no,768,legacy,21,79,/Users/cristianbotello/Desktop/Advanced Quant/CB-subject-3.csv,legacy,Kafkaesque Koffka,3.2.8,0,h,NA,s,s,NA,h,403,NA,10727,52436,NA,403,2,legacy,1024,2,48000,-16,experiment,HHHHH,3,odd,55151,206408,NA,244979,240489,2673,242871,NA,246092,195665,2705,NA,246206,246612,246080,246206,Flanker Task,95,49670,102,yes,1024
93.2038835,93.2038835,486.9514563,486.9514563,black,legacy,legacy,legacy,0,incongruent,uniform,1,undefined,1,s,0,0,0,102,102,0,102,0,102,0,0,0,102,102,102,102,Thu Sep 19 21:13:52 2019,600,The main experiment item,yes,CB-FlankerTask-Lab1.2.osexp,/Users/cristianbotello/Desktop/Advanced Quant,no,mono,no,18,no,white,no,no,768,legacy,22,79,/Users/cristianbotello/Desktop/Advanced Quant/CB-subject-3.csv,legacy,Kafkaesque Koffka,3.2.8,0,s,NA,s,s,NA,s,486,NA,10727,52436,NA,486,2,legacy,1024,2,48000,-16,experiment,HHSHH,3,odd,55151,206408,NA,246626,240489,2673,242871,NA,247725,195665,2705,NA,247840,248329,247714,247840,Flanker Task,96,50156,103,yes,1024
92.30769231,92.30769231,486.3173077,486.3173077,black,legacy,legacy,legacy,0,incongruent,uniform,0,undefined,0,h,0,0,0,103,103,0,103,0,103,0,0,0,103,103,103,103,Thu Sep 19 21:13:52 2019,600,The main experiment item,yes,CB-FlankerTask-Lab1.2.osexp,/Users/cristianbotello/Desktop/Advanced Quant,no,mono,no,18,no,white,no,no,768,legacy,23,79,/Users/cristianbotello/Desktop/Advanced Quant/CB-subject-3.csv,legacy,Kafkaesque Koffka,3.2.8,0,s,NA,s,s,NA,s,421,NA,10727,52436,NA,421,2,legacy,1024,2,48000,-16,experiment,SSHSS,3,odd,55151,206408,NA,248349,240489,2673,242871,NA,249471,195665,2705,NA,249586,250010,249460,249586,Flanker Task,96,50577,104,yes,1024
92.38095238,92.38095238,486.3809524,486.3809524,black,legacy,legacy,legacy,0,congruent,uniform,1,undefined,1,h,0,0,0,104,104,0,104,0,104,0,0,0,104,104,104,104,Thu Sep 19 21:13:52 2019,600,The main experiment item,yes,CB-FlankerTask-Lab1.2.osexp,/Users/cristianbotello/Desktop/Advanced Quant,no,mono,no,18,no,white,no,no,768,legacy,24,79,/Users/cristianbotello/Desktop/Advanced Quant/CB-subject-3.csv,legacy,Kafkaesque Koffka,3.2.8,0,h,NA,s,s,NA,h,493,NA,10727,52436,NA,493,2,legacy,1024,2,48000,-16,experiment,HHHHH,3,odd,55151,206408,NA,250538,250025,2673,242871,NA,251637,195665,2705,NA,251752,252248,251625,251752,Flanker Task,97,51070,105,yes,1024
92.45283019,92.45283019,485.6698113,485.6698113,black,legacy,legacy,legacy,0,incongruent,uniform,1,undefined,1,s,0,0,0,105,105,0,105,0,105,0,0,0,105,105,105,105,Thu Sep 19 21:13:52 2019,600,The main experiment item,yes,CB-FlankerTask-Lab1.2.osexp,/Users/cristianbotello/Desktop/Advanced Quant,no,mono,no,18,no,white,no,no,768,legacy,25,79,/Users/cristianbotello/Desktop/Advanced Quant/CB-subject-3.csv,legacy,Kafkaesque Koffka,3.2.8,0,s,NA,s,s,NA,s,411,NA,10727,52436,NA,411,2,legacy,1024,2,48000,-16,experiment,HHSHH,3,odd,55151,206408,NA,252261,250025,2673,242871,NA,253361,195665,2705,NA,253476,253890,253349,253476,Flanker Task,98,51481,106,yes,1024
91.58878505,91.58878505,483.4766355,483.4766355,black,legacy,legacy,legacy,0,incongruent,uniform,0,undefined,0,s,0,0,0,106,106,0,106,0,106,0,0,0,106,106,106,106,Thu Sep 19 21:13:52 2019,600,The main experiment item,yes,CB-FlankerTask-Lab1.2.osexp,/Users/cristianbotello/Desktop/Advanced Quant,no,mono,no,18,no,white,no,no,768,legacy,26,79,/Users/cristianbotello/Desktop/Advanced Quant/CB-subject-3.csv,legacy,Kafkaesque Koffka,3.2.8,0,h,NA,s,s,NA,h,251,NA,10727,52436,NA,251,2,legacy,1024,2,48000,-16,experiment,HHSHH,3,odd,55151,206408,NA,253918,250025,2673,242871,NA,255033,195665,2705,NA,255148,255401,255022,255147,Flanker Task,98,51732,107,yes,1024
91.66666667,91.66666667,483.5277778,483.5277778,black,legacy,legacy,legacy,0,incongruent,uniform,1,undefined,1,h,0,0,0,107,107,0,107,0,107,0,0,0,107,107,107,107,Thu Sep 19 21:13:52 2019,600,The main experiment item,yes,CB-FlankerTask-Lab1.2.osexp,/Users/cristianbotello/Desktop/Advanced Quant,no,mono,no,18,no,white,no,no,768,legacy,27,79,/Users/cristianbotello/Desktop/Advanced Quant/CB-subject-3.csv,legacy,Kafkaesque Koffka,3.2.8,0,h,NA,s,s,NA,h,489,NA,10727,52436,NA,489,2,legacy,1024,2,48000,-16,experiment,SSHSS,3,odd,55151,206408,NA,255928,255415,2673,242871,NA,257047,195665,2705,NA,257162,257654,257034,257161,Flanker Task,99,52221,108,yes,1024
91.74311927,91.74311927,482.3211009,482.3211009,black,legacy,legacy,legacy,0,congruent,uniform,1,undefined,1,s,0,0,0,108,108,0,108,0,108,0,0,0,108,108,108,108,Thu Sep 19 21:13:52 2019,600,The main experiment item,yes,CB-FlankerTask-Lab1.2.osexp,/Users/cristianbotello/Desktop/Advanced Quant,no,mono,no,18,no,white,no,no,768,legacy,28,79,/Users/cristianbotello/Desktop/Advanced Quant/CB-subject-3.csv,legacy,Kafkaesque Koffka,3.2.8,0,s,NA,s,s,NA,s,352,NA,10727,52436,NA,352,2,legacy,1024,2,48000,-16,experiment,SSSSS,3,odd,55151,206408,NA,257668,255415,2673,242871,NA,258766,195665,2705,NA,258881,259236,258755,258881,Flanker Task,100,52573,109,yes,1024
91.81818182,91.81818182,481.9181818,481.9181818,black,legacy,legacy,legacy,0,congruent,uniform,1,undefined,1,h,0,0,0,109,109,0,109,0,109,0,0,0,109,109,109,109,Thu Sep 19 21:13:52 2019,600,The main experiment item,yes,CB-FlankerTask-Lab1.2.osexp,/Users/cristianbotello/Desktop/Advanced Quant,no,mono,no,18,no,white,no,no,768,legacy,29,79,/Users/cristianbotello/Desktop/Advanced Quant/CB-subject-3.csv,legacy,Kafkaesque Koffka,3.2.8,0,h,NA,s,s,NA,h,438,NA,10727,52436,NA,438,2,legacy,1024,2,48000,-16,experiment,HHHHH,3,odd,55151,206408,NA,259253,255415,2673,242871,NA,260371,195665,2705,NA,260486,260927,260359,260485,Flanker Task,101,53011,110,yes,1024
91.89189189,91.89189189,481.4234234,481.4234234,black,legacy,legacy,legacy,0,congruent,uniform,1,undefined,1,s,0,0,0,110,110,0,110,0,110,0,0,0,110,110,110,110,Thu Sep 19 21:13:52 2019,600,The main experiment item,yes,CB-FlankerTask-Lab1.2.osexp,/Users/cristianbotello/Desktop/Advanced Quant,no,mono,no,18,no,white,no,no,768,legacy,30,79,/Users/cristianbotello/Desktop/Advanced Quant/CB-subject-3.csv,legacy,Kafkaesque Koffka,3.2.8,0,s,NA,s,s,NA,s,427,NA,10727,52436,NA,427,2,legacy,1024,2,48000,-16,experiment,SSSSS,3,odd,55151,206408,NA,260942,255415,2673,242871,NA,262041,195665,2705,NA,262154,262585,262029,262153,Flanker Task,102,53438,111,yes,1024
91.96428571,91.96428571,481.0892857,481.0892857,black,legacy,legacy,legacy,0,incongruent,uniform,1,undefined,1,s,0,0,0,111,111,0,111,0,111,0,0,0,111,111,111,111,Thu Sep 19 21:13:52 2019,600,The main experiment item,yes,CB-FlankerTask-Lab1.2.osexp,/Users/cristianbotello/Desktop/Advanced Quant,no,mono,no,18,no,white,no,no,768,legacy,31,79,/Users/cristianbotello/Desktop/Advanced Quant/CB-subject-3.csv,legacy,Kafkaesque Koffka,3.2.8,0,s,NA,s,s,NA,s,444,NA,10727,52436,NA,444,2,legacy,1024,2,48000,-16,experiment,HHSHH,3,odd,55151,206408,NA,262603,255415,2673,242871,NA,263721,195665,2705,NA,263837,264284,263710,263836,Flanker Task,103,53882,112,yes,1024
92.03539823,92.03539823,480.539823,480.539823,black,legacy,legacy,legacy,0,congruent,uniform,1,undefined,1,h,0,0,0,112,112,0,112,0,112,0,0,0,112,112,112,112,Thu Sep 19 21:13:52 2019,600,The main experiment item,yes,CB-FlankerTask-Lab1.2.osexp,/Users/cristianbotello/Desktop/Advanced Quant,no,mono,no,18,no,white,no,no,768,legacy,32,79,/Users/cristianbotello/Desktop/Advanced Quant/CB-subject-3.csv,legacy,Kafkaesque Koffka,3.2.8,0,h,NA,s,s,NA,h,419,NA,10727,52436,NA,419,2,legacy,1024,2,48000,-16,experiment,HHHHH,3,odd,55151,206408,NA,264298,255415,2673,242871,NA,265398,195665,2705,NA,265509,265931,265386,265509,Flanker Task,104,54301,113,yes,1024
92.10526316,92.10526316,479.8508772,479.8508772,black,legacy,legacy,legacy,0,congruent,uniform,1,undefined,1,h,0,0,0,113,113,0,113,0,113,0,0,0,113,113,113,113,Thu Sep 19 21:13:52 2019,600,The main experiment item,yes,CB-FlankerTask-Lab1.2.osexp,/Users/cristianbotello/Desktop/Advanced Quant,no,mono,no,18,no,white,no,no,768,legacy,33,79,/Users/cristianbotello/Desktop/Advanced Quant/CB-subject-3.csv,legacy,Kafkaesque Koffka,3.2.8,0,h,NA,s,s,NA,h,402,NA,10727,52436,NA,402,2,legacy,1024,2,48000,-16,experiment,HHHHH,3,odd,55151,206408,NA,265950,255415,2673,242871,NA,267074,195665,2705,NA,267190,267595,267063,267189,Flanker Task,105,54703,114,yes,1024
92.17391304,92.17391304,478.8695652,478.8695652,black,legacy,legacy,legacy,0,congruent,uniform,1,undefined,1,h,0,0,0,114,114,0,114,0,114,0,0,0,114,114,114,114,Thu Sep 19 21:13:52 2019,600,The main experiment item,yes,CB-FlankerTask-Lab1.2.osexp,/Users/cristianbotello/Desktop/Advanced Quant,no,mono,no,18,no,white,no,no,768,legacy,34,79,/Users/cristianbotello/Desktop/Advanced Quant/CB-subject-3.csv,legacy,Kafkaesque Koffka,3.2.8,0,h,NA,s,s,NA,h,367,NA,10727,52436,NA,367,2,legacy,1024,2,48000,-16,experiment,HHHHH,3,odd,55151,206408,NA,267609,255415,2673,242871,NA,268708,195665,2705,NA,268819,269189,268696,268819,Flanker Task,106,55070,115,yes,1024
92.24137931,92.24137931,478.4655172,478.4655172,black,legacy,legacy,legacy,0,incongruent,uniform,1,undefined,1,s,0,0,0,115,115,0,115,0,115,0,0,0,115,115,115,115,Thu Sep 19 21:13:52 2019,600,The main experiment item,yes,CB-FlankerTask-Lab1.2.osexp,/Users/cristianbotello/Desktop/Advanced Quant,no,mono,no,18,no,white,no,no,768,legacy,35,79,/Users/cristianbotello/Desktop/Advanced Quant/CB-subject-3.csv,legacy,Kafkaesque Koffka,3.2.8,0,s,NA,s,s,NA,s,432,NA,10727,52436,NA,432,2,legacy,1024,2,48000,-16,experiment,HHSHH,3,odd,55151,206408,NA,269214,255415,2673,242871,NA,270337,195665,2705,NA,270448,270882,270326,270448,Flanker Task,107,55502,116,yes,1024
92.30769231,92.30769231,478.7094017,478.7094017,black,legacy,legacy,legacy,0,incongruent,uniform,1,undefined,1,s,0,0,0,116,116,0,116,0,116,0,0,0,116,116,116,116,Thu Sep 19 21:13:52 2019,600,The main experiment item,yes,CB-FlankerTask-Lab1.2.osexp,/Users/cristianbotello/Desktop/Advanced Quant,no,mono,no,18,no,white,no,no,768,legacy,36,79,/Users/cristianbotello/Desktop/Advanced Quant/CB-subject-3.csv,legacy,Kafkaesque Koffka,3.2.8,0,s,NA,s,s,NA,s,507,NA,10727,52436,NA,507,2,legacy,1024,2,48000,-16,experiment,HHSHH,3,odd,55151,206408,NA,270897,255415,2673,242871,NA,271996,195665,2705,NA,272111,272621,271985,272111,Flanker Task,108,56009,117,yes,1024
92.37288136,92.37288136,480.4661017,480.4661017,black,legacy,legacy,legacy,0,incongruent,uniform,1,undefined,1,s,0,0,0,117,117,0,117,0,117,0,0,0,117,117,117,117,Thu Sep 19 21:13:52 2019,600,The main experiment item,yes,CB-FlankerTask-Lab1.2.osexp,/Users/cristianbotello/Desktop/Advanced Quant,no,mono,no,18,no,white,no,no,768,legacy,37,79,/Users/cristianbotello/Desktop/Advanced Quant/CB-subject-3.csv,legacy,Kafkaesque Koffka,3.2.8,0,s,NA,s,s,NA,s,686,NA,10727,52436,NA,686,2,legacy,1024,2,48000,-16,experiment,HHSHH,3,odd,55151,206408,NA,272637,255415,2673,242871,NA,273759,195665,2705,NA,273870,274558,273748,273870,Flanker Task,109,56695,118,yes,1024
92.43697479,92.43697479,480.6890756,480.6890756,black,legacy,legacy,legacy,0,incongruent,uniform,1,undefined,1,h,0,0,0,118,118,0,118,0,118,0,0,0,118,118,118,118,Thu Sep 19 21:13:52 2019,600,The main experiment item,yes,CB-FlankerTask-Lab1.2.osexp,/Users/cristianbotello/Desktop/Advanced Quant,no,mono,no,18,no,white,no,no,768,legacy,38,79,/Users/cristianbotello/Desktop/Advanced Quant/CB-subject-3.csv,legacy,Kafkaesque Koffka,3.2.8,0,h,NA,s,s,NA,h,507,NA,10727,52436,NA,507,2,legacy,1024,2,48000,-16,experiment,SSHSS,3,odd,55151,206408,NA,275086,255415,2673,274573,NA,276186,195665,2705,NA,276301,276812,276175,276301,Flanker Task,110,57202,119,yes,1024
92.5,92.5,479.5833333,479.5833333,black,legacy,legacy,legacy,0,congruent,uniform,1,undefined,1,s,0,0,0,119,119,0,119,0,119,0,0,0,119,119,119,119,Thu Sep 19 21:13:52 2019,600,The main experiment item,yes,CB-FlankerTask-Lab1.2.osexp,/Users/cristianbotello/Desktop/Advanced Quant,no,mono,no,18,no,white,no,no,768,legacy,39,79,/Users/cristianbotello/Desktop/Advanced Quant/CB-subject-3.csv,legacy,Kafkaesque Koffka,3.2.8,0,s,NA,s,s,NA,s,348,NA,10727,52436,NA,348,2,legacy,1024,2,48000,-16,experiment,SSSSS,3,odd,55151,206408,NA,276840,255415,2673,274573,NA,277964,195665,2705,NA,278076,278427,277953,278076,Flanker Task,111,57550,120,yes,1024
92.56198347,92.56198347,479.5454545,479.5454545,black,legacy,legacy,legacy,0,congruent,uniform,1,undefined,1,h,0,0,0,120,120,0,120,0,120,0,0,0,120,120,120,120,Thu Sep 19 21:13:52 2019,600,The main experiment item,yes,CB-FlankerTask-Lab1.2.osexp,/Users/cristianbotello/Desktop/Advanced Quant,no,mono,no,18,no,white,no,no,768,legacy,40,79,/Users/cristianbotello/Desktop/Advanced Quant/CB-subject-3.csv,legacy,Kafkaesque Koffka,3.2.8,0,h,NA,s,s,NA,h,475,NA,10727,52436,NA,475,2,legacy,1024,2,48000,-16,experiment,HHHHH,3,odd,55151,206408,NA,278441,255415,2673,274573,NA,279540,195665,2705,NA,279655,280138,279528,279654,Flanker Task,112,58025,121,yes,1024
91.80327869,91.80327869,478.6557377,478.6557377,black,legacy,legacy,legacy,0,incongruent,uniform,0,undefined,0,h,0,0,0,121,121,0,121,0,121,0,0,0,121,121,121,121,Thu Sep 19 21:13:52 2019,600,The main experiment item,yes,CB-FlankerTask-Lab1.2.osexp,/Users/cristianbotello/Desktop/Advanced Quant,no,mono,no,18,no,white,no,no,768,legacy,41,79,/Users/cristianbotello/Desktop/Advanced Quant/CB-subject-3.csv,legacy,Kafkaesque Koffka,3.2.8,0,s,NA,s,s,NA,s,371,NA,10727,52436,NA,371,2,legacy,1024,2,48000,-16,experiment,SSHSS,3,odd,55151,206408,NA,280160,255415,2673,274573,NA,281282,195665,2705,NA,281394,281768,281271,281394,Flanker Task,112,58396,122,yes,1024
91.8699187,91.8699187,478.3739837,478.3739837,black,legacy,legacy,legacy,0,congruent,uniform,1,undefined,1,s,0,0,0,122,122,0,122,0,122,0,0,0,122,122,122,122,Thu Sep 19 21:13:52 2019,600,The main experiment item,yes,CB-FlankerTask-Lab1.2.osexp,/Users/cristianbotello/Desktop/Advanced Quant,no,mono,no,18,no,white,no,no,768,legacy,42,79,/Users/cristianbotello/Desktop/Advanced Quant/CB-subject-3.csv,legacy,Kafkaesque Koffka,3.2.8,0,s,NA,s,s,NA,s,444,NA,10727,52436,NA,444,2,legacy,1024,2,48000,-16,experiment,SSSSS,3,odd,55151,206408,NA,282293,281782,2673,274573,NA,283389,195665,2705,NA,283503,283950,283378,283503,Flanker Task,113,58840,123,yes,1024
91.93548387,91.93548387,477.9112903,477.9112903,black,legacy,legacy,legacy,0,congruent,uniform,1,undefined,1,s,0,0,0,123,123,0,123,0,123,0,0,0,123,123,123,123,Thu Sep 19 21:13:52 2019,600,The main experiment item,yes,CB-FlankerTask-Lab1.2.osexp,/Users/cristianbotello/Desktop/Advanced Quant,no,mono,no,18,no,white,no,no,768,legacy,43,79,/Users/cristianbotello/Desktop/Advanced Quant/CB-subject-3.csv,legacy,Kafkaesque Koffka,3.2.8,0,s,NA,s,s,NA,s,421,NA,10727,52436,NA,421,2,legacy,1024,2,48000,-16,experiment,SSSSS,3,odd,55151,206408,NA,283964,281782,2673,274573,NA,285063,195665,2705,NA,285178,285602,285051,285178,Flanker Task,114,59261,124,yes,1024
92,92,477.544,477.544,black,legacy,legacy,legacy,0,congruent,uniform,1,undefined,1,h,0,0,0,124,124,0,124,0,124,0,0,0,124,124,124,124,Thu Sep 19 21:13:52 2019,600,The main experiment item,yes,CB-FlankerTask-Lab1.2.osexp,/Users/cristianbotello/Desktop/Advanced Quant,no,mono,no,18,no,white,no,no,768,legacy,44,79,/Users/cristianbotello/Desktop/Advanced Quant/CB-subject-3.csv,legacy,Kafkaesque Koffka,3.2.8,0,h,NA,s,s,NA,h,432,NA,10727,52436,NA,432,2,legacy,1024,2,48000,-16,experiment,HHHHH,3,odd,55151,206408,NA,285623,281782,2673,274573,NA,286752,195665,2705,NA,286867,287302,286741,286867,Flanker Task,115,59693,125,yes,1024
92.06349206,92.06349206,477.2222222,477.2222222,black,legacy,legacy,legacy,0,incongruent,uniform,1,undefined,1,s,0,0,0,125,125,0,125,0,125,0,0,0,125,125,125,125,Thu Sep 19 21:13:52 2019,600,The main experiment item,yes,CB-FlankerTask-Lab1.2.osexp,/Users/cristianbotello/Desktop/Advanced Quant,no,mono,no,18,no,white,no,no,768,legacy,45,79,/Users/cristianbotello/Desktop/Advanced Quant/CB-subject-3.csv,legacy,Kafkaesque Koffka,3.2.8,0,s,NA,s,s,NA,s,437,NA,10727,52436,NA,437,2,legacy,1024,2,48000,-16,experiment,HHSHH,3,odd,55151,206408,NA,287316,281782,2673,274573,NA,288415,195665,2705,NA,288530,288970,288404,288530,Flanker Task,116,60130,126,yes,1024
92.12598425,92.12598425,477.2913386,477.2913386,black,legacy,legacy,legacy,0,congruent,uniform,1,undefined,1,h,0,0,0,126,126,0,126,0,126,0,0,0,126,126,126,126,Thu Sep 19 21:13:52 2019,600,The main experiment item,yes,CB-FlankerTask-Lab1.2.osexp,/Users/cristianbotello/Desktop/Advanced Quant,no,mono,no,18,no,white,no,no,768,legacy,46,79,/Users/cristianbotello/Desktop/Advanced Quant/CB-subject-3.csv,legacy,Kafkaesque Koffka,3.2.8,0,h,NA,s,s,NA,h,486,NA,10727,52436,NA,486,2,legacy,1024,2,48000,-16,experiment,HHHHH,3,odd,55151,206408,NA,288996,281782,2673,274573,NA,290118,195665,2705,NA,290229,290718,290107,290229,Flanker Task,117,60616,127,yes,1024
92.1875,92.1875,477.3515625,477.3515625,black,legacy,legacy,legacy,0,incongruent,uniform,1,undefined,1,h,0,0,0,127,127,0,127,0,127,0,0,0,127,127,127,127,Thu Sep 19 21:13:52 2019,600,The main experiment item,yes,CB-FlankerTask-Lab1.2.osexp,/Users/cristianbotello/Desktop/Advanced Quant,no,mono,no,18,no,white,no,no,768,legacy,47,79,/Users/cristianbotello/Desktop/Advanced Quant/CB-subject-3.csv,legacy,Kafkaesque Koffka,3.2.8,0,h,NA,s,s,NA,h,485,NA,10727,52436,NA,485,2,legacy,1024,2,48000,-16,experiment,SSHSS,3,odd,55151,206408,NA,290732,281782,2673,274573,NA,291831,195665,2705,NA,291945,292433,291819,291945,Flanker Task,118,61101,128,yes,1024
92.24806202,92.24806202,477.2015504,477.2015504,black,legacy,legacy,legacy,0,incongruent,uniform,1,undefined,1,h,0,0,0,128,128,0,128,0,128,0,0,0,128,128,128,128,Thu Sep 19 21:13:52 2019,600,The main experiment item,yes,CB-FlankerTask-Lab1.2.osexp,/Users/cristianbotello/Desktop/Advanced Quant,no,mono,no,18,no,white,no,no,768,legacy,48,79,/Users/cristianbotello/Desktop/Advanced Quant/CB-subject-3.csv,legacy,Kafkaesque Koffka,3.2.8,0,h,NA,s,s,NA,h,458,NA,10727,52436,NA,458,2,legacy,1024,2,48000,-16,experiment,SSHSS,3,odd,55151,206408,NA,292454,281782,2673,274573,NA,293575,195665,2705,NA,293690,294151,293563,293690,Flanker Task,119,61559,129,yes,1024
92.30769231,92.30769231,476.7615385,476.7615385,black,legacy,legacy,legacy,0,incongruent,uniform,1,undefined,1,h,0,0,0,129,129,0,129,0,129,0,0,0,129,129,129,129,Thu Sep 19 21:13:52 2019,600,The main experiment item,yes,CB-FlankerTask-Lab1.2.osexp,/Users/cristianbotello/Desktop/Advanced Quant,no,mono,no,18,no,white,no,no,768,legacy,49,79,/Users/cristianbotello/Desktop/Advanced Quant/CB-subject-3.csv,legacy,Kafkaesque Koffka,3.2.8,0,h,NA,s,s,NA,h,420,NA,10727,52436,NA,420,2,legacy,1024,2,48000,-16,experiment,SSHSS,3,odd,55151,206408,NA,294166,281782,2673,274573,NA,295266,195665,2705,NA,295381,295806,295254,295380,Flanker Task,120,61979,130,yes,1024
92.36641221,92.36641221,477.1755725,477.1755725,black,legacy,legacy,legacy,0,incongruent,uniform,1,undefined,1,s,0,0,0,130,130,0,130,0,130,0,0,0,130,130,130,130,Thu Sep 19 21:13:52 2019,600,The main experiment item,yes,CB-FlankerTask-Lab1.2.osexp,/Users/cristianbotello/Desktop/Advanced Quant,no,mono,no,18,no,white,no,no,768,legacy,50,79,/Users/cristianbotello/Desktop/Advanced Quant/CB-subject-3.csv,legacy,Kafkaesque Koffka,3.2.8,0,s,NA,s,s,NA,s,531,NA,10727,52436,NA,531,2,legacy,1024,2,48000,-16,experiment,HHSHH,3,odd,55151,206408,NA,295826,281782,2673,274573,NA,296945,195665,2705,NA,297060,297594,296934,297060,Flanker Task,121,62510,131,yes,1024
92.42424242,92.42424242,476.8409091,476.8409091,black,legacy,legacy,legacy,0,incongruent,uniform,1,undefined,1,h,0,0,0,131,131,0,131,0,131,0,0,0,131,131,131,131,Thu Sep 19 21:13:52 2019,600,The main experiment item,yes,CB-FlankerTask-Lab1.2.osexp,/Users/cristianbotello/Desktop/Advanced Quant,no,mono,no,18,no,white,no,no,768,legacy,51,79,/Users/cristianbotello/Desktop/Advanced Quant/CB-subject-3.csv,legacy,Kafkaesque Koffka,3.2.8,0,h,NA,s,s,NA,h,433,NA,10727,52436,NA,433,2,legacy,1024,2,48000,-16,experiment,SSHSS,3,odd,55151,206408,NA,297608,281782,2673,274573,NA,298707,195665,2705,NA,298822,299259,298696,298822,Flanker Task,122,62943,132,yes,1024
92.48120301,92.48120301,476.0601504,476.0601504,black,legacy,legacy,legacy,0,congruent,uniform,1,undefined,1,s,0,0,0,132,132,0,132,0,132,0,0,0,132,132,132,132,Thu Sep 19 21:13:52 2019,600,The main experiment item,yes,CB-FlankerTask-Lab1.2.osexp,/Users/cristianbotello/Desktop/Advanced Quant,no,mono,no,18,no,white,no,no,768,legacy,52,79,/Users/cristianbotello/Desktop/Advanced Quant/CB-subject-3.csv,legacy,Kafkaesque Koffka,3.2.8,0,s,NA,s,s,NA,s,373,NA,10727,52436,NA,373,2,legacy,1024,2,48000,-16,experiment,SSSSS,3,odd,55151,206408,NA,299275,281782,2673,274573,NA,300402,195665,2705,NA,300517,300893,300390,300517,Flanker Task,123,63316,133,yes,1024
92.53731343,92.53731343,475.4253731,475.4253731,black,legacy,legacy,legacy,0,congruent,uniform,1,undefined,1,h,0,0,0,133,133,0,133,0,133,0,0,0,133,133,133,133,Thu Sep 19 21:13:52 2019,600,The main experiment item,yes,CB-FlankerTask-Lab1.2.osexp,/Users/cristianbotello/Desktop/Advanced Quant,no,mono,no,18,no,white,no,no,768,legacy,53,79,/Users/cristianbotello/Desktop/Advanced Quant/CB-subject-3.csv,legacy,Kafkaesque Koffka,3.2.8,0,h,NA,s,s,NA,h,391,NA,10727,52436,NA,391,2,legacy,1024,2,48000,-16,experiment,HHHHH,3,odd,55151,206408,NA,300907,281782,2673,274573,NA,302006,195665,2705,NA,302121,302515,301996,302121,Flanker Task,124,63707,134,yes,1024
92.59259259,92.59259259,474.9925926,474.9925926,black,legacy,legacy,legacy,0,congruent,uniform,1,undefined,1,s,0,0,0,134,134,0,134,0,134,0,0,0,134,134,134,134,Thu Sep 19 21:13:52 2019,600,The main experiment item,yes,CB-FlankerTask-Lab1.2.osexp,/Users/cristianbotello/Desktop/Advanced Quant,no,mono,no,18,no,white,no,no,768,legacy,54,79,/Users/cristianbotello/Desktop/Advanced Quant/CB-subject-3.csv,legacy,Kafkaesque Koffka,3.2.8,0,s,NA,s,s,NA,s,417,NA,10727,52436,NA,417,2,legacy,1024,2,48000,-16,experiment,SSSSS,3,odd,55151,206408,NA,302542,281782,2673,274573,NA,303662,195665,2705,NA,303778,304198,303650,303778,Flanker Task,125,64124,135,yes,1024
92.64705882,92.64705882,474.3676471,474.3676471,black,legacy,legacy,legacy,0,congruent,uniform,1,undefined,1,s,0,0,0,135,135,0,135,0,135,0,0,0,135,135,135,135,Thu Sep 19 21:13:52 2019,600,The main experiment item,yes,CB-FlankerTask-Lab1.2.osexp,/Users/cristianbotello/Desktop/Advanced Quant,no,mono,no,18,no,white,no,no,768,legacy,55,79,/Users/cristianbotello/Desktop/Advanced Quant/CB-subject-3.csv,legacy,Kafkaesque Koffka,3.2.8,0,s,NA,s,s,NA,s,390,NA,10727,52436,NA,390,2,legacy,1024,2,48000,-16,experiment,SSSSS,3,odd,55151,206408,NA,304212,281782,2673,274573,NA,305311,195665,2705,NA,305426,305820,305299,305426,Flanker Task,126,64514,136,yes,1024
92.70072993,92.70072993,474.4963504,474.4963504,black,legacy,legacy,legacy,0,incongruent,uniform,1,undefined,1,s,0,0,0,136,136,0,136,0,136,0,0,0,136,136,136,136,Thu Sep 19 21:13:52 2019,600,The main experiment item,yes,CB-FlankerTask-Lab1.2.osexp,/Users/cristianbotello/Desktop/Advanced Quant,no,mono,no,18,no,white,no,no,768,legacy,56,79,/Users/cristianbotello/Desktop/Advanced Quant/CB-subject-3.csv,legacy,Kafkaesque Koffka,3.2.8,0,s,NA,s,s,NA,s,492,NA,10727,52436,NA,492,2,legacy,1024,2,48000,-16,experiment,HHSHH,3,odd,55151,206408,NA,305837,281782,2673,274573,NA,306951,195665,2705,NA,307066,307561,306940,307066,Flanker Task,127,65006,137,yes,1024
92.75362319,92.75362319,475.3550725,475.3550725,black,legacy,legacy,legacy,0,incongruent,uniform,1,undefined,1,s,0,0,0,137,137,0,137,0,137,0,0,0,137,137,137,137,Thu Sep 19 21:13:52 2019,600,The main experiment item,yes,CB-FlankerTask-Lab1.2.osexp,/Users/cristianbotello/Desktop/Advanced Quant,no,mono,no,18,no,white,no,no,768,legacy,57,79,/Users/cristianbotello/Desktop/Advanced Quant/CB-subject-3.csv,legacy,Kafkaesque Koffka,3.2.8,0,s,NA,s,s,NA,s,593,NA,10727,52436,NA,593,2,legacy,1024,2,48000,-16,experiment,HHSHH,3,odd,55151,206408,NA,307575,281782,2673,274573,NA,308675,195665,2705,NA,308787,309384,308663,308787,Flanker Task,128,65599,138,yes,1024
92.8057554,92.8057554,474.6978417,474.6978417,black,legacy,legacy,legacy,0,congruent,uniform,1,undefined,1,s,0,0,0,138,138,0,138,0,138,0,0,0,138,138,138,138,Thu Sep 19 21:13:52 2019,600,The main experiment item,yes,CB-FlankerTask-Lab1.2.osexp,/Users/cristianbotello/Desktop/Advanced Quant,no,mono,no,18,no,white,no,no,768,legacy,58,79,/Users/cristianbotello/Desktop/Advanced Quant/CB-subject-3.csv,legacy,Kafkaesque Koffka,3.2.8,0,s,NA,s,s,NA,s,384,NA,10727,52436,NA,384,2,legacy,1024,2,48000,-16,experiment,SSSSS,3,odd,55151,206408,NA,309404,281782,2673,274573,NA,310518,195665,2705,NA,310633,311022,310507,310633,Flanker Task,129,65983,139,yes,1024
92.85714286,92.85714286,473.9357143,473.9357143,black,legacy,legacy,legacy,0,congruent,uniform,1,undefined,1,h,0,0,0,139,139,0,139,0,139,0,0,0,139,139,139,139,Thu Sep 19 21:13:52 2019,600,The main experiment item,yes,CB-FlankerTask-Lab1.2.osexp,/Users/cristianbotello/Desktop/Advanced Quant,no,mono,no,18,no,white,no,no,768,legacy,59,79,/Users/cristianbotello/Desktop/Advanced Quant/CB-subject-3.csv,legacy,Kafkaesque Koffka,3.2.8,0,h,NA,s,s,NA,h,368,NA,10727,52436,NA,368,2,legacy,1024,2,48000,-16,experiment,HHHHH,3,odd,55151,206408,NA,311036,281782,2673,274573,NA,312142,195665,2705,NA,312258,312631,312131,312258,Flanker Task,130,66351,140,yes,1024
92.90780142,92.90780142,473.2056738,473.2056738,black,legacy,legacy,legacy,0,congruent,uniform,1,undefined,1,h,0,0,0,140,140,0,140,0,140,0,0,0,140,140,140,140,Thu Sep 19 21:13:52 2019,600,The main experiment item,yes,CB-FlankerTask-Lab1.2.osexp,/Users/cristianbotello/Desktop/Advanced Quant,no,mono,no,18,no,white,no,no,768,legacy,60,79,/Users/cristianbotello/Desktop/Advanced Quant/CB-subject-3.csv,legacy,Kafkaesque Koffka,3.2.8,0,h,NA,s,s,NA,h,371,NA,10727,52436,NA,371,2,legacy,1024,2,48000,-16,experiment,HHHHH,3,odd,55151,206408,NA,312658,281782,2673,274573,NA,313778,195665,2705,NA,313893,314267,313765,313893,Flanker Task,131,66722,141,yes,1024
92.25352113,92.25352113,473.4225352,473.4225352,black,legacy,legacy,legacy,0,incongruent,uniform,0,undefined,0,h,0,0,0,141,141,0,141,0,141,0,0,0,141,141,141,141,Thu Sep 19 21:13:52 2019,600,The main experiment item,yes,CB-FlankerTask-Lab1.2.osexp,/Users/cristianbotello/Desktop/Advanced Quant,no,mono,no,18,no,white,no,no,768,legacy,61,79,/Users/cristianbotello/Desktop/Advanced Quant/CB-subject-3.csv,legacy,Kafkaesque Koffka,3.2.8,0,s,NA,s,s,NA,s,504,NA,10727,52436,NA,504,2,legacy,1024,2,48000,-16,experiment,SSHSS,3,odd,55151,206408,NA,314281,281782,2673,274573,NA,315381,195665,2705,NA,315496,316003,315369,315496,Flanker Task,131,67226,142,yes,1024
92.30769231,92.30769231,472.986014,472.986014,black,legacy,legacy,legacy,0,congruent,uniform,1,undefined,1,h,0,0,0,142,142,0,142,0,142,0,0,0,142,142,142,142,Thu Sep 19 21:13:52 2019,600,The main experiment item,yes,CB-FlankerTask-Lab1.2.osexp,/Users/cristianbotello/Desktop/Advanced Quant,no,mono,no,18,no,white,no,no,768,legacy,62,79,/Users/cristianbotello/Desktop/Advanced Quant/CB-subject-3.csv,legacy,Kafkaesque Koffka,3.2.8,0,h,NA,s,s,NA,h,411,NA,10727,52436,NA,411,2,legacy,1024,2,48000,-16,experiment,HHHHH,3,odd,55151,206408,NA,316533,316020,2673,274573,NA,317632,195665,2705,NA,317747,318164,317621,317747,Flanker Task,132,67637,143,yes,1024
92.36111111,92.36111111,473,473,black,legacy,legacy,legacy,0,congruent,uniform,1,undefined,1,s,0,0,0,143,143,0,143,0,143,0,0,0,143,143,143,143,Thu Sep 19 21:13:52 2019,600,The main experiment item,yes,CB-FlankerTask-Lab1.2.osexp,/Users/cristianbotello/Desktop/Advanced Quant,no,mono,no,18,no,white,no,no,768,legacy,63,79,/Users/cristianbotello/Desktop/Advanced Quant/CB-subject-3.csv,legacy,Kafkaesque Koffka,3.2.8,0,s,NA,s,s,NA,s,475,NA,10727,52436,NA,475,2,legacy,1024,2,48000,-16,experiment,SSSSS,3,odd,55151,206408,NA,318185,316020,2673,274573,NA,319308,195665,2705,NA,319423,319901,319297,319423,Flanker Task,133,68112,144,yes,1024
92.4137931,92.4137931,472.5862069,472.5862069,black,legacy,legacy,legacy,0,congruent,uniform,1,undefined,1,h,0,0,0,144,144,0,144,0,144,0,0,0,144,144,144,144,Thu Sep 19 21:13:52 2019,600,The main experiment item,yes,CB-FlankerTask-Lab1.2.osexp,/Users/cristianbotello/Desktop/Advanced Quant,no,mono,no,18,no,white,no,no,768,legacy,64,79,/Users/cristianbotello/Desktop/Advanced Quant/CB-subject-3.csv,legacy,Kafkaesque Koffka,3.2.8,0,h,NA,s,s,NA,h,413,NA,10727,52436,NA,413,2,legacy,1024,2,48000,-16,experiment,HHHHH,3,odd,55151,206408,NA,319915,316020,2673,274573,NA,321013,195665,2705,NA,321129,321546,321002,321128,Flanker Task,134,68525,145,yes,1024
92.46575342,92.46575342,471.630137,471.630137,black,legacy,legacy,legacy,0,incongruent,uniform,1,undefined,1,h,0,0,0,145,145,0,145,0,145,0,0,0,145,145,145,145,Thu Sep 19 21:13:52 2019,600,The main experiment item,yes,CB-FlankerTask-Lab1.2.osexp,/Users/cristianbotello/Desktop/Advanced Quant,no,mono,no,18,no,white,no,no,768,legacy,65,79,/Users/cristianbotello/Desktop/Advanced Quant/CB-subject-3.csv,legacy,Kafkaesque Koffka,3.2.8,0,h,NA,s,s,NA,h,333,NA,10727,52436,NA,333,2,legacy,1024,2,48000,-16,experiment,SSHSS,3,odd,55151,206408,NA,321562,316020,2673,274573,NA,322684,195665,2705,NA,322799,323135,322673,322799,Flanker Task,135,68858,146,yes,1024
92.5170068,92.5170068,471.6326531,471.6326531,black,legacy,legacy,legacy,0,incongruent,uniform,1,undefined,1,h,0,0,0,146,146,0,146,0,146,0,0,0,146,146,146,146,Thu Sep 19 21:13:52 2019,600,The main experiment item,yes,CB-FlankerTask-Lab1.2.osexp,/Users/cristianbotello/Desktop/Advanced Quant,no,mono,no,18,no,white,no,no,768,legacy,66,79,/Users/cristianbotello/Desktop/Advanced Quant/CB-subject-3.csv,legacy,Kafkaesque Koffka,3.2.8,0,h,NA,s,s,NA,h,472,NA,10727,52436,NA,472,2,legacy,1024,2,48000,-16,experiment,SSHSS,3,odd,55151,206408,NA,323149,316020,2673,274573,NA,324249,195665,2705,NA,324364,324840,324237,324364,Flanker Task,136,69330,147,yes,1024
92.56756757,92.56756757,471.6756757,471.6756757,black,legacy,legacy,legacy,0,incongruent,uniform,1,undefined,1,h,0,0,0,147,147,0,147,0,147,0,0,0,147,147,147,147,Thu Sep 19 21:13:52 2019,600,The main experiment item,yes,CB-FlankerTask-Lab1.2.osexp,/Users/cristianbotello/Desktop/Advanced Quant,no,mono,no,18,no,white,no,no,768,legacy,67,79,/Users/cristianbotello/Desktop/Advanced Quant/CB-subject-3.csv,legacy,Kafkaesque Koffka,3.2.8,0,h,NA,s,s,NA,h,478,NA,10727,52436,NA,478,2,legacy,1024,2,48000,-16,experiment,SSHSS,3,odd,55151,206408,NA,324857,316020,2673,274573,NA,325979,195665,2705,NA,326094,326576,325967,326094,Flanker Task,137,69808,148,yes,1024
92.61744966,92.61744966,471.852349,471.852349,black,legacy,legacy,legacy,0,incongruent,uniform,1,undefined,1,s,0,0,0,148,148,0,148,0,148,0,0,0,148,148,148,148,Thu Sep 19 21:13:52 2019,600,The main experiment item,yes,CB-FlankerTask-Lab1.2.osexp,/Users/cristianbotello/Desktop/Advanced Quant,no,mono,no,18,no,white,no,no,768,legacy,68,79,/Users/cristianbotello/Desktop/Advanced Quant/CB-subject-3.csv,legacy,Kafkaesque Koffka,3.2.8,0,s,NA,s,s,NA,s,498,NA,10727,52436,NA,498,2,legacy,1024,2,48000,-16,experiment,HHSHH,3,odd,55151,206408,NA,326593,316020,2673,274573,NA,327693,195665,2705,NA,327807,328310,327681,327807,Flanker Task,138,70306,149,yes,1024
92.66666667,92.66666667,471.9733333,471.9733333,black,legacy,legacy,legacy,0,congruent,uniform,1,undefined,1,s,0,0,0,149,149,0,149,0,149,0,0,0,149,149,149,149,Thu Sep 19 21:13:52 2019,600,The main experiment item,yes,CB-FlankerTask-Lab1.2.osexp,/Users/cristianbotello/Desktop/Advanced Quant,no,mono,no,18,no,white,no,no,768,legacy,69,79,/Users/cristianbotello/Desktop/Advanced Quant/CB-subject-3.csv,legacy,Kafkaesque Koffka,3.2.8,0,s,NA,s,s,NA,s,490,NA,10727,52436,NA,490,2,legacy,1024,2,48000,-16,experiment,SSSSS,3,odd,55151,206408,NA,328326,316020,2673,274573,NA,329442,195665,2705,NA,329557,330051,329431,329557,Flanker Task,139,70796,150,yes,1024
92.71523179,92.71523179,473.4635762,473.4635762,black,legacy,legacy,legacy,0,incongruent,uniform,1,undefined,1,h,0,0,0,150,150,0,150,0,150,0,0,0,150,150,150,150,Thu Sep 19 21:13:52 2019,600,The main experiment item,yes,CB-FlankerTask-Lab1.2.osexp,/Users/cristianbotello/Desktop/Advanced Quant,no,mono,no,18,no,white,no,no,768,legacy,70,79,/Users/cristianbotello/Desktop/Advanced Quant/CB-subject-3.csv,legacy,Kafkaesque Koffka,3.2.8,0,h,NA,s,s,NA,h,697,NA,10727,52436,NA,697,2,legacy,1024,2,48000,-16,experiment,SSHSS,3,odd,55151,206408,NA,330065,316020,2673,274573,NA,331165,195665,2705,NA,331279,331980,331154,331279,Flanker Task,140,71493,151,yes,1024
92.76315789,92.76315789,473.2631579,473.2631579,black,legacy,legacy,legacy,0,incongruent,uniform,1,undefined,1,h,0,0,0,151,151,0,151,0,151,0,0,0,151,151,151,151,Thu Sep 19 21:13:52 2019,600,The main experiment item,yes,CB-FlankerTask-Lab1.2.osexp,/Users/cristianbotello/Desktop/Advanced Quant,no,mono,no,18,no,white,no,no,768,legacy,71,79,/Users/cristianbotello/Desktop/Advanced Quant/CB-subject-3.csv,legacy,Kafkaesque Koffka,3.2.8,0,h,NA,s,s,NA,h,443,NA,10727,52436,NA,443,2,legacy,1024,2,48000,-16,experiment,SSHSS,3,odd,55151,206408,NA,332517,316020,2673,332003,NA,333616,195665,2705,NA,333731,334178,333605,333731,Flanker Task,141,71936,152,yes,1024
92.81045752,92.81045752,472.5555556,472.5555556,black,legacy,legacy,legacy,0,congruent,uniform,1,undefined,1,h,0,0,0,152,152,0,152,0,152,0,0,0,152,152,152,152,Thu Sep 19 21:13:52 2019,600,The main experiment item,yes,CB-FlankerTask-Lab1.2.osexp,/Users/cristianbotello/Desktop/Advanced Quant,no,mono,no,18,no,white,no,no,768,legacy,72,79,/Users/cristianbotello/Desktop/Advanced Quant/CB-subject-3.csv,legacy,Kafkaesque Koffka,3.2.8,0,h,NA,s,s,NA,h,365,NA,10727,52436,NA,365,2,legacy,1024,2,48000,-16,experiment,HHHHH,3,odd,55151,206408,NA,334198,316020,2673,332003,NA,335316,195665,2705,NA,335431,335799,335305,335430,Flanker Task,142,72301,153,yes,1024
92.85714286,92.85714286,472.9285714,472.9285714,black,legacy,legacy,legacy,0,incongruent,uniform,1,undefined,1,s,0,0,0,153,153,0,153,0,153,0,0,0,153,153,153,153,Thu Sep 19 21:13:52 2019,600,The main experiment item,yes,CB-FlankerTask-Lab1.2.osexp,/Users/cristianbotello/Desktop/Advanced Quant,no,mono,no,18,no,white,no,no,768,legacy,73,79,/Users/cristianbotello/Desktop/Advanced Quant/CB-subject-3.csv,legacy,Kafkaesque Koffka,3.2.8,0,s,NA,s,s,NA,s,530,NA,10727,52436,NA,530,2,legacy,1024,2,48000,-16,experiment,HHSHH,3,odd,55151,206408,NA,335814,316020,2673,332003,NA,336914,195665,2705,NA,337030,337563,336903,337030,Flanker Task,143,72831,154,yes,1024
92.90322581,92.90322581,472.8516129,472.8516129,black,legacy,legacy,legacy,0,incongruent,uniform,1,undefined,1,h,0,0,0,154,154,0,154,0,154,0,0,0,154,154,154,154,Thu Sep 19 21:13:52 2019,600,The main experiment item,yes,CB-FlankerTask-Lab1.2.osexp,/Users/cristianbotello/Desktop/Advanced Quant,no,mono,no,18,no,white,no,no,768,legacy,74,79,/Users/cristianbotello/Desktop/Advanced Quant/CB-subject-3.csv,legacy,Kafkaesque Koffka,3.2.8,0,h,NA,s,s,NA,h,461,NA,10727,52436,NA,461,2,legacy,1024,2,48000,-16,experiment,SSHSS,3,odd,55151,206408,NA,337590,316020,2673,332003,NA,338711,195665,2705,NA,338826,339290,338699,338826,Flanker Task,144,73292,155,yes,1024
