acc,accuracy,average_response_time,avg_rt,background,canvas_backend,clock_backend,color_backend,compensation,condition,coordinates,correct,correct_Instructions1,correct_new_keyboard_response,correct_response,count_Block1,count_Block2,count_Block3,count_ErrorFeedback,count_Faster,count_Finish,count_Fixation,count_ISI,count_Instructions1,count_Instructions2,count_Instructions3,count_Stimulus,count_experiment,count_new_keyboard_response,count_new_logger,count_new_sequence,datetime,deadline,description,disable_garbage_collection,experiment_file,experiment_path,font_bold,font_family,font_italic,font_size,font_underline,foreground,form_clicks,fullscreen,height,keyboard_backend,live_row,live_row_Block1,logfile,mouse_backend,opensesame_codename,opensesame_version,repeat_cycle,response,response_Finish,response_Instructions1,response_Instructions2,response_Instructions3,response_new_keyboard_response,response_time,response_time_Finish,response_time_Instructions1,response_time_Instructions2,response_time_Instructions3,response_time_new_keyboard_response,round_decimals,sampler_backend,sound_buf_size,sound_channels,sound_freq,sound_sample_size,start,stimulus,subject_nr,subject_parity,time_Block1,time_Block2,time_Block3,time_ErrorFeedback,time_Faster,time_Finish,time_Fixation,time_ISI,time_Instructions1,time_Instructions2,time_Instructions3,time_Stimulus,time_experiment,time_new_keyboard_response,time_new_logger,time_new_sequence,title,total_correct,total_response_time,total_responses,uniform_coordinates,width
100,100,556,556,black,xpyriment,legacy,legacy,0,Congruent,uniform,1,undefined,1,h,0,0,0,0,0,0,0,0,0,0,0,0,0,0,0,0,9/25/19 9:42,1500,The main experiment item,yes,FlankerTask.osexp,C:\Users\hosan\Desktop,no,mono,no,18,no,white,no,yes,768,legacy,0,0,C:/Users/hosan/Desktop/TB_subject-03.csv,xpyriment,Kafkaesque Koffka,3.2.8,0,h,NA,s,NA,NA,h,556,NA,15174,NA,NA,556,2,legacy,1024,2,48000,-16,experiment,HHHHH,3,odd,17970,NA,NA,NA,NA,NA,19020,NA,2795,NA,NA,19126,2773,19126,19682,18996,Flanker Task ,1,556,1,yes,1024
100,100,470.5,470.5,black,xpyriment,legacy,legacy,0,Congruent,uniform,1,undefined,1,s,0,0,0,1,1,0,1,1,0,0,0,1,0,1,1,1,9/25/19 9:42,1500,The main experiment item,yes,FlankerTask.osexp,C:\Users\hosan\Desktop,no,mono,no,18,no,white,no,yes,768,legacy,1,1,C:/Users/hosan/Desktop/TB_subject-03.csv,xpyriment,Kafkaesque Koffka,3.2.8,0,s,NA,s,NA,NA,s,385,NA,15174,NA,NA,385,2,legacy,1024,2,48000,-16,experiment,SSSSS,3,odd,17970,NA,NA,NA,NA,NA,21612,19764,2795,NA,NA,21719,2773,21719,22105,21589,Flanker Task ,2,941,2,yes,1024
100,100,474.3333333,474.3333333,black,xpyriment,legacy,legacy,0,Incongruent,uniform,1,undefined,1,h,0,0,0,2,2,0,2,2,0,0,0,2,0,2,2,2,9/25/19 9:42,1500,The main experiment item,yes,FlankerTask.osexp,C:\Users\hosan\Desktop,no,mono,no,18,no,white,no,yes,768,legacy,2,2,C:/Users/hosan/Desktop/TB_subject-03.csv,xpyriment,Kafkaesque Koffka,3.2.8,0,h,NA,s,NA,NA,h,482,NA,15174,NA,NA,482,2,legacy,1024,2,48000,-16,experiment,SSHSS,3,odd,17970,NA,NA,NA,NA,NA,24177,22209,2795,NA,NA,24284,2773,24284,24766,24154,Flanker Task ,3,1423,3,yes,1024
75,75,435.5,435.5,black,xpyriment,legacy,legacy,0,Incongruent,uniform,0,undefined,0,h,0,0,0,3,3,0,3,3,0,0,0,3,0,3,3,3,9/25/19 9:42,1500,The main experiment item,yes,FlankerTask.osexp,C:\Users\hosan\Desktop,no,mono,no,18,no,white,no,yes,768,legacy,3,3,C:/Users/hosan/Desktop/TB_subject-03.csv,xpyriment,Kafkaesque Koffka,3.2.8,0,s,NA,s,NA,NA,s,319,NA,15174,NA,NA,319,2,legacy,1024,2,48000,-16,experiment,SSHSS,3,odd,17970,NA,NA,NA,NA,NA,26720,24849,2795,NA,NA,26824,2773,26825,27145,26697,Flanker Task ,3,1742,4,yes,1024
80,80,434.2,434.2,black,xpyriment,legacy,legacy,0,Congruent,uniform,1,undefined,1,h,0,0,0,4,4,0,4,4,0,0,0,4,0,4,4,4,9/25/19 9:42,1500,The main experiment item,yes,FlankerTask.osexp,C:\Users\hosan\Desktop,no,mono,no,18,no,white,no,yes,768,legacy,4,4,C:/Users/hosan/Desktop/TB_subject-03.csv,xpyriment,Kafkaesque Koffka,3.2.8,0,h,NA,s,NA,NA,h,429,NA,15174,NA,NA,429,2,legacy,1024,2,48000,-16,experiment,HHHHH,3,odd,17970,NA,NA,27181,NA,NA,29570,27689,2795,NA,NA,29676,2773,29676,30105,29547,Flanker Task ,4,2171,5,yes,1024
83.33333333,83.33333333,445.3333333,445.3333333,black,xpyriment,legacy,legacy,0,Congruent,uniform,1,undefined,1,s,0,0,0,5,5,0,5,5,0,0,0,5,0,5,5,5,9/25/19 9:42,1500,The main experiment item,yes,FlankerTask.osexp,C:\Users\hosan\Desktop,no,mono,no,18,no,white,no,yes,768,legacy,5,5,C:/Users/hosan/Desktop/TB_subject-03.csv,xpyriment,Kafkaesque Koffka,3.2.8,0,s,NA,s,NA,NA,s,501,NA,15174,NA,NA,501,2,legacy,1024,2,48000,-16,experiment,SSSSS,3,odd,17970,NA,NA,27181,NA,NA,32016,30148,2795,NA,NA,32122,2773,32123,32625,31990,Flanker Task ,5,2672,6,yes,1024
85.71428571,85.71428571,437.5714286,437.5714286,black,xpyriment,legacy,legacy,0,Congruent,uniform,1,undefined,1,s,0,0,0,6,6,0,6,6,0,0,0,6,0,6,6,6,9/25/19 9:42,1500,The main experiment item,yes,FlankerTask.osexp,C:\Users\hosan\Desktop,no,mono,no,18,no,white,no,yes,768,legacy,6,6,C:/Users/hosan/Desktop/TB_subject-03.csv,xpyriment,Kafkaesque Koffka,3.2.8,0,s,NA,s,NA,NA,s,391,NA,15174,NA,NA,391,2,legacy,1024,2,48000,-16,experiment,SSSSS,3,odd,17970,NA,NA,27181,NA,NA,34569,32688,2795,NA,NA,34675,2773,34675,35067,34546,Flanker Task ,6,3063,7,yes,1024
87.5,87.5,449.75,449.75,black,xpyriment,legacy,legacy,0,Incongruent,uniform,1,undefined,1,s,0,0,0,7,7,0,7,7,0,0,0,7,0,7,7,7,9/25/19 9:42,1500,The main experiment item,yes,FlankerTask.osexp,C:\Users\hosan\Desktop,no,mono,no,18,no,white,no,yes,768,legacy,7,7,C:/Users/hosan/Desktop/TB_subject-03.csv,xpyriment,Kafkaesque Koffka,3.2.8,0,s,NA,s,NA,NA,s,535,NA,15174,NA,NA,535,2,legacy,1024,2,48000,-16,experiment,HHSHH,3,odd,17970,NA,NA,27181,NA,NA,37043,35141,2795,NA,NA,37149,2773,37149,37685,37020,Flanker Task ,7,3598,8,yes,1024
88.88888889,88.88888889,450.7777778,450.7777778,black,xpyriment,legacy,legacy,0,Congruent,uniform,1,undefined,1,s,0,0,0,8,8,0,8,8,0,0,0,8,0,8,8,8,9/25/19 9:42,1500,The main experiment item,yes,FlankerTask.osexp,C:\Users\hosan\Desktop,no,mono,no,18,no,white,no,yes,768,legacy,8,8,C:/Users/hosan/Desktop/TB_subject-03.csv,xpyriment,Kafkaesque Koffka,3.2.8,0,s,NA,s,NA,NA,s,459,NA,15174,NA,NA,459,2,legacy,1024,2,48000,-16,experiment,SSSSS,3,odd,17970,NA,NA,27181,NA,NA,39723,37763,2795,NA,NA,39829,2773,39829,40288,39700,Flanker Task ,8,4057,9,yes,1024
90,90,445.1,445.1,black,xpyriment,legacy,legacy,0,Incongruent,uniform,1,undefined,1,s,0,0,0,9,9,0,9,9,0,0,0,9,0,9,9,9,9/25/19 9:42,1500,The main experiment item,yes,FlankerTask.osexp,C:\Users\hosan\Desktop,no,mono,no,18,no,white,no,yes,768,legacy,9,9,C:/Users/hosan/Desktop/TB_subject-03.csv,xpyriment,Kafkaesque Koffka,3.2.8,0,s,NA,s,NA,NA,s,394,NA,15174,NA,NA,394,2,legacy,1024,2,48000,-16,experiment,HHSHH,3,odd,17970,NA,NA,27181,NA,NA,42296,40367,2795,NA,NA,42401,2773,42402,42797,42273,Flanker Task ,9,4451,10,yes,1024
90.90909091,90.90909091,442.5454545,442.5454545,black,xpyriment,legacy,legacy,0,Congruent,uniform,1,undefined,1,h,0,0,0,10,10,0,10,10,0,0,0,10,0,10,10,10,9/25/19 9:42,1500,The main experiment item,yes,FlankerTask.osexp,C:\Users\hosan\Desktop,no,mono,no,18,no,white,no,yes,768,legacy,10,10,C:/Users/hosan/Desktop/TB_subject-03.csv,xpyriment,Kafkaesque Koffka,3.2.8,0,h,NA,s,NA,NA,h,417,NA,15174,NA,NA,417,2,legacy,1024,2,48000,-16,experiment,HHHHH,3,odd,17970,NA,NA,27181,NA,NA,44694,42836,2795,NA,NA,44800,2773,44800,45218,44670,Flanker Task ,10,4868,11,yes,1024
91.66666667,91.66666667,445.25,445.25,black,xpyriment,legacy,legacy,0,Incongruent,uniform,1,undefined,1,s,0,0,0,11,11,0,11,11,0,0,0,11,0,11,11,11,9/25/19 9:42,1500,The main experiment item,yes,FlankerTask.osexp,C:\Users\hosan\Desktop,no,mono,no,18,no,white,no,yes,768,legacy,11,11,C:/Users/hosan/Desktop/TB_subject-03.csv,xpyriment,Kafkaesque Koffka,3.2.8,0,s,NA,s,NA,NA,s,475,NA,15174,NA,NA,475,2,legacy,1024,2,48000,-16,experiment,HHSHH,3,odd,17970,NA,NA,27181,NA,NA,47223,45247,2795,NA,NA,47329,2773,47329,47805,47200,Flanker Task ,11,5343,12,yes,1024
92.30769231,92.30769231,440.5384615,440.5384615,black,xpyriment,legacy,legacy,0,Congruent,uniform,1,undefined,1,s,0,0,0,12,12,0,12,12,0,0,0,12,0,12,12,12,9/25/19 9:42,1500,The main experiment item,yes,FlankerTask.osexp,C:\Users\hosan\Desktop,no,mono,no,18,no,white,no,yes,768,legacy,12,12,C:/Users/hosan/Desktop/TB_subject-03.csv,xpyriment,Kafkaesque Koffka,3.2.8,0,s,NA,s,NA,NA,s,384,NA,15174,NA,NA,384,2,legacy,1024,2,48000,-16,experiment,SSSSS,3,odd,17970,NA,NA,27181,NA,NA,49809,47874,2795,NA,NA,49915,2773,49916,50301,49786,Flanker Task ,12,5727,13,yes,1024
92.85714286,92.85714286,435.5714286,435.5714286,black,xpyriment,legacy,legacy,0,Congruent,uniform,1,undefined,1,s,0,0,0,13,13,0,13,13,0,0,0,13,0,13,13,13,9/25/19 9:42,1500,The main experiment item,yes,FlankerTask.osexp,C:\Users\hosan\Desktop,no,mono,no,18,no,white,no,yes,768,legacy,13,13,C:/Users/hosan/Desktop/TB_subject-03.csv,xpyriment,Kafkaesque Koffka,3.2.8,0,s,NA,s,NA,NA,s,371,NA,15174,NA,NA,371,2,legacy,1024,2,48000,-16,experiment,SSSSS,3,odd,17970,NA,NA,27181,NA,NA,52348,50335,2795,NA,NA,52454,2773,52454,52826,52325,Flanker Task ,13,6098,14,yes,1024
93.33333333,93.33333333,437,437,black,xpyriment,legacy,legacy,0,Congruent,uniform,1,undefined,1,h,0,0,0,14,14,0,14,14,0,0,0,14,0,14,14,14,9/25/19 9:42,1500,The main experiment item,yes,FlankerTask.osexp,C:\Users\hosan\Desktop,no,mono,no,18,no,white,no,yes,768,legacy,14,14,C:/Users/hosan/Desktop/TB_subject-03.csv,xpyriment,Kafkaesque Koffka,3.2.8,0,h,NA,s,NA,NA,h,457,NA,15174,NA,NA,457,2,legacy,1024,2,48000,-16,experiment,HHHHH,3,odd,17970,NA,NA,27181,NA,NA,54773,52896,2795,NA,NA,54880,2773,54880,55337,54750,Flanker Task ,14,6555,15,yes,1024
93.75,93.75,451.9375,451.9375,black,xpyriment,legacy,legacy,0,Incongruent,uniform,1,undefined,1,h,0,0,0,15,15,0,15,15,0,0,0,15,0,15,15,15,9/25/19 9:42,1500,The main experiment item,yes,FlankerTask.osexp,C:\Users\hosan\Desktop,no,mono,no,18,no,white,no,yes,768,legacy,15,15,C:/Users/hosan/Desktop/TB_subject-03.csv,xpyriment,Kafkaesque Koffka,3.2.8,0,h,NA,s,NA,NA,h,676,NA,15174,NA,NA,676,2,legacy,1024,2,48000,-16,experiment,SSHSS,3,odd,17970,NA,NA,27181,NA,NA,57353,55423,2795,NA,NA,57458,2773,57459,58136,57329,Flanker Task ,15,7231,16,yes,1024
94.11764706,94.11764706,454.5882353,454.5882353,black,xpyriment,legacy,legacy,0,Incongruent,uniform,1,undefined,1,h,0,0,0,16,16,0,16,16,0,0,0,16,0,16,16,16,9/25/19 9:42,1500,The main experiment item,yes,FlankerTask.osexp,C:\Users\hosan\Desktop,no,mono,no,18,no,white,no,yes,768,legacy,16,16,C:/Users/hosan/Desktop/TB_subject-03.csv,xpyriment,Kafkaesque Koffka,3.2.8,0,h,NA,s,NA,NA,h,497,NA,15174,NA,NA,497,2,legacy,1024,2,48000,-16,experiment,SSHSS,3,odd,17970,NA,NA,27181,NA,NA,60082,58214,2795,NA,NA,60189,2773,60190,60688,60059,Flanker Task ,16,7728,17,yes,1024
94.44444444,94.44444444,458.1666667,458.1666667,black,xpyriment,legacy,legacy,0,Incongruent,uniform,1,undefined,1,s,0,0,0,17,17,0,17,17,0,0,0,17,0,17,17,17,9/25/19 9:42,1500,The main experiment item,yes,FlankerTask.osexp,C:\Users\hosan\Desktop,no,mono,no,18,no,white,no,yes,768,legacy,17,17,C:/Users/hosan/Desktop/TB_subject-03.csv,xpyriment,Kafkaesque Koffka,3.2.8,0,s,NA,s,NA,NA,s,519,NA,15174,NA,NA,519,2,legacy,1024,2,48000,-16,experiment,HHSHH,3,odd,17970,NA,NA,27181,NA,NA,62650,60770,2795,NA,NA,62757,2773,62757,63277,62627,Flanker Task ,17,8247,18,yes,1024
94.73684211,94.73684211,454.7894737,454.7894737,black,xpyriment,legacy,legacy,0,Congruent,uniform,1,undefined,1,h,0,0,0,18,18,0,18,18,0,0,0,18,0,18,18,18,9/25/19 9:42,1500,The main experiment item,yes,FlankerTask.osexp,C:\Users\hosan\Desktop,no,mono,no,18,no,white,no,yes,768,legacy,18,18,C:/Users/hosan/Desktop/TB_subject-03.csv,xpyriment,Kafkaesque Koffka,3.2.8,0,h,NA,s,NA,NA,h,394,NA,15174,NA,NA,394,2,legacy,1024,2,48000,-16,experiment,HHHHH,3,odd,17970,NA,NA,27181,NA,NA,65292,63302,2795,NA,NA,65399,2773,65399,65794,65269,Flanker Task ,18,8641,19,yes,1024
95,95,457,457,black,xpyriment,legacy,legacy,0,Incongruent,uniform,1,undefined,1,h,0,0,0,19,19,0,19,19,0,0,0,19,0,19,19,19,9/25/19 9:42,1500,The main experiment item,yes,FlankerTask.osexp,C:\Users\hosan\Desktop,no,mono,no,18,no,white,no,yes,768,legacy,19,19,C:/Users/hosan/Desktop/TB_subject-03.csv,xpyriment,Kafkaesque Koffka,3.2.8,0,h,NA,s,NA,NA,h,499,NA,15174,NA,NA,499,2,legacy,1024,2,48000,-16,experiment,SSHSS,3,odd,17970,NA,NA,27181,NA,NA,67834,65826,2795,NA,NA,67940,2773,67941,68441,67811,Flanker Task ,19,9140,20,yes,1024
95.23809524,95.23809524,453.9047619,453.9047619,black,xpyriment,legacy,legacy,0,Incongruent,uniform,1,undefined,1,h,0,0,0,20,20,0,20,20,0,0,0,20,0,20,20,20,9/25/19 9:42,1500,The main experiment item,yes,FlankerTask.osexp,C:\Users\hosan\Desktop,no,mono,no,18,no,white,no,yes,768,legacy,20,20,C:/Users/hosan/Desktop/TB_subject-03.csv,xpyriment,Kafkaesque Koffka,3.2.8,0,h,NA,s,NA,NA,h,392,NA,15174,NA,NA,392,2,legacy,1024,2,48000,-16,experiment,SSHSS,3,odd,17970,NA,NA,27181,NA,NA,70441,68477,2795,NA,NA,70548,2773,70548,70942,70418,Flanker Task ,20,9532,21,yes,1024
95.45454545,95.45454545,450.8636364,450.8636364,black,xpyriment,legacy,legacy,0,Incongruent,uniform,1,undefined,1,h,0,0,0,21,21,0,21,21,0,0,0,21,0,21,21,21,9/25/19 9:42,1500,The main experiment item,yes,FlankerTask.osexp,C:\Users\hosan\Desktop,no,mono,no,18,no,white,no,yes,768,legacy,21,21,C:/Users/hosan/Desktop/TB_subject-03.csv,xpyriment,Kafkaesque Koffka,3.2.8,0,h,NA,s,NA,NA,h,387,NA,15174,NA,NA,387,2,legacy,1024,2,48000,-16,experiment,SSHSS,3,odd,17970,NA,NA,27181,NA,NA,72926,71031,2795,NA,NA,73033,2773,73033,73420,72903,Flanker Task ,21,9919,22,yes,1024
95.65217391,95.65217391,451.6956522,451.6956522,black,xpyriment,legacy,legacy,0,Congruent,uniform,1,undefined,1,s,0,0,0,22,22,0,22,22,0,0,0,22,0,22,22,22,9/25/19 9:42,1500,The main experiment item,yes,FlankerTask.osexp,C:\Users\hosan\Desktop,no,mono,no,18,no,white,no,yes,768,legacy,22,22,C:/Users/hosan/Desktop/TB_subject-03.csv,xpyriment,Kafkaesque Koffka,3.2.8,0,s,NA,s,NA,NA,s,470,NA,15174,NA,NA,470,2,legacy,1024,2,48000,-16,experiment,SSSSS,3,odd,17970,NA,NA,27181,NA,NA,75357,73447,2795,NA,NA,75463,2773,75463,75934,75334,Flanker Task ,22,10389,23,yes,1024
95.83333333,95.83333333,450.875,450.875,black,xpyriment,legacy,legacy,0,Congruent,uniform,1,undefined,1,s,0,0,0,23,23,0,23,23,0,0,0,23,0,23,23,23,9/25/19 9:42,1500,The main experiment item,yes,FlankerTask.osexp,C:\Users\hosan\Desktop,no,mono,no,18,no,white,no,yes,768,legacy,23,23,C:/Users/hosan/Desktop/TB_subject-03.csv,xpyriment,Kafkaesque Koffka,3.2.8,0,s,NA,s,NA,NA,s,432,NA,15174,NA,NA,432,2,legacy,1024,2,48000,-16,experiment,SSSSS,3,odd,17970,NA,NA,27181,NA,NA,77875,76005,2795,NA,NA,77981,2773,77982,78415,77851,Flanker Task ,23,10821,24,yes,1024
96,96,458.76,458.76,black,xpyriment,legacy,legacy,0,Congruent,uniform,1,undefined,1,s,0,0,0,24,24,0,24,24,0,0,0,24,0,24,24,24,9/25/19 9:42,1500,The main experiment item,yes,FlankerTask.osexp,C:\Users\hosan\Desktop,no,mono,no,18,no,white,no,yes,768,legacy,24,24,C:/Users/hosan/Desktop/TB_subject-03.csv,xpyriment,Kafkaesque Koffka,3.2.8,0,s,NA,s,NA,NA,s,648,NA,15174,NA,NA,648,2,legacy,1024,2,48000,-16,experiment,SSSSS,3,odd,17970,NA,NA,27181,NA,NA,80513,78452,2795,NA,NA,80619,2773,80619,81269,80489,Flanker Task ,24,11469,25,yes,1024
96.15384615,96.15384615,454.4230769,454.4230769,black,xpyriment,legacy,legacy,0,Congruent,uniform,1,undefined,1,s,0,0,0,25,25,0,25,25,0,0,0,25,0,25,25,25,9/25/19 9:42,1500,The main experiment item,yes,FlankerTask.osexp,C:\Users\hosan\Desktop,no,mono,no,18,no,white,no,yes,768,legacy,25,25,C:/Users/hosan/Desktop/TB_subject-03.csv,xpyriment,Kafkaesque Koffka,3.2.8,0,s,NA,s,NA,NA,s,346,NA,15174,NA,NA,346,2,legacy,1024,2,48000,-16,experiment,SSSSS,3,odd,17970,NA,NA,27181,NA,NA,83245,81342,2795,NA,NA,83352,2773,83352,83699,83222,Flanker Task ,25,11815,26,yes,1024
92.59259259,92.59259259,447.962963,447.962963,black,xpyriment,legacy,legacy,0,Incongruent,uniform,0,undefined,0,h,0,0,0,26,26,0,26,26,0,0,0,26,0,26,26,26,9/25/19 9:42,1500,The main experiment item,yes,FlankerTask.osexp,C:\Users\hosan\Desktop,no,mono,no,18,no,white,no,yes,768,legacy,26,26,C:/Users/hosan/Desktop/TB_subject-03.csv,xpyriment,Kafkaesque Koffka,3.2.8,0,s,NA,s,NA,NA,s,280,NA,15174,NA,NA,280,2,legacy,1024,2,48000,-16,experiment,SSHSS,3,odd,17970,NA,NA,27181,NA,NA,85752,83766,2795,NA,NA,85858,2773,85858,86139,85729,Flanker Task ,25,12095,27,yes,1024
92.85714286,92.85714286,444.7857143,444.7857143,black,xpyriment,legacy,legacy,0,Congruent,uniform,1,undefined,1,h,0,0,0,27,27,0,27,27,0,0,0,27,0,27,27,27,9/25/19 9:42,1500,The main experiment item,yes,FlankerTask.osexp,C:\Users\hosan\Desktop,no,mono,no,18,no,white,no,yes,768,legacy,27,27,C:/Users/hosan/Desktop/TB_subject-03.csv,xpyriment,Kafkaesque Koffka,3.2.8,0,h,NA,s,NA,NA,h,359,NA,15174,NA,NA,359,2,legacy,1024,2,48000,-16,experiment,HHHHH,3,odd,17970,NA,NA,86167,NA,NA,88518,86674,2795,NA,NA,88624,2773,88624,88984,88495,Flanker Task ,26,12454,28,yes,1024
93.10344828,93.10344828,446.4137931,446.4137931,black,xpyriment,legacy,legacy,0,Incongruent,uniform,1,undefined,1,h,0,0,0,28,28,0,28,28,0,0,0,28,0,28,28,28,9/25/19 9:42,1500,The main experiment item,yes,FlankerTask.osexp,C:\Users\hosan\Desktop,no,mono,no,18,no,white,no,yes,768,legacy,28,28,C:/Users/hosan/Desktop/TB_subject-03.csv,xpyriment,Kafkaesque Koffka,3.2.8,0,h,NA,s,NA,NA,h,492,NA,15174,NA,NA,492,2,legacy,1024,2,48000,-16,experiment,SSHSS,3,odd,17970,NA,NA,86167,NA,NA,90909,89020,2795,NA,NA,91015,2773,91016,91509,90886,Flanker Task ,27,12946,29,yes,1024
93.33333333,93.33333333,449.9,449.9,black,xpyriment,legacy,legacy,0,Incongruent,uniform,1,undefined,1,s,0,0,0,29,29,0,29,29,0,0,0,29,0,29,29,29,9/25/19 9:42,1500,The main experiment item,yes,FlankerTask.osexp,C:\Users\hosan\Desktop,no,mono,no,18,no,white,no,yes,768,legacy,29,29,C:/Users/hosan/Desktop/TB_subject-03.csv,xpyriment,Kafkaesque Koffka,3.2.8,0,s,NA,s,NA,NA,s,551,NA,15174,NA,NA,551,2,legacy,1024,2,48000,-16,experiment,HHSHH,3,odd,17970,NA,NA,86167,NA,NA,93413,91566,2795,NA,NA,93519,2773,93519,94070,93391,Flanker Task ,28,13497,30,yes,1024
93.5483871,93.5483871,451.2258065,451.2258065,black,xpyriment,legacy,legacy,0,Incongruent,uniform,1,undefined,1,h,0,0,0,30,30,0,30,30,0,0,0,30,0,30,30,30,9/25/19 9:42,1500,The main experiment item,yes,FlankerTask.osexp,C:\Users\hosan\Desktop,no,mono,no,18,no,white,no,yes,768,legacy,30,30,C:/Users/hosan/Desktop/TB_subject-03.csv,xpyriment,Kafkaesque Koffka,3.2.8,0,h,NA,s,NA,NA,h,491,NA,15174,NA,NA,491,2,legacy,1024,2,48000,-16,experiment,SSHSS,3,odd,17970,NA,NA,86167,NA,NA,95974,94105,2795,NA,NA,96081,2773,96081,96574,95950,Flanker Task ,29,13988,31,yes,1024
93.75,93.75,452.78125,452.78125,black,xpyriment,legacy,legacy,0,Incongruent,uniform,1,undefined,1,h,0,0,0,31,31,0,31,31,0,0,0,31,0,31,31,31,9/25/19 9:42,1500,The main experiment item,yes,FlankerTask.osexp,C:\Users\hosan\Desktop,no,mono,no,18,no,white,no,yes,768,legacy,31,31,C:/Users/hosan/Desktop/TB_subject-03.csv,xpyriment,Kafkaesque Koffka,3.2.8,0,h,NA,s,NA,NA,h,501,NA,15174,NA,NA,501,2,legacy,1024,2,48000,-16,experiment,SSHSS,3,odd,17970,NA,NA,86167,NA,NA,98707,96653,2795,NA,NA,98813,2773,98813,99315,98684,Flanker Task ,30,14489,32,yes,1024
93.93939394,93.93939394,451,451,black,xpyriment,legacy,legacy,0,Congruent,uniform,1,undefined,1,h,0,0,0,32,32,0,32,32,0,0,0,32,0,32,32,32,9/25/19 9:42,1500,The main experiment item,yes,FlankerTask.osexp,C:\Users\hosan\Desktop,no,mono,no,18,no,white,no,yes,768,legacy,32,32,C:/Users/hosan/Desktop/TB_subject-03.csv,xpyriment,Kafkaesque Koffka,3.2.8,0,h,NA,s,NA,NA,h,394,NA,15174,NA,NA,394,2,legacy,1024,2,48000,-16,experiment,HHHHH,3,odd,17970,NA,NA,86167,NA,NA,101336,99409,2795,NA,NA,101443,2773,101443,101838,101313,Flanker Task ,31,14883,33,yes,1024
94.11764706,94.11764706,452.6176471,452.6176471,black,xpyriment,legacy,legacy,0,Congruent,uniform,1,undefined,1,s,0,0,0,33,33,0,33,33,0,0,0,33,0,33,33,33,9/25/19 9:42,1500,The main experiment item,yes,FlankerTask.osexp,C:\Users\hosan\Desktop,no,mono,no,18,no,white,no,yes,768,legacy,33,33,C:/Users/hosan/Desktop/TB_subject-03.csv,xpyriment,Kafkaesque Koffka,3.2.8,0,s,NA,s,NA,NA,s,506,NA,15174,NA,NA,506,2,legacy,1024,2,48000,-16,experiment,SSSSS,3,odd,17970,NA,NA,86167,NA,NA,103761,101888,2795,NA,NA,103868,2773,103869,104376,103739,Flanker Task ,32,15389,34,yes,1024
91.42857143,91.42857143,451.6857143,451.6857143,black,xpyriment,legacy,legacy,0,Incongruent,uniform,0,undefined,0,s,0,0,0,34,34,0,34,34,0,0,0,34,0,34,34,34,9/25/19 9:42,1500,The main experiment item,yes,FlankerTask.osexp,C:\Users\hosan\Desktop,no,mono,no,18,no,white,no,yes,768,legacy,34,34,C:/Users/hosan/Desktop/TB_subject-03.csv,xpyriment,Kafkaesque Koffka,3.2.8,0,h,NA,s,NA,NA,h,420,NA,15174,NA,NA,420,2,legacy,1024,2,48000,-16,experiment,HHSHH,3,odd,17970,NA,NA,86167,NA,NA,106467,104447,2795,NA,NA,106573,2773,106573,106994,106444,Flanker Task ,32,15809,35,yes,1024
91.66666667,91.66666667,449.5555556,449.5555556,black,xpyriment,legacy,legacy,0,Incongruent,uniform,1,undefined,1,h,0,0,0,35,35,0,35,35,0,0,0,35,0,35,35,35,9/25/19 9:42,1500,The main experiment item,yes,FlankerTask.osexp,C:\Users\hosan\Desktop,no,mono,no,18,no,white,no,yes,768,legacy,35,35,C:/Users/hosan/Desktop/TB_subject-03.csv,xpyriment,Kafkaesque Koffka,3.2.8,0,h,NA,s,NA,NA,h,375,NA,15174,NA,NA,375,2,legacy,1024,2,48000,-16,experiment,SSHSS,3,odd,17970,NA,NA,107029,NA,NA,109461,107535,2795,NA,NA,109566,2773,109567,109943,109438,Flanker Task ,33,16184,36,yes,1024
91.89189189,91.89189189,449.0540541,449.0540541,black,xpyriment,legacy,legacy,0,Congruent,uniform,1,undefined,1,h,0,0,0,36,36,0,36,36,0,0,0,36,0,36,36,36,9/25/19 9:42,1500,The main experiment item,yes,FlankerTask.osexp,C:\Users\hosan\Desktop,no,mono,no,18,no,white,no,yes,768,legacy,36,36,C:/Users/hosan/Desktop/TB_subject-03.csv,xpyriment,Kafkaesque Koffka,3.2.8,0,h,NA,s,NA,NA,h,431,NA,15174,NA,NA,431,2,legacy,1024,2,48000,-16,experiment,HHHHH,3,odd,17970,NA,NA,107029,NA,NA,111897,110012,2795,NA,NA,112002,2773,112003,112435,111874,Flanker Task ,34,16615,37,yes,1024
92.10526316,92.10526316,447.7368421,447.7368421,black,xpyriment,legacy,legacy,0,Congruent,uniform,1,undefined,1,h,0,0,0,37,37,0,37,37,0,0,0,37,0,37,37,37,9/25/19 9:42,1500,The main experiment item,yes,FlankerTask.osexp,C:\Users\hosan\Desktop,no,mono,no,18,no,white,no,yes,768,legacy,37,37,C:/Users/hosan/Desktop/TB_subject-03.csv,xpyriment,Kafkaesque Koffka,3.2.8,0,h,NA,s,NA,NA,h,399,NA,15174,NA,NA,399,2,legacy,1024,2,48000,-16,experiment,HHHHH,3,odd,17970,NA,NA,107029,NA,NA,114467,112499,2795,NA,NA,114574,2773,114574,114975,114444,Flanker Task ,35,17014,38,yes,1024
92.30769231,92.30769231,448.4615385,448.4615385,black,xpyriment,legacy,legacy,0,Congruent,uniform,1,undefined,1,s,0,0,0,38,38,0,38,38,0,0,0,38,0,38,38,38,9/25/19 9:42,1500,The main experiment item,yes,FlankerTask.osexp,C:\Users\hosan\Desktop,no,mono,no,18,no,white,no,yes,768,legacy,38,38,C:/Users/hosan/Desktop/TB_subject-03.csv,xpyriment,Kafkaesque Koffka,3.2.8,0,s,NA,s,NA,NA,s,476,NA,15174,NA,NA,476,2,legacy,1024,2,48000,-16,experiment,SSSSS,3,odd,17970,NA,NA,107029,NA,NA,116933,115073,2795,NA,NA,117039,2773,117039,117515,116909,Flanker Task ,36,17490,39,yes,1024
90,90,449.125,449.125,black,xpyriment,legacy,legacy,0,Incongruent,uniform,0,undefined,0,s,0,0,0,39,39,0,39,39,0,0,0,39,0,39,39,39,9/25/19 9:42,1500,The main experiment item,yes,FlankerTask.osexp,C:\Users\hosan\Desktop,no,mono,no,18,no,white,no,yes,768,legacy,39,39,C:/Users/hosan/Desktop/TB_subject-03.csv,xpyriment,Kafkaesque Koffka,3.2.8,0,h,NA,s,NA,NA,h,475,NA,15174,NA,NA,475,2,legacy,1024,2,48000,-16,experiment,HHSHH,3,odd,17970,NA,NA,107029,NA,NA,119656,117551,2795,NA,NA,119762,2773,119763,120239,119633,Flanker Task ,36,17965,40,yes,1024
90.24390244,90.24390244,450.6097561,450.6097561,black,xpyriment,legacy,legacy,0,Congruent,uniform,1,undefined,1,h,0,0,0,40,40,0,40,40,0,0,0,40,0,40,40,40,9/25/19 9:42,1500,The main experiment item,yes,FlankerTask.osexp,C:\Users\hosan\Desktop,no,mono,no,18,no,white,no,yes,768,legacy,40,40,C:/Users/hosan/Desktop/TB_subject-03.csv,xpyriment,Kafkaesque Koffka,3.2.8,0,h,NA,s,NA,NA,h,510,NA,15174,NA,NA,510,2,legacy,1024,2,48000,-16,experiment,HHHHH,3,odd,17970,NA,NA,120321,NA,NA,122697,120827,2795,NA,NA,122805,2773,122805,123316,122673,Flanker Task ,37,18475,41,yes,1024
90.47619048,90.47619048,457.5238095,457.5238095,black,xpyriment,legacy,legacy,0,Incongruent,uniform,1,undefined,1,h,0,0,0,41,41,0,41,41,0,0,0,41,0,41,41,41,9/25/19 9:42,1500,The main experiment item,yes,FlankerTask.osexp,C:\Users\hosan\Desktop,no,mono,no,18,no,white,no,yes,768,legacy,41,41,C:/Users/hosan/Desktop/TB_subject-03.csv,xpyriment,Kafkaesque Koffka,3.2.8,0,h,NA,s,NA,NA,h,741,NA,15174,NA,NA,741,2,legacy,1024,2,48000,-16,experiment,SSHSS,3,odd,17970,NA,NA,120321,NA,NA,125483,123363,2795,NA,NA,125589,2773,125590,126332,125461,Flanker Task ,38,19216,42,yes,1024
90.69767442,90.69767442,458.3255814,458.3255814,black,xpyriment,legacy,legacy,0,Incongruent,uniform,1,undefined,1,s,0,0,0,42,42,0,42,42,0,0,0,42,0,42,42,42,9/25/19 9:42,1500,The main experiment item,yes,FlankerTask.osexp,C:\Users\hosan\Desktop,no,mono,no,18,no,white,no,yes,768,legacy,42,42,C:/Users/hosan/Desktop/TB_subject-03.csv,xpyriment,Kafkaesque Koffka,3.2.8,0,s,NA,s,NA,NA,s,492,NA,15174,NA,NA,492,2,legacy,1024,2,48000,-16,experiment,HHSHH,3,odd,17970,NA,NA,120321,NA,NA,128287,126397,2795,NA,NA,128394,2773,128394,128887,128264,Flanker Task ,39,19708,43,yes,1024
90.90909091,90.90909091,456.6818182,456.6818182,black,xpyriment,legacy,legacy,0,Congruent,uniform,1,undefined,1,h,0,0,0,43,43,0,43,43,0,0,0,43,0,43,43,43,9/25/19 9:42,1500,The main experiment item,yes,FlankerTask.osexp,C:\Users\hosan\Desktop,no,mono,no,18,no,white,no,yes,768,legacy,43,43,C:/Users/hosan/Desktop/TB_subject-03.csv,xpyriment,Kafkaesque Koffka,3.2.8,0,h,NA,s,NA,NA,h,386,NA,15174,NA,NA,386,2,legacy,1024,2,48000,-16,experiment,HHHHH,3,odd,17970,NA,NA,120321,NA,NA,130817,128954,2795,NA,NA,130924,2773,130924,131311,130794,Flanker Task ,40,20094,44,yes,1024
91.11111111,91.11111111,461.2444444,461.2444444,black,xpyriment,legacy,legacy,0,Incongruent,uniform,1,undefined,1,h,0,0,0,44,44,0,44,44,0,0,0,44,0,44,44,44,9/25/19 9:42,1500,The main experiment item,yes,FlankerTask.osexp,C:\Users\hosan\Desktop,no,mono,no,18,no,white,no,yes,768,legacy,44,44,C:/Users/hosan/Desktop/TB_subject-03.csv,xpyriment,Kafkaesque Koffka,3.2.8,0,h,NA,s,NA,NA,h,662,NA,15174,NA,NA,662,2,legacy,1024,2,48000,-16,experiment,SSHSS,3,odd,17970,NA,NA,120321,NA,NA,133311,131433,2795,NA,NA,133417,2773,133417,134082,133288,Flanker Task ,41,20756,45,yes,1024
91.30434783,91.30434783,460.5217391,460.5217391,black,xpyriment,legacy,legacy,0,Congruent,uniform,1,undefined,1,s,0,0,0,45,45,0,45,45,0,0,0,45,0,45,45,45,9/25/19 9:42,1500,The main experiment item,yes,FlankerTask.osexp,C:\Users\hosan\Desktop,no,mono,no,18,no,white,no,yes,768,legacy,45,45,C:/Users/hosan/Desktop/TB_subject-03.csv,xpyriment,Kafkaesque Koffka,3.2.8,0,s,NA,s,NA,NA,s,428,NA,15174,NA,NA,428,2,legacy,1024,2,48000,-16,experiment,SSSSS,3,odd,17970,NA,NA,120321,NA,NA,135988,134156,2795,NA,NA,136093,2773,136094,136523,135965,Flanker Task ,42,21184,46,yes,1024
91.4893617,91.4893617,460.9574468,460.9574468,black,xpyriment,legacy,legacy,0,Incongruent,uniform,1,undefined,1,s,0,0,0,46,46,0,46,46,0,0,0,46,0,46,46,46,9/25/19 9:42,1500,The main experiment item,yes,FlankerTask.osexp,C:\Users\hosan\Desktop,no,mono,no,18,no,white,no,yes,768,legacy,46,46,C:/Users/hosan/Desktop/TB_subject-03.csv,xpyriment,Kafkaesque Koffka,3.2.8,0,s,NA,s,NA,NA,s,481,NA,15174,NA,NA,481,2,legacy,1024,2,48000,-16,experiment,HHSHH,3,odd,17970,NA,NA,120321,NA,NA,138452,136592,2795,NA,NA,138557,2773,138558,139040,138429,Flanker Task ,43,21665,47,yes,1024
91.66666667,91.66666667,461.0625,461.0625,black,xpyriment,legacy,legacy,0,Congruent,uniform,1,undefined,1,h,0,0,0,47,47,0,47,47,0,0,0,47,0,47,47,47,9/25/19 9:42,1500,The main experiment item,yes,FlankerTask.osexp,C:\Users\hosan\Desktop,no,mono,no,18,no,white,no,yes,768,legacy,47,47,C:/Users/hosan/Desktop/TB_subject-03.csv,xpyriment,Kafkaesque Koffka,3.2.8,0,h,NA,s,NA,NA,h,466,NA,15174,NA,NA,466,2,legacy,1024,2,48000,-16,experiment,HHHHH,3,odd,17970,NA,NA,120321,NA,NA,140939,139104,2795,NA,NA,141046,2773,141046,141513,140916,Flanker Task ,44,22131,48,yes,1024
91.83673469,91.83673469,462.5714286,462.5714286,black,xpyriment,legacy,legacy,0,Congruent,uniform,1,undefined,1,h,0,0,0,48,48,0,48,48,0,0,0,48,0,48,48,48,9/25/19 9:42,1500,The main experiment item,yes,FlankerTask.osexp,C:\Users\hosan\Desktop,no,mono,no,18,no,white,no,yes,768,legacy,48,48,C:/Users/hosan/Desktop/TB_subject-03.csv,xpyriment,Kafkaesque Koffka,3.2.8,0,h,NA,s,NA,NA,h,535,NA,15174,NA,NA,535,2,legacy,1024,2,48000,-16,experiment,HHHHH,3,odd,17970,NA,NA,120321,NA,NA,143441,141584,2795,NA,NA,143548,2773,143548,144084,143418,Flanker Task ,45,22666,49,yes,1024
92,92,471.9,471.9,black,xpyriment,legacy,legacy,0,Incongruent,uniform,1,undefined,1,s,0,0,0,49,49,0,49,49,0,0,0,49,0,49,49,49,9/25/19 9:42,1500,The main experiment item,yes,FlankerTask.osexp,C:\Users\hosan\Desktop,no,mono,no,18,no,white,no,yes,768,legacy,49,49,C:/Users/hosan/Desktop/TB_subject-03.csv,xpyriment,Kafkaesque Koffka,3.2.8,0,s,NA,s,NA,NA,s,929,NA,15174,NA,NA,929,2,legacy,1024,2,48000,-16,experiment,HHSHH,3,odd,17970,NA,NA,120321,NA,NA,146221,144163,2795,NA,NA,146326,2773,146326,147256,146197,Flanker Task ,46,23595,50,yes,1024
92.15686275,92.15686275,471.372549,471.372549,black,xpyriment,legacy,legacy,0,Incongruent,uniform,1,undefined,1,s,0,0,0,50,50,0,50,50,0,0,0,50,0,50,50,50,9/25/19 9:42,1500,The main experiment item,yes,FlankerTask.osexp,C:\Users\hosan\Desktop,no,mono,no,18,no,white,no,yes,768,legacy,50,50,C:/Users/hosan/Desktop/TB_subject-03.csv,xpyriment,Kafkaesque Koffka,3.2.8,0,s,NA,s,NA,NA,s,445,NA,15174,NA,NA,445,2,legacy,1024,2,48000,-16,experiment,HHSHH,3,odd,17970,NA,NA,120321,NA,NA,149311,147330,2795,NA,NA,149417,2773,149417,149863,149288,Flanker Task ,47,24040,51,yes,1024
92.30769231,92.30769231,469.3846154,469.3846154,black,xpyriment,legacy,legacy,0,Congruent,uniform,1,undefined,1,s,0,0,0,51,51,0,51,51,0,0,0,51,0,51,51,51,9/25/19 9:42,1500,The main experiment item,yes,FlankerTask.osexp,C:\Users\hosan\Desktop,no,mono,no,18,no,white,no,yes,768,legacy,51,51,C:/Users/hosan/Desktop/TB_subject-03.csv,xpyriment,Kafkaesque Koffka,3.2.8,0,s,NA,s,NA,NA,s,368,NA,15174,NA,NA,368,2,legacy,1024,2,48000,-16,experiment,SSSSS,3,odd,17970,NA,NA,120321,NA,NA,151823,149942,2795,NA,NA,151928,2773,151929,152298,151800,Flanker Task ,48,24408,52,yes,1024
92.45283019,92.45283019,469.2264151,469.2264151,black,xpyriment,legacy,legacy,0,Congruent,uniform,1,undefined,1,h,0,0,0,52,52,0,52,52,0,0,0,52,0,52,52,52,9/25/19 9:42,1500,The main experiment item,yes,FlankerTask.osexp,C:\Users\hosan\Desktop,no,mono,no,18,no,white,no,yes,768,legacy,52,52,C:/Users/hosan/Desktop/TB_subject-03.csv,xpyriment,Kafkaesque Koffka,3.2.8,0,h,NA,s,NA,NA,h,461,NA,15174,NA,NA,461,2,legacy,1024,2,48000,-16,experiment,HHHHH,3,odd,17970,NA,NA,120321,NA,NA,154280,152367,2795,NA,NA,154387,2773,154388,154850,154257,Flanker Task ,49,24869,53,yes,1024
92.59259259,92.59259259,468.8518519,468.8518519,black,xpyriment,legacy,legacy,0,Incongruent,uniform,1,undefined,1,h,0,0,0,53,53,0,53,53,0,0,0,53,0,53,53,53,9/25/19 9:42,1500,The main experiment item,yes,FlankerTask.osexp,C:\Users\hosan\Desktop,no,mono,no,18,no,white,no,yes,768,legacy,53,53,C:/Users/hosan/Desktop/TB_subject-03.csv,xpyriment,Kafkaesque Koffka,3.2.8,0,h,NA,s,NA,NA,h,449,NA,15174,NA,NA,449,2,legacy,1024,2,48000,-16,experiment,SSHSS,3,odd,17970,NA,NA,120321,NA,NA,156904,154934,2795,NA,NA,157009,2773,157009,157459,156881,Flanker Task ,50,25318,54,yes,1024
90.90909091,90.90909091,467.3272727,467.3272727,black,xpyriment,legacy,legacy,0,Incongruent,uniform,0,undefined,0,s,0,0,0,54,54,0,54,54,0,0,0,54,0,54,54,54,9/25/19 9:42,1500,The main experiment item,yes,FlankerTask.osexp,C:\Users\hosan\Desktop,no,mono,no,18,no,white,no,yes,768,legacy,54,54,C:/Users/hosan/Desktop/TB_subject-03.csv,xpyriment,Kafkaesque Koffka,3.2.8,0,h,NA,s,NA,NA,h,385,NA,15174,NA,NA,385,2,legacy,1024,2,48000,-16,experiment,HHSHH,3,odd,17970,NA,NA,120321,NA,NA,159590,157526,2795,NA,NA,159696,2773,159696,160082,159566,Flanker Task ,50,25703,55,yes,1024
91.07142857,91.07142857,466.6071429,466.6071429,black,xpyriment,legacy,legacy,0,Congruent,uniform,1,undefined,1,h,0,0,0,55,55,0,55,55,0,0,0,55,0,55,55,55,9/25/19 9:42,1500,The main experiment item,yes,FlankerTask.osexp,C:\Users\hosan\Desktop,no,mono,no,18,no,white,no,yes,768,legacy,55,55,C:/Users/hosan/Desktop/TB_subject-03.csv,xpyriment,Kafkaesque Koffka,3.2.8,0,h,NA,s,NA,NA,h,427,NA,15174,NA,NA,427,2,legacy,1024,2,48000,-16,experiment,HHHHH,3,odd,17970,NA,NA,160155,NA,NA,162585,160661,2795,NA,NA,162693,2773,162693,163121,162563,Flanker Task ,51,26130,56,yes,1024
91.22807018,91.22807018,471.4736842,471.4736842,black,xpyriment,legacy,legacy,0,Incongruent,uniform,1,undefined,1,s,0,0,0,56,56,0,56,56,0,0,0,56,0,56,56,56,9/25/19 9:42,1500,The main experiment item,yes,FlankerTask.osexp,C:\Users\hosan\Desktop,no,mono,no,18,no,white,no,yes,768,legacy,56,56,C:/Users/hosan/Desktop/TB_subject-03.csv,xpyriment,Kafkaesque Koffka,3.2.8,0,s,NA,s,NA,NA,s,744,NA,15174,NA,NA,744,2,legacy,1024,2,48000,-16,experiment,HHSHH,3,odd,17970,NA,NA,160155,NA,NA,165214,163178,2795,NA,NA,165319,2773,165319,166064,165191,Flanker Task ,52,26874,57,yes,1024
91.37931034,91.37931034,471.362069,471.362069,black,xpyriment,legacy,legacy,0,Incongruent,uniform,1,undefined,1,s,0,0,0,57,57,0,57,57,0,0,0,57,0,57,57,57,9/25/19 9:42,1500,The main experiment item,yes,FlankerTask.osexp,C:\Users\hosan\Desktop,no,mono,no,18,no,white,no,yes,768,legacy,57,57,C:/Users/hosan/Desktop/TB_subject-03.csv,xpyriment,Kafkaesque Koffka,3.2.8,0,s,NA,s,NA,NA,s,465,NA,15174,NA,NA,465,2,legacy,1024,2,48000,-16,experiment,HHSHH,3,odd,17970,NA,NA,160155,NA,NA,168000,166092,2795,NA,NA,168106,2773,168106,168571,167977,Flanker Task ,53,27339,58,yes,1024
91.52542373,91.52542373,471.7966102,471.7966102,black,xpyriment,legacy,legacy,0,Incongruent,uniform,1,undefined,1,s,0,0,0,58,58,0,58,58,0,0,0,58,0,58,58,58,9/25/19 9:42,1500,The main experiment item,yes,FlankerTask.osexp,C:\Users\hosan\Desktop,no,mono,no,18,no,white,no,yes,768,legacy,58,58,C:/Users/hosan/Desktop/TB_subject-03.csv,xpyriment,Kafkaesque Koffka,3.2.8,0,s,NA,s,NA,NA,s,497,NA,15174,NA,NA,497,2,legacy,1024,2,48000,-16,experiment,HHSHH,3,odd,17970,NA,NA,160155,NA,NA,170555,168640,2795,NA,NA,170661,2773,170662,171161,170533,Flanker Task ,54,27836,59,yes,1024
91.66666667,91.66666667,472.8833333,472.8833333,black,xpyriment,legacy,legacy,0,Incongruent,uniform,1,undefined,1,s,0,0,0,59,59,0,59,59,0,0,0,59,0,59,59,59,9/25/19 9:42,1500,The main experiment item,yes,FlankerTask.osexp,C:\Users\hosan\Desktop,no,mono,no,18,no,white,no,yes,768,legacy,59,59,C:/Users/hosan/Desktop/TB_subject-03.csv,xpyriment,Kafkaesque Koffka,3.2.8,0,s,NA,s,NA,NA,s,537,NA,15174,NA,NA,537,2,legacy,1024,2,48000,-16,experiment,HHSHH,3,odd,17970,NA,NA,160155,NA,NA,173115,171196,2795,NA,NA,173221,2773,173222,173760,173092,Flanker Task ,55,28373,60,yes,1024
91.80327869,91.80327869,473.9836066,473.9836066,black,xpyriment,legacy,legacy,0,Congruent,uniform,1,undefined,1,s,0,0,0,60,60,0,60,60,0,0,0,60,0,60,60,60,9/25/19 9:42,1500,The main experiment item,yes,FlankerTask.osexp,C:\Users\hosan\Desktop,no,mono,no,18,no,white,no,yes,768,legacy,60,60,C:/Users/hosan/Desktop/TB_subject-03.csv,xpyriment,Kafkaesque Koffka,3.2.8,0,s,NA,s,NA,NA,s,540,NA,15174,NA,NA,540,2,legacy,1024,2,48000,-16,experiment,SSSSS,3,odd,17970,NA,NA,160155,NA,NA,175922,173832,2795,NA,NA,176028,2773,176028,176571,175898,Flanker Task ,56,28913,61,yes,1024
91.93548387,91.93548387,474.8387097,474.8387097,black,xpyriment,legacy,legacy,0,Incongruent,uniform,1,undefined,1,h,0,0,0,61,61,0,61,61,0,0,0,61,0,61,61,61,9/25/19 9:42,1500,The main experiment item,yes,FlankerTask.osexp,C:\Users\hosan\Desktop,no,mono,no,18,no,white,no,yes,768,legacy,61,61,C:/Users/hosan/Desktop/TB_subject-03.csv,xpyriment,Kafkaesque Koffka,3.2.8,0,h,NA,s,NA,NA,h,527,NA,15174,NA,NA,527,2,legacy,1024,2,48000,-16,experiment,SSHSS,3,odd,17970,NA,NA,160155,NA,NA,178609,176643,2795,NA,NA,178715,2773,178715,179243,178586,Flanker Task ,57,29440,62,yes,1024
92.06349206,92.06349206,474.6190476,474.6190476,black,xpyriment,legacy,legacy,0,Congruent,uniform,1,undefined,1,h,0,0,0,62,62,0,62,62,0,0,0,62,0,62,62,62,9/25/19 9:42,1500,The main experiment item,yes,FlankerTask.osexp,C:\Users\hosan\Desktop,no,mono,no,18,no,white,no,yes,768,legacy,62,62,C:/Users/hosan/Desktop/TB_subject-03.csv,xpyriment,Kafkaesque Koffka,3.2.8,0,h,NA,s,NA,NA,h,461,NA,15174,NA,NA,461,2,legacy,1024,2,48000,-16,experiment,HHHHH,3,odd,17970,NA,NA,160155,NA,NA,181173,179311,2795,NA,NA,181280,2773,181280,181744,181151,Flanker Task ,58,29901,63,yes,1024
92.1875,92.1875,475.828125,475.828125,black,xpyriment,legacy,legacy,0,Congruent,uniform,1,undefined,1,h,0,0,0,63,63,0,63,63,0,0,0,63,0,63,63,63,9/25/19 9:42,1500,The main experiment item,yes,FlankerTask.osexp,C:\Users\hosan\Desktop,no,mono,no,18,no,white,no,yes,768,legacy,63,63,C:/Users/hosan/Desktop/TB_subject-03.csv,xpyriment,Kafkaesque Koffka,3.2.8,0,h,NA,s,NA,NA,h,552,NA,15174,NA,NA,552,2,legacy,1024,2,48000,-16,experiment,HHHHH,3,odd,17970,NA,NA,160155,NA,NA,183642,181790,2795,NA,NA,183749,2773,183749,184302,183620,Flanker Task ,59,30453,64,yes,1024
92.30769231,92.30769231,477.1384615,477.1384615,black,xpyriment,legacy,legacy,0,Congruent,uniform,1,undefined,1,h,0,0,0,64,64,0,64,64,0,0,0,64,0,64,64,64,9/25/19 9:42,1500,The main experiment item,yes,FlankerTask.osexp,C:\Users\hosan\Desktop,no,mono,no,18,no,white,no,yes,768,legacy,64,64,C:/Users/hosan/Desktop/TB_subject-03.csv,xpyriment,Kafkaesque Koffka,3.2.8,0,h,NA,s,NA,NA,h,561,NA,15174,NA,NA,561,2,legacy,1024,2,48000,-16,experiment,HHHHH,3,odd,17970,NA,NA,160155,NA,NA,186194,184335,2795,NA,NA,186299,2773,186299,186861,186171,Flanker Task ,60,31014,65,yes,1024
92.42424242,92.42424242,476.0454545,476.0454545,black,xpyriment,legacy,legacy,0,Congruent,uniform,1,undefined,1,s,0,0,0,65,65,0,65,65,0,0,0,65,0,65,65,65,9/25/19 9:42,1500,The main experiment item,yes,FlankerTask.osexp,C:\Users\hosan\Desktop,no,mono,no,18,no,white,no,yes,768,legacy,65,65,C:/Users/hosan/Desktop/TB_subject-03.csv,xpyriment,Kafkaesque Koffka,3.2.8,0,s,NA,s,NA,NA,s,405,NA,15174,NA,NA,405,2,legacy,1024,2,48000,-16,experiment,SSSSS,3,odd,17970,NA,NA,160155,NA,NA,188811,186949,2795,NA,NA,188917,2773,188917,189323,188788,Flanker Task ,61,31419,66,yes,1024
92.53731343,92.53731343,475.7313433,475.7313433,black,xpyriment,legacy,legacy,0,Congruent,uniform,1,undefined,1,s,0,0,0,66,66,0,66,66,0,0,0,66,0,66,66,66,9/25/19 9:42,1500,The main experiment item,yes,FlankerTask.osexp,C:\Users\hosan\Desktop,no,mono,no,18,no,white,no,yes,768,legacy,66,66,C:/Users/hosan/Desktop/TB_subject-03.csv,xpyriment,Kafkaesque Koffka,3.2.8,0,s,NA,s,NA,NA,s,455,NA,15174,NA,NA,455,2,legacy,1024,2,48000,-16,experiment,SSSSS,3,odd,17970,NA,NA,160155,NA,NA,191250,189388,2795,NA,NA,191356,2773,191356,191814,191227,Flanker Task ,62,31874,67,yes,1024
92.64705882,92.64705882,474.9117647,474.9117647,black,xpyriment,legacy,legacy,0,Congruent,uniform,1,undefined,1,s,0,0,0,67,67,0,67,67,0,0,0,67,0,67,67,67,9/25/19 9:42,1500,The main experiment item,yes,FlankerTask.osexp,C:\Users\hosan\Desktop,no,mono,no,18,no,white,no,yes,768,legacy,67,67,C:/Users/hosan/Desktop/TB_subject-03.csv,xpyriment,Kafkaesque Koffka,3.2.8,0,s,NA,s,NA,NA,s,420,NA,15174,NA,NA,420,2,legacy,1024,2,48000,-16,experiment,SSSSS,3,odd,17970,NA,NA,160155,NA,NA,193780,191926,2795,NA,NA,193886,2773,193886,194307,193757,Flanker Task ,63,32294,68,yes,1024
92.75362319,92.75362319,472.826087,472.826087,black,xpyriment,legacy,legacy,0,Incongruent,uniform,1,undefined,1,s,0,0,0,68,68,0,68,68,0,0,0,68,0,68,68,68,9/25/19 9:42,1500,The main experiment item,yes,FlankerTask.osexp,C:\Users\hosan\Desktop,no,mono,no,18,no,white,no,yes,768,legacy,68,68,C:/Users/hosan/Desktop/TB_subject-03.csv,xpyriment,Kafkaesque Koffka,3.2.8,0,s,NA,s,NA,NA,s,331,NA,15174,NA,NA,331,2,legacy,1024,2,48000,-16,experiment,HHSHH,3,odd,17970,NA,NA,160155,NA,NA,196203,194343,2795,NA,NA,196308,2773,196309,196641,196180,Flanker Task ,64,32625,69,yes,1024
92.85714286,92.85714286,473.4285714,473.4285714,black,xpyriment,legacy,legacy,0,Incongruent,uniform,1,undefined,1,h,0,0,0,69,69,0,69,69,0,0,0,69,0,69,69,69,9/25/19 9:42,1500,The main experiment item,yes,FlankerTask.osexp,C:\Users\hosan\Desktop,no,mono,no,18,no,white,no,yes,768,legacy,69,69,C:/Users/hosan/Desktop/TB_subject-03.csv,xpyriment,Kafkaesque Koffka,3.2.8,0,h,NA,s,NA,NA,h,515,NA,15174,NA,NA,515,2,legacy,1024,2,48000,-16,experiment,SSHSS,3,odd,17970,NA,NA,160155,NA,NA,198545,196669,2795,NA,NA,198652,2773,198652,199168,198523,Flanker Task ,65,33140,70,yes,1024
92.95774648,92.95774648,473.0422535,473.0422535,black,xpyriment,legacy,legacy,0,Incongruent,uniform,1,undefined,1,h,0,0,0,70,70,0,70,70,0,0,0,70,0,70,70,70,9/25/19 9:42,1500,The main experiment item,yes,FlankerTask.osexp,C:\Users\hosan\Desktop,no,mono,no,18,no,white,no,yes,768,legacy,70,70,C:/Users/hosan/Desktop/TB_subject-03.csv,xpyriment,Kafkaesque Koffka,3.2.8,0,h,NA,s,NA,NA,h,446,NA,15174,NA,NA,446,2,legacy,1024,2,48000,-16,experiment,SSHSS,3,odd,17970,NA,NA,160155,NA,NA,201049,199204,2795,NA,NA,201156,2773,201157,201604,201026,Flanker Task ,66,33586,71,yes,1024
93.05555556,93.05555556,472.4027778,472.4027778,black,xpyriment,legacy,legacy,0,Congruent,uniform,1,undefined,1,h,0,0,0,71,71,0,71,71,0,0,0,71,0,71,71,71,9/25/19 9:42,1500,The main experiment item,yes,FlankerTask.osexp,C:\Users\hosan\Desktop,no,mono,no,18,no,white,no,yes,768,legacy,71,71,C:/Users/hosan/Desktop/TB_subject-03.csv,xpyriment,Kafkaesque Koffka,3.2.8,0,h,NA,s,NA,NA,h,427,NA,15174,NA,NA,427,2,legacy,1024,2,48000,-16,experiment,HHHHH,3,odd,17970,NA,NA,160155,NA,NA,203499,201638,2795,NA,NA,203606,2773,203606,204035,203476,Flanker Task ,67,34013,72,yes,1024
93.15068493,93.15068493,475.5205479,475.5205479,black,xpyriment,legacy,legacy,0,Congruent,uniform,1,undefined,1,s,0,0,0,72,72,0,72,72,0,0,0,72,0,72,72,72,9/25/19 9:42,1500,The main experiment item,yes,FlankerTask.osexp,C:\Users\hosan\Desktop,no,mono,no,18,no,white,no,yes,768,legacy,72,72,C:/Users/hosan/Desktop/TB_subject-03.csv,xpyriment,Kafkaesque Koffka,3.2.8,0,s,NA,s,NA,NA,s,700,NA,15174,NA,NA,700,2,legacy,1024,2,48000,-16,experiment,SSSSS,3,odd,17970,NA,NA,160155,NA,NA,205958,204108,2795,NA,NA,206065,2773,206065,206766,205936,Flanker Task ,68,34713,73,yes,1024
93.24324324,93.24324324,475.9594595,475.9594595,black,xpyriment,legacy,legacy,0,Incongruent,uniform,1,undefined,1,s,0,0,0,73,73,0,73,73,0,0,0,73,0,73,73,73,9/25/19 9:42,1500,The main experiment item,yes,FlankerTask.osexp,C:\Users\hosan\Desktop,no,mono,no,18,no,white,no,yes,768,legacy,73,73,C:/Users/hosan/Desktop/TB_subject-03.csv,xpyriment,Kafkaesque Koffka,3.2.8,0,s,NA,s,NA,NA,s,508,NA,15174,NA,NA,508,2,legacy,1024,2,48000,-16,experiment,HHSHH,3,odd,17970,NA,NA,160155,NA,NA,208651,206797,2795,NA,NA,208758,2773,208758,209268,208628,Flanker Task ,69,35221,74,yes,1024
93.33333333,93.33333333,475.2533333,475.2533333,black,xpyriment,legacy,legacy,0,Congruent,uniform,1,undefined,1,h,0,0,0,74,74,0,74,74,0,0,0,74,0,74,74,74,9/25/19 9:42,1500,The main experiment item,yes,FlankerTask.osexp,C:\Users\hosan\Desktop,no,mono,no,18,no,white,no,yes,768,legacy,74,74,C:/Users/hosan/Desktop/TB_subject-03.csv,xpyriment,Kafkaesque Koffka,3.2.8,0,h,NA,s,NA,NA,h,423,NA,15174,NA,NA,423,2,legacy,1024,2,48000,-16,experiment,HHHHH,3,odd,17970,NA,NA,160155,NA,NA,211205,209344,2795,NA,NA,211311,2773,211312,211736,211183,Flanker Task ,70,35644,75,yes,1024
93.42105263,93.42105263,475.3421053,475.3421053,black,xpyriment,legacy,legacy,0,Incongruent,uniform,1,undefined,1,s,0,0,0,75,75,0,75,75,0,0,0,75,0,75,75,75,9/25/19 9:42,1500,The main experiment item,yes,FlankerTask.osexp,C:\Users\hosan\Desktop,no,mono,no,18,no,white,no,yes,768,legacy,75,75,C:/Users/hosan/Desktop/TB_subject-03.csv,xpyriment,Kafkaesque Koffka,3.2.8,0,s,NA,s,NA,NA,s,482,NA,15174,NA,NA,482,2,legacy,1024,2,48000,-16,experiment,HHSHH,3,odd,17970,NA,NA,160155,NA,NA,213604,211769,2795,NA,NA,213711,2773,213711,214194,213582,Flanker Task ,71,36126,76,yes,1024
93.50649351,93.50649351,475.1818182,475.1818182,black,xpyriment,legacy,legacy,0,Incongruent,uniform,1,undefined,1,h,0,0,0,76,76,0,76,76,0,0,0,76,0,76,76,76,9/25/19 9:42,1500,The main experiment item,yes,FlankerTask.osexp,C:\Users\hosan\Desktop,no,mono,no,18,no,white,no,yes,768,legacy,76,76,C:/Users/hosan/Desktop/TB_subject-03.csv,xpyriment,Kafkaesque Koffka,3.2.8,0,h,NA,s,NA,NA,h,463,NA,15174,NA,NA,463,2,legacy,1024,2,48000,-16,experiment,SSHSS,3,odd,17970,NA,NA,160155,NA,NA,216091,214225,2795,NA,NA,216197,2773,216198,216663,216068,Flanker Task ,72,36589,77,yes,1024
93.58974359,93.58974359,475.0384615,475.0384615,black,xpyriment,legacy,legacy,0,Incongruent,uniform,1,undefined,1,s,0,0,0,77,77,0,77,77,0,0,0,77,0,77,77,77,9/25/19 9:42,1500,The main experiment item,yes,FlankerTask.osexp,C:\Users\hosan\Desktop,no,mono,no,18,no,white,no,yes,768,legacy,77,77,C:/Users/hosan/Desktop/TB_subject-03.csv,xpyriment,Kafkaesque Koffka,3.2.8,0,s,NA,s,NA,NA,s,464,NA,15174,NA,NA,464,2,legacy,1024,2,48000,-16,experiment,HHSHH,3,odd,17970,NA,NA,160155,NA,NA,218555,216716,2795,NA,NA,218661,2773,218661,219126,218532,Flanker Task ,73,37053,78,yes,1024
92.40506329,92.40506329,475.0632911,475.0632911,black,xpyriment,legacy,legacy,0,Incongruent,uniform,0,undefined,0,h,0,0,0,78,78,0,78,78,0,0,0,78,0,78,78,78,9/25/19 9:42,1500,The main experiment item,yes,FlankerTask.osexp,C:\Users\hosan\Desktop,no,mono,no,18,no,white,no,yes,768,legacy,78,78,C:/Users/hosan/Desktop/TB_subject-03.csv,xpyriment,Kafkaesque Koffka,3.2.8,0,s,NA,s,NA,NA,s,477,NA,15174,NA,NA,477,2,legacy,1024,2,48000,-16,experiment,SSHSS,3,odd,17970,NA,NA,160155,NA,NA,221069,219197,2795,NA,NA,221176,2773,221176,221654,221047,Flanker Task ,73,37530,79,yes,1024
92.5,92.5,474.95,474.95,black,xpyriment,legacy,legacy,0,Congruent,uniform,1,undefined,1,s,0,0,0,79,79,0,79,79,0,0,0,79,0,79,79,79,9/25/19 9:42,1500,The main experiment item,yes,FlankerTask.osexp,C:\Users\hosan\Desktop,no,mono,no,18,no,white,no,yes,768,legacy,79,79,C:/Users/hosan/Desktop/TB_subject-03.csv,xpyriment,Kafkaesque Koffka,3.2.8,0,s,NA,s,NA,NA,s,466,NA,15174,NA,NA,466,2,legacy,1024,2,48000,-16,experiment,SSSSS,3,odd,17970,NA,NA,221732,NA,NA,224100,222239,2795,NA,NA,224207,2773,224207,224675,224078,Flanker Task ,74,37996,80,yes,1024
92.59259259,92.59259259,476.9259259,476.9259259,black,xpyriment,legacy,legacy,0,Incongruent,uniform,1,undefined,1,h,0,0,0,80,80,0,80,80,0,0,0,80,0,80,80,80,9/25/19 9:42,600,The main experiment item,yes,FlankerTask.osexp,C:\Users\hosan\Desktop,no,mono,no,18,no,white,no,yes,768,legacy,0,79,C:/Users/hosan/Desktop/TB_subject-03.csv,xpyriment,Kafkaesque Koffka,3.2.8,0,h,NA,s,h,NA,h,635,NA,15174,2119,NA,635,2,legacy,1024,2,48000,-16,experiment,SSHSS,3,odd,17970,227978,NA,221732,NA,NA,228772,224764,2795,225858,NA,228878,2773,228878,229514,228750,Flanker Task ,75,38631,81,yes,1024
92.68292683,92.68292683,475.2195122,475.2195122,black,xpyriment,legacy,legacy,0,Congruent,uniform,1,undefined,1,s,0,0,0,81,81,0,81,81,0,0,0,81,0,81,81,81,9/25/19 9:42,600,The main experiment item,yes,FlankerTask.osexp,C:\Users\hosan\Desktop,no,mono,no,18,no,white,no,yes,768,legacy,1,79,C:/Users/hosan/Desktop/TB_subject-03.csv,xpyriment,Kafkaesque Koffka,3.2.8,0,s,NA,s,h,NA,s,337,NA,15174,2119,NA,337,2,legacy,1024,2,48000,-16,experiment,SSSSS,3,odd,17970,227978,NA,221732,229546,NA,231889,230053,2795,225858,NA,231994,2773,231995,232333,231865,Flanker Task ,76,38968,82,yes,1024
91.56626506,91.56626506,473.6746988,473.6746988,black,xpyriment,legacy,legacy,0,Incongruent,uniform,0,undefined,0,h,0,0,0,82,82,0,82,82,0,0,0,82,0,82,82,82,9/25/19 9:42,600,The main experiment item,yes,FlankerTask.osexp,C:\Users\hosan\Desktop,no,mono,no,18,no,white,no,yes,768,legacy,2,79,C:/Users/hosan/Desktop/TB_subject-03.csv,xpyriment,Kafkaesque Koffka,3.2.8,0,s,NA,s,h,NA,s,347,NA,15174,2119,NA,347,2,legacy,1024,2,48000,-16,experiment,SSHSS,3,odd,17970,227978,NA,221732,229546,NA,234189,232365,2795,225858,NA,234295,2773,234296,234644,234167,Flanker Task ,76,39315,83,yes,1024
91.66666667,91.66666667,473.6428571,473.6428571,black,xpyriment,legacy,legacy,0,Incongruent,uniform,1,undefined,1,h,0,0,0,83,83,0,83,83,0,0,0,83,0,83,83,83,9/25/19 9:42,600,The main experiment item,yes,FlankerTask.osexp,C:\Users\hosan\Desktop,no,mono,no,18,no,white,no,yes,768,legacy,3,79,C:/Users/hosan/Desktop/TB_subject-03.csv,xpyriment,Kafkaesque Koffka,3.2.8,0,h,NA,s,h,NA,h,471,NA,15174,2119,NA,471,2,legacy,1024,2,48000,-16,experiment,SSHSS,3,odd,17970,227978,NA,234718,229546,NA,237043,235224,2795,225858,NA,237149,2773,237150,237622,237021,Flanker Task ,77,39786,84,yes,1024
91.76470588,91.76470588,473.7529412,473.7529412,black,xpyriment,legacy,legacy,0,Incongruent,uniform,1,undefined,1,h,0,0,0,84,84,0,84,84,0,0,0,84,0,84,84,84,9/25/19 9:42,600,The main experiment item,yes,FlankerTask.osexp,C:\Users\hosan\Desktop,no,mono,no,18,no,white,no,yes,768,legacy,4,79,C:/Users/hosan/Desktop/TB_subject-03.csv,xpyriment,Kafkaesque Koffka,3.2.8,0,h,NA,s,h,NA,h,483,NA,15174,2119,NA,483,2,legacy,1024,2,48000,-16,experiment,SSHSS,3,odd,17970,227978,NA,234718,229546,NA,239489,237650,2795,225858,NA,239594,2773,239594,240078,239467,Flanker Task ,78,40269,85,yes,1024
91.86046512,91.86046512,473.5581395,473.5581395,black,xpyriment,legacy,legacy,0,Congruent,uniform,1,undefined,1,s,0,0,0,85,85,0,85,85,0,0,0,85,0,85,85,85,9/25/19 9:42,600,The main experiment item,yes,FlankerTask.osexp,C:\Users\hosan\Desktop,no,mono,no,18,no,white,no,yes,768,legacy,5,79,C:/Users/hosan/Desktop/TB_subject-03.csv,xpyriment,Kafkaesque Koffka,3.2.8,0,s,NA,s,h,NA,s,457,NA,15174,2119,NA,457,2,legacy,1024,2,48000,-16,experiment,SSSSS,3,odd,17970,227978,NA,234718,229546,NA,242014,240163,2795,225858,NA,242119,2773,242119,242577,241991,Flanker Task ,79,40726,86,yes,1024
91.95402299,91.95402299,472.4367816,472.4367816,black,xpyriment,legacy,legacy,0,Congruent,uniform,1,undefined,1,s,0,0,0,86,86,0,86,86,0,0,0,86,0,86,86,86,9/25/19 9:42,600,The main experiment item,yes,FlankerTask.osexp,C:\Users\hosan\Desktop,no,mono,no,18,no,white,no,yes,768,legacy,6,79,C:/Users/hosan/Desktop/TB_subject-03.csv,xpyriment,Kafkaesque Koffka,3.2.8,0,s,NA,s,h,NA,s,376,NA,15174,2119,NA,376,2,legacy,1024,2,48000,-16,experiment,SSSSS,3,odd,17970,227978,NA,234718,229546,NA,244465,242609,2795,225858,NA,244572,2773,244572,244950,244443,Flanker Task ,80,41102,87,yes,1024
92.04545455,92.04545455,472.5340909,472.5340909,black,xpyriment,legacy,legacy,0,Incongruent,uniform,1,undefined,1,h,0,0,0,87,87,0,87,87,0,0,0,87,0,87,87,87,9/25/19 9:42,600,The main experiment item,yes,FlankerTask.osexp,C:\Users\hosan\Desktop,no,mono,no,18,no,white,no,yes,768,legacy,7,79,C:/Users/hosan/Desktop/TB_subject-03.csv,xpyriment,Kafkaesque Koffka,3.2.8,0,h,NA,s,h,NA,h,481,NA,15174,2119,NA,481,2,legacy,1024,2,48000,-16,experiment,SSHSS,3,odd,17970,227978,NA,234718,229546,NA,246843,245011,2795,225858,NA,246948,2773,246949,247432,246821,Flanker Task ,81,41583,88,yes,1024
92.13483146,92.13483146,472.7752809,472.7752809,black,xpyriment,legacy,legacy,0,Incongruent,uniform,1,undefined,1,s,0,0,0,88,88,0,88,88,0,0,0,88,0,88,88,88,9/25/19 9:42,600,The main experiment item,yes,FlankerTask.osexp,C:\Users\hosan\Desktop,no,mono,no,18,no,white,no,yes,768,legacy,8,79,C:/Users/hosan/Desktop/TB_subject-03.csv,xpyriment,Kafkaesque Koffka,3.2.8,0,s,NA,s,h,NA,s,494,NA,15174,2119,NA,494,2,legacy,1024,2,48000,-16,experiment,HHSHH,3,odd,17970,227978,NA,234718,229546,NA,249296,247453,2795,225858,NA,249402,2773,249402,249898,249274,Flanker Task ,82,42077,89,yes,1024
92.22222222,92.22222222,473.3333333,473.3333333,black,xpyriment,legacy,legacy,0,Congruent,uniform,1,undefined,1,s,0,0,0,89,89,0,89,89,0,0,0,89,0,89,89,89,9/25/19 9:42,600,The main experiment item,yes,FlankerTask.osexp,C:\Users\hosan\Desktop,no,mono,no,18,no,white,no,yes,768,legacy,9,79,C:/Users/hosan/Desktop/TB_subject-03.csv,xpyriment,Kafkaesque Koffka,3.2.8,0,s,NA,s,h,NA,s,523,NA,15174,2119,NA,523,2,legacy,1024,2,48000,-16,experiment,SSSSS,3,odd,17970,227978,NA,234718,229546,NA,251800,249972,2795,225858,NA,251905,2773,251906,252431,251777,Flanker Task ,83,42600,90,yes,1024
92.30769231,92.30769231,472.7142857,472.7142857,black,xpyriment,legacy,legacy,0,Congruent,uniform,1,undefined,1,h,0,0,0,90,90,0,90,90,0,0,0,90,0,90,90,90,9/25/19 9:42,600,The main experiment item,yes,FlankerTask.osexp,C:\Users\hosan\Desktop,no,mono,no,18,no,white,no,yes,768,legacy,10,79,C:/Users/hosan/Desktop/TB_subject-03.csv,xpyriment,Kafkaesque Koffka,3.2.8,0,h,NA,s,h,NA,h,417,NA,15174,2119,NA,417,2,legacy,1024,2,48000,-16,experiment,HHHHH,3,odd,17970,227978,NA,234718,229546,NA,254296,252457,2795,225858,NA,254402,2773,254402,254821,254272,Flanker Task ,84,43017,91,yes,1024
92.39130435,92.39130435,472.5,472.5,black,xpyriment,legacy,legacy,0,Incongruent,uniform,1,undefined,1,s,0,0,0,91,91,0,91,91,0,0,0,91,0,91,91,91,9/25/19 9:42,600,The main experiment item,yes,FlankerTask.osexp,C:\Users\hosan\Desktop,no,mono,no,18,no,white,no,yes,768,legacy,11,79,C:/Users/hosan/Desktop/TB_subject-03.csv,xpyriment,Kafkaesque Koffka,3.2.8,0,s,NA,s,h,NA,s,453,NA,15174,2119,NA,453,2,legacy,1024,2,48000,-16,experiment,HHSHH,3,odd,17970,227978,NA,234718,229546,NA,256766,254909,2795,225858,NA,256872,2773,256872,257326,256743,Flanker Task ,85,43470,92,yes,1024
92.47311828,92.47311828,473.0967742,473.0967742,black,xpyriment,legacy,legacy,0,Congruent,uniform,1,undefined,1,s,0,0,0,92,92,0,92,92,0,0,0,92,0,92,92,92,9/25/19 9:42,600,The main experiment item,yes,FlankerTask.osexp,C:\Users\hosan\Desktop,no,mono,no,18,no,white,no,yes,768,legacy,12,79,C:/Users/hosan/Desktop/TB_subject-03.csv,xpyriment,Kafkaesque Koffka,3.2.8,0,s,NA,s,h,NA,s,528,NA,15174,2119,NA,528,2,legacy,1024,2,48000,-16,experiment,SSSSS,3,odd,17970,227978,NA,234718,229546,NA,259272,257411,2795,225858,NA,259378,2773,259379,259909,259250,Flanker Task ,86,43998,93,yes,1024
91.4893617,91.4893617,472.9148936,472.9148936,black,xpyriment,legacy,legacy,0,Incongruent,uniform,0,undefined,0,s,0,0,0,93,93,0,93,93,0,0,0,93,0,93,93,93,9/25/19 9:42,600,The main experiment item,yes,FlankerTask.osexp,C:\Users\hosan\Desktop,no,mono,no,18,no,white,no,yes,768,legacy,13,79,C:/Users/hosan/Desktop/TB_subject-03.csv,xpyriment,Kafkaesque Koffka,3.2.8,0,h,NA,s,h,NA,h,456,NA,15174,2119,NA,456,2,legacy,1024,2,48000,-16,experiment,HHSHH,3,odd,17970,227978,NA,234718,229546,NA,261837,259990,2795,225858,NA,261943,2773,261944,262402,261815,Flanker Task ,86,44454,94,yes,1024
91.57894737,91.57894737,472.2631579,472.2631579,black,xpyriment,legacy,legacy,0,Congruent,uniform,1,undefined,1,h,0,0,0,94,94,0,94,94,0,0,0,94,0,94,94,94,9/25/19 9:42,600,The main experiment item,yes,FlankerTask.osexp,C:\Users\hosan\Desktop,no,mono,no,18,no,white,no,yes,768,legacy,14,79,C:/Users/hosan/Desktop/TB_subject-03.csv,xpyriment,Kafkaesque Koffka,3.2.8,0,h,NA,s,h,NA,h,411,NA,15174,2119,NA,411,2,legacy,1024,2,48000,-16,experiment,HHHHH,3,odd,17970,227978,NA,262483,229546,NA,264817,262991,2795,225858,NA,264923,2773,264923,265335,264794,Flanker Task ,87,44865,95,yes,1024
91.66666667,91.66666667,471.6666667,471.6666667,black,xpyriment,legacy,legacy,0,Congruent,uniform,1,undefined,1,s,0,0,0,95,95,0,95,95,0,0,0,95,0,95,95,95,9/25/19 9:42,600,The main experiment item,yes,FlankerTask.osexp,C:\Users\hosan\Desktop,no,mono,no,18,no,white,no,yes,768,legacy,15,79,C:/Users/hosan/Desktop/TB_subject-03.csv,xpyriment,Kafkaesque Koffka,3.2.8,0,s,NA,s,h,NA,s,415,NA,15174,2119,NA,415,2,legacy,1024,2,48000,-16,experiment,SSSSS,3,odd,17970,227978,NA,262483,229546,NA,267213,265372,2795,225858,NA,267320,2773,267320,267736,267189,Flanker Task ,88,45280,96,yes,1024
91.75257732,91.75257732,470.9484536,470.9484536,black,xpyriment,legacy,legacy,0,Congruent,uniform,1,undefined,1,h,0,0,0,96,96,0,96,96,0,0,0,96,0,96,96,96,9/25/19 9:42,600,The main experiment item,yes,FlankerTask.osexp,C:\Users\hosan\Desktop,no,mono,no,18,no,white,no,yes,768,legacy,16,79,C:/Users/hosan/Desktop/TB_subject-03.csv,xpyriment,Kafkaesque Koffka,3.2.8,0,h,NA,s,h,NA,h,402,NA,15174,2119,NA,402,2,legacy,1024,2,48000,-16,experiment,HHHHH,3,odd,17970,227978,NA,262483,229546,NA,269857,267766,2795,225858,NA,269963,2773,269963,270369,269831,Flanker Task ,89,45682,97,yes,1024
91.83673469,91.83673469,470.4081633,470.4081633,black,xpyriment,legacy,legacy,0,Congruent,uniform,1,undefined,1,s,0,0,0,97,97,0,97,97,0,0,0,97,0,97,97,97,9/25/19 9:42,600,The main experiment item,yes,FlankerTask.osexp,C:\Users\hosan\Desktop,no,mono,no,18,no,white,no,yes,768,legacy,17,79,C:/Users/hosan/Desktop/TB_subject-03.csv,xpyriment,Kafkaesque Koffka,3.2.8,0,s,NA,s,h,NA,s,418,NA,15174,2119,NA,418,2,legacy,1024,2,48000,-16,experiment,SSSSS,3,odd,17970,227978,NA,262483,229546,NA,272504,270458,2795,225858,NA,272610,2773,272610,273029,272480,Flanker Task ,90,46100,98,yes,1024
91.91919192,91.91919192,470.3232323,470.3232323,black,xpyriment,legacy,legacy,0,Congruent,uniform,1,undefined,1,s,0,0,0,98,98,0,98,98,0,0,0,98,0,98,98,98,9/25/19 9:42,600,The main experiment item,yes,FlankerTask.osexp,C:\Users\hosan\Desktop,no,mono,no,18,no,white,no,yes,768,legacy,18,79,C:/Users/hosan/Desktop/TB_subject-03.csv,xpyriment,Kafkaesque Koffka,3.2.8,0,s,NA,s,h,NA,s,462,NA,15174,2119,NA,462,2,legacy,1024,2,48000,-16,experiment,SSSSS,3,odd,17970,227978,NA,262483,229546,NA,274889,273058,2795,225858,NA,274996,2773,274996,275461,274867,Flanker Task ,91,46562,99,yes,1024
92,92,469.44,469.44,black,xpyriment,legacy,legacy,0,Congruent,uniform,1,undefined,1,s,0,0,0,99,99,0,99,99,0,0,0,99,0,99,99,99,9/25/19 9:42,600,The main experiment item,yes,FlankerTask.osexp,C:\Users\hosan\Desktop,no,mono,no,18,no,white,no,yes,768,legacy,19,79,C:/Users/hosan/Desktop/TB_subject-03.csv,xpyriment,Kafkaesque Koffka,3.2.8,0,s,NA,s,h,NA,s,382,NA,15174,2119,NA,382,2,legacy,1024,2,48000,-16,experiment,SSSSS,3,odd,17970,227978,NA,262483,229546,NA,277376,275541,2795,225858,NA,277482,2773,277482,277865,277353,Flanker Task ,92,46944,100,yes,1024
92.07920792,92.07920792,470.0792079,470.0792079,black,xpyriment,legacy,legacy,0,Incongruent,uniform,1,undefined,1,h,0,0,0,100,100,0,100,100,0,0,0,100,0,100,100,100,9/25/19 9:42,600,The main experiment item,yes,FlankerTask.osexp,C:\Users\hosan\Desktop,no,mono,no,18,no,white,no,yes,768,legacy,20,79,C:/Users/hosan/Desktop/TB_subject-03.csv,xpyriment,Kafkaesque Koffka,3.2.8,0,h,NA,s,h,NA,h,534,NA,15174,2119,NA,534,2,legacy,1024,2,48000,-16,experiment,SSHSS,3,odd,17970,227978,NA,262483,229546,NA,279798,277930,2795,225858,NA,279904,2773,279904,280439,279775,Flanker Task ,93,47478,101,yes,1024
92.15686275,92.15686275,469.4117647,469.4117647,black,xpyriment,legacy,legacy,0,Congruent,uniform,1,undefined,1,s,0,0,0,101,101,0,101,101,0,0,0,101,0,101,101,101,9/25/19 9:42,600,The main experiment item,yes,FlankerTask.osexp,C:\Users\hosan\Desktop,no,mono,no,18,no,white,no,yes,768,legacy,21,79,C:/Users/hosan/Desktop/TB_subject-03.csv,xpyriment,Kafkaesque Koffka,3.2.8,0,s,NA,s,h,NA,s,402,NA,15174,2119,NA,402,2,legacy,1024,2,48000,-16,experiment,SSSSS,3,odd,17970,227978,NA,262483,229546,NA,282315,280461,2795,225858,NA,282421,2773,282421,282824,282292,Flanker Task ,94,47880,102,yes,1024
92.23300971,92.23300971,470.0194175,470.0194175,black,xpyriment,legacy,legacy,0,Incongruent,uniform,1,undefined,1,h,0,0,0,102,102,0,102,102,0,0,0,102,0,102,102,102,9/25/19 9:42,600,The main experiment item,yes,FlankerTask.osexp,C:\Users\hosan\Desktop,no,mono,no,18,no,white,no,yes,768,legacy,22,79,C:/Users/hosan/Desktop/TB_subject-03.csv,xpyriment,Kafkaesque Koffka,3.2.8,0,h,NA,s,h,NA,h,532,NA,15174,2119,NA,532,2,legacy,1024,2,48000,-16,experiment,SSHSS,3,odd,17970,227978,NA,262483,229546,NA,284702,282856,2795,225858,NA,284808,2773,284809,285343,284680,Flanker Task ,95,48412,103,yes,1024
92.30769231,92.30769231,469.5865385,469.5865385,black,xpyriment,legacy,legacy,0,Congruent,uniform,1,undefined,1,h,0,0,0,103,103,0,103,103,0,0,0,103,0,103,103,103,9/25/19 9:42,600,The main experiment item,yes,FlankerTask.osexp,C:\Users\hosan\Desktop,no,mono,no,18,no,white,no,yes,768,legacy,23,79,C:/Users/hosan/Desktop/TB_subject-03.csv,xpyriment,Kafkaesque Koffka,3.2.8,0,h,NA,s,h,NA,h,425,NA,15174,2119,NA,425,2,legacy,1024,2,48000,-16,experiment,HHHHH,3,odd,17970,227978,NA,262483,229546,NA,287258,285415,2795,225858,NA,287363,2773,287364,287791,287235,Flanker Task ,96,48837,104,yes,1024
92.38095238,92.38095238,469.7428571,469.7428571,black,xpyriment,legacy,legacy,0,Incongruent,uniform,1,undefined,1,s,0,0,0,104,104,0,104,104,0,0,0,104,0,104,104,104,9/25/19 9:42,600,The main experiment item,yes,FlankerTask.osexp,C:\Users\hosan\Desktop,no,mono,no,18,no,white,no,yes,768,legacy,24,79,C:/Users/hosan/Desktop/TB_subject-03.csv,xpyriment,Kafkaesque Koffka,3.2.8,0,s,NA,s,h,NA,s,486,NA,15174,2119,NA,486,2,legacy,1024,2,48000,-16,experiment,HHSHH,3,odd,17970,227978,NA,262483,229546,NA,289677,287822,2795,225858,NA,289783,2773,289783,290271,289654,Flanker Task ,97,49323,105,yes,1024
92.45283019,92.45283019,469.5471698,469.5471698,black,xpyriment,legacy,legacy,0,Congruent,uniform,1,undefined,1,s,0,0,0,105,105,0,105,105,0,0,0,105,0,105,105,105,9/25/19 9:42,600,The main experiment item,yes,FlankerTask.osexp,C:\Users\hosan\Desktop,no,mono,no,18,no,white,no,yes,768,legacy,25,79,C:/Users/hosan/Desktop/TB_subject-03.csv,xpyriment,Kafkaesque Koffka,3.2.8,0,s,NA,s,h,NA,s,449,NA,15174,2119,NA,449,2,legacy,1024,2,48000,-16,experiment,SSSSS,3,odd,17970,227978,NA,262483,229546,NA,292192,290346,2795,225858,NA,292298,2773,292299,292749,292170,Flanker Task ,98,49772,106,yes,1024
91.58878505,91.58878505,469.4953271,469.4953271,black,xpyriment,legacy,legacy,0,Incongruent,uniform,0,undefined,0,s,0,0,0,106,106,0,106,106,0,0,0,106,0,106,106,106,9/25/19 9:42,600,The main experiment item,yes,FlankerTask.osexp,C:\Users\hosan\Desktop,no,mono,no,18,no,white,no,yes,768,legacy,26,79,C:/Users/hosan/Desktop/TB_subject-03.csv,xpyriment,Kafkaesque Koffka,3.2.8,0,h,NA,s,h,NA,h,464,NA,15174,2119,NA,464,2,legacy,1024,2,48000,-16,experiment,HHSHH,3,odd,17970,227978,NA,262483,229546,NA,294669,292809,2795,225858,NA,294775,2773,294775,295241,294646,Flanker Task ,98,50236,107,yes,1024
91.66666667,91.66666667,469.3055556,469.3055556,black,xpyriment,legacy,legacy,0,Congruent,uniform,1,undefined,1,h,0,0,0,107,107,0,107,107,0,0,0,107,0,107,107,107,9/25/19 9:42,600,The main experiment item,yes,FlankerTask.osexp,C:\Users\hosan\Desktop,no,mono,no,18,no,white,no,yes,768,legacy,27,79,C:/Users/hosan/Desktop/TB_subject-03.csv,xpyriment,Kafkaesque Koffka,3.2.8,0,h,NA,s,h,NA,h,449,NA,15174,2119,NA,449,2,legacy,1024,2,48000,-16,experiment,HHHHH,3,odd,17970,227978,NA,295321,229546,NA,297664,295827,2795,225858,NA,297770,2773,297770,298221,297641,Flanker Task ,99,50685,108,yes,1024
91.74311927,91.74311927,468.8073395,468.8073395,black,xpyriment,legacy,legacy,0,Congruent,uniform,1,undefined,1,h,0,0,0,108,108,0,108,108,0,0,0,108,0,108,108,108,9/25/19 9:42,600,The main experiment item,yes,FlankerTask.osexp,C:\Users\hosan\Desktop,no,mono,no,18,no,white,no,yes,768,legacy,28,79,C:/Users/hosan/Desktop/TB_subject-03.csv,xpyriment,Kafkaesque Koffka,3.2.8,0,h,NA,s,h,NA,h,415,NA,15174,2119,NA,415,2,legacy,1024,2,48000,-16,experiment,HHHHH,3,odd,17970,227978,NA,295321,229546,NA,300085,298239,2795,225858,NA,300191,2773,300192,300609,300063,Flanker Task ,100,51100,109,yes,1024
91.81818182,91.81818182,468.5272727,468.5272727,black,xpyriment,legacy,legacy,0,Congruent,uniform,1,undefined,1,s,0,0,0,109,109,0,109,109,0,0,0,109,0,109,109,109,9/25/19 9:42,600,The main experiment item,yes,FlankerTask.osexp,C:\Users\hosan\Desktop,no,mono,no,18,no,white,no,yes,768,legacy,29,79,C:/Users/hosan/Desktop/TB_subject-03.csv,xpyriment,Kafkaesque Koffka,3.2.8,0,s,NA,s,h,NA,s,438,NA,15174,2119,NA,438,2,legacy,1024,2,48000,-16,experiment,SSSSS,3,odd,17970,227978,NA,295321,229546,NA,302541,300690,2795,225858,NA,302647,2773,302647,303087,302518,Flanker Task ,101,51538,110,yes,1024
91.89189189,91.89189189,468.7027027,468.7027027,black,xpyriment,legacy,legacy,0,Incongruent,uniform,1,undefined,1,h,0,0,0,110,110,0,110,110,0,0,0,110,0,110,110,110,9/25/19 9:42,600,The main experiment item,yes,FlankerTask.osexp,C:\Users\hosan\Desktop,no,mono,no,18,no,white,no,yes,768,legacy,30,79,C:/Users/hosan/Desktop/TB_subject-03.csv,xpyriment,Kafkaesque Koffka,3.2.8,0,h,NA,s,h,NA,h,488,NA,15174,2119,NA,488,2,legacy,1024,2,48000,-16,experiment,SSHSS,3,odd,17970,227978,NA,295321,229546,NA,304996,303148,2795,225858,NA,305103,2773,305103,305592,304974,Flanker Task ,102,52026,111,yes,1024
91.96428571,91.96428571,468.5089286,468.5089286,black,xpyriment,legacy,legacy,0,Incongruent,uniform,1,undefined,1,h,0,0,0,111,111,0,111,111,0,0,0,111,0,111,111,111,9/25/19 9:42,600,The main experiment item,yes,FlankerTask.osexp,C:\Users\hosan\Desktop,no,mono,no,18,no,white,no,yes,768,legacy,31,79,C:/Users/hosan/Desktop/TB_subject-03.csv,xpyriment,Kafkaesque Koffka,3.2.8,0,h,NA,s,h,NA,h,447,NA,15174,2119,NA,447,2,legacy,1024,2,48000,-16,experiment,SSHSS,3,odd,17970,227978,NA,295321,229546,NA,307520,305655,2795,225858,NA,307625,2773,307626,308075,307497,Flanker Task ,103,52473,112,yes,1024
92.03539823,92.03539823,468.0442478,468.0442478,black,xpyriment,legacy,legacy,0,Congruent,uniform,1,undefined,1,h,0,0,0,112,112,0,112,112,0,0,0,112,0,112,112,112,9/25/19 9:42,600,The main experiment item,yes,FlankerTask.osexp,C:\Users\hosan\Desktop,no,mono,no,18,no,white,no,yes,768,legacy,32,79,C:/Users/hosan/Desktop/TB_subject-03.csv,xpyriment,Kafkaesque Koffka,3.2.8,0,h,NA,s,h,NA,h,416,NA,15174,2119,NA,416,2,legacy,1024,2,48000,-16,experiment,HHHHH,3,odd,17970,227978,NA,295321,229546,NA,309944,308114,2795,225858,NA,310049,2773,310050,310468,309921,Flanker Task ,104,52889,113,yes,1024
92.10526316,92.10526316,467.2192982,467.2192982,black,xpyriment,legacy,legacy,0,Congruent,uniform,1,undefined,1,h,0,0,0,113,113,0,113,113,0,0,0,113,0,113,113,113,9/25/19 9:42,600,The main experiment item,yes,FlankerTask.osexp,C:\Users\hosan\Desktop,no,mono,no,18,no,white,no,yes,768,legacy,33,79,C:/Users/hosan/Desktop/TB_subject-03.csv,xpyriment,Kafkaesque Koffka,3.2.8,0,h,NA,s,h,NA,h,374,NA,15174,2119,NA,374,2,legacy,1024,2,48000,-16,experiment,HHHHH,3,odd,17970,227978,NA,295321,229546,NA,312367,310543,2795,225858,NA,312472,2773,312473,312848,312344,Flanker Task ,105,53263,114,yes,1024
92.17391304,92.17391304,467.3043478,467.3043478,black,xpyriment,legacy,legacy,0,Incongruent,uniform,1,undefined,1,h,0,0,0,114,114,0,114,114,0,0,0,114,0,114,114,114,9/25/19 9:42,600,The main experiment item,yes,FlankerTask.osexp,C:\Users\hosan\Desktop,no,mono,no,18,no,white,no,yes,768,legacy,34,79,C:/Users/hosan/Desktop/TB_subject-03.csv,xpyriment,Kafkaesque Koffka,3.2.8,0,h,NA,s,h,NA,h,477,NA,15174,2119,NA,477,2,legacy,1024,2,48000,-16,experiment,SSHSS,3,odd,17970,227978,NA,295321,229546,NA,314765,312900,2795,225858,NA,314872,2773,314872,315351,314741,Flanker Task ,106,53740,115,yes,1024
92.24137931,92.24137931,466.25,466.25,black,xpyriment,legacy,legacy,0,Congruent,uniform,1,undefined,1,h,0,0,0,115,115,0,115,115,0,0,0,115,0,115,115,115,9/25/19 9:42,600,The main experiment item,yes,FlankerTask.osexp,C:\Users\hosan\Desktop,no,mono,no,18,no,white,no,yes,768,legacy,35,79,C:/Users/hosan/Desktop/TB_subject-03.csv,xpyriment,Kafkaesque Koffka,3.2.8,0,h,NA,s,h,NA,h,345,NA,15174,2119,NA,345,2,legacy,1024,2,48000,-16,experiment,HHHHH,3,odd,17970,227978,NA,295321,229546,NA,317257,315427,2795,225858,NA,317363,2773,317363,317710,317235,Flanker Task ,107,54085,116,yes,1024
92.30769231,92.30769231,465.3333333,465.3333333,black,xpyriment,legacy,legacy,0,Congruent,uniform,1,undefined,1,h,0,0,0,116,116,0,116,116,0,0,0,116,0,116,116,116,9/25/19 9:42,600,The main experiment item,yes,FlankerTask.osexp,C:\Users\hosan\Desktop,no,mono,no,18,no,white,no,yes,768,legacy,36,79,C:/Users/hosan/Desktop/TB_subject-03.csv,xpyriment,Kafkaesque Koffka,3.2.8,0,h,NA,s,h,NA,h,359,NA,15174,2119,NA,359,2,legacy,1024,2,48000,-16,experiment,HHHHH,3,odd,17970,227978,NA,295321,229546,NA,319667,317790,2795,225858,NA,319773,2773,319773,320133,319644,Flanker Task ,108,54444,117,yes,1024
92.37288136,92.37288136,465.9745763,465.9745763,black,xpyriment,legacy,legacy,0,Incongruent,uniform,1,undefined,1,h,0,0,0,117,117,0,117,117,0,0,0,117,0,117,117,117,9/25/19 9:42,600,The main experiment item,yes,FlankerTask.osexp,C:\Users\hosan\Desktop,no,mono,no,18,no,white,no,yes,768,legacy,37,79,C:/Users/hosan/Desktop/TB_subject-03.csv,xpyriment,Kafkaesque Koffka,3.2.8,0,h,NA,s,h,NA,h,541,NA,15174,2119,NA,541,2,legacy,1024,2,48000,-16,experiment,SSHSS,3,odd,17970,227978,NA,295321,229546,NA,322058,320169,2795,225858,NA,322164,2773,322164,322708,322036,Flanker Task ,109,54985,118,yes,1024
92.43697479,92.43697479,464.789916,464.789916,black,xpyriment,legacy,legacy,0,Congruent,uniform,1,undefined,1,h,0,0,0,118,118,0,118,118,0,0,0,118,0,118,118,118,9/25/19 9:42,600,The main experiment item,yes,FlankerTask.osexp,C:\Users\hosan\Desktop,no,mono,no,18,no,white,no,yes,768,legacy,38,79,C:/Users/hosan/Desktop/TB_subject-03.csv,xpyriment,Kafkaesque Koffka,3.2.8,0,h,NA,s,h,NA,h,325,NA,15174,2119,NA,325,2,legacy,1024,2,48000,-16,experiment,HHHHH,3,odd,17970,227978,NA,295321,229546,NA,324628,322783,2795,225858,NA,324733,2773,324733,325060,324605,Flanker Task ,110,55310,119,yes,1024
92.5,92.5,463.8666667,463.8666667,black,xpyriment,legacy,legacy,0,Incongruent,uniform,1,undefined,1,h,0,0,0,119,119,0,119,119,0,0,0,119,0,119,119,119,9/25/19 9:42,600,The main experiment item,yes,FlankerTask.osexp,C:\Users\hosan\Desktop,no,mono,no,18,no,white,no,yes,768,legacy,39,79,C:/Users/hosan/Desktop/TB_subject-03.csv,xpyriment,Kafkaesque Koffka,3.2.8,0,h,NA,s,h,NA,h,354,NA,15174,2119,NA,354,2,legacy,1024,2,48000,-16,experiment,SSHSS,3,odd,17970,227978,NA,295321,229546,NA,326952,325133,2795,225858,NA,327057,2773,327058,327414,326929,Flanker Task ,111,55664,120,yes,1024
92.56198347,92.56198347,463.3223141,463.3223141,black,xpyriment,legacy,legacy,0,Congruent,uniform,1,undefined,1,h,0,0,0,120,120,0,120,120,0,0,0,120,0,120,120,120,9/25/19 9:42,600,The main experiment item,yes,FlankerTask.osexp,C:\Users\hosan\Desktop,no,mono,no,18,no,white,no,yes,768,legacy,40,79,C:/Users/hosan/Desktop/TB_subject-03.csv,xpyriment,Kafkaesque Koffka,3.2.8,0,h,NA,s,h,NA,h,398,NA,15174,2119,NA,398,2,legacy,1024,2,48000,-16,experiment,HHHHH,3,odd,17970,227978,NA,295321,229546,NA,329305,327446,2795,225858,NA,329411,2773,329412,329812,329283,Flanker Task ,112,56062,121,yes,1024
92.62295082,92.62295082,463.4672131,463.4672131,black,xpyriment,legacy,legacy,0,Congruent,uniform,1,undefined,1,s,0,0,0,121,121,0,121,121,0,0,0,121,0,121,121,121,9/25/19 9:42,600,The main experiment item,yes,FlankerTask.osexp,C:\Users\hosan\Desktop,no,mono,no,18,no,white,no,yes,768,legacy,41,79,C:/Users/hosan/Desktop/TB_subject-03.csv,xpyriment,Kafkaesque Koffka,3.2.8,0,s,NA,s,h,NA,s,481,NA,15174,2119,NA,481,2,legacy,1024,2,48000,-16,experiment,SSSSS,3,odd,17970,227978,NA,295321,229546,NA,331763,329862,2795,225858,NA,331869,2773,331869,332351,331740,Flanker Task ,113,56543,122,yes,1024
92.68292683,92.68292683,462.9186992,462.9186992,black,xpyriment,legacy,legacy,0,Congruent,uniform,1,undefined,1,h,0,0,0,122,122,0,122,122,0,0,0,122,0,122,122,122,9/25/19 9:42,600,The main experiment item,yes,FlankerTask.osexp,C:\Users\hosan\Desktop,no,mono,no,18,no,white,no,yes,768,legacy,42,79,C:/Users/hosan/Desktop/TB_subject-03.csv,xpyriment,Kafkaesque Koffka,3.2.8,0,h,NA,s,h,NA,h,396,NA,15174,2119,NA,396,2,legacy,1024,2,48000,-16,experiment,HHHHH,3,odd,17970,227978,NA,295321,229546,NA,334257,332426,2795,225858,NA,334362,2773,334363,334761,334234,Flanker Task ,114,56939,123,yes,1024
92.74193548,92.74193548,463.0564516,463.0564516,black,xpyriment,legacy,legacy,0,Incongruent,uniform,1,undefined,1,s,0,0,0,123,123,0,123,123,0,0,0,123,0,123,123,123,9/25/19 9:42,600,The main experiment item,yes,FlankerTask.osexp,C:\Users\hosan\Desktop,no,mono,no,18,no,white,no,yes,768,legacy,43,79,C:/Users/hosan/Desktop/TB_subject-03.csv,xpyriment,Kafkaesque Koffka,3.2.8,0,s,NA,s,h,NA,s,480,NA,15174,2119,NA,480,2,legacy,1024,2,48000,-16,experiment,HHSHH,3,odd,17970,227978,NA,295321,229546,NA,336666,334836,2795,225858,NA,336772,2773,336772,337254,336643,Flanker Task ,115,57419,124,yes,1024
92.8,92.8,462.312,462.312,black,xpyriment,legacy,legacy,0,Congruent,uniform,1,undefined,1,s,0,0,0,124,124,0,124,124,0,0,0,124,0,124,124,124,9/25/19 9:42,600,The main experiment item,yes,FlankerTask.osexp,C:\Users\hosan\Desktop,no,mono,no,18,no,white,no,yes,768,legacy,44,79,C:/Users/hosan/Desktop/TB_subject-03.csv,xpyriment,Kafkaesque Koffka,3.2.8,0,s,NA,s,h,NA,s,370,NA,15174,2119,NA,370,2,legacy,1024,2,48000,-16,experiment,SSSSS,3,odd,17970,227978,NA,295321,229546,NA,339172,337322,2795,225858,NA,339277,2773,339278,339650,339149,Flanker Task ,116,57789,125,yes,1024
92.85714286,92.85714286,461.5634921,461.5634921,black,xpyriment,legacy,legacy,0,Congruent,uniform,1,undefined,1,s,0,0,0,125,125,0,125,125,0,0,0,125,0,125,125,125,9/25/19 9:42,600,The main experiment item,yes,FlankerTask.osexp,C:\Users\hosan\Desktop,no,mono,no,18,no,white,no,yes,768,legacy,45,79,C:/Users/hosan/Desktop/TB_subject-03.csv,xpyriment,Kafkaesque Koffka,3.2.8,0,s,NA,s,h,NA,s,368,NA,15174,2119,NA,368,2,legacy,1024,2,48000,-16,experiment,SSSSS,3,odd,17970,227978,NA,295321,229546,NA,341583,339724,2795,225858,NA,341690,2773,341690,342059,341560,Flanker Task ,117,58157,126,yes,1024
92.12598425,92.12598425,460.6692913,460.6692913,black,xpyriment,legacy,legacy,0,Incongruent,uniform,0,undefined,0,h,0,0,0,126,126,0,126,126,0,0,0,126,0,126,126,126,9/25/19 9:42,600,The main experiment item,yes,FlankerTask.osexp,C:\Users\hosan\Desktop,no,mono,no,18,no,white,no,yes,768,legacy,46,79,C:/Users/hosan/Desktop/TB_subject-03.csv,xpyriment,Kafkaesque Koffka,3.2.8,0,s,NA,s,h,NA,s,348,NA,15174,2119,NA,348,2,legacy,1024,2,48000,-16,experiment,SSHSS,3,odd,17970,227978,NA,295321,229546,NA,343978,342137,2795,225858,NA,344085,2773,344086,344435,343955,Flanker Task ,117,58505,127,yes,1024
92.1875,92.1875,460.2421875,460.2421875,black,xpyriment,legacy,legacy,0,Congruent,uniform,1,undefined,1,s,0,0,0,127,127,0,127,127,0,0,0,127,0,127,127,127,9/25/19 9:42,600,The main experiment item,yes,FlankerTask.osexp,C:\Users\hosan\Desktop,no,mono,no,18,no,white,no,yes,768,legacy,47,79,C:/Users/hosan/Desktop/TB_subject-03.csv,xpyriment,Kafkaesque Koffka,3.2.8,0,s,NA,s,h,NA,s,406,NA,15174,2119,NA,406,2,legacy,1024,2,48000,-16,experiment,SSSSS,3,odd,17970,227978,NA,344520,229546,NA,346847,345026,2795,225858,NA,346953,2773,346953,347361,346824,Flanker Task ,118,58911,128,yes,1024
92.24806202,92.24806202,460.8139535,460.8139535,black,xpyriment,legacy,legacy,0,Incongruent,uniform,1,undefined,1,s,0,0,0,128,128,0,128,128,0,0,0,128,0,128,128,128,9/25/19 9:42,600,The main experiment item,yes,FlankerTask.osexp,C:\Users\hosan\Desktop,no,mono,no,18,no,white,no,yes,768,legacy,48,79,C:/Users/hosan/Desktop/TB_subject-03.csv,xpyriment,Kafkaesque Koffka,3.2.8,0,s,NA,s,h,NA,s,534,NA,15174,2119,NA,534,2,legacy,1024,2,48000,-16,experiment,HHSHH,3,odd,17970,227978,NA,344520,229546,NA,349334,347436,2795,225858,NA,349440,2773,349440,349976,349312,Flanker Task ,119,59445,129,yes,1024
92.30769231,92.30769231,460.8230769,460.8230769,black,xpyriment,legacy,legacy,0,Congruent,uniform,1,undefined,1,h,0,0,0,129,129,0,129,129,0,0,0,129,0,129,129,129,9/25/19 9:42,600,The main experiment item,yes,FlankerTask.osexp,C:\Users\hosan\Desktop,no,mono,no,18,no,white,no,yes,768,legacy,49,79,C:/Users/hosan/Desktop/TB_subject-03.csv,xpyriment,Kafkaesque Koffka,3.2.8,0,h,NA,s,h,NA,h,462,NA,15174,2119,NA,462,2,legacy,1024,2,48000,-16,experiment,HHHHH,3,odd,17970,227978,NA,344520,229546,NA,351956,350057,2795,225858,NA,352061,2773,352062,352526,351934,Flanker Task ,120,59907,130,yes,1024
92.36641221,92.36641221,460.9389313,460.9389313,black,xpyriment,legacy,legacy,0,Incongruent,uniform,1,undefined,1,s,0,0,0,130,130,0,130,130,0,0,0,130,0,130,130,130,9/25/19 9:42,600,The main experiment item,yes,FlankerTask.osexp,C:\Users\hosan\Desktop,no,mono,no,18,no,white,no,yes,768,legacy,50,79,C:/Users/hosan/Desktop/TB_subject-03.csv,xpyriment,Kafkaesque Koffka,3.2.8,0,s,NA,s,h,NA,s,476,NA,15174,2119,NA,476,2,legacy,1024,2,48000,-16,experiment,HHSHH,3,odd,17970,227978,NA,344520,229546,NA,354523,352587,2795,225858,NA,354628,2773,354629,355106,354500,Flanker Task ,121,60383,131,yes,1024
92.42424242,92.42424242,461.8560606,461.8560606,black,xpyriment,legacy,legacy,0,Incongruent,uniform,1,undefined,1,s,0,0,0,131,131,0,131,131,0,0,0,131,0,131,131,131,9/25/19 9:42,600,The main experiment item,yes,FlankerTask.osexp,C:\Users\hosan\Desktop,no,mono,no,18,no,white,no,yes,768,legacy,51,79,C:/Users/hosan/Desktop/TB_subject-03.csv,xpyriment,Kafkaesque Koffka,3.2.8,0,s,NA,s,h,NA,s,582,NA,15174,2119,NA,582,2,legacy,1024,2,48000,-16,experiment,HHSHH,3,odd,17970,227978,NA,344520,229546,NA,357187,355188,2795,225858,NA,357292,2773,357293,357877,357165,Flanker Task ,122,60965,132,yes,1024
92.48120301,92.48120301,462.5639098,462.5639098,black,xpyriment,legacy,legacy,0,Incongruent,uniform,1,undefined,1,s,0,0,0,132,132,0,132,132,0,0,0,132,0,132,132,132,9/25/19 9:42,600,The main experiment item,yes,FlankerTask.osexp,C:\Users\hosan\Desktop,no,mono,no,18,no,white,no,yes,768,legacy,52,79,C:/Users/hosan/Desktop/TB_subject-03.csv,xpyriment,Kafkaesque Koffka,3.2.8,0,s,NA,s,h,NA,s,556,NA,15174,2119,NA,556,2,legacy,1024,2,48000,-16,experiment,HHSHH,3,odd,17970,227978,NA,344520,229546,NA,359783,357944,2795,225858,NA,359888,2773,359889,360448,359760,Flanker Task ,123,61521,133,yes,1024
92.53731343,92.53731343,462.8059701,462.8059701,black,xpyriment,legacy,legacy,0,Incongruent,uniform,1,undefined,1,s,0,0,0,133,133,0,133,133,0,0,0,133,0,133,133,133,9/25/19 9:42,600,The main experiment item,yes,FlankerTask.osexp,C:\Users\hosan\Desktop,no,mono,no,18,no,white,no,yes,768,legacy,53,79,C:/Users/hosan/Desktop/TB_subject-03.csv,xpyriment,Kafkaesque Koffka,3.2.8,0,s,NA,s,h,NA,s,495,NA,15174,2119,NA,495,2,legacy,1024,2,48000,-16,experiment,HHSHH,3,odd,17970,227978,NA,344520,229546,NA,362381,360515,2795,225858,NA,362487,2773,362487,362983,362358,Flanker Task ,124,62016,134,yes,1024
92.59259259,92.59259259,464.1259259,464.1259259,black,xpyriment,legacy,legacy,0,Congruent,uniform,1,undefined,1,s,0,0,0,134,134,0,134,134,0,0,0,134,0,134,134,134,9/25/19 9:42,600,The main experiment item,yes,FlankerTask.osexp,C:\Users\hosan\Desktop,no,mono,no,18,no,white,no,yes,768,legacy,54,79,C:/Users/hosan/Desktop/TB_subject-03.csv,xpyriment,Kafkaesque Koffka,3.2.8,0,s,NA,s,h,NA,s,641,NA,15174,2119,NA,641,2,legacy,1024,2,48000,-16,experiment,SSSSS,3,odd,17970,227978,NA,344520,229546,NA,364873,363022,2795,225858,NA,364980,2773,364980,365623,364851,Flanker Task ,125,62657,135,yes,1024
91.91176471,91.91176471,464.0735294,464.0735294,black,xpyriment,legacy,legacy,0,Congruent,uniform,0,undefined,0,h,0,0,0,135,135,0,135,135,0,0,0,135,0,135,135,135,9/25/19 9:42,600,The main experiment item,yes,FlankerTask.osexp,C:\Users\hosan\Desktop,no,mono,no,18,no,white,no,yes,768,legacy,55,79,C:/Users/hosan/Desktop/TB_subject-03.csv,xpyriment,Kafkaesque Koffka,3.2.8,0,s,NA,s,h,NA,s,457,NA,15174,2119,NA,457,2,legacy,1024,2,48000,-16,experiment,HHHHH,3,odd,17970,227978,NA,344520,365689,NA,368028,366195,2795,225858,NA,368134,2773,368134,368593,368005,Flanker Task ,125,63114,136,yes,1024
91.97080292,91.97080292,464.1313869,464.1313869,black,xpyriment,legacy,legacy,0,Congruent,uniform,1,undefined,1,s,0,0,0,136,136,0,136,136,0,0,0,136,0,136,136,136,9/25/19 9:42,600,The main experiment item,yes,FlankerTask.osexp,C:\Users\hosan\Desktop,no,mono,no,18,no,white,no,yes,768,legacy,56,79,C:/Users/hosan/Desktop/TB_subject-03.csv,xpyriment,Kafkaesque Koffka,3.2.8,0,s,NA,s,h,NA,s,472,NA,15174,2119,NA,472,2,legacy,1024,2,48000,-16,experiment,SSSSS,3,odd,17970,227978,NA,368661,365689,NA,371024,369168,2795,225858,NA,371131,2773,371131,371605,371002,Flanker Task ,126,63586,137,yes,1024
92.02898551,92.02898551,464.884058,464.884058,black,xpyriment,legacy,legacy,0,Incongruent,uniform,1,undefined,1,s,0,0,0,137,137,0,137,137,0,0,0,137,0,137,137,137,9/25/19 9:42,600,The main experiment item,yes,FlankerTask.osexp,C:\Users\hosan\Desktop,no,mono,no,18,no,white,no,yes,768,legacy,57,79,C:/Users/hosan/Desktop/TB_subject-03.csv,xpyriment,Kafkaesque Koffka,3.2.8,0,s,NA,s,h,NA,s,568,NA,15174,2119,NA,568,2,legacy,1024,2,48000,-16,experiment,HHSHH,3,odd,17970,227978,NA,368661,365689,NA,373523,371683,2795,225858,NA,373630,2773,373630,374200,373501,Flanker Task ,127,64154,138,yes,1024
92.08633094,92.08633094,465.0359712,465.0359712,black,xpyriment,legacy,legacy,0,Incongruent,uniform,1,undefined,1,h,0,0,0,138,138,0,138,138,0,0,0,138,0,138,138,138,9/25/19 9:42,600,The main experiment item,yes,FlankerTask.osexp,C:\Users\hosan\Desktop,no,mono,no,18,no,white,no,yes,768,legacy,58,79,C:/Users/hosan/Desktop/TB_subject-03.csv,xpyriment,Kafkaesque Koffka,3.2.8,0,h,NA,s,h,NA,h,486,NA,15174,2119,NA,486,2,legacy,1024,2,48000,-16,experiment,SSHSS,3,odd,17970,227978,NA,368661,365689,NA,376171,374262,2795,225858,NA,376276,2773,376277,376767,376148,Flanker Task ,128,64640,139,yes,1024
92.14285714,92.14285714,464.4071429,464.4071429,black,xpyriment,legacy,legacy,0,Congruent,uniform,1,undefined,1,h,0,0,0,139,139,0,139,139,0,0,0,139,0,139,139,139,9/25/19 9:42,600,The main experiment item,yes,FlankerTask.osexp,C:\Users\hosan\Desktop,no,mono,no,18,no,white,no,yes,768,legacy,59,79,C:/Users/hosan/Desktop/TB_subject-03.csv,xpyriment,Kafkaesque Koffka,3.2.8,0,h,NA,s,h,NA,h,377,NA,15174,2119,NA,377,2,legacy,1024,2,48000,-16,experiment,HHHHH,3,odd,17970,227978,NA,368661,365689,NA,378672,376844,2795,225858,NA,378777,2773,378778,379156,378649,Flanker Task ,129,65017,140,yes,1024
92.19858156,92.19858156,465.1276596,465.1276596,black,xpyriment,legacy,legacy,0,Incongruent,uniform,1,undefined,1,h,0,0,0,140,140,0,140,140,0,0,0,140,0,140,140,140,9/25/19 9:42,600,The main experiment item,yes,FlankerTask.osexp,C:\Users\hosan\Desktop,no,mono,no,18,no,white,no,yes,768,legacy,60,79,C:/Users/hosan/Desktop/TB_subject-03.csv,xpyriment,Kafkaesque Koffka,3.2.8,0,h,NA,s,h,NA,h,566,NA,15174,2119,NA,566,2,legacy,1024,2,48000,-16,experiment,SSHSS,3,odd,17970,227978,NA,368661,365689,NA,381069,379187,2795,225858,NA,381175,2773,381176,381744,381046,Flanker Task ,130,65583,141,yes,1024
92.25352113,92.25352113,465.1690141,465.1690141,black,xpyriment,legacy,legacy,0,Incongruent,uniform,1,undefined,1,s,0,0,0,141,141,0,141,141,0,0,0,141,0,141,141,141,9/25/19 9:42,600,The main experiment item,yes,FlankerTask.osexp,C:\Users\hosan\Desktop,no,mono,no,18,no,white,no,yes,768,legacy,61,79,C:/Users/hosan/Desktop/TB_subject-03.csv,xpyriment,Kafkaesque Koffka,3.2.8,0,s,NA,s,h,NA,s,471,NA,15174,2119,NA,471,2,legacy,1024,2,48000,-16,experiment,HHSHH,3,odd,17970,227978,NA,368661,365689,NA,383688,381819,2795,225858,NA,383793,2773,383794,384267,383665,Flanker Task ,131,66054,142,yes,1024
92.30769231,92.30769231,466.0979021,466.0979021,black,xpyriment,legacy,legacy,0,Congruent,uniform,1,undefined,1,h,0,0,0,142,142,0,142,142,0,0,0,142,0,142,142,142,9/25/19 9:42,600,The main experiment item,yes,FlankerTask.osexp,C:\Users\hosan\Desktop,no,mono,no,18,no,white,no,yes,768,legacy,62,79,C:/Users/hosan/Desktop/TB_subject-03.csv,xpyriment,Kafkaesque Koffka,3.2.8,0,h,NA,s,h,NA,h,598,NA,15174,2119,NA,598,2,legacy,1024,2,48000,-16,experiment,HHHHH,3,odd,17970,227978,NA,368661,365689,NA,386176,384324,2795,225858,NA,386282,2773,386282,386882,386154,Flanker Task ,132,66652,143,yes,1024
92.36111111,92.36111111,466.9097222,466.9097222,black,xpyriment,legacy,legacy,0,Incongruent,uniform,1,undefined,1,s,0,0,0,143,143,0,143,143,0,0,0,143,0,143,143,143,9/25/19 9:42,600,The main experiment item,yes,FlankerTask.osexp,C:\Users\hosan\Desktop,no,mono,no,18,no,white,no,yes,768,legacy,63,79,C:/Users/hosan/Desktop/TB_subject-03.csv,xpyriment,Kafkaesque Koffka,3.2.8,0,s,NA,s,h,NA,s,583,NA,15174,2119,NA,583,2,legacy,1024,2,48000,-16,experiment,HHSHH,3,odd,17970,227978,NA,368661,365689,NA,388794,386960,2795,225858,NA,388901,2773,388901,389486,388771,Flanker Task ,133,67235,144,yes,1024
92.4137931,92.4137931,466.6206897,466.6206897,black,xpyriment,legacy,legacy,0,Incongruent,uniform,1,undefined,1,s,0,0,0,144,144,0,144,144,0,0,0,144,0,144,144,144,9/25/19 9:42,600,The main experiment item,yes,FlankerTask.osexp,C:\Users\hosan\Desktop,no,mono,no,18,no,white,no,yes,768,legacy,64,79,C:/Users/hosan/Desktop/TB_subject-03.csv,xpyriment,Kafkaesque Koffka,3.2.8,0,s,NA,s,h,NA,s,425,NA,15174,2119,NA,425,2,legacy,1024,2,48000,-16,experiment,HHSHH,3,odd,17970,227978,NA,368661,365689,NA,391396,389561,2795,225858,NA,391503,2773,391503,391930,391372,Flanker Task ,134,67660,145,yes,1024
92.46575342,92.46575342,466.9657534,466.9657534,black,xpyriment,legacy,legacy,0,Incongruent,uniform,1,undefined,1,h,0,0,0,145,145,0,145,145,0,0,0,145,0,145,145,145,9/25/19 9:42,600,The main experiment item,yes,FlankerTask.osexp,C:\Users\hosan\Desktop,no,mono,no,18,no,white,no,yes,768,legacy,65,79,C:/Users/hosan/Desktop/TB_subject-03.csv,xpyriment,Kafkaesque Koffka,3.2.8,0,h,NA,s,h,NA,h,517,NA,15174,2119,NA,517,2,legacy,1024,2,48000,-16,experiment,SSHSS,3,odd,17970,227978,NA,368661,365689,NA,393843,392000,2795,225858,NA,393950,2773,393950,394469,393821,Flanker Task ,135,68177,146,yes,1024
92.5170068,92.5170068,467.4897959,467.4897959,black,xpyriment,legacy,legacy,0,Congruent,uniform,1,undefined,1,s,0,0,0,146,146,0,146,146,0,0,0,146,0,146,146,146,9/25/19 9:42,600,The main experiment item,yes,FlankerTask.osexp,C:\Users\hosan\Desktop,no,mono,no,18,no,white,no,yes,768,legacy,66,79,C:/Users/hosan/Desktop/TB_subject-03.csv,xpyriment,Kafkaesque Koffka,3.2.8,0,s,NA,s,h,NA,s,544,NA,15174,2119,NA,544,2,legacy,1024,2,48000,-16,experiment,SSSSS,3,odd,17970,227978,NA,368661,365689,NA,396377,394532,2795,225858,NA,396483,2773,396483,397029,396355,Flanker Task ,136,68721,147,yes,1024
92.56756757,92.56756757,467.6148649,467.6148649,black,xpyriment,legacy,legacy,0,Congruent,uniform,1,undefined,1,h,0,0,0,147,147,0,147,147,0,0,0,147,0,147,147,147,9/25/19 9:42,600,The main experiment item,yes,FlankerTask.osexp,C:\Users\hosan\Desktop,no,mono,no,18,no,white,no,yes,768,legacy,67,79,C:/Users/hosan/Desktop/TB_subject-03.csv,xpyriment,Kafkaesque Koffka,3.2.8,0,h,NA,s,h,NA,h,486,NA,15174,2119,NA,486,2,legacy,1024,2,48000,-16,experiment,HHHHH,3,odd,17970,227978,NA,368661,365689,NA,398920,397062,2795,225858,NA,399026,2773,399027,399514,398898,Flanker Task ,137,69207,148,yes,1024
91.94630872,91.94630872,466.9194631,466.9194631,black,xpyriment,legacy,legacy,0,Incongruent,uniform,0,undefined,0,h,0,0,0,148,148,0,148,148,0,0,0,148,0,148,148,148,9/25/19 9:42,600,The main experiment item,yes,FlankerTask.osexp,C:\Users\hosan\Desktop,no,mono,no,18,no,white,no,yes,768,legacy,68,79,C:/Users/hosan/Desktop/TB_subject-03.csv,xpyriment,Kafkaesque Koffka,3.2.8,0,s,NA,s,h,NA,s,364,NA,15174,2119,NA,364,2,legacy,1024,2,48000,-16,experiment,SSHSS,3,odd,17970,227978,NA,368661,365689,NA,401404,399568,2795,225858,NA,401511,2773,401511,401877,401382,Flanker Task ,137,69571,149,yes,1024
92,92,466.7933333,466.7933333,black,xpyriment,legacy,legacy,0,Incongruent,uniform,1,undefined,1,s,0,0,0,149,149,0,149,149,0,0,0,149,0,149,149,149,9/25/19 9:42,600,The main experiment item,yes,FlankerTask.osexp,C:\Users\hosan\Desktop,no,mono,no,18,no,white,no,yes,768,legacy,69,79,C:/Users/hosan/Desktop/TB_subject-03.csv,xpyriment,Kafkaesque Koffka,3.2.8,0,s,NA,s,h,NA,s,448,NA,15174,2119,NA,448,2,legacy,1024,2,48000,-16,experiment,HHSHH,3,odd,17970,227978,NA,401948,365689,NA,404285,402454,2795,225858,NA,404392,2773,404392,404841,404263,Flanker Task ,138,70019,150,yes,1024
92.05298013,92.05298013,466.4834437,466.4834437,black,xpyriment,legacy,legacy,0,Congruent,uniform,1,undefined,1,h,0,0,0,150,150,0,150,150,0,0,0,150,0,150,150,150,9/25/19 9:42,600,The main experiment item,yes,FlankerTask.osexp,C:\Users\hosan\Desktop,no,mono,no,18,no,white,no,yes,768,legacy,70,79,C:/Users/hosan/Desktop/TB_subject-03.csv,xpyriment,Kafkaesque Koffka,3.2.8,0,h,NA,s,h,NA,h,420,NA,15174,2119,NA,420,2,legacy,1024,2,48000,-16,experiment,HHHHH,3,odd,17970,227978,NA,401948,365689,NA,406775,404890,2795,225858,NA,406880,2773,406880,407302,406752,Flanker Task ,139,70439,151,yes,1024
91.44736842,91.44736842,465.9013158,465.9013158,black,xpyriment,legacy,legacy,0,Incongruent,uniform,0,undefined,0,s,0,0,0,151,151,0,151,151,0,0,0,151,0,151,151,151,9/25/19 9:42,600,The main experiment item,yes,FlankerTask.osexp,C:\Users\hosan\Desktop,no,mono,no,18,no,white,no,yes,768,legacy,71,79,C:/Users/hosan/Desktop/TB_subject-03.csv,xpyriment,Kafkaesque Koffka,3.2.8,0,h,NA,s,h,NA,h,378,NA,15174,2119,NA,378,2,legacy,1024,2,48000,-16,experiment,HHSHH,3,odd,17970,227978,NA,401948,365689,NA,409229,407376,2795,225858,NA,409336,2773,409336,409716,409207,Flanker Task ,139,70817,152,yes,1024
91.50326797,91.50326797,466.2222222,466.2222222,black,xpyriment,legacy,legacy,0,Incongruent,uniform,1,undefined,1,s,0,0,0,152,152,0,152,152,0,0,0,152,0,152,152,152,9/25/19 9:42,600,The main experiment item,yes,FlankerTask.osexp,C:\Users\hosan\Desktop,no,mono,no,18,no,white,no,yes,768,legacy,72,79,C:/Users/hosan/Desktop/TB_subject-03.csv,xpyriment,Kafkaesque Koffka,3.2.8,0,s,NA,s,h,NA,s,515,NA,15174,2119,NA,515,2,legacy,1024,2,48000,-16,experiment,HHSHH,3,odd,17970,227978,NA,409759,365689,NA,412099,410265,2795,225858,NA,412204,2773,412204,412721,412076,Flanker Task ,140,71332,153,yes,1024
91.55844156,91.55844156,465.7012987,465.7012987,black,xpyriment,legacy,legacy,0,Congruent,uniform,1,undefined,1,h,0,0,0,153,153,0,153,153,0,0,0,153,0,153,153,153,9/25/19 9:42,600,The main experiment item,yes,FlankerTask.osexp,C:\Users\hosan\Desktop,no,mono,no,18,no,white,no,yes,768,legacy,73,79,C:/Users/hosan/Desktop/TB_subject-03.csv,xpyriment,Kafkaesque Koffka,3.2.8,0,h,NA,s,h,NA,h,386,NA,15174,2119,NA,386,2,legacy,1024,2,48000,-16,experiment,HHHHH,3,odd,17970,227978,NA,409759,365689,NA,414694,412794,2795,225858,NA,414800,2773,414800,415188,414670,Flanker Task ,141,71718,154,yes,1024
91.61290323,91.61290323,465.7612903,465.7612903,black,xpyriment,legacy,legacy,0,Incongruent,uniform,1,undefined,1,s,0,0,0,154,154,0,154,154,0,0,0,154,0,154,154,154,9/25/19 9:42,600,The main experiment item,yes,FlankerTask.osexp,C:\Users\hosan\Desktop,no,mono,no,18,no,white,no,yes,768,legacy,74,79,C:/Users/hosan/Desktop/TB_subject-03.csv,xpyriment,Kafkaesque Koffka,3.2.8,0,s,NA,s,h,NA,s,475,NA,15174,2119,NA,475,2,legacy,1024,2,48000,-16,experiment,HHSHH,3,odd,17970,227978,NA,409759,365689,NA,417091,415255,2795,225858,NA,417198,2773,417198,417675,417068,Flanker Task ,142,72193,155,yes,1024
91.66666667,91.66666667,465.4358974,465.4358974,black,xpyriment,legacy,legacy,0,Incongruent,uniform,1,undefined,1,s,0,0,0,155,155,0,155,155,0,0,0,155,0,155,155,155,9/25/19 9:42,600,The main experiment item,yes,FlankerTask.osexp,C:\Users\hosan\Desktop,no,mono,no,18,no,white,no,yes,768,legacy,75,79,C:/Users/hosan/Desktop/TB_subject-03.csv,xpyriment,Kafkaesque Koffka,3.2.8,0,s,NA,s,h,NA,s,415,NA,15174,2119,NA,415,2,legacy,1024,2,48000,-16,experiment,HHSHH,3,odd,17970,227978,NA,409759,365689,NA,419586,417756,2795,225858,NA,419693,2773,419693,420110,419564,Flanker Task ,143,72608,156,yes,1024
91.08280255,91.08280255,464.7579618,464.7579618,black,xpyriment,legacy,legacy,0,Incongruent,uniform,0,undefined,0,h,0,0,0,156,156,0,156,156,0,0,0,156,0,156,156,156,9/25/19 9:42,600,The main experiment item,yes,FlankerTask.osexp,C:\Users\hosan\Desktop,no,mono,no,18,no,white,no,yes,768,legacy,76,79,C:/Users/hosan/Desktop/TB_subject-03.csv,xpyriment,Kafkaesque Koffka,3.2.8,0,s,NA,s,h,NA,s,359,NA,15174,2119,NA,359,2,legacy,1024,2,48000,-16,experiment,SSHSS,3,odd,17970,227978,NA,409759,365689,NA,421987,420132,2795,225858,NA,422092,2773,422092,422453,421964,Flanker Task ,143,72967,157,yes,1024
91.13924051,91.13924051,465.3544304,465.3544304,black,xpyriment,legacy,legacy,0,Incongruent,uniform,1,undefined,1,h,0,0,0,157,157,0,157,157,0,0,0,157,0,157,157,157,9/25/19 9:42,600,The main experiment item,yes,FlankerTask.osexp,C:\Users\hosan\Desktop,no,mono,no,18,no,white,no,yes,768,legacy,77,79,C:/Users/hosan/Desktop/TB_subject-03.csv,xpyriment,Kafkaesque Koffka,3.2.8,0,h,NA,s,h,NA,h,559,NA,15174,2119,NA,559,2,legacy,1024,2,48000,-16,experiment,SSHSS,3,odd,17970,227978,NA,422536,365689,NA,424867,423042,2795,225858,NA,424973,2773,424974,425535,424845,Flanker Task ,144,73526,158,yes,1024
91.19496855,91.19496855,465.1006289,465.1006289,black,xpyriment,legacy,legacy,0,Congruent,uniform,1,undefined,1,s,0,0,0,158,158,0,158,158,0,0,0,158,0,158,158,158,9/25/19 9:42,600,The main experiment item,yes,FlankerTask.osexp,C:\Users\hosan\Desktop,no,mono,no,18,no,white,no,yes,768,legacy,78,79,C:/Users/hosan/Desktop/TB_subject-03.csv,xpyriment,Kafkaesque Koffka,3.2.8,0,s,NA,s,h,NA,s,425,NA,15174,2119,NA,425,2,legacy,1024,2,48000,-16,experiment,SSSSS,3,odd,17970,227978,NA,422536,365689,NA,427421,425568,2795,225858,NA,427527,2773,427528,427956,427399,Flanker Task ,145,73951,159,yes,1024
90.625,90.625,465.725,465.725,black,xpyriment,legacy,legacy,0,Incongruent,uniform,0,undefined,0,h,0,0,0,159,159,0,159,159,0,0,0,159,0,159,159,159,9/25/19 9:42,600,The main experiment item,yes,FlankerTask.osexp,C:\Users\hosan\Desktop,no,mono,no,18,no,white,no,yes,768,legacy,79,79,C:/Users/hosan/Desktop/TB_subject-03.csv,xpyriment,Kafkaesque Koffka,3.2.8,0,s,NA,s,h,NA,s,565,NA,15174,2119,NA,565,2,legacy,1024,2,48000,-16,experiment,SSHSS,3,odd,17970,227978,NA,422536,365689,NA,429897,427992,2795,225858,NA,430003,2773,430004,430571,429875,Flanker Task ,145,74516,160,yes,1024
90.68322981,90.68322981,465.9192547,465.9192547,black,xpyriment,legacy,legacy,0,Congruent,uniform,1,undefined,1,s,0,0,0,160,160,0,160,160,0,0,0,160,0,160,160,160,9/25/19 9:42,300,The main experiment item,yes,FlankerTask.osexp,C:\Users\hosan\Desktop,no,mono,no,18,no,white,no,yes,768,legacy,0,79,C:/Users/hosan/Desktop/TB_subject-03.csv,xpyriment,Kafkaesque Koffka,3.2.8,0,s,NA,s,h,h,s,497,NA,15174,2119,1144,497,2,legacy,1024,2,48000,-16,experiment,SSSSS,3,odd,17970,227978,433394,430643,365689,NA,434191,431151,2795,225858,432247,434297,2773,434297,434796,434168,Flanker Task ,146,75013,161,yes,1024
90.74074074,90.74074074,465.3641975,465.3641975,black,xpyriment,legacy,legacy,0,Congruent,uniform,1,undefined,1,h,0,0,0,161,161,0,161,161,0,0,0,161,0,161,161,161,9/25/19 9:42,300,The main experiment item,yes,FlankerTask.osexp,C:\Users\hosan\Desktop,no,mono,no,18,no,white,no,yes,768,legacy,1,79,C:/Users/hosan/Desktop/TB_subject-03.csv,xpyriment,Kafkaesque Koffka,3.2.8,0,h,NA,s,h,h,h,376,NA,15174,2119,1144,376,2,legacy,1024,2,48000,-16,experiment,HHHHH,3,odd,17970,227978,433394,430643,434872,NA,437234,435378,2795,225858,432247,437340,2773,437340,437719,437211,Flanker Task ,147,75389,162,yes,1024
90.18404908,90.18404908,464.5521472,464.5521472,black,xpyriment,legacy,legacy,0,Incongruent,uniform,0,undefined,0,h,0,0,0,162,162,0,162,162,0,0,0,162,0,162,162,162,9/25/19 9:42,300,The main experiment item,yes,FlankerTask.osexp,C:\Users\hosan\Desktop,no,mono,no,18,no,white,no,yes,768,legacy,2,79,C:/Users/hosan/Desktop/TB_subject-03.csv,xpyriment,Kafkaesque Koffka,3.2.8,0,s,NA,s,h,h,s,333,NA,15174,2119,1144,333,2,legacy,1024,2,48000,-16,experiment,SSHSS,3,odd,17970,227978,433394,430643,437781,NA,440165,438287,2795,225858,432247,440270,2773,440271,440608,440142,Flanker Task ,147,75722,163,yes,1024
90.24390244,90.24390244,463.8658537,463.8658537,black,xpyriment,legacy,legacy,0,Congruent,uniform,1,undefined,1,h,0,0,0,163,163,0,163,163,0,0,0,163,0,163,163,163,9/25/19 9:42,300,The main experiment item,yes,FlankerTask.osexp,C:\Users\hosan\Desktop,no,mono,no,18,no,white,no,yes,768,legacy,3,79,C:/Users/hosan/Desktop/TB_subject-03.csv,xpyriment,Kafkaesque Koffka,3.2.8,0,h,NA,s,h,h,h,352,NA,15174,2119,1144,352,2,legacy,1024,2,48000,-16,experiment,HHHHH,3,odd,17970,227978,433394,440648,441154,NA,443566,441662,2795,225858,432247,443671,2773,443671,444026,443543,Flanker Task ,148,76074,164,yes,1024
90.3030303,90.3030303,463.4,463.4,black,xpyriment,legacy,legacy,0,Incongruent,uniform,1,undefined,1,h,0,0,0,164,164,0,164,164,0,0,0,164,0,164,164,164,9/25/19 9:42,300,The main experiment item,yes,FlankerTask.osexp,C:\Users\hosan\Desktop,no,mono,no,18,no,white,no,yes,768,legacy,4,79,C:/Users/hosan/Desktop/TB_subject-03.csv,xpyriment,Kafkaesque Koffka,3.2.8,0,h,NA,s,h,h,h,387,NA,15174,2119,1144,387,2,legacy,1024,2,48000,-16,experiment,SSHSS,3,odd,17970,227978,433394,440648,444098,NA,446439,444604,2795,225858,432247,446544,2773,446545,446934,446417,Flanker Task ,149,76461,165,yes,1024
89.75903614,89.75903614,460.6144578,460.6144578,black,xpyriment,legacy,legacy,0,Congruent,uniform,0,undefined,0,s,0,0,0,165,165,0,165,165,0,0,0,165,0,165,165,165,9/25/19 9:42,300,The main experiment item,yes,FlankerTask.osexp,C:\Users\hosan\Desktop,no,mono,no,18,no,white,no,yes,768,legacy,5,79,C:/Users/hosan/Desktop/TB_subject-03.csv,xpyriment,Kafkaesque Koffka,3.2.8,0,h,NA,s,h,h,h,1,NA,15174,2119,1144,1,2,legacy,1024,2,48000,-16,experiment,SSSSS,3,odd,17970,227978,433394,440648,447004,NA,449351,447510,2795,225858,432247,449457,2773,449458,449468,449326,Flanker Task ,149,76462,166,yes,1024
89.82035928,89.82035928,458.8143713,458.8143713,black,xpyriment,legacy,legacy,0,Incongruent,uniform,1,undefined,1,h,0,0,0,166,166,0,166,166,0,0,0,166,0,166,166,166,9/25/19 9:42,300,The main experiment item,yes,FlankerTask.osexp,C:\Users\hosan\Desktop,no,mono,no,18,no,white,no,yes,768,legacy,6,79,C:/Users/hosan/Desktop/TB_subject-03.csv,xpyriment,Kafkaesque Koffka,3.2.8,0,h,NA,s,h,h,h,160,NA,15174,2119,1144,160,2,legacy,1024,2,48000,-16,experiment,SSHSS,3,odd,17970,227978,433394,449517,447004,NA,451872,450025,2795,225858,432247,451979,2773,451979,452141,451847,Flanker Task ,150,76622,167,yes,1024
89.28571429,89.28571429,456.9345238,456.9345238,black,xpyriment,legacy,legacy,0,Congruent,uniform,0,undefined,0,h,0,0,0,167,167,0,167,167,0,0,0,167,0,167,167,167,9/25/19 9:42,300,The main experiment item,yes,FlankerTask.osexp,C:\Users\hosan\Desktop,no,mono,no,18,no,white,no,yes,768,legacy,7,79,C:/Users/hosan/Desktop/TB_subject-03.csv,xpyriment,Kafkaesque Koffka,3.2.8,0,s,NA,s,h,h,s,143,NA,15174,2119,1144,143,2,legacy,1024,2,48000,-16,experiment,HHHHH,3,odd,17970,227978,433394,449517,447004,NA,454111,452253,2795,225858,432247,454217,2773,454217,454364,454086,Flanker Task ,150,76765,168,yes,1024
89.34911243,89.34911243,455.1183432,455.1183432,black,xpyriment,legacy,legacy,0,Congruent,uniform,1,undefined,1,s,0,0,0,168,168,0,168,168,0,0,0,168,0,168,168,168,9/25/19 9:42,300,The main experiment item,yes,FlankerTask.osexp,C:\Users\hosan\Desktop,no,mono,no,18,no,white,no,yes,768,legacy,8,79,C:/Users/hosan/Desktop/TB_subject-03.csv,xpyriment,Kafkaesque Koffka,3.2.8,0,s,NA,s,h,h,s,150,NA,15174,2119,1144,150,2,legacy,1024,2,48000,-16,experiment,SSSSS,3,odd,17970,227978,433394,454411,447004,NA,456764,454920,2795,225858,432247,456871,2773,456871,457023,456739,Flanker Task ,151,76915,169,yes,1024
88.82352941,88.82352941,453.0941176,453.0941176,black,xpyriment,legacy,legacy,0,Incongruent,uniform,0,undefined,0,h,0,0,0,169,169,0,169,169,0,0,0,169,0,169,169,169,9/25/19 9:42,300,The main experiment item,yes,FlankerTask.osexp,C:\Users\hosan\Desktop,no,mono,no,18,no,white,no,yes,768,legacy,9,79,C:/Users/hosan/Desktop/TB_subject-03.csv,xpyriment,Kafkaesque Koffka,3.2.8,0,s,NA,s,h,h,s,111,NA,15174,2119,1144,111,2,legacy,1024,2,48000,-16,experiment,SSHSS,3,odd,17970,227978,433394,454411,447004,NA,458911,457051,2795,225858,432247,459018,2773,459019,459138,458887,Flanker Task ,151,77026,170,yes,1024
