acc,accuracy,average_response_time,avg_rt,background,canvas_backend,clock_backend,color_backend,compensation,condition,coordinates,correct,correct_instructions1_1,correct_keyboard_response,correct_response,count_ISI,count_block1,count_block2,count_block3,count_errorFeedback,count_experiment,count_faster,count_finish,count_fixation,count_instructions1,count_instructions1_1,count_instructions2,count_instructions3,count_keyboard_response,count_logger,count_sequence,count_stimulus,datetime,deadline,description,disable_garbage_collection,experiment_path,font_bold,font_family,font_italic,font_size,font_underline,foreground,form_clicks,fullscreen,height,keyboard_backend,live_row,live_row_block1,logfile,mouse_backend,opensesame_codename,opensesame_version,repeat_cycle,response,response_finish,response_instructions1,response_instructions1_1,response_instructions2,response_instructions3,response_keyboard_response,response_time,response_time_finish,response_time_instructions1,response_time_instructions1_1,response_time_instructions2,response_time_instructions3,response_time_keyboard_response,round_decimals,sampler_backend,sound_buf_size,sound_channels,sound_freq,sound_sample_size,start,stimulus,subject_nr,subject_parity,time_ISI,time_block1,time_block2,time_block3,time_errorFeedback,time_experiment,time_faster,time_finish,time_fixation,time_instructions1,time_instructions1_1,time_instructions2,time_instructions3,time_keyboard_response,time_logger,time_sequence,time_stimulus,title,total_correct,total_response_time,total_responses,uniform_coordinates,width
100,100,1024,1024,black,legacy,legacy,legacy,0,congruent,uniform,1,undefined,1,h,0,0,0,0,0,0,0,0,0,NA,0,0,0,0,0,0,0,9/16/19 10:01,1500,The main experiment item,yes,C:/Users/Breena Riley/Desktop/2019 Fall/MultQuant/New folder/Flankertask.osexp,no,mono,no,18,no,white,no,yes,768,legacy,0,0,C:/Users/Breena Riley/Desktop/2019 Fall/MultQuant/BR-subject-1.csv,legacy,Kafkaesque Koffka,3.2.8,0,h,NA,NA,space,NA,NA,h,1024,NA,NA,5750,NA,NA,1024,2,legacy,1024,2,48000,-16,experiment,HHHHH,0,even,NA,8018,NA,NA,NA,2259,NA,NA,8093,NA,2267,NA,NA,8195,9219,8091,8194,Flankertask,1,1024,1,yes,1024
100,100,786,786,black,legacy,legacy,legacy,0,congruent,uniform,1,undefined,1,s,1,0,0,0,1,0,1,0,1,NA,0,0,0,1,1,1,1,9/16/19 10:01,1500,The main experiment item,yes,C:/Users/Breena Riley/Desktop/2019 Fall/MultQuant/New folder/Flankertask.osexp,no,mono,no,18,no,white,no,yes,768,legacy,1,1,C:/Users/Breena Riley/Desktop/2019 Fall/MultQuant/BR-subject-1.csv,legacy,Kafkaesque Koffka,3.2.8,0,s,NA,NA,space,NA,NA,s,548,NA,NA,5750,NA,NA,548,2,legacy,1024,2,48000,-16,experiment,SSSSS,0,even,9231,8018,NA,NA,NA,2259,NA,NA,10292,NA,2267,NA,NA,10393,10941,10289,10393,Flankertask,2,1572,2,yes,1024
100,100,725.6666667,725.6666667,black,legacy,legacy,legacy,0,incongruent,uniform,1,undefined,1,h,2,0,0,0,2,0,2,0,2,NA,0,0,0,2,2,2,2,9/16/19 10:01,1500,The main experiment item,yes,C:/Users/Breena Riley/Desktop/2019 Fall/MultQuant/New folder/Flankertask.osexp,no,mono,no,18,no,white,no,yes,768,legacy,2,2,C:/Users/Breena Riley/Desktop/2019 Fall/MultQuant/BR-subject-1.csv,legacy,Kafkaesque Koffka,3.2.8,0,h,NA,NA,space,NA,NA,h,605,NA,NA,5750,NA,NA,605,2,legacy,1024,2,48000,-16,experiment,SSHSS,0,even,10949,8018,NA,NA,NA,2259,NA,NA,12010,NA,2267,NA,NA,12111,12717,12007,12111,Flankertask,3,2177,3,yes,1024
100,100,662.5,662.5,black,legacy,legacy,legacy,0,incongruent,uniform,1,undefined,1,s,3,0,0,0,3,0,3,0,3,NA,0,0,0,3,3,3,3,9/16/19 10:01,1500,The main experiment item,yes,C:/Users/Breena Riley/Desktop/2019 Fall/MultQuant/New folder/Flankertask.osexp,no,mono,no,18,no,white,no,yes,768,legacy,3,3,C:/Users/Breena Riley/Desktop/2019 Fall/MultQuant/BR-subject-1.csv,legacy,Kafkaesque Koffka,3.2.8,0,s,NA,NA,space,NA,NA,s,473,NA,NA,5750,NA,NA,473,2,legacy,1024,2,48000,-16,experiment,HHSHH,0,even,12725,8018,NA,NA,NA,2259,NA,NA,13786,NA,2267,NA,NA,13887,14361,13784,13887,Flankertask,4,2650,4,yes,1024
100,100,624,624,black,legacy,legacy,legacy,0,incongruent,uniform,1,undefined,1,s,4,0,0,0,4,0,4,0,4,NA,0,0,0,4,4,4,4,9/16/19 10:01,1500,The main experiment item,yes,C:/Users/Breena Riley/Desktop/2019 Fall/MultQuant/New folder/Flankertask.osexp,no,mono,no,18,no,white,no,yes,768,legacy,4,4,C:/Users/Breena Riley/Desktop/2019 Fall/MultQuant/BR-subject-1.csv,legacy,Kafkaesque Koffka,3.2.8,0,s,NA,NA,space,NA,NA,s,470,NA,NA,5750,NA,NA,470,2,legacy,1024,2,48000,-16,experiment,HHSHH,0,even,14368,8018,NA,NA,NA,2259,NA,NA,15432,NA,2267,NA,NA,15533,16004,15430,15533,Flankertask,5,3120,5,yes,1024
100,100,591.5,591.5,black,legacy,legacy,legacy,0,incongruent,uniform,1,undefined,1,h,5,0,0,0,5,0,5,0,5,NA,0,0,0,5,5,5,5,9/16/19 10:01,1500,The main experiment item,yes,C:/Users/Breena Riley/Desktop/2019 Fall/MultQuant/New folder/Flankertask.osexp,no,mono,no,18,no,white,no,yes,768,legacy,5,5,C:/Users/Breena Riley/Desktop/2019 Fall/MultQuant/BR-subject-1.csv,legacy,Kafkaesque Koffka,3.2.8,0,h,NA,NA,space,NA,NA,h,429,NA,NA,5750,NA,NA,429,2,legacy,1024,2,48000,-16,experiment,SSHSS,0,even,16011,8018,NA,NA,NA,2259,NA,NA,17071,NA,2267,NA,NA,17172,17601,17068,17172,Flankertask,6,3549,6,yes,1024
100,100,559.7142857,559.7142857,black,legacy,legacy,legacy,0,congruent,uniform,1,undefined,1,h,6,0,0,0,6,0,6,0,6,NA,0,0,0,6,6,6,6,9/16/19 10:01,1500,The main experiment item,yes,C:/Users/Breena Riley/Desktop/2019 Fall/MultQuant/New folder/Flankertask.osexp,no,mono,no,18,no,white,no,yes,768,legacy,6,6,C:/Users/Breena Riley/Desktop/2019 Fall/MultQuant/BR-subject-1.csv,legacy,Kafkaesque Koffka,3.2.8,0,h,NA,NA,space,NA,NA,h,369,NA,NA,5750,NA,NA,369,2,legacy,1024,2,48000,-16,experiment,HHHHH,0,even,17609,8018,NA,NA,NA,2259,NA,NA,18669,NA,2267,NA,NA,18770,19140,18666,18770,Flankertask,7,3918,7,yes,1024
87.5,87.5,533.375,533.375,black,legacy,legacy,legacy,0,incongruent,uniform,0,undefined,0,s,7,0,0,0,7,0,7,0,7,NA,0,0,0,7,7,7,7,9/16/19 10:01,1500,The main experiment item,yes,C:/Users/Breena Riley/Desktop/2019 Fall/MultQuant/New folder/Flankertask.osexp,no,mono,no,18,no,white,no,yes,768,legacy,7,7,C:/Users/Breena Riley/Desktop/2019 Fall/MultQuant/BR-subject-1.csv,legacy,Kafkaesque Koffka,3.2.8,0,h,NA,NA,space,NA,NA,h,349,NA,NA,5750,NA,NA,349,2,legacy,1024,2,48000,-16,experiment,HHSHH,0,even,19148,8018,NA,NA,NA,2259,NA,NA,20210,NA,2267,NA,NA,20311,20660,20208,20311,Flankertask,7,4267,8,yes,1024
88.88888889,88.88888889,518.4444444,518.4444444,black,legacy,legacy,legacy,0,incongruent,uniform,1,undefined,1,s,8,0,0,0,8,0,8,0,8,NA,0,0,0,8,8,8,8,9/16/19 10:01,1500,The main experiment item,yes,C:/Users/Breena Riley/Desktop/2019 Fall/MultQuant/New folder/Flankertask.osexp,no,mono,no,18,no,white,no,yes,768,legacy,8,8,C:/Users/Breena Riley/Desktop/2019 Fall/MultQuant/BR-subject-1.csv,legacy,Kafkaesque Koffka,3.2.8,0,s,NA,NA,space,NA,NA,s,399,NA,NA,5750,NA,NA,399,2,legacy,1024,2,48000,-16,experiment,HHSHH,0,even,21170,8018,NA,NA,20668,2259,NA,NA,22230,NA,2267,NA,NA,22332,22732,22228,22332,Flankertask,8,4666,9,yes,1024
90,90,515.6,515.6,black,legacy,legacy,legacy,0,incongruent,uniform,1,undefined,1,h,9,0,0,0,9,0,9,0,9,NA,0,0,0,9,9,9,9,9/16/19 10:01,1500,The main experiment item,yes,C:/Users/Breena Riley/Desktop/2019 Fall/MultQuant/New folder/Flankertask.osexp,no,mono,no,18,no,white,no,yes,768,legacy,9,9,C:/Users/Breena Riley/Desktop/2019 Fall/MultQuant/BR-subject-1.csv,legacy,Kafkaesque Koffka,3.2.8,0,h,NA,NA,space,NA,NA,h,490,NA,NA,5750,NA,NA,490,2,legacy,1024,2,48000,-16,experiment,SSHSS,0,even,22739,8018,NA,NA,20668,2259,NA,NA,23805,NA,2267,NA,NA,23906,24397,23803,23906,Flankertask,9,5156,10,yes,1024
90.90909091,90.90909091,506.9090909,506.9090909,black,legacy,legacy,legacy,0,congruent,uniform,1,undefined,1,s,10,0,0,0,10,0,10,0,10,NA,0,0,0,10,10,10,10,9/16/19 10:01,1500,The main experiment item,yes,C:/Users/Breena Riley/Desktop/2019 Fall/MultQuant/New folder/Flankertask.osexp,no,mono,no,18,no,white,no,yes,768,legacy,10,10,C:/Users/Breena Riley/Desktop/2019 Fall/MultQuant/BR-subject-1.csv,legacy,Kafkaesque Koffka,3.2.8,0,s,NA,NA,space,NA,NA,s,420,NA,NA,5750,NA,NA,420,2,legacy,1024,2,48000,-16,experiment,SSSSS,0,even,24405,8018,NA,NA,20668,2259,NA,NA,25464,NA,2267,NA,NA,25565,25985,25462,25565,Flankertask,10,5576,11,yes,1024
91.66666667,91.66666667,502.5833333,502.5833333,black,legacy,legacy,legacy,0,congruent,uniform,1,undefined,1,s,11,0,0,0,11,0,11,0,11,NA,0,0,0,11,11,11,11,9/16/19 10:01,1500,The main experiment item,yes,C:/Users/Breena Riley/Desktop/2019 Fall/MultQuant/New folder/Flankertask.osexp,no,mono,no,18,no,white,no,yes,768,legacy,11,11,C:/Users/Breena Riley/Desktop/2019 Fall/MultQuant/BR-subject-1.csv,legacy,Kafkaesque Koffka,3.2.8,0,s,NA,NA,space,NA,NA,s,455,NA,NA,5750,NA,NA,455,2,legacy,1024,2,48000,-16,experiment,SSSSS,0,even,25993,8018,NA,NA,20668,2259,NA,NA,27054,NA,2267,NA,NA,27155,27611,27052,27155,Flankertask,11,6031,12,yes,1024
92.30769231,92.30769231,499.7692308,499.7692308,black,legacy,legacy,legacy,0,congruent,uniform,1,undefined,1,h,12,0,0,0,12,0,12,0,12,NA,0,0,0,12,12,12,12,9/16/19 10:01,1500,The main experiment item,yes,C:/Users/Breena Riley/Desktop/2019 Fall/MultQuant/New folder/Flankertask.osexp,no,mono,no,18,no,white,no,yes,768,legacy,12,12,C:/Users/Breena Riley/Desktop/2019 Fall/MultQuant/BR-subject-1.csv,legacy,Kafkaesque Koffka,3.2.8,0,h,NA,NA,space,NA,NA,h,466,NA,NA,5750,NA,NA,466,2,legacy,1024,2,48000,-16,experiment,HHHHH,0,even,27619,8018,NA,NA,20668,2259,NA,NA,28677,NA,2267,NA,NA,28779,29245,28675,28778,Flankertask,12,6497,13,yes,1024
92.85714286,92.85714286,490.3571429,490.3571429,black,legacy,legacy,legacy,0,incongruent,uniform,1,undefined,1,h,13,0,0,0,13,0,13,0,13,NA,0,0,0,13,13,13,13,9/16/19 10:01,1500,The main experiment item,yes,C:/Users/Breena Riley/Desktop/2019 Fall/MultQuant/New folder/Flankertask.osexp,no,mono,no,18,no,white,no,yes,768,legacy,13,13,C:/Users/Breena Riley/Desktop/2019 Fall/MultQuant/BR-subject-1.csv,legacy,Kafkaesque Koffka,3.2.8,0,h,NA,NA,space,NA,NA,h,368,NA,NA,5750,NA,NA,368,2,legacy,1024,2,48000,-16,experiment,SSHSS,0,even,29253,8018,NA,NA,20668,2259,NA,NA,30320,NA,2267,NA,NA,30421,30790,30318,30421,Flankertask,13,6865,14,yes,1024
93.33333333,93.33333333,488.9333333,488.9333333,black,legacy,legacy,legacy,0,congruent,uniform,1,undefined,1,s,14,0,0,0,14,0,14,0,14,NA,0,0,0,14,14,14,14,9/16/19 10:01,1500,The main experiment item,yes,C:/Users/Breena Riley/Desktop/2019 Fall/MultQuant/New folder/Flankertask.osexp,no,mono,no,18,no,white,no,yes,768,legacy,14,14,C:/Users/Breena Riley/Desktop/2019 Fall/MultQuant/BR-subject-1.csv,legacy,Kafkaesque Koffka,3.2.8,0,s,NA,NA,space,NA,NA,s,469,NA,NA,5750,NA,NA,469,2,legacy,1024,2,48000,-16,experiment,SSSSS,0,even,30798,8018,NA,NA,20668,2259,NA,NA,31855,NA,2267,NA,NA,31956,32425,31853,31956,Flankertask,14,7334,15,yes,1024
93.75,93.75,480.625,480.625,black,legacy,legacy,legacy,0,congruent,uniform,1,undefined,1,h,15,0,0,0,15,0,15,0,15,NA,0,0,0,15,15,15,15,9/16/19 10:01,1500,The main experiment item,yes,C:/Users/Breena Riley/Desktop/2019 Fall/MultQuant/New folder/Flankertask.osexp,no,mono,no,18,no,white,no,yes,768,legacy,15,15,C:/Users/Breena Riley/Desktop/2019 Fall/MultQuant/BR-subject-1.csv,legacy,Kafkaesque Koffka,3.2.8,0,h,NA,NA,space,NA,NA,h,356,NA,NA,5750,NA,NA,356,2,legacy,1024,2,48000,-16,experiment,HHHHH,0,even,32432,8018,NA,NA,20668,2259,NA,NA,33494,NA,2267,NA,NA,33596,33952,33491,33596,Flankertask,15,7690,16,yes,1024
94.11764706,94.11764706,474.2352941,474.2352941,black,legacy,legacy,legacy,0,congruent,uniform,1,undefined,1,h,16,0,0,0,16,0,16,0,16,NA,0,0,0,16,16,16,16,9/16/19 10:01,1500,The main experiment item,yes,C:/Users/Breena Riley/Desktop/2019 Fall/MultQuant/New folder/Flankertask.osexp,no,mono,no,18,no,white,no,yes,768,legacy,16,16,C:/Users/Breena Riley/Desktop/2019 Fall/MultQuant/BR-subject-1.csv,legacy,Kafkaesque Koffka,3.2.8,0,h,NA,NA,space,NA,NA,h,372,NA,NA,5750,NA,NA,372,2,legacy,1024,2,48000,-16,experiment,HHHHH,0,even,33960,8018,NA,NA,20668,2259,NA,NA,35021,NA,2267,NA,NA,35122,35494,35019,35122,Flankertask,16,8062,17,yes,1024
94.44444444,94.44444444,467.7222222,467.7222222,black,legacy,legacy,legacy,0,incongruent,uniform,1,undefined,1,s,17,0,0,0,17,0,17,0,17,NA,0,0,0,17,17,17,17,9/16/19 10:01,1500,The main experiment item,yes,C:/Users/Breena Riley/Desktop/2019 Fall/MultQuant/New folder/Flankertask.osexp,no,mono,no,18,no,white,no,yes,768,legacy,17,17,C:/Users/Breena Riley/Desktop/2019 Fall/MultQuant/BR-subject-1.csv,legacy,Kafkaesque Koffka,3.2.8,0,s,NA,NA,space,NA,NA,s,357,NA,NA,5750,NA,NA,357,2,legacy,1024,2,48000,-16,experiment,HHSHH,0,even,35501,8018,NA,NA,20668,2259,NA,NA,36561,NA,2267,NA,NA,36663,37021,36558,36662,Flankertask,17,8419,18,yes,1024
94.73684211,94.73684211,460,460,black,legacy,legacy,legacy,0,congruent,uniform,1,undefined,1,h,18,0,0,0,18,0,18,0,18,NA,0,0,0,18,18,18,18,9/16/19 10:01,1500,The main experiment item,yes,C:/Users/Breena Riley/Desktop/2019 Fall/MultQuant/New folder/Flankertask.osexp,no,mono,no,18,no,white,no,yes,768,legacy,18,18,C:/Users/Breena Riley/Desktop/2019 Fall/MultQuant/BR-subject-1.csv,legacy,Kafkaesque Koffka,3.2.8,0,h,NA,NA,space,NA,NA,h,321,NA,NA,5750,NA,NA,321,2,legacy,1024,2,48000,-16,experiment,HHHHH,0,even,37029,8018,NA,NA,20668,2259,NA,NA,38088,NA,2267,NA,NA,38189,38511,38086,38189,Flankertask,18,8740,19,yes,1024
95,95,458.85,458.85,black,legacy,legacy,legacy,0,incongruent,uniform,1,undefined,1,s,19,0,0,0,19,0,19,0,19,NA,0,0,0,19,19,19,19,9/16/19 10:01,1500,The main experiment item,yes,C:/Users/Breena Riley/Desktop/2019 Fall/MultQuant/New folder/Flankertask.osexp,no,mono,no,18,no,white,no,yes,768,legacy,19,19,C:/Users/Breena Riley/Desktop/2019 Fall/MultQuant/BR-subject-1.csv,legacy,Kafkaesque Koffka,3.2.8,0,s,NA,NA,space,NA,NA,s,437,NA,NA,5750,NA,NA,437,2,legacy,1024,2,48000,-16,experiment,HHSHH,0,even,38520,8018,NA,NA,20668,2259,NA,NA,39581,NA,2267,NA,NA,39682,40120,39579,39682,Flankertask,19,9177,20,yes,1024
90.47619048,90.47619048,461.1428571,461.1428571,black,legacy,legacy,legacy,0,incongruent,uniform,0,undefined,0,h,20,0,0,0,20,0,20,0,20,NA,0,0,0,20,20,20,20,9/16/19 10:01,1500,The main experiment item,yes,C:/Users/Breena Riley/Desktop/2019 Fall/MultQuant/New folder/Flankertask.osexp,no,mono,no,18,no,white,no,yes,768,legacy,20,20,C:/Users/Breena Riley/Desktop/2019 Fall/MultQuant/BR-subject-1.csv,legacy,Kafkaesque Koffka,3.2.8,0,s,NA,NA,space,NA,NA,s,507,NA,NA,5750,NA,NA,507,2,legacy,1024,2,48000,-16,experiment,SSHSS,0,even,40128,8018,NA,NA,20668,2259,NA,NA,41188,NA,2267,NA,NA,41290,41798,41186,41290,Flankertask,19,9684,21,yes,1024
90.90909091,90.90909091,461.0909091,461.0909091,black,legacy,legacy,legacy,0,congruent,uniform,1,undefined,1,s,21,0,0,0,21,0,21,0,21,NA,0,0,0,21,21,21,21,9/16/19 10:01,1500,The main experiment item,yes,C:/Users/Breena Riley/Desktop/2019 Fall/MultQuant/New folder/Flankertask.osexp,no,mono,no,18,no,white,no,yes,768,legacy,21,21,C:/Users/Breena Riley/Desktop/2019 Fall/MultQuant/BR-subject-1.csv,legacy,Kafkaesque Koffka,3.2.8,0,s,NA,NA,space,NA,NA,s,460,NA,NA,5750,NA,NA,460,2,legacy,1024,2,48000,-16,experiment,SSSSS,0,even,42307,8018,NA,NA,41805,2259,NA,NA,43367,NA,2267,NA,NA,43469,43930,43365,43468,Flankertask,20,10144,22,yes,1024
91.30434783,91.30434783,462.2173913,462.2173913,black,legacy,legacy,legacy,0,incongruent,uniform,1,undefined,1,s,22,0,0,0,22,0,22,0,22,NA,0,0,0,22,22,22,22,9/16/19 10:01,1500,The main experiment item,yes,C:/Users/Breena Riley/Desktop/2019 Fall/MultQuant/New folder/Flankertask.osexp,no,mono,no,18,no,white,no,yes,768,legacy,22,22,C:/Users/Breena Riley/Desktop/2019 Fall/MultQuant/BR-subject-1.csv,legacy,Kafkaesque Koffka,3.2.8,0,s,NA,NA,space,NA,NA,s,487,NA,NA,5750,NA,NA,487,2,legacy,1024,2,48000,-16,experiment,HHSHH,0,even,43938,8018,NA,NA,41805,2259,NA,NA,44997,NA,2267,NA,NA,45098,45585,44994,45098,Flankertask,21,10631,23,yes,1024
91.66666667,91.66666667,462.75,462.75,black,legacy,legacy,legacy,0,incongruent,uniform,1,undefined,1,s,23,0,0,0,23,0,23,0,23,NA,0,0,0,23,23,23,23,9/16/19 10:01,1500,The main experiment item,yes,C:/Users/Breena Riley/Desktop/2019 Fall/MultQuant/New folder/Flankertask.osexp,no,mono,no,18,no,white,no,yes,768,legacy,23,23,C:/Users/Breena Riley/Desktop/2019 Fall/MultQuant/BR-subject-1.csv,legacy,Kafkaesque Koffka,3.2.8,0,s,NA,NA,space,NA,NA,s,475,NA,NA,5750,NA,NA,475,2,legacy,1024,2,48000,-16,experiment,HHSHH,0,even,45593,8018,NA,NA,41805,2259,NA,NA,46662,NA,2267,NA,NA,46764,47240,46660,46764,Flankertask,22,11106,24,yes,1024
92,92,460.08,460.08,black,legacy,legacy,legacy,0,congruent,uniform,1,undefined,1,h,24,0,0,0,24,0,24,0,24,NA,0,0,0,24,24,24,24,9/16/19 10:01,1500,The main experiment item,yes,C:/Users/Breena Riley/Desktop/2019 Fall/MultQuant/New folder/Flankertask.osexp,no,mono,no,18,no,white,no,yes,768,legacy,24,24,C:/Users/Breena Riley/Desktop/2019 Fall/MultQuant/BR-subject-1.csv,legacy,Kafkaesque Koffka,3.2.8,0,h,NA,NA,space,NA,NA,h,396,NA,NA,5750,NA,NA,396,2,legacy,1024,2,48000,-16,experiment,HHHHH,0,even,47247,8018,NA,NA,41805,2259,NA,NA,48311,NA,2267,NA,NA,48412,48809,48308,48412,Flankertask,23,11502,25,yes,1024
92.30769231,92.30769231,462.8461538,462.8461538,black,legacy,legacy,legacy,0,congruent,uniform,1,undefined,1,h,25,0,0,0,25,0,25,0,25,NA,0,0,0,25,25,25,25,9/16/19 10:01,1500,The main experiment item,yes,C:/Users/Breena Riley/Desktop/2019 Fall/MultQuant/New folder/Flankertask.osexp,no,mono,no,18,no,white,no,yes,768,legacy,25,25,C:/Users/Breena Riley/Desktop/2019 Fall/MultQuant/BR-subject-1.csv,legacy,Kafkaesque Koffka,3.2.8,0,h,NA,NA,space,NA,NA,h,532,NA,NA,5750,NA,NA,532,2,legacy,1024,2,48000,-16,experiment,HHHHH,0,even,48817,8018,NA,NA,41805,2259,NA,NA,49876,NA,2267,NA,NA,49977,50509,49873,49977,Flankertask,24,12034,26,yes,1024
92.59259259,92.59259259,471.2592593,471.2592593,black,legacy,legacy,legacy,0,incongruent,uniform,1,undefined,1,h,26,0,0,0,26,0,26,0,26,NA,0,0,0,26,26,26,26,9/16/19 10:01,1500,The main experiment item,yes,C:/Users/Breena Riley/Desktop/2019 Fall/MultQuant/New folder/Flankertask.osexp,no,mono,no,18,no,white,no,yes,768,legacy,26,26,C:/Users/Breena Riley/Desktop/2019 Fall/MultQuant/BR-subject-1.csv,legacy,Kafkaesque Koffka,3.2.8,0,h,NA,NA,space,NA,NA,h,690,NA,NA,5750,NA,NA,690,2,legacy,1024,2,48000,-16,experiment,SSHSS,0,even,50518,8018,NA,NA,41805,2259,NA,NA,51576,NA,2267,NA,NA,51678,52369,51573,51677,Flankertask,25,12724,27,yes,1024
92.85714286,92.85714286,469.1071429,469.1071429,black,legacy,legacy,legacy,0,congruent,uniform,1,undefined,1,s,27,0,0,0,27,0,27,0,27,NA,0,0,0,27,27,27,27,9/16/19 10:01,1500,The main experiment item,yes,C:/Users/Breena Riley/Desktop/2019 Fall/MultQuant/New folder/Flankertask.osexp,no,mono,no,18,no,white,no,yes,768,legacy,27,27,C:/Users/Breena Riley/Desktop/2019 Fall/MultQuant/BR-subject-1.csv,legacy,Kafkaesque Koffka,3.2.8,0,s,NA,NA,space,NA,NA,s,411,NA,NA,5750,NA,NA,411,2,legacy,1024,2,48000,-16,experiment,SSSSS,0,even,52377,8018,NA,NA,41805,2259,NA,NA,53435,NA,2267,NA,NA,53536,53948,53433,53536,Flankertask,26,13135,28,yes,1024
93.10344828,93.10344828,470,470,black,legacy,legacy,legacy,0,incongruent,uniform,1,undefined,1,s,28,0,0,0,28,0,28,0,28,NA,0,0,0,28,28,28,28,9/16/19 10:01,1500,The main experiment item,yes,C:/Users/Breena Riley/Desktop/2019 Fall/MultQuant/New folder/Flankertask.osexp,no,mono,no,18,no,white,no,yes,768,legacy,28,28,C:/Users/Breena Riley/Desktop/2019 Fall/MultQuant/BR-subject-1.csv,legacy,Kafkaesque Koffka,3.2.8,0,s,NA,NA,space,NA,NA,s,495,NA,NA,5750,NA,NA,495,2,legacy,1024,2,48000,-16,experiment,HHSHH,0,even,53956,8018,NA,NA,41805,2259,NA,NA,55015,NA,2267,NA,NA,55117,55613,55012,55116,Flankertask,27,13630,29,yes,1024
93.33333333,93.33333333,470.6333333,470.6333333,black,legacy,legacy,legacy,0,congruent,uniform,1,undefined,1,s,29,0,0,0,29,0,29,0,29,NA,0,0,0,29,29,29,29,9/16/19 10:01,1500,The main experiment item,yes,C:/Users/Breena Riley/Desktop/2019 Fall/MultQuant/New folder/Flankertask.osexp,no,mono,no,18,no,white,no,yes,768,legacy,29,29,C:/Users/Breena Riley/Desktop/2019 Fall/MultQuant/BR-subject-1.csv,legacy,Kafkaesque Koffka,3.2.8,0,s,NA,NA,space,NA,NA,s,489,NA,NA,5750,NA,NA,489,2,legacy,1024,2,48000,-16,experiment,SSSSS,0,even,55621,8018,NA,NA,41805,2259,NA,NA,56679,NA,2267,NA,NA,56780,57270,56676,56780,Flankertask,28,14119,30,yes,1024
93.5483871,93.5483871,470.7096774,470.7096774,black,legacy,legacy,legacy,0,incongruent,uniform,1,undefined,1,s,30,0,0,0,30,0,30,0,30,NA,0,0,0,30,30,30,30,9/16/19 10:01,1500,The main experiment item,yes,C:/Users/Breena Riley/Desktop/2019 Fall/MultQuant/New folder/Flankertask.osexp,no,mono,no,18,no,white,no,yes,768,legacy,30,30,C:/Users/Breena Riley/Desktop/2019 Fall/MultQuant/BR-subject-1.csv,legacy,Kafkaesque Koffka,3.2.8,0,s,NA,NA,space,NA,NA,s,473,NA,NA,5750,NA,NA,473,2,legacy,1024,2,48000,-16,experiment,HHSHH,0,even,57277,8018,NA,NA,41805,2259,NA,NA,58336,NA,2267,NA,NA,58437,58910,58333,58437,Flankertask,29,14592,31,yes,1024
93.75,93.75,471.0625,471.0625,black,legacy,legacy,legacy,0,incongruent,uniform,1,undefined,1,h,31,0,0,0,31,0,31,0,31,NA,0,0,0,31,31,31,31,9/16/19 10:01,1500,The main experiment item,yes,C:/Users/Breena Riley/Desktop/2019 Fall/MultQuant/New folder/Flankertask.osexp,no,mono,no,18,no,white,no,yes,768,legacy,31,31,C:/Users/Breena Riley/Desktop/2019 Fall/MultQuant/BR-subject-1.csv,legacy,Kafkaesque Koffka,3.2.8,0,h,NA,NA,space,NA,NA,h,482,NA,NA,5750,NA,NA,482,2,legacy,1024,2,48000,-16,experiment,SSHSS,0,even,58918,8018,NA,NA,41805,2259,NA,NA,59975,NA,2267,NA,NA,60076,60559,59973,60076,Flankertask,30,15074,32,yes,1024
93.93939394,93.93939394,471.2424242,471.2424242,black,legacy,legacy,legacy,0,incongruent,uniform,1,undefined,1,s,32,0,0,0,32,0,32,0,32,NA,0,0,0,32,32,32,32,9/16/19 10:01,1500,The main experiment item,yes,C:/Users/Breena Riley/Desktop/2019 Fall/MultQuant/New folder/Flankertask.osexp,no,mono,no,18,no,white,no,yes,768,legacy,32,32,C:/Users/Breena Riley/Desktop/2019 Fall/MultQuant/BR-subject-1.csv,legacy,Kafkaesque Koffka,3.2.8,0,s,NA,NA,space,NA,NA,s,477,NA,NA,5750,NA,NA,477,2,legacy,1024,2,48000,-16,experiment,HHSHH,0,even,60567,8018,NA,NA,41805,2259,NA,NA,61623,NA,2267,NA,NA,61724,62201,61621,61724,Flankertask,31,15551,33,yes,1024
94.11764706,94.11764706,471.4705882,471.4705882,black,legacy,legacy,legacy,0,congruent,uniform,1,undefined,1,h,33,0,0,0,33,0,33,0,33,NA,0,0,0,33,33,33,33,9/16/19 10:01,1500,The main experiment item,yes,C:/Users/Breena Riley/Desktop/2019 Fall/MultQuant/New folder/Flankertask.osexp,no,mono,no,18,no,white,no,yes,768,legacy,33,33,C:/Users/Breena Riley/Desktop/2019 Fall/MultQuant/BR-subject-1.csv,legacy,Kafkaesque Koffka,3.2.8,0,h,NA,NA,space,NA,NA,h,479,NA,NA,5750,NA,NA,479,2,legacy,1024,2,48000,-16,experiment,HHHHH,0,even,62209,8018,NA,NA,41805,2259,NA,NA,63267,NA,2267,NA,NA,63368,63848,63265,63368,Flankertask,32,16030,34,yes,1024
94.28571429,94.28571429,471.4857143,471.4857143,black,legacy,legacy,legacy,0,congruent,uniform,1,undefined,1,s,34,0,0,0,34,0,34,0,34,NA,0,0,0,34,34,34,34,9/16/19 10:01,1500,The main experiment item,yes,C:/Users/Breena Riley/Desktop/2019 Fall/MultQuant/New folder/Flankertask.osexp,no,mono,no,18,no,white,no,yes,768,legacy,34,34,C:/Users/Breena Riley/Desktop/2019 Fall/MultQuant/BR-subject-1.csv,legacy,Kafkaesque Koffka,3.2.8,0,s,NA,NA,space,NA,NA,s,472,NA,NA,5750,NA,NA,472,2,legacy,1024,2,48000,-16,experiment,SSSSS,0,even,63856,8018,NA,NA,41805,2259,NA,NA,64913,NA,2267,NA,NA,65014,65486,64911,65014,Flankertask,33,16502,35,yes,1024
94.44444444,94.44444444,470.8611111,470.8611111,black,legacy,legacy,legacy,0,incongruent,uniform,1,undefined,1,h,35,0,0,0,35,0,35,0,35,NA,0,0,0,35,35,35,35,9/16/19 10:01,1500,The main experiment item,yes,C:/Users/Breena Riley/Desktop/2019 Fall/MultQuant/New folder/Flankertask.osexp,no,mono,no,18,no,white,no,yes,768,legacy,35,35,C:/Users/Breena Riley/Desktop/2019 Fall/MultQuant/BR-subject-1.csv,legacy,Kafkaesque Koffka,3.2.8,0,h,NA,NA,space,NA,NA,h,449,NA,NA,5750,NA,NA,449,2,legacy,1024,2,48000,-16,experiment,SSHSS,0,even,65494,8018,NA,NA,41805,2259,NA,NA,66553,NA,2267,NA,NA,66654,67103,66551,66654,Flankertask,34,16951,36,yes,1024
94.59459459,94.59459459,468.7297297,468.7297297,black,legacy,legacy,legacy,0,congruent,uniform,1,undefined,1,s,36,0,0,0,36,0,36,0,36,NA,0,0,0,36,36,36,36,9/16/19 10:01,1500,The main experiment item,yes,C:/Users/Breena Riley/Desktop/2019 Fall/MultQuant/New folder/Flankertask.osexp,no,mono,no,18,no,white,no,yes,768,legacy,36,36,C:/Users/Breena Riley/Desktop/2019 Fall/MultQuant/BR-subject-1.csv,legacy,Kafkaesque Koffka,3.2.8,0,s,NA,NA,space,NA,NA,s,392,NA,NA,5750,NA,NA,392,2,legacy,1024,2,48000,-16,experiment,SSSSS,0,even,67111,8018,NA,NA,41805,2259,NA,NA,68172,NA,2267,NA,NA,68273,68665,68170,68273,Flankertask,35,17343,37,yes,1024
94.73684211,94.73684211,467.2105263,467.2105263,black,legacy,legacy,legacy,0,incongruent,uniform,1,undefined,1,h,37,0,0,0,37,0,37,0,37,NA,0,0,0,37,37,37,37,9/16/19 10:01,1500,The main experiment item,yes,C:/Users/Breena Riley/Desktop/2019 Fall/MultQuant/New folder/Flankertask.osexp,no,mono,no,18,no,white,no,yes,768,legacy,37,37,C:/Users/Breena Riley/Desktop/2019 Fall/MultQuant/BR-subject-1.csv,legacy,Kafkaesque Koffka,3.2.8,0,h,NA,NA,space,NA,NA,h,411,NA,NA,5750,NA,NA,411,2,legacy,1024,2,48000,-16,experiment,SSHSS,0,even,68669,8018,NA,NA,41805,2259,NA,NA,69731,NA,2267,NA,NA,69832,70244,69729,69832,Flankertask,36,17754,38,yes,1024
94.87179487,94.87179487,466.4358974,466.4358974,black,legacy,legacy,legacy,0,incongruent,uniform,1,undefined,1,s,38,0,0,0,38,0,38,0,38,NA,0,0,0,38,38,38,38,9/16/19 10:01,1500,The main experiment item,yes,C:/Users/Breena Riley/Desktop/2019 Fall/MultQuant/New folder/Flankertask.osexp,no,mono,no,18,no,white,no,yes,768,legacy,38,38,C:/Users/Breena Riley/Desktop/2019 Fall/MultQuant/BR-subject-1.csv,legacy,Kafkaesque Koffka,3.2.8,0,s,NA,NA,space,NA,NA,s,437,NA,NA,5750,NA,NA,437,2,legacy,1024,2,48000,-16,experiment,HHSHH,0,even,70252,8018,NA,NA,41805,2259,NA,NA,71314,NA,2267,NA,NA,71415,71852,71311,71415,Flankertask,37,18191,39,yes,1024
95,95,465.475,465.475,black,legacy,legacy,legacy,0,congruent,uniform,1,undefined,1,h,39,0,0,0,39,0,39,0,39,NA,0,0,0,39,39,39,39,9/16/19 10:01,1500,The main experiment item,yes,C:/Users/Breena Riley/Desktop/2019 Fall/MultQuant/New folder/Flankertask.osexp,no,mono,no,18,no,white,no,yes,768,legacy,39,39,C:/Users/Breena Riley/Desktop/2019 Fall/MultQuant/BR-subject-1.csv,legacy,Kafkaesque Koffka,3.2.8,0,h,NA,NA,space,NA,NA,h,428,NA,NA,5750,NA,NA,428,2,legacy,1024,2,48000,-16,experiment,HHHHH,0,even,71859,8018,NA,NA,41805,2259,NA,NA,72918,NA,2267,NA,NA,73019,73448,72916,73019,Flankertask,38,18619,40,yes,1024
95.12195122,95.12195122,463.7560976,463.7560976,black,legacy,legacy,legacy,0,congruent,uniform,1,undefined,1,s,40,0,0,0,40,0,40,0,40,NA,0,0,0,40,40,40,40,9/16/19 10:01,1500,The main experiment item,yes,C:/Users/Breena Riley/Desktop/2019 Fall/MultQuant/New folder/Flankertask.osexp,no,mono,no,18,no,white,no,yes,768,legacy,40,40,C:/Users/Breena Riley/Desktop/2019 Fall/MultQuant/BR-subject-1.csv,legacy,Kafkaesque Koffka,3.2.8,0,s,NA,NA,space,NA,NA,s,395,NA,NA,5750,NA,NA,395,2,legacy,1024,2,48000,-16,experiment,SSSSS,0,even,73456,8018,NA,NA,41805,2259,NA,NA,74516,NA,2267,NA,NA,74617,75013,74513,74617,Flankertask,39,19014,41,yes,1024
95.23809524,95.23809524,463.3333333,463.3333333,black,legacy,legacy,legacy,0,congruent,uniform,1,undefined,1,h,41,0,0,0,41,0,41,0,41,NA,0,0,0,41,41,41,41,9/16/19 10:01,1500,The main experiment item,yes,C:/Users/Breena Riley/Desktop/2019 Fall/MultQuant/New folder/Flankertask.osexp,no,mono,no,18,no,white,no,yes,768,legacy,41,41,C:/Users/Breena Riley/Desktop/2019 Fall/MultQuant/BR-subject-1.csv,legacy,Kafkaesque Koffka,3.2.8,0,h,NA,NA,space,NA,NA,h,446,NA,NA,5750,NA,NA,446,2,legacy,1024,2,48000,-16,experiment,HHHHH,0,even,75020,8018,NA,NA,41805,2259,NA,NA,76079,NA,2267,NA,NA,76181,76627,76077,76181,Flankertask,40,19460,42,yes,1024
95.34883721,95.34883721,462.8372093,462.8372093,black,legacy,legacy,legacy,0,incongruent,uniform,1,undefined,1,h,42,0,0,0,42,0,42,0,42,NA,0,0,0,42,42,42,42,9/16/19 10:01,1500,The main experiment item,yes,C:/Users/Breena Riley/Desktop/2019 Fall/MultQuant/New folder/Flankertask.osexp,no,mono,no,18,no,white,no,yes,768,legacy,42,42,C:/Users/Breena Riley/Desktop/2019 Fall/MultQuant/BR-subject-1.csv,legacy,Kafkaesque Koffka,3.2.8,0,h,NA,NA,space,NA,NA,h,442,NA,NA,5750,NA,NA,442,2,legacy,1024,2,48000,-16,experiment,SSHSS,0,even,76635,8018,NA,NA,41805,2259,NA,NA,77693,NA,2267,NA,NA,77794,78237,77691,77794,Flankertask,41,19902,43,yes,1024
95.45454545,95.45454545,462.2727273,462.2727273,black,legacy,legacy,legacy,0,congruent,uniform,1,undefined,1,s,43,0,0,0,43,0,43,0,43,NA,0,0,0,43,43,43,43,9/16/19 10:01,1500,The main experiment item,yes,C:/Users/Breena Riley/Desktop/2019 Fall/MultQuant/New folder/Flankertask.osexp,no,mono,no,18,no,white,no,yes,768,legacy,43,43,C:/Users/Breena Riley/Desktop/2019 Fall/MultQuant/BR-subject-1.csv,legacy,Kafkaesque Koffka,3.2.8,0,s,NA,NA,space,NA,NA,s,438,NA,NA,5750,NA,NA,438,2,legacy,1024,2,48000,-16,experiment,SSSSS,0,even,78244,8018,NA,NA,41805,2259,NA,NA,79301,NA,2267,NA,NA,79403,79842,79299,79403,Flankertask,42,20340,44,yes,1024
95.55555556,95.55555556,460.5777778,460.5777778,black,legacy,legacy,legacy,0,congruent,uniform,1,undefined,1,h,44,0,0,0,44,0,44,0,44,NA,0,0,0,44,44,44,44,9/16/19 10:01,1500,The main experiment item,yes,C:/Users/Breena Riley/Desktop/2019 Fall/MultQuant/New folder/Flankertask.osexp,no,mono,no,18,no,white,no,yes,768,legacy,44,44,C:/Users/Breena Riley/Desktop/2019 Fall/MultQuant/BR-subject-1.csv,legacy,Kafkaesque Koffka,3.2.8,0,h,NA,NA,space,NA,NA,h,386,NA,NA,5750,NA,NA,386,2,legacy,1024,2,48000,-16,experiment,HHHHH,0,even,79849,8018,NA,NA,41805,2259,NA,NA,80912,NA,2267,NA,NA,81013,81399,80910,81013,Flankertask,43,20726,45,yes,1024
95.65217391,95.65217391,460.326087,460.326087,black,legacy,legacy,legacy,0,congruent,uniform,1,undefined,1,s,45,0,0,0,45,0,45,0,45,NA,0,0,0,45,45,45,45,9/16/19 10:01,1500,The main experiment item,yes,C:/Users/Breena Riley/Desktop/2019 Fall/MultQuant/New folder/Flankertask.osexp,no,mono,no,18,no,white,no,yes,768,legacy,45,45,C:/Users/Breena Riley/Desktop/2019 Fall/MultQuant/BR-subject-1.csv,legacy,Kafkaesque Koffka,3.2.8,0,s,NA,NA,space,NA,NA,s,449,NA,NA,5750,NA,NA,449,2,legacy,1024,2,48000,-16,experiment,SSSSS,0,even,81408,8018,NA,NA,41805,2259,NA,NA,82466,NA,2267,NA,NA,82567,83016,82464,82567,Flankertask,44,21175,46,yes,1024
95.74468085,95.74468085,458.6808511,458.6808511,black,legacy,legacy,legacy,0,congruent,uniform,1,undefined,1,s,46,0,0,0,46,0,46,0,46,NA,0,0,0,46,46,46,46,9/16/19 10:01,1500,The main experiment item,yes,C:/Users/Breena Riley/Desktop/2019 Fall/MultQuant/New folder/Flankertask.osexp,no,mono,no,18,no,white,no,yes,768,legacy,46,46,C:/Users/Breena Riley/Desktop/2019 Fall/MultQuant/BR-subject-1.csv,legacy,Kafkaesque Koffka,3.2.8,0,s,NA,NA,space,NA,NA,s,383,NA,NA,5750,NA,NA,383,2,legacy,1024,2,48000,-16,experiment,SSSSS,0,even,83024,8018,NA,NA,41805,2259,NA,NA,84083,NA,2267,NA,NA,84185,84569,84081,84185,Flankertask,45,21558,47,yes,1024
95.83333333,95.83333333,461.3958333,461.3958333,black,legacy,legacy,legacy,0,incongruent,uniform,1,undefined,1,s,47,0,0,0,47,0,47,0,47,NA,0,0,0,47,47,47,47,9/16/19 10:01,1500,The main experiment item,yes,C:/Users/Breena Riley/Desktop/2019 Fall/MultQuant/New folder/Flankertask.osexp,no,mono,no,18,no,white,no,yes,768,legacy,47,47,C:/Users/Breena Riley/Desktop/2019 Fall/MultQuant/BR-subject-1.csv,legacy,Kafkaesque Koffka,3.2.8,0,s,NA,NA,space,NA,NA,s,589,NA,NA,5750,NA,NA,589,2,legacy,1024,2,48000,-16,experiment,HHSHH,0,even,84576,8018,NA,NA,41805,2259,NA,NA,85642,NA,2267,NA,NA,85743,86333,85640,85743,Flankertask,46,22147,48,yes,1024
95.91836735,95.91836735,460.7142857,460.7142857,black,legacy,legacy,legacy,0,congruent,uniform,1,undefined,1,s,48,0,0,0,48,0,48,0,48,NA,0,0,0,48,48,48,48,9/16/19 10:01,1500,The main experiment item,yes,C:/Users/Breena Riley/Desktop/2019 Fall/MultQuant/New folder/Flankertask.osexp,no,mono,no,18,no,white,no,yes,768,legacy,48,48,C:/Users/Breena Riley/Desktop/2019 Fall/MultQuant/BR-subject-1.csv,legacy,Kafkaesque Koffka,3.2.8,0,s,NA,NA,space,NA,NA,s,428,NA,NA,5750,NA,NA,428,2,legacy,1024,2,48000,-16,experiment,SSSSS,0,even,86341,8018,NA,NA,41805,2259,NA,NA,87398,NA,2267,NA,NA,87499,87928,87396,87499,Flankertask,47,22575,49,yes,1024
96,96,460.22,460.22,black,legacy,legacy,legacy,0,congruent,uniform,1,undefined,1,h,49,0,0,0,49,0,49,0,49,NA,0,0,0,49,49,49,49,9/16/19 10:01,1500,The main experiment item,yes,C:/Users/Breena Riley/Desktop/2019 Fall/MultQuant/New folder/Flankertask.osexp,no,mono,no,18,no,white,no,yes,768,legacy,49,49,C:/Users/Breena Riley/Desktop/2019 Fall/MultQuant/BR-subject-1.csv,legacy,Kafkaesque Koffka,3.2.8,0,h,NA,NA,space,NA,NA,h,436,NA,NA,5750,NA,NA,436,2,legacy,1024,2,48000,-16,experiment,HHHHH,0,even,87935,8018,NA,NA,41805,2259,NA,NA,88993,NA,2267,NA,NA,89094,89530,88991,89094,Flankertask,48,23011,50,yes,1024
96.07843137,96.07843137,458.8431373,458.8431373,black,legacy,legacy,legacy,0,congruent,uniform,1,undefined,1,h,50,0,0,0,50,0,50,0,50,NA,0,0,0,50,50,50,50,9/16/19 10:01,1500,The main experiment item,yes,C:/Users/Breena Riley/Desktop/2019 Fall/MultQuant/New folder/Flankertask.osexp,no,mono,no,18,no,white,no,yes,768,legacy,50,50,C:/Users/Breena Riley/Desktop/2019 Fall/MultQuant/BR-subject-1.csv,legacy,Kafkaesque Koffka,3.2.8,0,h,NA,NA,space,NA,NA,h,390,NA,NA,5750,NA,NA,390,2,legacy,1024,2,48000,-16,experiment,HHHHH,0,even,89538,8018,NA,NA,41805,2259,NA,NA,90598,NA,2267,NA,NA,90700,91091,90596,90700,Flankertask,49,23401,51,yes,1024
94.23076923,94.23076923,457.8653846,457.8653846,black,legacy,legacy,legacy,0,incongruent,uniform,0,undefined,0,h,51,0,0,0,51,0,51,0,51,NA,0,0,0,51,51,51,51,9/16/19 10:01,1500,The main experiment item,yes,C:/Users/Breena Riley/Desktop/2019 Fall/MultQuant/New folder/Flankertask.osexp,no,mono,no,18,no,white,no,yes,768,legacy,51,51,C:/Users/Breena Riley/Desktop/2019 Fall/MultQuant/BR-subject-1.csv,legacy,Kafkaesque Koffka,3.2.8,0,s,NA,NA,space,NA,NA,s,408,NA,NA,5750,NA,NA,408,2,legacy,1024,2,48000,-16,experiment,SSHSS,0,even,91099,8018,NA,NA,41805,2259,NA,NA,92159,NA,2267,NA,NA,92260,92669,92157,92260,Flankertask,49,23809,52,yes,1024
94.33962264,94.33962264,457.8679245,457.8679245,black,legacy,legacy,legacy,0,congruent,uniform,1,undefined,1,s,52,0,0,0,52,0,52,0,52,NA,0,0,0,52,52,52,52,9/16/19 10:01,1500,The main experiment item,yes,C:/Users/Breena Riley/Desktop/2019 Fall/MultQuant/New folder/Flankertask.osexp,no,mono,no,18,no,white,no,yes,768,legacy,52,52,C:/Users/Breena Riley/Desktop/2019 Fall/MultQuant/BR-subject-1.csv,legacy,Kafkaesque Koffka,3.2.8,0,s,NA,NA,space,NA,NA,s,458,NA,NA,5750,NA,NA,458,2,legacy,1024,2,48000,-16,experiment,SSSSS,0,even,93178,8018,NA,NA,92677,2259,NA,NA,94240,NA,2267,NA,NA,94341,94800,94238,94341,Flankertask,50,24267,53,yes,1024
94.44444444,94.44444444,458.3888889,458.3888889,black,legacy,legacy,legacy,0,congruent,uniform,1,undefined,1,s,53,0,0,0,53,0,53,0,53,NA,0,0,0,53,53,53,53,9/16/19 10:01,1500,The main experiment item,yes,C:/Users/Breena Riley/Desktop/2019 Fall/MultQuant/New folder/Flankertask.osexp,no,mono,no,18,no,white,no,yes,768,legacy,53,53,C:/Users/Breena Riley/Desktop/2019 Fall/MultQuant/BR-subject-1.csv,legacy,Kafkaesque Koffka,3.2.8,0,s,NA,NA,space,NA,NA,s,486,NA,NA,5750,NA,NA,486,2,legacy,1024,2,48000,-16,experiment,SSSSS,0,even,94808,8018,NA,NA,92677,2259,NA,NA,95869,NA,2267,NA,NA,95970,96456,95867,95970,Flankertask,51,24753,54,yes,1024
94.54545455,94.54545455,457.8,457.8,black,legacy,legacy,legacy,0,congruent,uniform,1,undefined,1,h,54,0,0,0,54,0,54,0,54,NA,0,0,0,54,54,54,54,9/16/19 10:01,1500,The main experiment item,yes,C:/Users/Breena Riley/Desktop/2019 Fall/MultQuant/New folder/Flankertask.osexp,no,mono,no,18,no,white,no,yes,768,legacy,54,54,C:/Users/Breena Riley/Desktop/2019 Fall/MultQuant/BR-subject-1.csv,legacy,Kafkaesque Koffka,3.2.8,0,h,NA,NA,space,NA,NA,h,426,NA,NA,5750,NA,NA,426,2,legacy,1024,2,48000,-16,experiment,HHHHH,0,even,96464,8018,NA,NA,92677,2259,NA,NA,97522,NA,2267,NA,NA,97623,98050,97520,97623,Flankertask,52,25179,55,yes,1024
94.64285714,94.64285714,456.6785714,456.6785714,black,legacy,legacy,legacy,0,congruent,uniform,1,undefined,1,s,55,0,0,0,55,0,55,0,55,NA,0,0,0,55,55,55,55,9/16/19 10:01,1500,The main experiment item,yes,C:/Users/Breena Riley/Desktop/2019 Fall/MultQuant/New folder/Flankertask.osexp,no,mono,no,18,no,white,no,yes,768,legacy,55,55,C:/Users/Breena Riley/Desktop/2019 Fall/MultQuant/BR-subject-1.csv,legacy,Kafkaesque Koffka,3.2.8,0,s,NA,NA,space,NA,NA,s,395,NA,NA,5750,NA,NA,395,2,legacy,1024,2,48000,-16,experiment,SSSSS,0,even,98058,8018,NA,NA,92677,2259,NA,NA,99119,NA,2267,NA,NA,99220,99616,99117,99220,Flankertask,53,25574,56,yes,1024
94.73684211,94.73684211,457.3157895,457.3157895,black,legacy,legacy,legacy,0,incongruent,uniform,1,undefined,1,h,56,0,0,0,56,0,56,0,56,NA,0,0,0,56,56,56,56,9/16/19 10:01,1500,The main experiment item,yes,C:/Users/Breena Riley/Desktop/2019 Fall/MultQuant/New folder/Flankertask.osexp,no,mono,no,18,no,white,no,yes,768,legacy,56,56,C:/Users/Breena Riley/Desktop/2019 Fall/MultQuant/BR-subject-1.csv,legacy,Kafkaesque Koffka,3.2.8,0,h,NA,NA,space,NA,NA,h,493,NA,NA,5750,NA,NA,493,2,legacy,1024,2,48000,-16,experiment,SSHSS,0,even,99624,8018,NA,NA,92677,2259,NA,NA,100683,NA,2267,NA,NA,100784,101278,100681,100784,Flankertask,54,26067,57,yes,1024
94.82758621,94.82758621,457.3965517,457.3965517,black,legacy,legacy,legacy,0,incongruent,uniform,1,undefined,1,s,57,0,0,0,57,0,57,0,57,NA,0,0,0,57,57,57,57,9/16/19 10:01,1500,The main experiment item,yes,C:/Users/Breena Riley/Desktop/2019 Fall/MultQuant/New folder/Flankertask.osexp,no,mono,no,18,no,white,no,yes,768,legacy,57,57,C:/Users/Breena Riley/Desktop/2019 Fall/MultQuant/BR-subject-1.csv,legacy,Kafkaesque Koffka,3.2.8,0,s,NA,NA,space,NA,NA,s,462,NA,NA,5750,NA,NA,462,2,legacy,1024,2,48000,-16,experiment,HHSHH,0,even,101286,8018,NA,NA,92677,2259,NA,NA,102344,NA,2267,NA,NA,102445,102908,102342,102445,Flankertask,55,26529,58,yes,1024
94.91525424,94.91525424,457.3389831,457.3389831,black,legacy,legacy,legacy,0,incongruent,uniform,1,undefined,1,s,58,0,0,0,58,0,58,0,58,NA,0,0,0,58,58,58,58,9/16/19 10:01,1500,The main experiment item,yes,C:/Users/Breena Riley/Desktop/2019 Fall/MultQuant/New folder/Flankertask.osexp,no,mono,no,18,no,white,no,yes,768,legacy,58,58,C:/Users/Breena Riley/Desktop/2019 Fall/MultQuant/BR-subject-1.csv,legacy,Kafkaesque Koffka,3.2.8,0,s,NA,NA,space,NA,NA,s,454,NA,NA,5750,NA,NA,454,2,legacy,1024,2,48000,-16,experiment,HHSHH,0,even,102915,8018,NA,NA,92677,2259,NA,NA,103972,NA,2267,NA,NA,104074,104529,103970,104074,Flankertask,56,26983,59,yes,1024
93.33333333,93.33333333,457.15,457.15,black,legacy,legacy,legacy,0,incongruent,uniform,0,undefined,0,h,59,0,0,0,59,0,59,0,59,NA,0,0,0,59,59,59,59,9/16/19 10:01,1500,The main experiment item,yes,C:/Users/Breena Riley/Desktop/2019 Fall/MultQuant/New folder/Flankertask.osexp,no,mono,no,18,no,white,no,yes,768,legacy,59,59,C:/Users/Breena Riley/Desktop/2019 Fall/MultQuant/BR-subject-1.csv,legacy,Kafkaesque Koffka,3.2.8,0,s,NA,NA,space,NA,NA,s,446,NA,NA,5750,NA,NA,446,2,legacy,1024,2,48000,-16,experiment,SSHSS,0,even,104538,8018,NA,NA,92677,2259,NA,NA,105595,NA,2267,NA,NA,105696,106143,105593,105696,Flankertask,56,27429,60,yes,1024
93.44262295,93.44262295,457.9836066,457.9836066,black,legacy,legacy,legacy,0,incongruent,uniform,1,undefined,1,s,60,0,0,0,60,0,60,0,60,NA,0,0,0,60,60,60,60,9/16/19 10:01,1500,The main experiment item,yes,C:/Users/Breena Riley/Desktop/2019 Fall/MultQuant/New folder/Flankertask.osexp,no,mono,no,18,no,white,no,yes,768,legacy,60,60,C:/Users/Breena Riley/Desktop/2019 Fall/MultQuant/BR-subject-1.csv,legacy,Kafkaesque Koffka,3.2.8,0,s,NA,NA,space,NA,NA,s,508,NA,NA,5750,NA,NA,508,2,legacy,1024,2,48000,-16,experiment,HHSHH,0,even,106652,8018,NA,NA,106151,2259,NA,NA,107710,NA,2267,NA,NA,107811,108320,107708,107811,Flankertask,57,27937,61,yes,1024
93.5483871,93.5483871,458.4354839,458.4354839,black,legacy,legacy,legacy,0,incongruent,uniform,1,undefined,1,s,61,0,0,0,61,0,61,0,61,NA,0,0,0,61,61,61,61,9/16/19 10:01,1500,The main experiment item,yes,C:/Users/Breena Riley/Desktop/2019 Fall/MultQuant/New folder/Flankertask.osexp,no,mono,no,18,no,white,no,yes,768,legacy,61,61,C:/Users/Breena Riley/Desktop/2019 Fall/MultQuant/BR-subject-1.csv,legacy,Kafkaesque Koffka,3.2.8,0,s,NA,NA,space,NA,NA,s,486,NA,NA,5750,NA,NA,486,2,legacy,1024,2,48000,-16,experiment,HHSHH,0,even,108327,8018,NA,NA,106151,2259,NA,NA,109389,NA,2267,NA,NA,109491,109978,109387,109490,Flankertask,58,28423,62,yes,1024
93.65079365,93.65079365,462.7142857,462.7142857,black,legacy,legacy,legacy,0,incongruent,uniform,1,undefined,1,h,62,0,0,0,62,0,62,0,62,NA,0,0,0,62,62,62,62,9/16/19 10:01,1500,The main experiment item,yes,C:/Users/Breena Riley/Desktop/2019 Fall/MultQuant/New folder/Flankertask.osexp,no,mono,no,18,no,white,no,yes,768,legacy,62,62,C:/Users/Breena Riley/Desktop/2019 Fall/MultQuant/BR-subject-1.csv,legacy,Kafkaesque Koffka,3.2.8,0,h,NA,NA,space,NA,NA,h,728,NA,NA,5750,NA,NA,728,2,legacy,1024,2,48000,-16,experiment,SSHSS,0,even,109985,8018,NA,NA,106151,2259,NA,NA,111043,NA,2267,NA,NA,111144,111873,111041,111144,Flankertask,59,29151,63,yes,1024
93.75,93.75,464.609375,464.609375,black,legacy,legacy,legacy,0,incongruent,uniform,1,undefined,1,h,63,0,0,0,63,0,63,0,63,NA,0,0,0,63,63,63,63,9/16/19 10:01,1500,The main experiment item,yes,C:/Users/Breena Riley/Desktop/2019 Fall/MultQuant/New folder/Flankertask.osexp,no,mono,no,18,no,white,no,yes,768,legacy,63,63,C:/Users/Breena Riley/Desktop/2019 Fall/MultQuant/BR-subject-1.csv,legacy,Kafkaesque Koffka,3.2.8,0,h,NA,NA,space,NA,NA,h,584,NA,NA,5750,NA,NA,584,2,legacy,1024,2,48000,-16,experiment,SSHSS,0,even,111880,8018,NA,NA,106151,2259,NA,NA,112939,NA,2267,NA,NA,113040,113625,112937,113040,Flankertask,60,29735,64,yes,1024
93.84615385,93.84615385,465.0923077,465.0923077,black,legacy,legacy,legacy,0,incongruent,uniform,1,undefined,1,h,64,0,0,0,64,0,64,0,64,NA,0,0,0,64,64,64,64,9/16/19 10:01,1500,The main experiment item,yes,C:/Users/Breena Riley/Desktop/2019 Fall/MultQuant/New folder/Flankertask.osexp,no,mono,no,18,no,white,no,yes,768,legacy,64,64,C:/Users/Breena Riley/Desktop/2019 Fall/MultQuant/BR-subject-1.csv,legacy,Kafkaesque Koffka,3.2.8,0,h,NA,NA,space,NA,NA,h,496,NA,NA,5750,NA,NA,496,2,legacy,1024,2,48000,-16,experiment,SSHSS,0,even,113633,8018,NA,NA,106151,2259,NA,NA,114694,NA,2267,NA,NA,114795,115292,114691,114795,Flankertask,61,30231,65,yes,1024
92.42424242,92.42424242,464.8787879,464.8787879,black,legacy,legacy,legacy,0,incongruent,uniform,0,undefined,0,h,65,0,0,0,65,0,65,0,65,NA,0,0,0,65,65,65,65,9/16/19 10:01,1500,The main experiment item,yes,C:/Users/Breena Riley/Desktop/2019 Fall/MultQuant/New folder/Flankertask.osexp,no,mono,no,18,no,white,no,yes,768,legacy,65,65,C:/Users/Breena Riley/Desktop/2019 Fall/MultQuant/BR-subject-1.csv,legacy,Kafkaesque Koffka,3.2.8,0,s,NA,NA,space,NA,NA,s,451,NA,NA,5750,NA,NA,451,2,legacy,1024,2,48000,-16,experiment,SSHSS,0,even,115299,8018,NA,NA,106151,2259,NA,NA,116368,NA,2267,NA,NA,116470,116922,116365,116469,Flankertask,61,30682,66,yes,1024
92.53731343,92.53731343,465.5820896,465.5820896,black,legacy,legacy,legacy,0,incongruent,uniform,1,undefined,1,h,66,0,0,0,66,0,66,0,66,NA,0,0,0,66,66,66,66,9/16/19 10:01,1500,The main experiment item,yes,C:/Users/Breena Riley/Desktop/2019 Fall/MultQuant/New folder/Flankertask.osexp,no,mono,no,18,no,white,no,yes,768,legacy,66,66,C:/Users/Breena Riley/Desktop/2019 Fall/MultQuant/BR-subject-1.csv,legacy,Kafkaesque Koffka,3.2.8,0,h,NA,NA,space,NA,NA,h,512,NA,NA,5750,NA,NA,512,2,legacy,1024,2,48000,-16,experiment,SSHSS,0,even,117431,8018,NA,NA,116930,2259,NA,NA,118488,NA,2267,NA,NA,118590,119103,118486,118589,Flankertask,62,31194,67,yes,1024
92.64705882,92.64705882,466.8382353,466.8382353,black,legacy,legacy,legacy,0,congruent,uniform,1,undefined,1,s,67,0,0,0,67,0,67,0,67,NA,0,0,0,67,67,67,67,9/16/19 10:01,1500,The main experiment item,yes,C:/Users/Breena Riley/Desktop/2019 Fall/MultQuant/New folder/Flankertask.osexp,no,mono,no,18,no,white,no,yes,768,legacy,67,67,C:/Users/Breena Riley/Desktop/2019 Fall/MultQuant/BR-subject-1.csv,legacy,Kafkaesque Koffka,3.2.8,0,s,NA,NA,space,NA,NA,s,551,NA,NA,5750,NA,NA,551,2,legacy,1024,2,48000,-16,experiment,SSSSS,0,even,119110,8018,NA,NA,116930,2259,NA,NA,120179,NA,2267,NA,NA,120280,120832,120176,120280,Flankertask,63,31745,68,yes,1024
92.75362319,92.75362319,467.5072464,467.5072464,black,legacy,legacy,legacy,0,incongruent,uniform,1,undefined,1,h,68,0,0,0,68,0,68,0,68,NA,0,0,0,68,68,68,68,9/16/19 10:01,1500,The main experiment item,yes,C:/Users/Breena Riley/Desktop/2019 Fall/MultQuant/New folder/Flankertask.osexp,no,mono,no,18,no,white,no,yes,768,legacy,68,68,C:/Users/Breena Riley/Desktop/2019 Fall/MultQuant/BR-subject-1.csv,legacy,Kafkaesque Koffka,3.2.8,0,h,NA,NA,space,NA,NA,h,513,NA,NA,5750,NA,NA,513,2,legacy,1024,2,48000,-16,experiment,SSHSS,0,even,120839,8018,NA,NA,116930,2259,NA,NA,121897,NA,2267,NA,NA,121998,122512,121894,121998,Flankertask,64,32258,69,yes,1024
92.85714286,92.85714286,467.5,467.5,black,legacy,legacy,legacy,0,congruent,uniform,1,undefined,1,h,69,0,0,0,69,0,69,0,69,NA,0,0,0,69,69,69,69,9/16/19 10:01,1500,The main experiment item,yes,C:/Users/Breena Riley/Desktop/2019 Fall/MultQuant/New folder/Flankertask.osexp,no,mono,no,18,no,white,no,yes,768,legacy,69,69,C:/Users/Breena Riley/Desktop/2019 Fall/MultQuant/BR-subject-1.csv,legacy,Kafkaesque Koffka,3.2.8,0,h,NA,NA,space,NA,NA,h,467,NA,NA,5750,NA,NA,467,2,legacy,1024,2,48000,-16,experiment,HHHHH,0,even,122521,8018,NA,NA,116930,2259,NA,NA,123581,NA,2267,NA,NA,123683,124151,123579,123683,Flankertask,65,32725,70,yes,1024
92.95774648,92.95774648,467.915493,467.915493,black,legacy,legacy,legacy,0,incongruent,uniform,1,undefined,1,s,70,0,0,0,70,0,70,0,70,NA,0,0,0,70,70,70,70,9/16/19 10:01,1500,The main experiment item,yes,C:/Users/Breena Riley/Desktop/2019 Fall/MultQuant/New folder/Flankertask.osexp,no,mono,no,18,no,white,no,yes,768,legacy,70,70,C:/Users/Breena Riley/Desktop/2019 Fall/MultQuant/BR-subject-1.csv,legacy,Kafkaesque Koffka,3.2.8,0,s,NA,NA,space,NA,NA,s,497,NA,NA,5750,NA,NA,497,2,legacy,1024,2,48000,-16,experiment,HHSHH,0,even,124158,8018,NA,NA,116930,2259,NA,NA,125217,NA,2267,NA,NA,125318,125816,125214,125318,Flankertask,66,33222,71,yes,1024
93.05555556,93.05555556,466.8888889,466.8888889,black,legacy,legacy,legacy,0,congruent,uniform,1,undefined,1,s,71,0,0,0,71,0,71,0,71,NA,0,0,0,71,71,71,71,9/16/19 10:01,1500,The main experiment item,yes,C:/Users/Breena Riley/Desktop/2019 Fall/MultQuant/New folder/Flankertask.osexp,no,mono,no,18,no,white,no,yes,768,legacy,71,71,C:/Users/Breena Riley/Desktop/2019 Fall/MultQuant/BR-subject-1.csv,legacy,Kafkaesque Koffka,3.2.8,0,s,NA,NA,space,NA,NA,s,394,NA,NA,5750,NA,NA,394,2,legacy,1024,2,48000,-16,experiment,SSSSS,0,even,125824,8018,NA,NA,116930,2259,NA,NA,126882,NA,2267,NA,NA,126983,127377,126880,126983,Flankertask,67,33616,72,yes,1024
93.15068493,93.15068493,465.9178082,465.9178082,black,legacy,legacy,legacy,0,congruent,uniform,1,undefined,1,s,72,0,0,0,72,0,72,0,72,NA,0,0,0,72,72,72,72,9/16/19 10:01,1500,The main experiment item,yes,C:/Users/Breena Riley/Desktop/2019 Fall/MultQuant/New folder/Flankertask.osexp,no,mono,no,18,no,white,no,yes,768,legacy,72,72,C:/Users/Breena Riley/Desktop/2019 Fall/MultQuant/BR-subject-1.csv,legacy,Kafkaesque Koffka,3.2.8,0,s,NA,NA,space,NA,NA,s,396,NA,NA,5750,NA,NA,396,2,legacy,1024,2,48000,-16,experiment,SSSSS,0,even,127385,8018,NA,NA,116930,2259,NA,NA,128445,NA,2267,NA,NA,128546,128943,128442,128546,Flankertask,68,34012,73,yes,1024
93.24324324,93.24324324,465.9189189,465.9189189,black,legacy,legacy,legacy,0,congruent,uniform,1,undefined,1,h,73,0,0,0,73,0,73,0,73,NA,0,0,0,73,73,73,73,9/16/19 10:01,1500,The main experiment item,yes,C:/Users/Breena Riley/Desktop/2019 Fall/MultQuant/New folder/Flankertask.osexp,no,mono,no,18,no,white,no,yes,768,legacy,73,73,C:/Users/Breena Riley/Desktop/2019 Fall/MultQuant/BR-subject-1.csv,legacy,Kafkaesque Koffka,3.2.8,0,h,NA,NA,space,NA,NA,h,466,NA,NA,5750,NA,NA,466,2,legacy,1024,2,48000,-16,experiment,HHHHH,0,even,128950,8018,NA,NA,116930,2259,NA,NA,130010,NA,2267,NA,NA,130111,130578,130008,130111,Flankertask,69,34478,74,yes,1024
93.33333333,93.33333333,466.8666667,466.8666667,black,legacy,legacy,legacy,0,incongruent,uniform,1,undefined,1,s,74,0,0,0,74,0,74,0,74,NA,0,0,0,74,74,74,74,9/16/19 10:01,1500,The main experiment item,yes,C:/Users/Breena Riley/Desktop/2019 Fall/MultQuant/New folder/Flankertask.osexp,no,mono,no,18,no,white,no,yes,768,legacy,74,74,C:/Users/Breena Riley/Desktop/2019 Fall/MultQuant/BR-subject-1.csv,legacy,Kafkaesque Koffka,3.2.8,0,s,NA,NA,space,NA,NA,s,537,NA,NA,5750,NA,NA,537,2,legacy,1024,2,48000,-16,experiment,HHSHH,0,even,130586,8018,NA,NA,116930,2259,NA,NA,131644,NA,2267,NA,NA,131745,132283,131641,131745,Flankertask,70,35015,75,yes,1024
93.42105263,93.42105263,466.2894737,466.2894737,black,legacy,legacy,legacy,0,incongruent,uniform,1,undefined,1,h,75,0,0,0,75,0,75,0,75,NA,0,0,0,75,75,75,75,9/16/19 10:01,1500,The main experiment item,yes,C:/Users/Breena Riley/Desktop/2019 Fall/MultQuant/New folder/Flankertask.osexp,no,mono,no,18,no,white,no,yes,768,legacy,75,75,C:/Users/Breena Riley/Desktop/2019 Fall/MultQuant/BR-subject-1.csv,legacy,Kafkaesque Koffka,3.2.8,0,h,NA,NA,space,NA,NA,h,423,NA,NA,5750,NA,NA,423,2,legacy,1024,2,48000,-16,experiment,SSHSS,0,even,132290,8018,NA,NA,116930,2259,NA,NA,133349,NA,2267,NA,NA,133451,133875,133347,133451,Flankertask,71,35438,76,yes,1024
93.50649351,93.50649351,466.2857143,466.2857143,black,legacy,legacy,legacy,0,congruent,uniform,1,undefined,1,h,76,0,0,0,76,0,76,0,76,NA,0,0,0,76,76,76,76,9/16/19 10:01,1500,The main experiment item,yes,C:/Users/Breena Riley/Desktop/2019 Fall/MultQuant/New folder/Flankertask.osexp,no,mono,no,18,no,white,no,yes,768,legacy,76,76,C:/Users/Breena Riley/Desktop/2019 Fall/MultQuant/BR-subject-1.csv,legacy,Kafkaesque Koffka,3.2.8,0,h,NA,NA,space,NA,NA,h,466,NA,NA,5750,NA,NA,466,2,legacy,1024,2,48000,-16,experiment,HHHHH,0,even,133883,8018,NA,NA,116930,2259,NA,NA,134944,NA,2267,NA,NA,135045,135511,134942,135045,Flankertask,72,35904,77,yes,1024
93.58974359,93.58974359,465.5384615,465.5384615,black,legacy,legacy,legacy,0,congruent,uniform,1,undefined,1,h,77,0,0,0,77,0,77,0,77,NA,0,0,0,77,77,77,77,9/16/19 10:01,1500,The main experiment item,yes,C:/Users/Breena Riley/Desktop/2019 Fall/MultQuant/New folder/Flankertask.osexp,no,mono,no,18,no,white,no,yes,768,legacy,77,77,C:/Users/Breena Riley/Desktop/2019 Fall/MultQuant/BR-subject-1.csv,legacy,Kafkaesque Koffka,3.2.8,0,h,NA,NA,space,NA,NA,h,408,NA,NA,5750,NA,NA,408,2,legacy,1024,2,48000,-16,experiment,HHHHH,0,even,135519,8018,NA,NA,116930,2259,NA,NA,136578,NA,2267,NA,NA,136680,137090,136575,136679,Flankertask,73,36312,78,yes,1024
93.67088608,93.67088608,465.0253165,465.0253165,black,legacy,legacy,legacy,0,incongruent,uniform,1,undefined,1,s,78,0,0,0,78,0,78,0,78,NA,0,0,0,78,78,78,78,9/16/19 10:01,1500,The main experiment item,yes,C:/Users/Breena Riley/Desktop/2019 Fall/MultQuant/New folder/Flankertask.osexp,no,mono,no,18,no,white,no,yes,768,legacy,78,78,C:/Users/Breena Riley/Desktop/2019 Fall/MultQuant/BR-subject-1.csv,legacy,Kafkaesque Koffka,3.2.8,0,s,NA,NA,space,NA,NA,s,425,NA,NA,5750,NA,NA,425,2,legacy,1024,2,48000,-16,experiment,HHSHH,0,even,137099,8018,NA,NA,116930,2259,NA,NA,138160,NA,2267,NA,NA,138262,138688,138158,138262,Flankertask,74,36737,79,yes,1024
93.75,93.75,463.925,463.925,black,legacy,legacy,legacy,0,congruent,uniform,1,undefined,1,h,79,0,0,0,79,0,79,0,79,NA,0,0,0,79,79,79,79,9/16/19 10:01,1500,The main experiment item,yes,C:/Users/Breena Riley/Desktop/2019 Fall/MultQuant/New folder/Flankertask.osexp,no,mono,no,18,no,white,no,yes,768,legacy,79,79,C:/Users/Breena Riley/Desktop/2019 Fall/MultQuant/BR-subject-1.csv,legacy,Kafkaesque Koffka,3.2.8,0,h,NA,NA,space,NA,NA,h,377,NA,NA,5750,NA,NA,377,2,legacy,1024,2,48000,-16,experiment,HHHHH,0,even,138694,8018,NA,NA,116930,2259,NA,NA,139753,NA,2267,NA,NA,139854,140232,139751,139854,Flankertask,75,37114,80,yes,1024
93.82716049,93.82716049,464.8765432,464.8765432,black,legacy,legacy,legacy,0,congruent,uniform,1,undefined,1,h,80,0,0,0,80,0,80,0,80,NA,0,0,0,80,80,80,80,9/16/19 10:01,600,The main experiment item,yes,C:/Users/Breena Riley/Desktop/2019 Fall/MultQuant/New folder/Flankertask.osexp,no,mono,no,18,no,white,no,yes,768,legacy,0,79,C:/Users/Breena Riley/Desktop/2019 Fall/MultQuant/BR-subject-1.csv,legacy,Kafkaesque Koffka,3.2.8,0,h,NA,NA,space,space,NA,h,541,NA,NA,5750,696,NA,541,2,legacy,1024,2,48000,-16,experiment,HHHHH,0,even,140240,8018,141949,NA,116930,2259,NA,NA,142003,NA,2267,141252,NA,142105,142647,142002,142104,Flankertask,76,37655,81,yes,1024
93.90243902,93.90243902,464.9634146,464.9634146,black,legacy,legacy,legacy,0,congruent,uniform,1,undefined,1,s,81,0,0,0,81,0,81,0,81,NA,0,0,0,81,81,81,81,9/16/19 10:01,600,The main experiment item,yes,C:/Users/Breena Riley/Desktop/2019 Fall/MultQuant/New folder/Flankertask.osexp,no,mono,no,18,no,white,no,yes,768,legacy,1,79,C:/Users/Breena Riley/Desktop/2019 Fall/MultQuant/BR-subject-1.csv,legacy,Kafkaesque Koffka,3.2.8,0,s,NA,NA,space,space,NA,s,472,NA,NA,5750,696,NA,472,2,legacy,1024,2,48000,-16,experiment,SSSSS,0,even,142655,8018,141949,NA,116930,2259,NA,NA,143713,NA,2267,141252,NA,143815,144288,143711,143814,Flankertask,77,38127,82,yes,1024
93.97590361,93.97590361,465.3253012,465.3253012,black,legacy,legacy,legacy,0,congruent,uniform,1,undefined,1,h,82,0,0,0,82,0,82,0,82,NA,0,0,0,82,82,82,82,9/16/19 10:01,600,The main experiment item,yes,C:/Users/Breena Riley/Desktop/2019 Fall/MultQuant/New folder/Flankertask.osexp,no,mono,no,18,no,white,no,yes,768,legacy,2,79,C:/Users/Breena Riley/Desktop/2019 Fall/MultQuant/BR-subject-1.csv,legacy,Kafkaesque Koffka,3.2.8,0,h,NA,NA,space,space,NA,h,495,NA,NA,5750,696,NA,495,2,legacy,1024,2,48000,-16,experiment,HHHHH,0,even,144295,8018,141949,NA,116930,2259,NA,NA,145353,NA,2267,141252,NA,145454,145949,145351,145454,Flankertask,78,38622,83,yes,1024
94.04761905,94.04761905,464.4761905,464.4761905,black,legacy,legacy,legacy,0,congruent,uniform,1,undefined,1,h,83,0,0,0,83,0,83,0,83,NA,0,0,0,83,83,83,83,9/16/19 10:01,600,The main experiment item,yes,C:/Users/Breena Riley/Desktop/2019 Fall/MultQuant/New folder/Flankertask.osexp,no,mono,no,18,no,white,no,yes,768,legacy,3,79,C:/Users/Breena Riley/Desktop/2019 Fall/MultQuant/BR-subject-1.csv,legacy,Kafkaesque Koffka,3.2.8,0,h,NA,NA,space,space,NA,h,394,NA,NA,5750,696,NA,394,2,legacy,1024,2,48000,-16,experiment,HHHHH,0,even,145957,8018,141949,NA,116930,2259,NA,NA,147015,NA,2267,141252,NA,147116,147511,147012,147116,Flankertask,79,39016,84,yes,1024
94.11764706,94.11764706,464.1294118,464.1294118,black,legacy,legacy,legacy,0,congruent,uniform,1,undefined,1,s,84,0,0,0,84,0,84,0,84,NA,0,0,0,84,84,84,84,9/16/19 10:01,600,The main experiment item,yes,C:/Users/Breena Riley/Desktop/2019 Fall/MultQuant/New folder/Flankertask.osexp,no,mono,no,18,no,white,no,yes,768,legacy,4,79,C:/Users/Breena Riley/Desktop/2019 Fall/MultQuant/BR-subject-1.csv,legacy,Kafkaesque Koffka,3.2.8,0,s,NA,NA,space,space,NA,s,435,NA,NA,5750,696,NA,435,2,legacy,1024,2,48000,-16,experiment,SSSSS,0,even,147519,8018,141949,NA,116930,2259,NA,NA,148576,NA,2267,141252,NA,148677,149113,148574,148677,Flankertask,80,39451,85,yes,1024
94.18604651,94.18604651,462.9883721,462.9883721,black,legacy,legacy,legacy,0,incongruent,uniform,1,undefined,1,s,85,0,0,0,85,0,85,0,85,NA,0,0,0,85,85,85,85,9/16/19 10:01,600,The main experiment item,yes,C:/Users/Breena Riley/Desktop/2019 Fall/MultQuant/New folder/Flankertask.osexp,no,mono,no,18,no,white,no,yes,768,legacy,5,79,C:/Users/Breena Riley/Desktop/2019 Fall/MultQuant/BR-subject-1.csv,legacy,Kafkaesque Koffka,3.2.8,0,s,NA,NA,space,space,NA,s,366,NA,NA,5750,696,NA,366,2,legacy,1024,2,48000,-16,experiment,HHSHH,0,even,149117,8018,141949,NA,116930,2259,NA,NA,150184,NA,2267,141252,NA,150285,150652,150181,150285,Flankertask,81,39817,86,yes,1024
94.25287356,94.25287356,462.2988506,462.2988506,black,legacy,legacy,legacy,0,congruent,uniform,1,undefined,1,s,86,0,0,0,86,0,86,0,86,NA,0,0,0,86,86,86,86,9/16/19 10:01,600,The main experiment item,yes,C:/Users/Breena Riley/Desktop/2019 Fall/MultQuant/New folder/Flankertask.osexp,no,mono,no,18,no,white,no,yes,768,legacy,6,79,C:/Users/Breena Riley/Desktop/2019 Fall/MultQuant/BR-subject-1.csv,legacy,Kafkaesque Koffka,3.2.8,0,s,NA,NA,space,space,NA,s,403,NA,NA,5750,696,NA,403,2,legacy,1024,2,48000,-16,experiment,SSSSS,0,even,150659,8018,141949,NA,116930,2259,NA,NA,151718,NA,2267,141252,NA,151819,152223,151716,151819,Flankertask,82,40220,87,yes,1024
94.31818182,94.31818182,461.1818182,461.1818182,black,legacy,legacy,legacy,0,congruent,uniform,1,undefined,1,h,87,0,0,0,87,0,87,0,87,NA,0,0,0,87,87,87,87,9/16/19 10:01,600,The main experiment item,yes,C:/Users/Breena Riley/Desktop/2019 Fall/MultQuant/New folder/Flankertask.osexp,no,mono,no,18,no,white,no,yes,768,legacy,7,79,C:/Users/Breena Riley/Desktop/2019 Fall/MultQuant/BR-subject-1.csv,legacy,Kafkaesque Koffka,3.2.8,0,h,NA,NA,space,space,NA,h,364,NA,NA,5750,696,NA,364,2,legacy,1024,2,48000,-16,experiment,HHHHH,0,even,152231,8018,141949,NA,116930,2259,NA,NA,153289,NA,2267,141252,NA,153390,153755,153286,153390,Flankertask,83,40584,88,yes,1024
94.38202247,94.38202247,460.8876404,460.8876404,black,legacy,legacy,legacy,0,congruent,uniform,1,undefined,1,s,88,0,0,0,88,0,88,0,88,NA,0,0,0,88,88,88,88,9/16/19 10:01,600,The main experiment item,yes,C:/Users/Breena Riley/Desktop/2019 Fall/MultQuant/New folder/Flankertask.osexp,no,mono,no,18,no,white,no,yes,768,legacy,8,79,C:/Users/Breena Riley/Desktop/2019 Fall/MultQuant/BR-subject-1.csv,legacy,Kafkaesque Koffka,3.2.8,0,s,NA,NA,space,space,NA,s,435,NA,NA,5750,696,NA,435,2,legacy,1024,2,48000,-16,experiment,SSSSS,0,even,153762,8018,141949,NA,116930,2259,NA,NA,154820,NA,2267,141252,NA,154921,155357,154817,154921,Flankertask,84,41019,89,yes,1024
94.44444444,94.44444444,459.2666667,459.2666667,black,legacy,legacy,legacy,0,congruent,uniform,1,undefined,1,h,89,0,0,0,89,0,89,0,89,NA,0,0,0,89,89,89,89,9/16/19 10:01,600,The main experiment item,yes,C:/Users/Breena Riley/Desktop/2019 Fall/MultQuant/New folder/Flankertask.osexp,no,mono,no,18,no,white,no,yes,768,legacy,9,79,C:/Users/Breena Riley/Desktop/2019 Fall/MultQuant/BR-subject-1.csv,legacy,Kafkaesque Koffka,3.2.8,0,h,NA,NA,space,space,NA,h,315,NA,NA,5750,696,NA,315,2,legacy,1024,2,48000,-16,experiment,HHHHH,0,even,155366,8018,141949,NA,116930,2259,NA,NA,156432,NA,2267,141252,NA,156533,156849,156430,156533,Flankertask,85,41334,90,yes,1024
94.50549451,94.50549451,458.9230769,458.9230769,black,legacy,legacy,legacy,0,congruent,uniform,1,undefined,1,s,90,0,0,0,90,0,90,0,90,NA,0,0,0,90,90,90,90,9/16/19 10:01,600,The main experiment item,yes,C:/Users/Breena Riley/Desktop/2019 Fall/MultQuant/New folder/Flankertask.osexp,no,mono,no,18,no,white,no,yes,768,legacy,10,79,C:/Users/Breena Riley/Desktop/2019 Fall/MultQuant/BR-subject-1.csv,legacy,Kafkaesque Koffka,3.2.8,0,s,NA,NA,space,space,NA,s,428,NA,NA,5750,696,NA,428,2,legacy,1024,2,48000,-16,experiment,SSSSS,0,even,156856,8018,141949,NA,116930,2259,NA,NA,157913,NA,2267,141252,NA,158014,158443,157911,158014,Flankertask,86,41762,91,yes,1024
94.56521739,94.56521739,458.8913043,458.8913043,black,legacy,legacy,legacy,0,congruent,uniform,1,undefined,1,s,91,0,0,0,91,0,91,0,91,NA,0,0,0,91,91,91,91,9/16/19 10:01,600,The main experiment item,yes,C:/Users/Breena Riley/Desktop/2019 Fall/MultQuant/New folder/Flankertask.osexp,no,mono,no,18,no,white,no,yes,768,legacy,11,79,C:/Users/Breena Riley/Desktop/2019 Fall/MultQuant/BR-subject-1.csv,legacy,Kafkaesque Koffka,3.2.8,0,s,NA,NA,space,space,NA,s,456,NA,NA,5750,696,NA,456,2,legacy,1024,2,48000,-16,experiment,SSSSS,0,even,158450,8018,141949,NA,116930,2259,NA,NA,159509,NA,2267,141252,NA,159611,160068,159507,159611,Flankertask,87,42218,92,yes,1024
94.62365591,94.62365591,458.3225806,458.3225806,black,legacy,legacy,legacy,0,incongruent,uniform,1,undefined,1,s,92,0,0,0,92,0,92,0,92,NA,0,0,0,92,92,92,92,9/16/19 10:01,600,The main experiment item,yes,C:/Users/Breena Riley/Desktop/2019 Fall/MultQuant/New folder/Flankertask.osexp,no,mono,no,18,no,white,no,yes,768,legacy,12,79,C:/Users/Breena Riley/Desktop/2019 Fall/MultQuant/BR-subject-1.csv,legacy,Kafkaesque Koffka,3.2.8,0,s,NA,NA,space,space,NA,s,406,NA,NA,5750,696,NA,406,2,legacy,1024,2,48000,-16,experiment,HHSHH,0,even,160076,8018,141949,NA,116930,2259,NA,NA,161137,NA,2267,141252,NA,161239,161646,161134,161238,Flankertask,88,42624,93,yes,1024
94.68085106,94.68085106,457.7234043,457.7234043,black,legacy,legacy,legacy,0,incongruent,uniform,1,undefined,1,s,93,0,0,0,93,0,93,0,93,NA,0,0,0,93,93,93,93,9/16/19 10:01,600,The main experiment item,yes,C:/Users/Breena Riley/Desktop/2019 Fall/MultQuant/New folder/Flankertask.osexp,no,mono,no,18,no,white,no,yes,768,legacy,13,79,C:/Users/Breena Riley/Desktop/2019 Fall/MultQuant/BR-subject-1.csv,legacy,Kafkaesque Koffka,3.2.8,0,s,NA,NA,space,space,NA,s,402,NA,NA,5750,696,NA,402,2,legacy,1024,2,48000,-16,experiment,HHSHH,0,even,161653,8018,141949,NA,116930,2259,NA,NA,162712,NA,2267,141252,NA,162813,163217,162710,162813,Flankertask,89,43026,94,yes,1024
93.68421053,93.68421053,457.5368421,457.5368421,black,legacy,legacy,legacy,0,incongruent,uniform,0,undefined,0,h,94,0,0,0,94,0,94,0,94,NA,0,0,0,94,94,94,94,9/16/19 10:01,600,The main experiment item,yes,C:/Users/Breena Riley/Desktop/2019 Fall/MultQuant/New folder/Flankertask.osexp,no,mono,no,18,no,white,no,yes,768,legacy,14,79,C:/Users/Breena Riley/Desktop/2019 Fall/MultQuant/BR-subject-1.csv,legacy,Kafkaesque Koffka,3.2.8,0,s,NA,NA,space,space,NA,s,440,NA,NA,5750,696,NA,440,2,legacy,1024,2,48000,-16,experiment,SSHSS,0,even,163224,8018,141949,NA,116930,2259,NA,NA,164282,NA,2267,141252,NA,164383,164824,164280,164383,Flankertask,89,43466,95,yes,1024
93.75,93.75,458.1354167,458.1354167,black,legacy,legacy,legacy,0,incongruent,uniform,1,undefined,1,s,95,0,0,0,95,0,95,0,95,NA,0,0,0,95,95,95,95,9/16/19 10:01,600,The main experiment item,yes,C:/Users/Breena Riley/Desktop/2019 Fall/MultQuant/New folder/Flankertask.osexp,no,mono,no,18,no,white,no,yes,768,legacy,15,79,C:/Users/Breena Riley/Desktop/2019 Fall/MultQuant/BR-subject-1.csv,legacy,Kafkaesque Koffka,3.2.8,0,s,NA,NA,space,space,NA,s,515,NA,NA,5750,696,NA,515,2,legacy,1024,2,48000,-16,experiment,HHSHH,0,even,165332,8018,141949,NA,164831,2259,NA,NA,166400,NA,2267,141252,NA,166501,167017,166398,166501,Flankertask,90,43981,96,yes,1024
93.81443299,93.81443299,463.7731959,463.7731959,black,legacy,legacy,legacy,0,incongruent,uniform,1,undefined,1,h,96,0,0,0,96,0,96,0,96,NA,0,0,0,96,96,96,96,9/16/19 10:01,600,The main experiment item,yes,C:/Users/Breena Riley/Desktop/2019 Fall/MultQuant/New folder/Flankertask.osexp,no,mono,no,18,no,white,no,yes,768,legacy,16,79,C:/Users/Breena Riley/Desktop/2019 Fall/MultQuant/BR-subject-1.csv,legacy,Kafkaesque Koffka,3.2.8,0,h,NA,NA,space,space,NA,h,1005,NA,NA,5750,696,NA,1005,2,legacy,1024,2,48000,-16,experiment,SSHSS,0,even,167024,8018,141949,NA,164831,2259,NA,NA,168083,NA,2267,141252,NA,168184,169190,168080,168184,Flankertask,91,44986,97,yes,1024
93.87755102,93.87755102,463.9183673,463.9183673,black,legacy,legacy,legacy,0,incongruent,uniform,1,undefined,1,s,97,0,0,0,97,0,97,0,97,NA,0,0,0,97,97,97,97,9/16/19 10:01,600,The main experiment item,yes,C:/Users/Breena Riley/Desktop/2019 Fall/MultQuant/New folder/Flankertask.osexp,no,mono,no,18,no,white,no,yes,768,legacy,17,79,C:/Users/Breena Riley/Desktop/2019 Fall/MultQuant/BR-subject-1.csv,legacy,Kafkaesque Koffka,3.2.8,0,s,NA,NA,space,space,NA,s,478,NA,NA,5750,696,NA,478,2,legacy,1024,2,48000,-16,experiment,HHSHH,0,even,169699,8018,141949,NA,164831,2259,169198,NA,170759,NA,2267,141252,NA,170860,171339,170756,170860,Flankertask,92,45464,98,yes,1024
93.93939394,93.93939394,463.8484848,463.8484848,black,legacy,legacy,legacy,0,congruent,uniform,1,undefined,1,s,98,0,0,0,98,0,98,0,98,NA,0,0,0,98,98,98,98,9/16/19 10:01,600,The main experiment item,yes,C:/Users/Breena Riley/Desktop/2019 Fall/MultQuant/New folder/Flankertask.osexp,no,mono,no,18,no,white,no,yes,768,legacy,18,79,C:/Users/Breena Riley/Desktop/2019 Fall/MultQuant/BR-subject-1.csv,legacy,Kafkaesque Koffka,3.2.8,0,s,NA,NA,space,space,NA,s,457,NA,NA,5750,696,NA,457,2,legacy,1024,2,48000,-16,experiment,SSSSS,0,even,171348,8018,141949,NA,164831,2259,169198,NA,172423,NA,2267,141252,NA,172524,172982,172420,172524,Flankertask,93,45921,99,yes,1024
93,93,463.52,463.52,black,legacy,legacy,legacy,0,incongruent,uniform,0,undefined,0,h,99,0,0,0,99,0,99,0,99,NA,0,0,0,99,99,99,99,9/16/19 10:01,600,The main experiment item,yes,C:/Users/Breena Riley/Desktop/2019 Fall/MultQuant/New folder/Flankertask.osexp,no,mono,no,18,no,white,no,yes,768,legacy,19,79,C:/Users/Breena Riley/Desktop/2019 Fall/MultQuant/BR-subject-1.csv,legacy,Kafkaesque Koffka,3.2.8,0,s,NA,NA,space,space,NA,s,431,NA,NA,5750,696,NA,431,2,legacy,1024,2,48000,-16,experiment,SSHSS,0,even,172990,8018,141949,NA,164831,2259,169198,NA,174048,NA,2267,141252,NA,174149,174581,174045,174149,Flankertask,93,46352,100,yes,1024
93.06930693,93.06930693,463.7821782,463.7821782,black,legacy,legacy,legacy,0,congruent,uniform,1,undefined,1,h,100,0,0,0,100,0,100,0,100,NA,0,0,0,100,100,100,100,9/16/19 10:01,600,The main experiment item,yes,C:/Users/Breena Riley/Desktop/2019 Fall/MultQuant/New folder/Flankertask.osexp,no,mono,no,18,no,white,no,yes,768,legacy,20,79,C:/Users/Breena Riley/Desktop/2019 Fall/MultQuant/BR-subject-1.csv,legacy,Kafkaesque Koffka,3.2.8,0,h,NA,NA,space,space,NA,h,490,NA,NA,5750,696,NA,490,2,legacy,1024,2,48000,-16,experiment,HHHHH,0,even,175090,8018,141949,NA,174589,2259,169198,NA,176150,NA,2267,141252,NA,176252,176744,176148,176252,Flankertask,94,46842,101,yes,1024
93.1372549,93.1372549,463.3431373,463.3431373,black,legacy,legacy,legacy,0,congruent,uniform,1,undefined,1,h,101,0,0,0,101,0,101,0,101,NA,0,0,0,101,101,101,101,9/16/19 10:01,600,The main experiment item,yes,C:/Users/Breena Riley/Desktop/2019 Fall/MultQuant/New folder/Flankertask.osexp,no,mono,no,18,no,white,no,yes,768,legacy,21,79,C:/Users/Breena Riley/Desktop/2019 Fall/MultQuant/BR-subject-1.csv,legacy,Kafkaesque Koffka,3.2.8,0,h,NA,NA,space,space,NA,h,419,NA,NA,5750,696,NA,419,2,legacy,1024,2,48000,-16,experiment,HHHHH,0,even,176752,8018,141949,NA,174589,2259,169198,NA,177810,NA,2267,141252,NA,177912,178332,177808,177912,Flankertask,95,47261,102,yes,1024
93.2038835,93.2038835,464.5825243,464.5825243,black,legacy,legacy,legacy,0,incongruent,uniform,1,undefined,1,h,102,0,0,0,102,0,102,0,102,NA,0,0,0,102,102,102,102,9/16/19 10:01,600,The main experiment item,yes,C:/Users/Breena Riley/Desktop/2019 Fall/MultQuant/New folder/Flankertask.osexp,no,mono,no,18,no,white,no,yes,768,legacy,22,79,C:/Users/Breena Riley/Desktop/2019 Fall/MultQuant/BR-subject-1.csv,legacy,Kafkaesque Koffka,3.2.8,0,h,NA,NA,space,space,NA,h,591,NA,NA,5750,696,NA,591,2,legacy,1024,2,48000,-16,experiment,SSHSS,0,even,178337,8018,141949,NA,174589,2259,169198,NA,179395,NA,2267,141252,NA,179497,180089,179392,179496,Flankertask,96,47852,103,yes,1024
93.26923077,93.26923077,465.0480769,465.0480769,black,legacy,legacy,legacy,0,incongruent,uniform,1,undefined,1,h,103,0,0,0,103,0,103,0,103,NA,0,0,0,103,103,103,103,9/16/19 10:01,600,The main experiment item,yes,C:/Users/Breena Riley/Desktop/2019 Fall/MultQuant/New folder/Flankertask.osexp,no,mono,no,18,no,white,no,yes,768,legacy,23,79,C:/Users/Breena Riley/Desktop/2019 Fall/MultQuant/BR-subject-1.csv,legacy,Kafkaesque Koffka,3.2.8,0,h,NA,NA,space,space,NA,h,513,NA,NA,5750,696,NA,513,2,legacy,1024,2,48000,-16,experiment,SSHSS,0,even,180096,8018,141949,NA,174589,2259,169198,NA,181156,NA,2267,141252,NA,181258,181772,181154,181257,Flankertask,97,48365,104,yes,1024
93.33333333,93.33333333,464.7904762,464.7904762,black,legacy,legacy,legacy,0,incongruent,uniform,1,undefined,1,h,104,0,0,0,104,0,104,0,104,NA,0,0,0,104,104,104,104,9/16/19 10:01,600,The main experiment item,yes,C:/Users/Breena Riley/Desktop/2019 Fall/MultQuant/New folder/Flankertask.osexp,no,mono,no,18,no,white,no,yes,768,legacy,24,79,C:/Users/Breena Riley/Desktop/2019 Fall/MultQuant/BR-subject-1.csv,legacy,Kafkaesque Koffka,3.2.8,0,h,NA,NA,space,space,NA,h,438,NA,NA,5750,696,NA,438,2,legacy,1024,2,48000,-16,experiment,SSHSS,0,even,181779,8018,141949,NA,174589,2259,169198,NA,182837,NA,2267,141252,NA,182939,183378,182834,182938,Flankertask,98,48803,105,yes,1024
93.39622642,93.39622642,464.3867925,464.3867925,black,legacy,legacy,legacy,0,incongruent,uniform,1,undefined,1,h,105,0,0,0,105,0,105,0,105,NA,0,0,0,105,105,105,105,9/16/19 10:01,600,The main experiment item,yes,C:/Users/Breena Riley/Desktop/2019 Fall/MultQuant/New folder/Flankertask.osexp,no,mono,no,18,no,white,no,yes,768,legacy,25,79,C:/Users/Breena Riley/Desktop/2019 Fall/MultQuant/BR-subject-1.csv,legacy,Kafkaesque Koffka,3.2.8,0,h,NA,NA,space,space,NA,h,422,NA,NA,5750,696,NA,422,2,legacy,1024,2,48000,-16,experiment,SSHSS,0,even,183382,8018,141949,NA,174589,2259,169198,NA,184448,NA,2267,141252,NA,184549,184972,184445,184549,Flankertask,99,49225,106,yes,1024
93.45794393,93.45794393,463.6542056,463.6542056,black,legacy,legacy,legacy,0,incongruent,uniform,1,undefined,1,h,106,0,0,0,106,0,106,0,106,NA,0,0,0,106,106,106,106,9/16/19 10:01,600,The main experiment item,yes,C:/Users/Breena Riley/Desktop/2019 Fall/MultQuant/New folder/Flankertask.osexp,no,mono,no,18,no,white,no,yes,768,legacy,26,79,C:/Users/Breena Riley/Desktop/2019 Fall/MultQuant/BR-subject-1.csv,legacy,Kafkaesque Koffka,3.2.8,0,h,NA,NA,space,space,NA,h,386,NA,NA,5750,696,NA,386,2,legacy,1024,2,48000,-16,experiment,SSHSS,0,even,184979,8018,141949,NA,174589,2259,169198,NA,186036,NA,2267,141252,NA,186137,186524,186033,186137,Flankertask,100,49611,107,yes,1024
93.51851852,93.51851852,463.2685185,463.2685185,black,legacy,legacy,legacy,0,congruent,uniform,1,undefined,1,h,107,0,0,0,107,0,107,0,107,NA,0,0,0,107,107,107,107,9/16/19 10:01,600,The main experiment item,yes,C:/Users/Breena Riley/Desktop/2019 Fall/MultQuant/New folder/Flankertask.osexp,no,mono,no,18,no,white,no,yes,768,legacy,27,79,C:/Users/Breena Riley/Desktop/2019 Fall/MultQuant/BR-subject-1.csv,legacy,Kafkaesque Koffka,3.2.8,0,h,NA,NA,space,space,NA,h,422,NA,NA,5750,696,NA,422,2,legacy,1024,2,48000,-16,experiment,HHHHH,0,even,186532,8018,141949,NA,174589,2259,169198,NA,187590,NA,2267,141252,NA,187691,188114,187588,187691,Flankertask,101,50033,108,yes,1024
93.57798165,93.57798165,464.146789,464.146789,black,legacy,legacy,legacy,0,incongruent,uniform,1,undefined,1,s,108,0,0,0,108,0,108,0,108,NA,0,0,0,108,108,108,108,9/16/19 10:01,600,The main experiment item,yes,C:/Users/Breena Riley/Desktop/2019 Fall/MultQuant/New folder/Flankertask.osexp,no,mono,no,18,no,white,no,yes,768,legacy,28,79,C:/Users/Breena Riley/Desktop/2019 Fall/MultQuant/BR-subject-1.csv,legacy,Kafkaesque Koffka,3.2.8,0,s,NA,NA,space,space,NA,s,559,NA,NA,5750,696,NA,559,2,legacy,1024,2,48000,-16,experiment,HHSHH,0,even,188121,8018,141949,NA,174589,2259,169198,NA,189181,NA,2267,141252,NA,189282,189842,189179,189282,Flankertask,102,50592,109,yes,1024
93.63636364,93.63636364,465.4363636,465.4363636,black,legacy,legacy,legacy,0,incongruent,uniform,1,undefined,1,s,109,0,0,0,109,0,109,0,109,NA,0,0,0,109,109,109,109,9/16/19 10:01,600,The main experiment item,yes,C:/Users/Breena Riley/Desktop/2019 Fall/MultQuant/New folder/Flankertask.osexp,no,mono,no,18,no,white,no,yes,768,legacy,29,79,C:/Users/Breena Riley/Desktop/2019 Fall/MultQuant/BR-subject-1.csv,legacy,Kafkaesque Koffka,3.2.8,0,s,NA,NA,space,space,NA,s,606,NA,NA,5750,696,NA,606,2,legacy,1024,2,48000,-16,experiment,HHSHH,0,even,189849,8018,141949,NA,174589,2259,169198,NA,190907,NA,2267,141252,NA,191008,191615,190905,191008,Flankertask,103,51198,110,yes,1024
93.69369369,93.69369369,465.7567568,465.7567568,black,legacy,legacy,legacy,0,incongruent,uniform,1,undefined,1,h,110,0,0,0,110,0,110,0,110,NA,0,0,0,110,110,110,110,9/16/19 10:01,600,The main experiment item,yes,C:/Users/Breena Riley/Desktop/2019 Fall/MultQuant/New folder/Flankertask.osexp,no,mono,no,18,no,white,no,yes,768,legacy,30,79,C:/Users/Breena Riley/Desktop/2019 Fall/MultQuant/BR-subject-1.csv,legacy,Kafkaesque Koffka,3.2.8,0,h,NA,NA,space,space,NA,h,501,NA,NA,5750,696,NA,501,2,legacy,1024,2,48000,-16,experiment,SSHSS,0,even,192124,8018,141949,NA,174589,2259,191623,NA,193183,NA,2267,141252,NA,193284,193786,193180,193284,Flankertask,104,51699,111,yes,1024
93.75,93.75,465.7053571,465.7053571,black,legacy,legacy,legacy,0,congruent,uniform,1,undefined,1,s,111,0,0,0,111,0,111,0,111,NA,0,0,0,111,111,111,111,9/16/19 10:01,600,The main experiment item,yes,C:/Users/Breena Riley/Desktop/2019 Fall/MultQuant/New folder/Flankertask.osexp,no,mono,no,18,no,white,no,yes,768,legacy,31,79,C:/Users/Breena Riley/Desktop/2019 Fall/MultQuant/BR-subject-1.csv,legacy,Kafkaesque Koffka,3.2.8,0,s,NA,NA,space,space,NA,s,460,NA,NA,5750,696,NA,460,2,legacy,1024,2,48000,-16,experiment,SSSSS,0,even,193794,8018,141949,NA,174589,2259,191623,NA,194852,NA,2267,141252,NA,194953,195415,194849,194953,Flankertask,105,52159,112,yes,1024
93.80530973,93.80530973,465.5132743,465.5132743,black,legacy,legacy,legacy,0,incongruent,uniform,1,undefined,1,s,112,0,0,0,112,0,112,0,112,NA,0,0,0,112,112,112,112,9/16/19 10:01,600,The main experiment item,yes,C:/Users/Breena Riley/Desktop/2019 Fall/MultQuant/New folder/Flankertask.osexp,no,mono,no,18,no,white,no,yes,768,legacy,32,79,C:/Users/Breena Riley/Desktop/2019 Fall/MultQuant/BR-subject-1.csv,legacy,Kafkaesque Koffka,3.2.8,0,s,NA,NA,space,space,NA,s,444,NA,NA,5750,696,NA,444,2,legacy,1024,2,48000,-16,experiment,HHSHH,0,even,195422,8018,141949,NA,174589,2259,191623,NA,196483,NA,2267,141252,NA,196584,197029,196480,196584,Flankertask,106,52603,113,yes,1024
93.85964912,93.85964912,464.8859649,464.8859649,black,legacy,legacy,legacy,0,congruent,uniform,1,undefined,1,h,113,0,0,0,113,0,113,0,113,NA,0,0,0,113,113,113,113,9/16/19 10:01,600,The main experiment item,yes,C:/Users/Breena Riley/Desktop/2019 Fall/MultQuant/New folder/Flankertask.osexp,no,mono,no,18,no,white,no,yes,768,legacy,33,79,C:/Users/Breena Riley/Desktop/2019 Fall/MultQuant/BR-subject-1.csv,legacy,Kafkaesque Koffka,3.2.8,0,h,NA,NA,space,space,NA,h,394,NA,NA,5750,696,NA,394,2,legacy,1024,2,48000,-16,experiment,HHHHH,0,even,197033,8018,141949,NA,174589,2259,191623,NA,198091,NA,2267,141252,NA,198192,198587,198089,198192,Flankertask,107,52997,114,yes,1024
93.91304348,93.91304348,465.0608696,465.0608696,black,legacy,legacy,legacy,0,incongruent,uniform,1,undefined,1,s,114,0,0,0,114,0,114,0,114,NA,0,0,0,114,114,114,114,9/16/19 10:01,600,The main experiment item,yes,C:/Users/Breena Riley/Desktop/2019 Fall/MultQuant/New folder/Flankertask.osexp,no,mono,no,18,no,white,no,yes,768,legacy,34,79,C:/Users/Breena Riley/Desktop/2019 Fall/MultQuant/BR-subject-1.csv,legacy,Kafkaesque Koffka,3.2.8,0,s,NA,NA,space,space,NA,s,485,NA,NA,5750,696,NA,485,2,legacy,1024,2,48000,-16,experiment,HHSHH,0,even,198595,8018,141949,NA,174589,2259,191623,NA,199655,NA,2267,141252,NA,199756,200242,199653,199756,Flankertask,108,53482,115,yes,1024
93.96551724,93.96551724,465.2241379,465.2241379,black,legacy,legacy,legacy,0,congruent,uniform,1,undefined,1,s,115,0,0,0,115,0,115,0,115,NA,0,0,0,115,115,115,115,9/16/19 10:01,600,The main experiment item,yes,C:/Users/Breena Riley/Desktop/2019 Fall/MultQuant/New folder/Flankertask.osexp,no,mono,no,18,no,white,no,yes,768,legacy,35,79,C:/Users/Breena Riley/Desktop/2019 Fall/MultQuant/BR-subject-1.csv,legacy,Kafkaesque Koffka,3.2.8,0,s,NA,NA,space,space,NA,s,484,NA,NA,5750,696,NA,484,2,legacy,1024,2,48000,-16,experiment,SSSSS,0,even,200249,8018,141949,NA,174589,2259,191623,NA,201311,NA,2267,141252,NA,201413,201898,201308,201413,Flankertask,109,53966,116,yes,1024
94.01709402,94.01709402,466.4957265,466.4957265,black,legacy,legacy,legacy,0,incongruent,uniform,1,undefined,1,h,116,0,0,0,116,0,116,0,116,NA,0,0,0,116,116,116,116,9/16/19 10:01,600,The main experiment item,yes,C:/Users/Breena Riley/Desktop/2019 Fall/MultQuant/New folder/Flankertask.osexp,no,mono,no,18,no,white,no,yes,768,legacy,36,79,C:/Users/Breena Riley/Desktop/2019 Fall/MultQuant/BR-subject-1.csv,legacy,Kafkaesque Koffka,3.2.8,0,h,NA,NA,space,space,NA,h,614,NA,NA,5750,696,NA,614,2,legacy,1024,2,48000,-16,experiment,SSHSS,0,even,201906,8018,141949,NA,174589,2259,191623,NA,202965,NA,2267,141252,NA,203066,203681,202962,203066,Flankertask,110,54580,117,yes,1024
94.06779661,94.06779661,467.0169492,467.0169492,black,legacy,legacy,legacy,0,incongruent,uniform,1,undefined,1,s,117,0,0,0,117,0,117,0,117,NA,0,0,0,117,117,117,117,9/16/19 10:01,600,The main experiment item,yes,C:/Users/Breena Riley/Desktop/2019 Fall/MultQuant/New folder/Flankertask.osexp,no,mono,no,18,no,white,no,yes,768,legacy,37,79,C:/Users/Breena Riley/Desktop/2019 Fall/MultQuant/BR-subject-1.csv,legacy,Kafkaesque Koffka,3.2.8,0,s,NA,NA,space,space,NA,s,528,NA,NA,5750,696,NA,528,2,legacy,1024,2,48000,-16,experiment,HHSHH,0,even,204190,8018,141949,NA,174589,2259,203688,NA,205251,NA,2267,141252,NA,205352,205881,205249,205352,Flankertask,111,55108,118,yes,1024
94.11764706,94.11764706,467.3109244,467.3109244,black,legacy,legacy,legacy,0,incongruent,uniform,1,undefined,1,s,118,0,0,0,118,0,118,0,118,NA,0,0,0,118,118,118,118,9/16/19 10:01,600,The main experiment item,yes,C:/Users/Breena Riley/Desktop/2019 Fall/MultQuant/New folder/Flankertask.osexp,no,mono,no,18,no,white,no,yes,768,legacy,38,79,C:/Users/Breena Riley/Desktop/2019 Fall/MultQuant/BR-subject-1.csv,legacy,Kafkaesque Koffka,3.2.8,0,s,NA,NA,space,space,NA,s,502,NA,NA,5750,696,NA,502,2,legacy,1024,2,48000,-16,experiment,HHSHH,0,even,205889,8018,141949,NA,174589,2259,203688,NA,206948,NA,2267,141252,NA,207049,207552,206946,207049,Flankertask,112,55610,119,yes,1024
94.16666667,94.16666667,467.1416667,467.1416667,black,legacy,legacy,legacy,0,congruent,uniform,1,undefined,1,h,119,0,0,0,119,0,119,0,119,NA,0,0,0,119,119,119,119,9/16/19 10:01,600,The main experiment item,yes,C:/Users/Breena Riley/Desktop/2019 Fall/MultQuant/New folder/Flankertask.osexp,no,mono,no,18,no,white,no,yes,768,legacy,39,79,C:/Users/Breena Riley/Desktop/2019 Fall/MultQuant/BR-subject-1.csv,legacy,Kafkaesque Koffka,3.2.8,0,h,NA,NA,space,space,NA,h,447,NA,NA,5750,696,NA,447,2,legacy,1024,2,48000,-16,experiment,HHHHH,0,even,207560,8018,141949,NA,174589,2259,203688,NA,208621,NA,2267,141252,NA,208722,209170,208619,208722,Flankertask,113,56057,120,yes,1024
94.21487603,94.21487603,467.3223141,467.3223141,black,legacy,legacy,legacy,0,incongruent,uniform,1,undefined,1,s,120,0,0,0,120,0,120,0,120,NA,0,0,0,120,120,120,120,9/16/19 10:01,600,The main experiment item,yes,C:/Users/Breena Riley/Desktop/2019 Fall/MultQuant/New folder/Flankertask.osexp,no,mono,no,18,no,white,no,yes,768,legacy,40,79,C:/Users/Breena Riley/Desktop/2019 Fall/MultQuant/BR-subject-1.csv,legacy,Kafkaesque Koffka,3.2.8,0,s,NA,NA,space,space,NA,s,489,NA,NA,5750,696,NA,489,2,legacy,1024,2,48000,-16,experiment,HHSHH,0,even,209177,8018,141949,NA,174589,2259,203688,NA,210265,NA,2267,141252,NA,210368,210858,210263,210367,Flankertask,114,56546,121,yes,1024
94.26229508,94.26229508,467.6229508,467.6229508,black,legacy,legacy,legacy,0,incongruent,uniform,1,undefined,1,h,121,0,0,0,121,0,121,0,121,NA,0,0,0,121,121,121,121,9/16/19 10:01,600,The main experiment item,yes,C:/Users/Breena Riley/Desktop/2019 Fall/MultQuant/New folder/Flankertask.osexp,no,mono,no,18,no,white,no,yes,768,legacy,41,79,C:/Users/Breena Riley/Desktop/2019 Fall/MultQuant/BR-subject-1.csv,legacy,Kafkaesque Koffka,3.2.8,0,h,NA,NA,space,space,NA,h,504,NA,NA,5750,696,NA,504,2,legacy,1024,2,48000,-16,experiment,SSHSS,0,even,210866,8018,141949,NA,174589,2259,203688,NA,211923,NA,2267,141252,NA,212024,212529,211921,212024,Flankertask,115,57050,122,yes,1024
94.30894309,94.30894309,467.2439024,467.2439024,black,legacy,legacy,legacy,0,congruent,uniform,1,undefined,1,s,122,0,0,0,122,0,122,0,122,NA,0,0,0,122,122,122,122,9/16/19 10:01,600,The main experiment item,yes,C:/Users/Breena Riley/Desktop/2019 Fall/MultQuant/New folder/Flankertask.osexp,no,mono,no,18,no,white,no,yes,768,legacy,42,79,C:/Users/Breena Riley/Desktop/2019 Fall/MultQuant/BR-subject-1.csv,legacy,Kafkaesque Koffka,3.2.8,0,s,NA,NA,space,space,NA,s,421,NA,NA,5750,696,NA,421,2,legacy,1024,2,48000,-16,experiment,SSSSS,0,even,212536,8018,141949,NA,174589,2259,203688,NA,213608,NA,2267,141252,NA,213709,214131,213605,213709,Flankertask,116,57471,123,yes,1024
94.35483871,94.35483871,467.0645161,467.0645161,black,legacy,legacy,legacy,0,incongruent,uniform,1,undefined,1,h,123,0,0,0,123,0,123,0,123,NA,0,0,0,123,123,123,123,9/16/19 10:01,600,The main experiment item,yes,C:/Users/Breena Riley/Desktop/2019 Fall/MultQuant/New folder/Flankertask.osexp,no,mono,no,18,no,white,no,yes,768,legacy,43,79,C:/Users/Breena Riley/Desktop/2019 Fall/MultQuant/BR-subject-1.csv,legacy,Kafkaesque Koffka,3.2.8,0,h,NA,NA,space,space,NA,h,445,NA,NA,5750,696,NA,445,2,legacy,1024,2,48000,-16,experiment,SSHSS,0,even,214138,8018,141949,NA,174589,2259,203688,NA,215199,NA,2267,141252,NA,215300,215747,215196,215300,Flankertask,117,57916,124,yes,1024
94.4,94.4,466.424,466.424,black,legacy,legacy,legacy,0,congruent,uniform,1,undefined,1,s,124,0,0,0,124,0,124,0,124,NA,0,0,0,124,124,124,124,9/16/19 10:01,600,The main experiment item,yes,C:/Users/Breena Riley/Desktop/2019 Fall/MultQuant/New folder/Flankertask.osexp,no,mono,no,18,no,white,no,yes,768,legacy,44,79,C:/Users/Breena Riley/Desktop/2019 Fall/MultQuant/BR-subject-1.csv,legacy,Kafkaesque Koffka,3.2.8,0,s,NA,NA,space,space,NA,s,387,NA,NA,5750,696,NA,387,2,legacy,1024,2,48000,-16,experiment,SSSSS,0,even,215755,8018,141949,NA,174589,2259,203688,NA,216816,NA,2267,141252,NA,216917,217305,216814,216917,Flankertask,118,58303,125,yes,1024
94.44444444,94.44444444,466.6904762,466.6904762,black,legacy,legacy,legacy,0,congruent,uniform,1,undefined,1,s,125,0,0,0,125,0,125,0,125,NA,0,0,0,125,125,125,125,9/16/19 10:01,600,The main experiment item,yes,C:/Users/Breena Riley/Desktop/2019 Fall/MultQuant/New folder/Flankertask.osexp,no,mono,no,18,no,white,no,yes,768,legacy,45,79,C:/Users/Breena Riley/Desktop/2019 Fall/MultQuant/BR-subject-1.csv,legacy,Kafkaesque Koffka,3.2.8,0,s,NA,NA,space,space,NA,s,500,NA,NA,5750,696,NA,500,2,legacy,1024,2,48000,-16,experiment,SSSSS,0,even,217314,8018,141949,NA,174589,2259,203688,NA,218375,NA,2267,141252,NA,218478,218979,218373,218477,Flankertask,119,58803,126,yes,1024
94.48818898,94.48818898,466.3700787,466.3700787,black,legacy,legacy,legacy,0,congruent,uniform,1,undefined,1,s,126,0,0,0,126,0,126,0,126,NA,0,0,0,126,126,126,126,9/16/19 10:01,600,The main experiment item,yes,C:/Users/Breena Riley/Desktop/2019 Fall/MultQuant/New folder/Flankertask.osexp,no,mono,no,18,no,white,no,yes,768,legacy,46,79,C:/Users/Breena Riley/Desktop/2019 Fall/MultQuant/BR-subject-1.csv,legacy,Kafkaesque Koffka,3.2.8,0,s,NA,NA,space,space,NA,s,426,NA,NA,5750,696,NA,426,2,legacy,1024,2,48000,-16,experiment,SSSSS,0,even,218987,8018,141949,NA,174589,2259,203688,NA,220045,NA,2267,141252,NA,220146,220573,220043,220146,Flankertask,120,59229,127,yes,1024
94.53125,94.53125,466.625,466.625,black,legacy,legacy,legacy,0,incongruent,uniform,1,undefined,1,s,127,0,0,0,127,0,127,0,127,NA,0,0,0,127,127,127,127,9/16/19 10:01,600,The main experiment item,yes,C:/Users/Breena Riley/Desktop/2019 Fall/MultQuant/New folder/Flankertask.osexp,no,mono,no,18,no,white,no,yes,768,legacy,47,79,C:/Users/Breena Riley/Desktop/2019 Fall/MultQuant/BR-subject-1.csv,legacy,Kafkaesque Koffka,3.2.8,0,s,NA,NA,space,space,NA,s,499,NA,NA,5750,696,NA,499,2,legacy,1024,2,48000,-16,experiment,HHSHH,0,even,220581,8018,141949,NA,174589,2259,203688,NA,221643,NA,2267,141252,NA,221745,222245,221640,221744,Flankertask,121,59728,128,yes,1024
94.57364341,94.57364341,466.0620155,466.0620155,black,legacy,legacy,legacy,0,incongruent,uniform,1,undefined,1,h,128,0,0,0,128,0,128,0,128,NA,0,0,0,128,128,128,128,9/16/19 10:01,600,The main experiment item,yes,C:/Users/Breena Riley/Desktop/2019 Fall/MultQuant/New folder/Flankertask.osexp,no,mono,no,18,no,white,no,yes,768,legacy,48,79,C:/Users/Breena Riley/Desktop/2019 Fall/MultQuant/BR-subject-1.csv,legacy,Kafkaesque Koffka,3.2.8,0,h,NA,NA,space,space,NA,h,394,NA,NA,5750,696,NA,394,2,legacy,1024,2,48000,-16,experiment,SSHSS,0,even,222252,8018,141949,NA,174589,2259,203688,NA,223313,NA,2267,141252,NA,223415,223810,223311,223414,Flankertask,122,60122,129,yes,1024
94.61538462,94.61538462,465.8769231,465.8769231,black,legacy,legacy,legacy,0,congruent,uniform,1,undefined,1,s,129,0,0,0,129,0,129,0,129,NA,0,0,0,129,129,129,129,9/16/19 10:01,600,The main experiment item,yes,C:/Users/Breena Riley/Desktop/2019 Fall/MultQuant/New folder/Flankertask.osexp,no,mono,no,18,no,white,no,yes,768,legacy,49,79,C:/Users/Breena Riley/Desktop/2019 Fall/MultQuant/BR-subject-1.csv,legacy,Kafkaesque Koffka,3.2.8,0,s,NA,NA,space,space,NA,s,442,NA,NA,5750,696,NA,442,2,legacy,1024,2,48000,-16,experiment,SSSSS,0,even,223818,8018,141949,NA,174589,2259,203688,NA,224886,NA,2267,141252,NA,224988,225431,224883,224987,Flankertask,123,60564,130,yes,1024
94.65648855,94.65648855,465.6564886,465.6564886,black,legacy,legacy,legacy,0,congruent,uniform,1,undefined,1,h,130,0,0,0,130,0,130,0,130,NA,0,0,0,130,130,130,130,9/16/19 10:01,600,The main experiment item,yes,C:/Users/Breena Riley/Desktop/2019 Fall/MultQuant/New folder/Flankertask.osexp,no,mono,no,18,no,white,no,yes,768,legacy,50,79,C:/Users/Breena Riley/Desktop/2019 Fall/MultQuant/BR-subject-1.csv,legacy,Kafkaesque Koffka,3.2.8,0,h,NA,NA,space,space,NA,h,437,NA,NA,5750,696,NA,437,2,legacy,1024,2,48000,-16,experiment,HHHHH,0,even,225435,8018,141949,NA,174589,2259,203688,NA,226492,NA,2267,141252,NA,226593,227032,226489,226593,Flankertask,124,61001,131,yes,1024
94.6969697,94.6969697,465.5227273,465.5227273,black,legacy,legacy,legacy,0,congruent,uniform,1,undefined,1,h,131,0,0,0,131,0,131,0,131,NA,0,0,0,131,131,131,131,9/16/19 10:01,600,The main experiment item,yes,C:/Users/Breena Riley/Desktop/2019 Fall/MultQuant/New folder/Flankertask.osexp,no,mono,no,18,no,white,no,yes,768,legacy,51,79,C:/Users/Breena Riley/Desktop/2019 Fall/MultQuant/BR-subject-1.csv,legacy,Kafkaesque Koffka,3.2.8,0,h,NA,NA,space,space,NA,h,448,NA,NA,5750,696,NA,448,2,legacy,1024,2,48000,-16,experiment,HHHHH,0,even,227039,8018,141949,NA,174589,2259,203688,NA,228097,NA,2267,141252,NA,228198,228647,228094,228198,Flankertask,125,61449,132,yes,1024
94.73684211,94.73684211,465.593985,465.593985,black,legacy,legacy,legacy,0,incongruent,uniform,1,undefined,1,s,132,0,0,0,132,0,132,0,132,NA,0,0,0,132,132,132,132,9/16/19 10:01,600,The main experiment item,yes,C:/Users/Breena Riley/Desktop/2019 Fall/MultQuant/New folder/Flankertask.osexp,no,mono,no,18,no,white,no,yes,768,legacy,52,79,C:/Users/Breena Riley/Desktop/2019 Fall/MultQuant/BR-subject-1.csv,legacy,Kafkaesque Koffka,3.2.8,0,s,NA,NA,space,space,NA,s,475,NA,NA,5750,696,NA,475,2,legacy,1024,2,48000,-16,experiment,HHSHH,0,even,228655,8018,141949,NA,174589,2259,203688,NA,229713,NA,2267,141252,NA,229814,230290,229710,229814,Flankertask,126,61924,133,yes,1024
94.7761194,94.7761194,465.0597015,465.0597015,black,legacy,legacy,legacy,0,incongruent,uniform,1,undefined,1,h,133,0,0,0,133,0,133,0,133,NA,0,0,0,133,133,133,133,9/16/19 10:01,600,The main experiment item,yes,C:/Users/Breena Riley/Desktop/2019 Fall/MultQuant/New folder/Flankertask.osexp,no,mono,no,18,no,white,no,yes,768,legacy,53,79,C:/Users/Breena Riley/Desktop/2019 Fall/MultQuant/BR-subject-1.csv,legacy,Kafkaesque Koffka,3.2.8,0,h,NA,NA,space,space,NA,h,394,NA,NA,5750,696,NA,394,2,legacy,1024,2,48000,-16,experiment,SSHSS,0,even,230297,8018,141949,NA,174589,2259,203688,NA,231360,NA,2267,141252,NA,231461,231856,231357,231461,Flankertask,127,62318,134,yes,1024
94.81481481,94.81481481,464.5407407,464.5407407,black,legacy,legacy,legacy,0,incongruent,uniform,1,undefined,1,s,134,0,0,0,134,0,134,0,134,NA,0,0,0,134,134,134,134,9/16/19 10:01,600,The main experiment item,yes,C:/Users/Breena Riley/Desktop/2019 Fall/MultQuant/New folder/Flankertask.osexp,no,mono,no,18,no,white,no,yes,768,legacy,54,79,C:/Users/Breena Riley/Desktop/2019 Fall/MultQuant/BR-subject-1.csv,legacy,Kafkaesque Koffka,3.2.8,0,s,NA,NA,space,space,NA,s,395,NA,NA,5750,696,NA,395,2,legacy,1024,2,48000,-16,experiment,HHSHH,0,even,231863,8018,141949,NA,174589,2259,203688,NA,232921,NA,2267,141252,NA,233023,233420,232918,233023,Flankertask,128,62713,135,yes,1024
94.85294118,94.85294118,464.1470588,464.1470588,black,legacy,legacy,legacy,0,incongruent,uniform,1,undefined,1,h,135,0,0,0,135,0,135,0,135,NA,0,0,0,135,135,135,135,9/16/19 10:01,600,The main experiment item,yes,C:/Users/Breena Riley/Desktop/2019 Fall/MultQuant/New folder/Flankertask.osexp,no,mono,no,18,no,white,no,yes,768,legacy,55,79,C:/Users/Breena Riley/Desktop/2019 Fall/MultQuant/BR-subject-1.csv,legacy,Kafkaesque Koffka,3.2.8,0,h,NA,NA,space,space,NA,h,411,NA,NA,5750,696,NA,411,2,legacy,1024,2,48000,-16,experiment,SSHSS,0,even,233423,8018,141949,NA,174589,2259,203688,NA,234484,NA,2267,141252,NA,234585,234998,234482,234585,Flankertask,129,63124,136,yes,1024
94.89051095,94.89051095,463.5182482,463.5182482,black,legacy,legacy,legacy,0,incongruent,uniform,1,undefined,1,h,136,0,0,0,136,0,136,0,136,NA,0,0,0,136,136,136,136,9/16/19 10:01,600,The main experiment item,yes,C:/Users/Breena Riley/Desktop/2019 Fall/MultQuant/New folder/Flankertask.osexp,no,mono,no,18,no,white,no,yes,768,legacy,56,79,C:/Users/Breena Riley/Desktop/2019 Fall/MultQuant/BR-subject-1.csv,legacy,Kafkaesque Koffka,3.2.8,0,h,NA,NA,space,space,NA,h,378,NA,NA,5750,696,NA,378,2,legacy,1024,2,48000,-16,experiment,SSHSS,0,even,235002,8018,141949,NA,174589,2259,203688,NA,236060,NA,2267,141252,NA,236161,236540,236057,236161,Flankertask,130,63502,137,yes,1024
94.92753623,94.92753623,463.2173913,463.2173913,black,legacy,legacy,legacy,0,congruent,uniform,1,undefined,1,h,137,0,0,0,137,0,137,0,137,NA,0,0,0,137,137,137,137,9/16/19 10:01,600,The main experiment item,yes,C:/Users/Breena Riley/Desktop/2019 Fall/MultQuant/New folder/Flankertask.osexp,no,mono,no,18,no,white,no,yes,768,legacy,57,79,C:/Users/Breena Riley/Desktop/2019 Fall/MultQuant/BR-subject-1.csv,legacy,Kafkaesque Koffka,3.2.8,0,h,NA,NA,space,space,NA,h,422,NA,NA,5750,696,NA,422,2,legacy,1024,2,48000,-16,experiment,HHHHH,0,even,236547,8018,141949,NA,174589,2259,203688,NA,237606,NA,2267,141252,NA,237707,238130,237604,237707,Flankertask,131,63924,138,yes,1024
94.96402878,94.96402878,463.5107914,463.5107914,black,legacy,legacy,legacy,0,incongruent,uniform,1,undefined,1,h,138,0,0,0,138,0,138,0,138,NA,0,0,0,138,138,138,138,9/16/19 10:01,600,The main experiment item,yes,C:/Users/Breena Riley/Desktop/2019 Fall/MultQuant/New folder/Flankertask.osexp,no,mono,no,18,no,white,no,yes,768,legacy,58,79,C:/Users/Breena Riley/Desktop/2019 Fall/MultQuant/BR-subject-1.csv,legacy,Kafkaesque Koffka,3.2.8,0,h,NA,NA,space,space,NA,h,504,NA,NA,5750,696,NA,504,2,legacy,1024,2,48000,-16,experiment,SSHSS,0,even,238138,8018,141949,NA,174589,2259,203688,NA,239204,NA,2267,141252,NA,239305,239810,239202,239305,Flankertask,132,64428,139,yes,1024
95,95,463.1714286,463.1714286,black,legacy,legacy,legacy,0,congruent,uniform,1,undefined,1,h,139,0,0,0,139,0,139,0,139,NA,0,0,0,139,139,139,139,9/16/19 10:01,600,The main experiment item,yes,C:/Users/Breena Riley/Desktop/2019 Fall/MultQuant/New folder/Flankertask.osexp,no,mono,no,18,no,white,no,yes,768,legacy,59,79,C:/Users/Breena Riley/Desktop/2019 Fall/MultQuant/BR-subject-1.csv,legacy,Kafkaesque Koffka,3.2.8,0,h,NA,NA,space,space,NA,h,416,NA,NA,5750,696,NA,416,2,legacy,1024,2,48000,-16,experiment,HHHHH,0,even,239817,8018,141949,NA,174589,2259,203688,NA,240875,NA,2267,141252,NA,240976,241393,240873,240976,Flankertask,133,64844,140,yes,1024
95.03546099,95.03546099,463.3900709,463.3900709,black,legacy,legacy,legacy,0,incongruent,uniform,1,undefined,1,s,140,0,0,0,140,0,140,0,140,NA,0,0,0,140,140,140,140,9/16/19 10:01,600,The main experiment item,yes,C:/Users/Breena Riley/Desktop/2019 Fall/MultQuant/New folder/Flankertask.osexp,no,mono,no,18,no,white,no,yes,768,legacy,60,79,C:/Users/Breena Riley/Desktop/2019 Fall/MultQuant/BR-subject-1.csv,legacy,Kafkaesque Koffka,3.2.8,0,s,NA,NA,space,space,NA,s,494,NA,NA,5750,696,NA,494,2,legacy,1024,2,48000,-16,experiment,HHSHH,0,even,241401,8018,141949,NA,174589,2259,203688,NA,242461,NA,2267,141252,NA,242562,243057,242459,242562,Flankertask,134,65338,141,yes,1024
95.07042254,95.07042254,463.5633803,463.5633803,black,legacy,legacy,legacy,0,congruent,uniform,1,undefined,1,s,141,0,0,0,141,0,141,0,141,NA,0,0,0,141,141,141,141,9/16/19 10:01,600,The main experiment item,yes,C:/Users/Breena Riley/Desktop/2019 Fall/MultQuant/New folder/Flankertask.osexp,no,mono,no,18,no,white,no,yes,768,legacy,61,79,C:/Users/Breena Riley/Desktop/2019 Fall/MultQuant/BR-subject-1.csv,legacy,Kafkaesque Koffka,3.2.8,0,s,NA,NA,space,space,NA,s,488,NA,NA,5750,696,NA,488,2,legacy,1024,2,48000,-16,experiment,SSSSS,0,even,243065,8018,141949,NA,174589,2259,203688,NA,244122,NA,2267,141252,NA,244223,244712,244120,244223,Flankertask,135,65826,142,yes,1024
95.1048951,95.1048951,463.1748252,463.1748252,black,legacy,legacy,legacy,0,congruent,uniform,1,undefined,1,h,142,0,0,0,142,0,142,0,142,NA,0,0,0,142,142,142,142,9/16/19 10:01,600,The main experiment item,yes,C:/Users/Breena Riley/Desktop/2019 Fall/MultQuant/New folder/Flankertask.osexp,no,mono,no,18,no,white,no,yes,768,legacy,62,79,C:/Users/Breena Riley/Desktop/2019 Fall/MultQuant/BR-subject-1.csv,legacy,Kafkaesque Koffka,3.2.8,0,h,NA,NA,space,space,NA,h,408,NA,NA,5750,696,NA,408,2,legacy,1024,2,48000,-16,experiment,HHHHH,0,even,244719,8018,141949,NA,174589,2259,203688,NA,245779,NA,2267,141252,NA,245880,246289,245777,245880,Flankertask,136,66234,143,yes,1024
95.13888889,95.13888889,463.5069444,463.5069444,black,legacy,legacy,legacy,0,incongruent,uniform,1,undefined,1,h,143,0,0,0,143,0,143,0,143,NA,0,0,0,143,143,143,143,9/16/19 10:01,600,The main experiment item,yes,C:/Users/Breena Riley/Desktop/2019 Fall/MultQuant/New folder/Flankertask.osexp,no,mono,no,18,no,white,no,yes,768,legacy,63,79,C:/Users/Breena Riley/Desktop/2019 Fall/MultQuant/BR-subject-1.csv,legacy,Kafkaesque Koffka,3.2.8,0,h,NA,NA,space,space,NA,h,511,NA,NA,5750,696,NA,511,2,legacy,1024,2,48000,-16,experiment,SSHSS,0,even,246297,8018,141949,NA,174589,2259,203688,NA,247371,NA,2267,141252,NA,247472,247984,247369,247472,Flankertask,137,66745,144,yes,1024
95.17241379,95.17241379,463.8482759,463.8482759,black,legacy,legacy,legacy,0,incongruent,uniform,1,undefined,1,s,144,0,0,0,144,0,144,0,144,NA,0,0,0,144,144,144,144,9/16/19 10:01,600,The main experiment item,yes,C:/Users/Breena Riley/Desktop/2019 Fall/MultQuant/New folder/Flankertask.osexp,no,mono,no,18,no,white,no,yes,768,legacy,64,79,C:/Users/Breena Riley/Desktop/2019 Fall/MultQuant/BR-subject-1.csv,legacy,Kafkaesque Koffka,3.2.8,0,s,NA,NA,space,space,NA,s,513,NA,NA,5750,696,NA,513,2,legacy,1024,2,48000,-16,experiment,HHSHH,0,even,247991,8018,141949,NA,174589,2259,203688,NA,249049,NA,2267,141252,NA,249150,249664,249046,249150,Flankertask,138,67258,145,yes,1024
95.20547945,95.20547945,463.2945205,463.2945205,black,legacy,legacy,legacy,0,congruent,uniform,1,undefined,1,s,145,0,0,0,145,0,145,0,145,NA,0,0,0,145,145,145,145,9/16/19 10:01,600,The main experiment item,yes,C:/Users/Breena Riley/Desktop/2019 Fall/MultQuant/New folder/Flankertask.osexp,no,mono,no,18,no,white,no,yes,768,legacy,65,79,C:/Users/Breena Riley/Desktop/2019 Fall/MultQuant/BR-subject-1.csv,legacy,Kafkaesque Koffka,3.2.8,0,s,NA,NA,space,space,NA,s,383,NA,NA,5750,696,NA,383,2,legacy,1024,2,48000,-16,experiment,SSSSS,0,even,249672,8018,141949,NA,174589,2259,203688,NA,250735,NA,2267,141252,NA,250836,251220,250732,250836,Flankertask,139,67641,146,yes,1024
95.23809524,95.23809524,462.8843537,462.8843537,black,legacy,legacy,legacy,0,congruent,uniform,1,undefined,1,s,146,0,0,0,146,0,146,0,146,NA,0,0,0,146,146,146,146,9/16/19 10:01,600,The main experiment item,yes,C:/Users/Breena Riley/Desktop/2019 Fall/MultQuant/New folder/Flankertask.osexp,no,mono,no,18,no,white,no,yes,768,legacy,66,79,C:/Users/Breena Riley/Desktop/2019 Fall/MultQuant/BR-subject-1.csv,legacy,Kafkaesque Koffka,3.2.8,0,s,NA,NA,space,space,NA,s,403,NA,NA,5750,696,NA,403,2,legacy,1024,2,48000,-16,experiment,SSSSS,0,even,251228,8018,141949,NA,174589,2259,203688,NA,252286,NA,2267,141252,NA,252387,252791,252283,252387,Flankertask,140,68044,147,yes,1024
95.27027027,95.27027027,462.6756757,462.6756757,black,legacy,legacy,legacy,0,congruent,uniform,1,undefined,1,h,147,0,0,0,147,0,147,0,147,NA,0,0,0,147,147,147,147,9/16/19 10:01,600,The main experiment item,yes,C:/Users/Breena Riley/Desktop/2019 Fall/MultQuant/New folder/Flankertask.osexp,no,mono,no,18,no,white,no,yes,768,legacy,67,79,C:/Users/Breena Riley/Desktop/2019 Fall/MultQuant/BR-subject-1.csv,legacy,Kafkaesque Koffka,3.2.8,0,h,NA,NA,space,space,NA,h,432,NA,NA,5750,696,NA,432,2,legacy,1024,2,48000,-16,experiment,HHHHH,0,even,252799,8018,141949,NA,174589,2259,203688,NA,253858,NA,2267,141252,NA,253959,254393,253855,253959,Flankertask,141,68476,148,yes,1024
95.30201342,95.30201342,462.7583893,462.7583893,black,legacy,legacy,legacy,0,congruent,uniform,1,undefined,1,s,148,0,0,0,148,0,148,0,148,NA,0,0,0,148,148,148,148,9/16/19 10:01,600,The main experiment item,yes,C:/Users/Breena Riley/Desktop/2019 Fall/MultQuant/New folder/Flankertask.osexp,no,mono,no,18,no,white,no,yes,768,legacy,68,79,C:/Users/Breena Riley/Desktop/2019 Fall/MultQuant/BR-subject-1.csv,legacy,Kafkaesque Koffka,3.2.8,0,s,NA,NA,space,space,NA,s,475,NA,NA,5750,696,NA,475,2,legacy,1024,2,48000,-16,experiment,SSSSS,0,even,254401,8018,141949,NA,174589,2259,203688,NA,255461,NA,2267,141252,NA,255562,256039,255459,255562,Flankertask,142,68951,149,yes,1024
94.66666667,94.66666667,462.6533333,462.6533333,black,legacy,legacy,legacy,0,incongruent,uniform,0,undefined,0,s,149,0,0,0,149,0,149,0,149,NA,0,0,0,149,149,149,149,9/16/19 10:01,600,The main experiment item,yes,C:/Users/Breena Riley/Desktop/2019 Fall/MultQuant/New folder/Flankertask.osexp,no,mono,no,18,no,white,no,yes,768,legacy,69,79,C:/Users/Breena Riley/Desktop/2019 Fall/MultQuant/BR-subject-1.csv,legacy,Kafkaesque Koffka,3.2.8,0,h,NA,NA,space,space,NA,h,447,NA,NA,5750,696,NA,447,2,legacy,1024,2,48000,-16,experiment,HHSHH,0,even,256046,8018,141949,NA,174589,2259,203688,NA,257104,NA,2267,141252,NA,257205,257654,257102,257205,Flankertask,142,69398,150,yes,1024
94.70198676,94.70198676,463.0529801,463.0529801,black,legacy,legacy,legacy,0,congruent,uniform,1,undefined,1,h,150,0,0,0,150,0,150,0,150,NA,0,0,0,150,150,150,150,9/16/19 10:01,600,The main experiment item,yes,C:/Users/Breena Riley/Desktop/2019 Fall/MultQuant/New folder/Flankertask.osexp,no,mono,no,18,no,white,no,yes,768,legacy,70,79,C:/Users/Breena Riley/Desktop/2019 Fall/MultQuant/BR-subject-1.csv,legacy,Kafkaesque Koffka,3.2.8,0,h,NA,NA,space,space,NA,h,523,NA,NA,5750,696,NA,523,2,legacy,1024,2,48000,-16,experiment,HHHHH,0,even,258162,8018,141949,NA,257661,2259,203688,NA,259225,NA,2267,141252,NA,259326,259850,259222,259326,Flankertask,143,69921,151,yes,1024
94.73684211,94.73684211,463.875,463.875,black,legacy,legacy,legacy,0,congruent,uniform,1,undefined,1,h,151,0,0,0,151,0,151,0,151,NA,0,0,0,151,151,151,151,9/16/19 10:01,600,The main experiment item,yes,C:/Users/Breena Riley/Desktop/2019 Fall/MultQuant/New folder/Flankertask.osexp,no,mono,no,18,no,white,no,yes,768,legacy,71,79,C:/Users/Breena Riley/Desktop/2019 Fall/MultQuant/BR-subject-1.csv,legacy,Kafkaesque Koffka,3.2.8,0,h,NA,NA,space,space,NA,h,588,NA,NA,5750,696,NA,588,2,legacy,1024,2,48000,-16,experiment,HHHHH,0,even,259858,8018,141949,NA,257661,2259,203688,NA,260919,NA,2267,141252,NA,261020,261610,260917,261020,Flankertask,144,70509,152,yes,1024
