acc,accuracy,average_response_time,avg_rt,background,canvas_backend,clock_backend,color_backend,compensation,condition,coordinates,correct,correct_Instruction1,correct_keyboard_response,correct_response,count_Block1,count_Block2,count_Block3,count_Faster,count_Finish,count_ISI,count_Instruction1,count_Instruction2,count_Instruction3,count_errorFeedback,count_experiment,count_fixation,count_keyboard_response,count_logger,count_sequence,count_stimulus,datetime,deadline,description,disable_garbage_collection,experiment_file,experiment_path,font_bold,font_family,font_italic,font_size,font_underline,foreground,form_clicks,fullscreen,height,keyboard_backend,live_row,live_row_Block1,logfile,mouse_backend,opensesame_codename,opensesame_version,repeat_cycle,response,response_Finish,response_Instruction1,response_Instruction2,response_Instruction3,response_keyboard_response,response_time,response_time_Finish,response_time_Instruction1,response_time_Instruction2,response_time_Instruction3,response_time_keyboard_response,round_decimals,sampler_backend,sound_buf_size,sound_channels,sound_freq,sound_sample_size,start,stimulus,subject_nr,subject_parity,time_Block1,time_Block2,time_Block3,time_Faster,time_Finish,time_ISI,time_Instruction1,time_Instruction2,time_Instruction3,time_errorFeedback,time_experiment,time_fixation,time_keyboard_response,time_logger,time_sequence,time_stimulus,title,total_correct,total_response_time,total_responses,uniform_coordinates,width
100,100,535,535,black,legacy,legacy,legacy,0,congruent,uniform,1,undefined,1,h,0,0,0,0,0,0,0,0,0,0,0,0,0,0,0,0,9/21/19 16:55,1500,The main experiment item,yes,Flankertask2.osexp,C:/Users/Carolyn/OneDrive,no,mono,no,18,no,white,no,no,768,legacy,0,0,C:/Users/Carolyn/OneDrive/cp-subject-4.csv,legacy,Kafkaesque Koffka,3.2.8,0,h,NA,s,NA,NA,h,535,NA,115126,NA,NA,535,2,legacy,1024,2,48000,-16,experiment,HHHHH,4,even,120026,NA,NA,NA,NA,NA,4899,NA,NA,NA,4889,120274,120377,120912,120270,120377,Flankertask2,1,535,1,yes,1024
100,100,656.5,656.5,black,legacy,legacy,legacy,0,incongruent,uniform,1,undefined,1,s,0,0,0,1,0,1,0,0,0,1,0,1,1,1,1,1,9/21/19 16:55,1500,The main experiment item,yes,Flankertask2.osexp,C:/Users/Carolyn/OneDrive,no,mono,no,18,no,white,no,no,768,legacy,1,1,C:/Users/Carolyn/OneDrive/cp-subject-4.csv,legacy,Kafkaesque Koffka,3.2.8,0,s,NA,s,NA,NA,s,778,NA,115126,NA,NA,778,2,legacy,1024,2,48000,-16,experiment,HHSHH,4,even,120026,NA,NA,NA,NA,120991,4899,NA,NA,NA,4889,122159,122262,123041,122155,122262,Flankertask2,2,1313,2,yes,1024
100,100,576.6666667,576.6666667,black,legacy,legacy,legacy,0,congruent,uniform,1,undefined,1,h,0,0,0,2,0,2,0,0,0,2,0,2,2,2,2,2,9/21/19 16:55,1500,The main experiment item,yes,Flankertask2.osexp,C:/Users/Carolyn/OneDrive,no,mono,no,18,no,white,no,no,768,legacy,2,2,C:/Users/Carolyn/OneDrive/cp-subject-4.csv,legacy,Kafkaesque Koffka,3.2.8,0,h,NA,s,NA,NA,h,417,NA,115126,NA,NA,417,2,legacy,1024,2,48000,-16,experiment,HHHHH,4,even,120026,NA,NA,NA,NA,123112,4899,NA,NA,NA,4889,124279,124382,124801,124274,124382,Flankertask2,3,1730,3,yes,1024
100,100,532.5,532.5,black,legacy,legacy,legacy,0,congruent,uniform,1,undefined,1,s,0,0,0,3,0,3,0,0,0,3,0,3,3,3,3,3,9/21/19 16:55,1500,The main experiment item,yes,Flankertask2.osexp,C:/Users/Carolyn/OneDrive,no,mono,no,18,no,white,no,no,768,legacy,3,3,C:/Users/Carolyn/OneDrive/cp-subject-4.csv,legacy,Kafkaesque Koffka,3.2.8,0,s,NA,s,NA,NA,s,400,NA,115126,NA,NA,400,2,legacy,1024,2,48000,-16,experiment,SSSSS,4,even,120026,NA,NA,NA,NA,124834,4899,NA,NA,NA,4889,125977,126080,126481,125973,126080,Flankertask2,4,2130,4,yes,1024
100,100,516.4,516.4,black,legacy,legacy,legacy,0,congruent,uniform,1,undefined,1,h,0,0,0,4,0,4,0,0,0,4,0,4,4,4,4,4,9/21/19 16:55,1500,The main experiment item,yes,Flankertask2.osexp,C:/Users/Carolyn/OneDrive,no,mono,no,18,no,white,no,no,768,legacy,4,4,C:/Users/Carolyn/OneDrive/cp-subject-4.csv,legacy,Kafkaesque Koffka,3.2.8,0,h,NA,s,NA,NA,h,452,NA,115126,NA,NA,452,2,legacy,1024,2,48000,-16,experiment,HHHHH,4,even,120026,NA,NA,NA,NA,126516,4899,NA,NA,NA,4889,127660,127763,128218,127654,127763,Flankertask2,5,2582,5,yes,1024
100,100,498.1666667,498.1666667,black,legacy,legacy,legacy,0,congruent,uniform,1,undefined,1,s,0,0,0,5,0,5,0,0,0,5,0,5,5,5,5,5,9/21/19 16:55,1500,The main experiment item,yes,Flankertask2.osexp,C:/Users/Carolyn/OneDrive,no,mono,no,18,no,white,no,no,768,legacy,5,5,C:/Users/Carolyn/OneDrive/cp-subject-4.csv,legacy,Kafkaesque Koffka,3.2.8,0,s,NA,s,NA,NA,s,407,NA,115126,NA,NA,407,2,legacy,1024,2,48000,-16,experiment,SSSSS,4,even,120026,NA,NA,NA,NA,128250,4899,NA,NA,NA,4889,129395,129498,129905,129390,129498,Flankertask2,6,2989,6,yes,1024
100,100,522.2857143,522.2857143,black,legacy,legacy,legacy,0,incongruent,uniform,1,undefined,1,s,0,0,0,6,0,6,0,0,0,6,0,6,6,6,6,6,9/21/19 16:55,1500,The main experiment item,yes,Flankertask2.osexp,C:/Users/Carolyn/OneDrive,no,mono,no,18,no,white,no,no,768,legacy,6,6,C:/Users/Carolyn/OneDrive/cp-subject-4.csv,legacy,Kafkaesque Koffka,3.2.8,0,s,NA,s,NA,NA,s,667,NA,115126,NA,NA,667,2,legacy,1024,2,48000,-16,experiment,HHSHH,4,even,120026,NA,NA,NA,NA,129942,4899,NA,NA,NA,4889,131087,131189,131858,131081,131189,Flankertask2,7,3656,7,yes,1024
100,100,625.625,625.625,black,legacy,legacy,legacy,0,incongruent,uniform,1,undefined,1,h,0,0,0,7,0,7,0,0,0,7,0,7,7,7,7,7,9/21/19 16:55,1500,The main experiment item,yes,Flankertask2.osexp,C:/Users/Carolyn/OneDrive,no,mono,no,18,no,white,no,no,768,legacy,7,7,C:/Users/Carolyn/OneDrive/cp-subject-4.csv,legacy,Kafkaesque Koffka,3.2.8,0,h,NA,s,NA,NA,h,1349,NA,115126,NA,NA,1349,2,legacy,1024,2,48000,-16,experiment,SSHSS,4,even,120026,NA,NA,NA,NA,131892,4899,NA,NA,NA,4889,133036,133138,134489,133031,133138,Flankertask2,8,5005,8,yes,1024
100,100,625.4444444,625.4444444,black,legacy,legacy,legacy,0,congruent,uniform,1,undefined,1,h,0,0,0,8,0,8,0,0,0,8,0,8,8,8,8,8,9/21/19 16:55,1500,The main experiment item,yes,Flankertask2.osexp,C:/Users/Carolyn/OneDrive,no,mono,no,18,no,white,no,no,768,legacy,8,8,C:/Users/Carolyn/OneDrive/cp-subject-4.csv,legacy,Kafkaesque Koffka,3.2.8,0,h,NA,s,NA,NA,h,624,NA,115126,NA,NA,624,2,legacy,1024,2,48000,-16,experiment,HHHHH,4,even,120026,NA,NA,NA,NA,134525,4899,NA,NA,NA,4889,135672,135776,136401,135667,135775,Flankertask2,9,5629,9,yes,1024
100,100,620,620,black,legacy,legacy,legacy,0,incongruent,uniform,1,undefined,1,s,0,0,0,9,0,9,0,0,0,9,0,9,9,9,9,9,9/21/19 16:55,1500,The main experiment item,yes,Flankertask2.osexp,C:/Users/Carolyn/OneDrive,no,mono,no,18,no,white,no,no,768,legacy,9,9,C:/Users/Carolyn/OneDrive/cp-subject-4.csv,legacy,Kafkaesque Koffka,3.2.8,0,s,NA,s,NA,NA,s,571,NA,115126,NA,NA,571,2,legacy,1024,2,48000,-16,experiment,HHSHH,4,even,120026,NA,NA,NA,NA,136426,4899,NA,NA,NA,4889,137573,137677,138249,137568,137676,Flankertask2,10,6200,10,yes,1024
100,100,603.8181818,603.8181818,black,legacy,legacy,legacy,0,congruent,uniform,1,undefined,1,h,0,0,0,10,0,10,0,0,0,10,0,10,10,10,10,10,9/21/19 16:55,1500,The main experiment item,yes,Flankertask2.osexp,C:/Users/Carolyn/OneDrive,no,mono,no,18,no,white,no,no,768,legacy,10,10,C:/Users/Carolyn/OneDrive/cp-subject-4.csv,legacy,Kafkaesque Koffka,3.2.8,0,h,NA,s,NA,NA,h,442,NA,115126,NA,NA,442,2,legacy,1024,2,48000,-16,experiment,HHHHH,4,even,120026,NA,NA,NA,NA,138292,4899,NA,NA,NA,4889,139439,139542,139987,139434,139542,Flankertask2,11,6642,11,yes,1024
100,100,591.0833333,591.0833333,black,legacy,legacy,legacy,0,congruent,uniform,1,undefined,1,s,0,0,0,11,0,11,0,0,0,11,0,11,11,11,11,11,9/21/19 16:55,1500,The main experiment item,yes,Flankertask2.osexp,C:/Users/Carolyn/OneDrive,no,mono,no,18,no,white,no,no,768,legacy,11,11,C:/Users/Carolyn/OneDrive/cp-subject-4.csv,legacy,Kafkaesque Koffka,3.2.8,0,s,NA,s,NA,NA,s,451,NA,115126,NA,NA,451,2,legacy,1024,2,48000,-16,experiment,SSSSS,4,even,120026,NA,NA,NA,NA,140034,4899,NA,NA,NA,4889,141188,141293,141745,141184,141292,Flankertask2,12,7093,12,yes,1024
100,100,583.7692308,583.7692308,black,legacy,legacy,legacy,0,incongruent,uniform,1,undefined,1,h,0,0,0,12,0,12,0,0,0,12,0,12,12,12,12,12,9/21/19 16:55,1500,The main experiment item,yes,Flankertask2.osexp,C:/Users/Carolyn/OneDrive,no,mono,no,18,no,white,no,no,768,legacy,12,12,C:/Users/Carolyn/OneDrive/cp-subject-4.csv,legacy,Kafkaesque Koffka,3.2.8,0,h,NA,s,NA,NA,h,496,NA,115126,NA,NA,496,2,legacy,1024,2,48000,-16,experiment,SSHSS,4,even,120026,NA,NA,NA,NA,141783,4899,NA,NA,NA,4889,142929,143032,143529,142925,143032,Flankertask2,13,7589,13,yes,1024
100,100,580.9285714,580.9285714,black,legacy,legacy,legacy,0,congruent,uniform,1,undefined,1,h,0,0,0,13,0,13,0,0,0,13,0,13,13,13,13,13,9/21/19 16:55,1500,The main experiment item,yes,Flankertask2.osexp,C:/Users/Carolyn/OneDrive,no,mono,no,18,no,white,no,no,768,legacy,13,13,C:/Users/Carolyn/OneDrive/cp-subject-4.csv,legacy,Kafkaesque Koffka,3.2.8,0,h,NA,s,NA,NA,h,544,NA,115126,NA,NA,544,2,legacy,1024,2,48000,-16,experiment,HHHHH,4,even,120026,NA,NA,NA,NA,143567,4899,NA,NA,NA,4889,144713,144816,145361,144708,144816,Flankertask2,14,8133,14,yes,1024
100,100,587.4,587.4,black,legacy,legacy,legacy,0,incongruent,uniform,1,undefined,1,s,0,0,0,14,0,14,0,0,0,14,0,14,14,14,14,14,9/21/19 16:55,1500,The main experiment item,yes,Flankertask2.osexp,C:/Users/Carolyn/OneDrive,no,mono,no,18,no,white,no,no,768,legacy,14,14,C:/Users/Carolyn/OneDrive/cp-subject-4.csv,legacy,Kafkaesque Koffka,3.2.8,0,s,NA,s,NA,NA,s,678,NA,115126,NA,NA,678,2,legacy,1024,2,48000,-16,experiment,HHSHH,4,even,120026,NA,NA,NA,NA,145400,4899,NA,NA,NA,4889,146547,146650,147329,146542,146650,Flankertask2,15,8811,15,yes,1024
100,100,593.6875,593.6875,black,legacy,legacy,legacy,0,incongruent,uniform,1,undefined,1,s,0,0,0,15,0,15,0,0,0,15,0,15,15,15,15,15,9/21/19 16:55,1500,The main experiment item,yes,Flankertask2.osexp,C:/Users/Carolyn/OneDrive,no,mono,no,18,no,white,no,no,768,legacy,15,15,C:/Users/Carolyn/OneDrive/cp-subject-4.csv,legacy,Kafkaesque Koffka,3.2.8,0,s,NA,s,NA,NA,s,688,NA,115126,NA,NA,688,2,legacy,1024,2,48000,-16,experiment,HHSHH,4,even,120026,NA,NA,NA,NA,147375,4899,NA,NA,NA,4889,148536,148640,149329,148531,148639,Flankertask2,16,9499,16,yes,1024
100,100,586.4117647,586.4117647,black,legacy,legacy,legacy,0,incongruent,uniform,1,undefined,1,h,0,0,0,16,0,16,0,0,0,16,0,16,16,16,16,16,9/21/19 16:55,1500,The main experiment item,yes,Flankertask2.osexp,C:/Users/Carolyn/OneDrive,no,mono,no,18,no,white,no,no,768,legacy,16,16,C:/Users/Carolyn/OneDrive/cp-subject-4.csv,legacy,Kafkaesque Koffka,3.2.8,0,h,NA,s,NA,NA,h,470,NA,115126,NA,NA,470,2,legacy,1024,2,48000,-16,experiment,SSHSS,4,even,120026,NA,NA,NA,NA,149367,4899,NA,NA,NA,4889,150522,150626,151097,150517,150625,Flankertask2,17,9969,17,yes,1024
100,100,583.2222222,583.2222222,black,legacy,legacy,legacy,0,congruent,uniform,1,undefined,1,s,0,0,0,17,0,17,0,0,0,17,0,17,17,17,17,17,9/21/19 16:55,1500,The main experiment item,yes,Flankertask2.osexp,C:/Users/Carolyn/OneDrive,no,mono,no,18,no,white,no,no,768,legacy,17,17,C:/Users/Carolyn/OneDrive/cp-subject-4.csv,legacy,Kafkaesque Koffka,3.2.8,0,s,NA,s,NA,NA,s,529,NA,115126,NA,NA,529,2,legacy,1024,2,48000,-16,experiment,SSSSS,4,even,120026,NA,NA,NA,NA,151125,4899,NA,NA,NA,4889,152271,152375,152905,152266,152374,Flankertask2,18,10498,18,yes,1024
100,100,586.3157895,586.3157895,black,legacy,legacy,legacy,0,congruent,uniform,1,undefined,1,s,0,0,0,18,0,18,0,0,0,18,0,18,18,18,18,18,9/21/19 16:55,1500,The main experiment item,yes,Flankertask2.osexp,C:/Users/Carolyn/OneDrive,no,mono,no,18,no,white,no,no,768,legacy,18,18,C:/Users/Carolyn/OneDrive/cp-subject-4.csv,legacy,Kafkaesque Koffka,3.2.8,0,s,NA,s,NA,NA,s,642,NA,115126,NA,NA,642,2,legacy,1024,2,48000,-16,experiment,SSSSS,4,even,120026,NA,NA,NA,NA,152942,4899,NA,NA,NA,4889,154087,154190,154835,154082,154190,Flankertask2,19,11140,19,yes,1024
100,100,582.45,582.45,black,legacy,legacy,legacy,0,congruent,uniform,1,undefined,1,s,0,0,0,19,0,19,0,0,0,19,0,19,19,19,19,19,9/21/19 16:55,1500,The main experiment item,yes,Flankertask2.osexp,C:/Users/Carolyn/OneDrive,no,mono,no,18,no,white,no,no,768,legacy,19,19,C:/Users/Carolyn/OneDrive/cp-subject-4.csv,legacy,Kafkaesque Koffka,3.2.8,0,s,NA,s,NA,NA,s,509,NA,115126,NA,NA,509,2,legacy,1024,2,48000,-16,experiment,SSSSS,4,even,120026,NA,NA,NA,NA,154875,4899,NA,NA,NA,4889,156020,156123,156633,156015,156123,Flankertask2,20,11649,20,yes,1024
100,100,582.2857143,582.2857143,black,legacy,legacy,legacy,0,congruent,uniform,1,undefined,1,s,0,0,0,20,0,20,0,0,0,20,0,20,20,20,20,20,9/21/19 16:55,1500,The main experiment item,yes,Flankertask2.osexp,C:/Users/Carolyn/OneDrive,no,mono,no,18,no,white,no,no,768,legacy,20,20,C:/Users/Carolyn/OneDrive/cp-subject-4.csv,legacy,Kafkaesque Koffka,3.2.8,0,s,NA,s,NA,NA,s,579,NA,115126,NA,NA,579,2,legacy,1024,2,48000,-16,experiment,SSSSS,4,even,120026,NA,NA,NA,NA,156717,4899,NA,NA,NA,4889,157861,157965,158545,157857,157965,Flankertask2,21,12228,21,yes,1024
100,100,585.3636364,585.3636364,black,legacy,legacy,legacy,0,congruent,uniform,1,undefined,1,s,0,0,0,21,0,21,0,0,0,21,0,21,21,21,21,21,9/21/19 16:55,1500,The main experiment item,yes,Flankertask2.osexp,C:/Users/Carolyn/OneDrive,no,mono,no,18,no,white,no,no,768,legacy,21,21,C:/Users/Carolyn/OneDrive/cp-subject-4.csv,legacy,Kafkaesque Koffka,3.2.8,0,s,NA,s,NA,NA,s,650,NA,115126,NA,NA,650,2,legacy,1024,2,48000,-16,experiment,SSSSS,4,even,120026,NA,NA,NA,NA,158583,4899,NA,NA,NA,4889,159727,159830,160481,159722,159830,Flankertask2,22,12878,22,yes,1024
100,100,580.3043478,580.3043478,black,legacy,legacy,legacy,0,congruent,uniform,1,undefined,1,s,0,0,0,22,0,22,0,0,0,22,0,22,22,22,22,22,9/21/19 16:55,1500,The main experiment item,yes,Flankertask2.osexp,C:/Users/Carolyn/OneDrive,no,mono,no,18,no,white,no,no,768,legacy,22,22,C:/Users/Carolyn/OneDrive/cp-subject-4.csv,legacy,Kafkaesque Koffka,3.2.8,0,s,NA,s,NA,NA,s,469,NA,115126,NA,NA,469,2,legacy,1024,2,48000,-16,experiment,SSSSS,4,even,120026,NA,NA,NA,NA,160508,4899,NA,NA,NA,4889,161651,161755,162225,161647,161755,Flankertask2,23,13347,23,yes,1024
100,100,581.0416667,581.0416667,black,legacy,legacy,legacy,0,congruent,uniform,1,undefined,1,h,0,0,0,23,0,23,0,0,0,23,0,23,23,23,23,23,9/21/19 16:55,1500,The main experiment item,yes,Flankertask2.osexp,C:/Users/Carolyn/OneDrive,no,mono,no,18,no,white,no,no,768,legacy,23,23,C:/Users/Carolyn/OneDrive/cp-subject-4.csv,legacy,Kafkaesque Koffka,3.2.8,0,h,NA,s,NA,NA,h,598,NA,115126,NA,NA,598,2,legacy,1024,2,48000,-16,experiment,HHHHH,4,even,120026,NA,NA,NA,NA,162267,4899,NA,NA,NA,4889,163411,163514,164113,163406,163514,Flankertask2,24,13945,24,yes,1024
100,100,613.84,613.84,black,legacy,legacy,legacy,0,incongruent,uniform,1,undefined,1,h,0,0,0,24,0,24,0,0,0,24,0,24,24,24,24,24,9/21/19 16:55,1500,The main experiment item,yes,Flankertask2.osexp,C:/Users/Carolyn/OneDrive,no,mono,no,18,no,white,no,no,768,legacy,24,24,C:/Users/Carolyn/OneDrive/cp-subject-4.csv,legacy,Kafkaesque Koffka,3.2.8,0,h,NA,s,NA,NA,h,1401,NA,115126,NA,NA,1401,2,legacy,1024,2,48000,-16,experiment,SSHSS,4,even,120026,NA,NA,NA,NA,164133,4899,NA,NA,NA,4889,165287,165391,166793,165282,165391,Flankertask2,25,15346,25,yes,1024
100,100,616.3846154,616.3846154,black,legacy,legacy,legacy,0,incongruent,uniform,1,undefined,1,s,0,0,0,25,0,25,0,0,0,25,0,25,25,25,25,25,9/21/19 16:55,1500,The main experiment item,yes,Flankertask2.osexp,C:/Users/Carolyn/OneDrive,no,mono,no,18,no,white,no,no,768,legacy,25,25,C:/Users/Carolyn/OneDrive/cp-subject-4.csv,legacy,Kafkaesque Koffka,3.2.8,0,s,NA,s,NA,NA,s,680,NA,115126,NA,NA,680,2,legacy,1024,2,48000,-16,experiment,HHSHH,4,even,120026,NA,NA,NA,NA,166816,4899,NA,NA,NA,4889,167961,168064,168745,167957,168064,Flankertask2,26,16026,26,yes,1024
100,100,614.9259259,614.9259259,black,legacy,legacy,legacy,0,congruent,uniform,1,undefined,1,s,0,0,0,26,0,26,0,0,0,26,0,26,26,26,26,26,9/21/19 16:55,1500,The main experiment item,yes,Flankertask2.osexp,C:/Users/Carolyn/OneDrive,no,mono,no,18,no,white,no,no,768,legacy,26,26,C:/Users/Carolyn/OneDrive/cp-subject-4.csv,legacy,Kafkaesque Koffka,3.2.8,0,s,NA,s,NA,NA,s,577,NA,115126,NA,NA,577,2,legacy,1024,2,48000,-16,experiment,SSSSS,4,even,120026,NA,NA,NA,NA,168783,4899,NA,NA,NA,4889,169928,170031,170612,169923,170031,Flankertask2,27,16603,27,yes,1024
100,100,613.1785714,613.1785714,black,legacy,legacy,legacy,0,incongruent,uniform,1,undefined,1,s,0,0,0,27,0,27,0,0,0,27,0,27,27,27,27,27,9/21/19 16:55,1500,The main experiment item,yes,Flankertask2.osexp,C:/Users/Carolyn/OneDrive,no,mono,no,18,no,white,no,no,768,legacy,27,27,C:/Users/Carolyn/OneDrive/cp-subject-4.csv,legacy,Kafkaesque Koffka,3.2.8,0,s,NA,s,NA,NA,s,566,NA,115126,NA,NA,566,2,legacy,1024,2,48000,-16,experiment,HHSHH,4,even,120026,NA,NA,NA,NA,170642,4899,NA,NA,NA,4889,171811,171914,172481,171806,171914,Flankertask2,28,17169,28,yes,1024
100,100,607.0344828,607.0344828,black,legacy,legacy,legacy,0,congruent,uniform,1,undefined,1,s,0,0,0,28,0,28,0,0,0,28,0,28,28,28,28,28,9/21/19 16:55,1500,The main experiment item,yes,Flankertask2.osexp,C:/Users/Carolyn/OneDrive,no,mono,no,18,no,white,no,no,768,legacy,28,28,C:/Users/Carolyn/OneDrive/cp-subject-4.csv,legacy,Kafkaesque Koffka,3.2.8,0,s,NA,s,NA,NA,s,435,NA,115126,NA,NA,435,2,legacy,1024,2,48000,-16,experiment,SSSSS,4,even,120026,NA,NA,NA,NA,172525,4899,NA,NA,NA,4889,173668,173773,174209,173664,173772,Flankertask2,29,17604,29,yes,1024
100,100,603.4666667,603.4666667,black,legacy,legacy,legacy,0,incongruent,uniform,1,undefined,1,s,0,0,0,29,0,29,0,0,0,29,0,29,29,29,29,29,9/21/19 16:55,1500,The main experiment item,yes,Flankertask2.osexp,C:/Users/Carolyn/OneDrive,no,mono,no,18,no,white,no,no,768,legacy,29,29,C:/Users/Carolyn/OneDrive/cp-subject-4.csv,legacy,Kafkaesque Koffka,3.2.8,0,s,NA,s,NA,NA,s,500,NA,115126,NA,NA,500,2,legacy,1024,2,48000,-16,experiment,HHSHH,4,even,120026,NA,NA,NA,NA,174250,4899,NA,NA,NA,4889,175405,175508,176012,175400,175508,Flankertask2,30,18104,30,yes,1024
100,100,600.483871,600.483871,black,legacy,legacy,legacy,0,incongruent,uniform,1,undefined,1,s,0,0,0,30,0,30,0,0,0,30,0,30,30,30,30,30,9/21/19 16:55,1500,The main experiment item,yes,Flankertask2.osexp,C:/Users/Carolyn/OneDrive,no,mono,no,18,no,white,no,no,768,legacy,30,30,C:/Users/Carolyn/OneDrive/cp-subject-4.csv,legacy,Kafkaesque Koffka,3.2.8,0,s,NA,s,NA,NA,s,511,NA,115126,NA,NA,511,2,legacy,1024,2,48000,-16,experiment,HHSHH,4,even,120026,NA,NA,NA,NA,176185,4899,NA,NA,NA,4889,177330,177433,177945,177325,177433,Flankertask2,31,18615,31,yes,1024
100,100,598.40625,598.40625,black,legacy,legacy,legacy,0,incongruent,uniform,1,undefined,1,s,0,0,0,31,0,31,0,0,0,31,0,31,31,31,31,31,9/21/19 16:55,1500,The main experiment item,yes,Flankertask2.osexp,C:/Users/Carolyn/OneDrive,no,mono,no,18,no,white,no,no,768,legacy,31,31,C:/Users/Carolyn/OneDrive/cp-subject-4.csv,legacy,Kafkaesque Koffka,3.2.8,0,s,NA,s,NA,NA,s,534,NA,115126,NA,NA,534,2,legacy,1024,2,48000,-16,experiment,HHSHH,4,even,120026,NA,NA,NA,NA,177983,4899,NA,NA,NA,4889,179139,179242,179777,179134,179242,Flankertask2,32,19149,32,yes,1024
100,100,597.6969697,597.6969697,black,legacy,legacy,legacy,0,congruent,uniform,1,undefined,1,h,0,0,0,32,0,32,0,0,0,32,0,32,32,32,32,32,9/21/19 16:55,1500,The main experiment item,yes,Flankertask2.osexp,C:/Users/Carolyn/OneDrive,no,mono,no,18,no,white,no,no,768,legacy,32,32,C:/Users/Carolyn/OneDrive/cp-subject-4.csv,legacy,Kafkaesque Koffka,3.2.8,0,h,NA,s,NA,NA,h,575,NA,115126,NA,NA,575,2,legacy,1024,2,48000,-16,experiment,HHHHH,4,even,120026,NA,NA,NA,NA,179816,4899,NA,NA,NA,4889,180962,181065,181641,180957,181065,Flankertask2,33,19724,33,yes,1024
100,100,597.6764706,597.6764706,black,legacy,legacy,legacy,0,incongruent,uniform,1,undefined,1,h,0,0,0,33,0,33,0,0,0,33,0,33,33,33,33,33,9/21/19 16:55,1500,The main experiment item,yes,Flankertask2.osexp,C:/Users/Carolyn/OneDrive,no,mono,no,18,no,white,no,no,768,legacy,33,33,C:/Users/Carolyn/OneDrive/cp-subject-4.csv,legacy,Kafkaesque Koffka,3.2.8,0,h,NA,s,NA,NA,h,597,NA,115126,NA,NA,597,2,legacy,1024,2,48000,-16,experiment,SSHSS,4,even,120026,NA,NA,NA,NA,181667,4899,NA,NA,NA,4889,182812,182915,183513,182808,182915,Flankertask2,34,20321,34,yes,1024
100,100,599.8,599.8,black,legacy,legacy,legacy,0,incongruent,uniform,1,undefined,1,s,0,0,0,34,0,34,0,0,0,34,0,34,34,34,34,34,9/21/19 16:55,1500,The main experiment item,yes,Flankertask2.osexp,C:/Users/Carolyn/OneDrive,no,mono,no,18,no,white,no,no,768,legacy,34,34,C:/Users/Carolyn/OneDrive/cp-subject-4.csv,legacy,Kafkaesque Koffka,3.2.8,0,s,NA,s,NA,NA,s,672,NA,115126,NA,NA,672,2,legacy,1024,2,48000,-16,experiment,HHSHH,4,even,120026,NA,NA,NA,NA,183549,4899,NA,NA,NA,4889,184696,184800,185476,184691,184799,Flankertask2,35,20993,35,yes,1024
100,100,598.8888889,598.8888889,black,legacy,legacy,legacy,0,congruent,uniform,1,undefined,1,h,0,0,0,35,0,35,0,0,0,35,0,35,35,35,35,35,9/21/19 16:55,1500,The main experiment item,yes,Flankertask2.osexp,C:/Users/Carolyn/OneDrive,no,mono,no,18,no,white,no,no,768,legacy,35,35,C:/Users/Carolyn/OneDrive/cp-subject-4.csv,legacy,Kafkaesque Koffka,3.2.8,0,h,NA,s,NA,NA,h,567,NA,115126,NA,NA,567,2,legacy,1024,2,48000,-16,experiment,HHHHH,4,even,120026,NA,NA,NA,NA,185524,4899,NA,NA,NA,4889,186680,186785,187353,186676,186784,Flankertask2,36,21560,36,yes,1024
100,100,596.9189189,596.9189189,black,legacy,legacy,legacy,0,congruent,uniform,1,undefined,1,s,0,0,0,36,0,36,0,0,0,36,0,36,36,36,36,36,9/21/19 16:55,1500,The main experiment item,yes,Flankertask2.osexp,C:/Users/Carolyn/OneDrive,no,mono,no,18,no,white,no,no,768,legacy,36,36,C:/Users/Carolyn/OneDrive/cp-subject-4.csv,legacy,Kafkaesque Koffka,3.2.8,0,s,NA,s,NA,NA,s,526,NA,115126,NA,NA,526,2,legacy,1024,2,48000,-16,experiment,SSSSS,4,even,120026,NA,NA,NA,NA,187391,4899,NA,NA,NA,4889,188538,188642,189169,188533,188641,Flankertask2,37,22086,37,yes,1024
100,100,596.8157895,596.8157895,black,legacy,legacy,legacy,0,congruent,uniform,1,undefined,1,s,0,0,0,37,0,37,0,0,0,37,0,37,37,37,37,37,9/21/19 16:55,1500,The main experiment item,yes,Flankertask2.osexp,C:/Users/Carolyn/OneDrive,no,mono,no,18,no,white,no,no,768,legacy,37,37,C:/Users/Carolyn/OneDrive/cp-subject-4.csv,legacy,Kafkaesque Koffka,3.2.8,0,s,NA,s,NA,NA,s,593,NA,115126,NA,NA,593,2,legacy,1024,2,48000,-16,experiment,SSSSS,4,even,120026,NA,NA,NA,NA,189216,4899,NA,NA,NA,4889,190360,190463,191057,190355,190463,Flankertask2,38,22679,38,yes,1024
100,100,597.0512821,597.0512821,black,legacy,legacy,legacy,0,incongruent,uniform,1,undefined,1,h,0,0,0,38,0,38,0,0,0,38,0,38,38,38,38,38,9/21/19 16:55,1500,The main experiment item,yes,Flankertask2.osexp,C:/Users/Carolyn/OneDrive,no,mono,no,18,no,white,no,no,768,legacy,38,38,C:/Users/Carolyn/OneDrive/cp-subject-4.csv,legacy,Kafkaesque Koffka,3.2.8,0,h,NA,s,NA,NA,h,606,NA,115126,NA,NA,606,2,legacy,1024,2,48000,-16,experiment,SSHSS,4,even,120026,NA,NA,NA,NA,191074,4899,NA,NA,NA,4889,192219,192322,192929,192215,192322,Flankertask2,39,23285,39,yes,1024
100,100,597.175,597.175,black,legacy,legacy,legacy,0,congruent,uniform,1,undefined,1,h,0,0,0,39,0,39,0,0,0,39,0,39,39,39,39,39,9/21/19 16:55,1500,The main experiment item,yes,Flankertask2.osexp,C:/Users/Carolyn/OneDrive,no,mono,no,18,no,white,no,no,768,legacy,39,39,C:/Users/Carolyn/OneDrive/cp-subject-4.csv,legacy,Kafkaesque Koffka,3.2.8,0,h,NA,s,NA,NA,h,602,NA,115126,NA,NA,602,2,legacy,1024,2,48000,-16,experiment,HHHHH,4,even,120026,NA,NA,NA,NA,192957,4899,NA,NA,NA,4889,194103,194206,194809,194098,194206,Flankertask2,40,23887,40,yes,1024
100,100,595.0487805,595.0487805,black,legacy,legacy,legacy,0,congruent,uniform,1,undefined,1,s,0,0,0,40,0,40,0,0,0,40,0,40,40,40,40,40,9/21/19 16:55,1500,The main experiment item,yes,Flankertask2.osexp,C:/Users/Carolyn/OneDrive,no,mono,no,18,no,white,no,no,768,legacy,40,40,C:/Users/Carolyn/OneDrive/cp-subject-4.csv,legacy,Kafkaesque Koffka,3.2.8,0,s,NA,s,NA,NA,s,510,NA,115126,NA,NA,510,2,legacy,1024,2,48000,-16,experiment,SSSSS,4,even,120026,NA,NA,NA,NA,194825,4899,NA,NA,NA,4889,195987,196090,196601,195982,196090,Flankertask2,41,24397,41,yes,1024
100,100,599.5238095,599.5238095,black,legacy,legacy,legacy,0,incongruent,uniform,1,undefined,1,h,0,0,0,41,0,41,0,0,0,41,0,41,41,41,41,41,9/21/19 16:55,1500,The main experiment item,yes,Flankertask2.osexp,C:/Users/Carolyn/OneDrive,no,mono,no,18,no,white,no,no,768,legacy,41,41,C:/Users/Carolyn/OneDrive/cp-subject-4.csv,legacy,Kafkaesque Koffka,3.2.8,0,h,NA,s,NA,NA,h,783,NA,115126,NA,NA,783,2,legacy,1024,2,48000,-16,experiment,SSHSS,4,even,120026,NA,NA,NA,NA,196632,4899,NA,NA,NA,4889,197778,197881,198665,197773,197881,Flankertask2,42,25180,42,yes,1024
100,100,599.627907,599.627907,black,legacy,legacy,legacy,0,incongruent,uniform,1,undefined,1,h,0,0,0,42,0,42,0,0,0,42,0,42,42,42,42,42,9/21/19 16:55,1500,The main experiment item,yes,Flankertask2.osexp,C:/Users/Carolyn/OneDrive,no,mono,no,18,no,white,no,no,768,legacy,42,42,C:/Users/Carolyn/OneDrive/cp-subject-4.csv,legacy,Kafkaesque Koffka,3.2.8,0,h,NA,s,NA,NA,h,604,NA,115126,NA,NA,604,2,legacy,1024,2,48000,-16,experiment,SSHSS,4,even,120026,NA,NA,NA,NA,198707,4899,NA,NA,NA,4889,199852,199956,200562,199847,199956,Flankertask2,43,25784,43,yes,1024
100,100,598.9318182,598.9318182,black,legacy,legacy,legacy,0,congruent,uniform,1,undefined,1,h,0,0,0,43,0,43,0,0,0,43,0,43,43,43,43,43,9/21/19 16:55,1500,The main experiment item,yes,Flankertask2.osexp,C:/Users/Carolyn/OneDrive,no,mono,no,18,no,white,no,no,768,legacy,43,43,C:/Users/Carolyn/OneDrive/cp-subject-4.csv,legacy,Kafkaesque Koffka,3.2.8,0,h,NA,s,NA,NA,h,569,NA,115126,NA,NA,569,2,legacy,1024,2,48000,-16,experiment,HHHHH,4,even,120026,NA,NA,NA,NA,200583,4899,NA,NA,NA,4889,201728,201831,202404,201723,201831,Flankertask2,44,26353,44,yes,1024
100,100,598.0444444,598.0444444,black,legacy,legacy,legacy,0,congruent,uniform,1,undefined,1,h,0,0,0,44,0,44,0,0,0,44,0,44,44,44,44,44,9/21/19 16:55,1500,The main experiment item,yes,Flankertask2.osexp,C:/Users/Carolyn/OneDrive,no,mono,no,18,no,white,no,no,768,legacy,44,44,C:/Users/Carolyn/OneDrive/cp-subject-4.csv,legacy,Kafkaesque Koffka,3.2.8,0,h,NA,s,NA,NA,h,559,NA,115126,NA,NA,559,2,legacy,1024,2,48000,-16,experiment,HHHHH,4,even,120026,NA,NA,NA,NA,202424,4899,NA,NA,NA,4889,203570,203673,204233,203565,203673,Flankertask2,45,26912,45,yes,1024
100,100,602.3913043,602.3913043,black,legacy,legacy,legacy,0,incongruent,uniform,1,undefined,1,h,0,0,0,45,0,45,0,0,0,45,0,45,45,45,45,45,9/21/19 16:55,1500,The main experiment item,yes,Flankertask2.osexp,C:/Users/Carolyn/OneDrive,no,mono,no,18,no,white,no,no,768,legacy,45,45,C:/Users/Carolyn/OneDrive/cp-subject-4.csv,legacy,Kafkaesque Koffka,3.2.8,0,h,NA,s,NA,NA,h,798,NA,115126,NA,NA,798,2,legacy,1024,2,48000,-16,experiment,SSHSS,4,even,120026,NA,NA,NA,NA,204257,4899,NA,NA,NA,4889,205403,205506,206306,205398,205506,Flankertask2,46,27710,46,yes,1024
100,100,602.7234043,602.7234043,black,legacy,legacy,legacy,0,congruent,uniform,1,undefined,1,h,0,0,0,46,0,46,0,0,0,46,0,46,46,46,46,46,9/21/19 16:55,1500,The main experiment item,yes,Flankertask2.osexp,C:/Users/Carolyn/OneDrive,no,mono,no,18,no,white,no,no,768,legacy,46,46,C:/Users/Carolyn/OneDrive/cp-subject-4.csv,legacy,Kafkaesque Koffka,3.2.8,0,h,NA,s,NA,NA,h,618,NA,115126,NA,NA,618,2,legacy,1024,2,48000,-16,experiment,HHHHH,4,even,120026,NA,NA,NA,NA,206341,4899,NA,NA,NA,4889,207485,207590,208210,207481,207589,Flankertask2,47,28328,47,yes,1024
100,100,605.3333333,605.3333333,black,legacy,legacy,legacy,0,incongruent,uniform,1,undefined,1,s,0,0,0,47,0,47,0,0,0,47,0,47,47,47,47,47,9/21/19 16:55,1500,The main experiment item,yes,Flankertask2.osexp,C:/Users/Carolyn/OneDrive,no,mono,no,18,no,white,no,no,768,legacy,47,47,C:/Users/Carolyn/OneDrive/cp-subject-4.csv,legacy,Kafkaesque Koffka,3.2.8,0,s,NA,s,NA,NA,s,728,NA,115126,NA,NA,728,2,legacy,1024,2,48000,-16,experiment,HHSHH,4,even,120026,NA,NA,NA,NA,208232,4899,NA,NA,NA,4889,209377,209480,210210,209372,209480,Flankertask2,48,29056,48,yes,1024
100,100,605.0612245,605.0612245,black,legacy,legacy,legacy,0,incongruent,uniform,1,undefined,1,h,0,0,0,48,0,48,0,0,0,48,0,48,48,48,48,48,9/21/19 16:55,1500,The main experiment item,yes,Flankertask2.osexp,C:/Users/Carolyn/OneDrive,no,mono,no,18,no,white,no,no,768,legacy,48,48,C:/Users/Carolyn/OneDrive/cp-subject-4.csv,legacy,Kafkaesque Koffka,3.2.8,0,h,NA,s,NA,NA,h,592,NA,115126,NA,NA,592,2,legacy,1024,2,48000,-16,experiment,SSHSS,4,even,120026,NA,NA,NA,NA,210224,4899,NA,NA,NA,4889,211369,211472,212066,211365,211472,Flankertask2,49,29648,49,yes,1024
100,100,602.66,602.66,black,legacy,legacy,legacy,0,congruent,uniform,1,undefined,1,s,0,0,0,49,0,49,0,0,0,49,0,49,49,49,49,49,9/21/19 16:55,1500,The main experiment item,yes,Flankertask2.osexp,C:/Users/Carolyn/OneDrive,no,mono,no,18,no,white,no,no,768,legacy,49,49,C:/Users/Carolyn/OneDrive/cp-subject-4.csv,legacy,Kafkaesque Koffka,3.2.8,0,s,NA,s,NA,NA,s,485,NA,115126,NA,NA,485,2,legacy,1024,2,48000,-16,experiment,SSSSS,4,even,120026,NA,NA,NA,NA,212083,4899,NA,NA,NA,4889,213228,213331,213821,213223,213331,Flankertask2,50,30133,50,yes,1024
100,100,599.3333333,599.3333333,black,legacy,legacy,legacy,0,incongruent,uniform,1,undefined,1,h,0,0,0,50,0,50,0,0,0,50,0,50,50,50,50,50,9/21/19 16:55,1500,The main experiment item,yes,Flankertask2.osexp,C:/Users/Carolyn/OneDrive,no,mono,no,18,no,white,no,no,768,legacy,50,50,C:/Users/Carolyn/OneDrive/cp-subject-4.csv,legacy,Kafkaesque Koffka,3.2.8,0,h,NA,s,NA,NA,h,433,NA,115126,NA,NA,433,2,legacy,1024,2,48000,-16,experiment,SSHSS,4,even,120026,NA,NA,NA,NA,213865,4899,NA,NA,NA,4889,215024,215127,215562,215020,215127,Flankertask2,51,30566,51,yes,1024
98.07692308,98.07692308,600.5576923,600.5576923,black,legacy,legacy,legacy,0,congruent,uniform,0,undefined,0,h,0,0,0,51,0,51,0,0,0,51,0,51,51,51,51,51,9/21/19 16:55,1500,The main experiment item,yes,Flankertask2.osexp,C:/Users/Carolyn/OneDrive,no,mono,no,18,no,white,no,no,768,legacy,51,51,C:/Users/Carolyn/OneDrive/cp-subject-4.csv,legacy,Kafkaesque Koffka,3.2.8,0,s,NA,s,NA,NA,s,663,NA,115126,NA,NA,663,2,legacy,1024,2,48000,-16,experiment,HHHHH,4,even,120026,NA,NA,NA,NA,215608,4899,NA,NA,NA,4889,216753,216857,217522,216748,216856,Flankertask2,51,31229,52,yes,1024
98.11320755,98.11320755,598.7924528,598.7924528,black,legacy,legacy,legacy,0,congruent,uniform,1,undefined,1,h,0,0,0,52,0,52,0,0,0,52,0,52,52,52,52,52,9/21/19 16:55,1500,The main experiment item,yes,Flankertask2.osexp,C:/Users/Carolyn/OneDrive,no,mono,no,18,no,white,no,no,768,legacy,52,52,C:/Users/Carolyn/OneDrive/cp-subject-4.csv,legacy,Kafkaesque Koffka,3.2.8,0,h,NA,s,NA,NA,h,507,NA,115126,NA,NA,507,2,legacy,1024,2,48000,-16,experiment,HHHHH,4,even,120026,NA,NA,NA,NA,218044,4899,NA,NA,217541,4889,219206,219309,219818,219201,219309,Flankertask2,52,31736,53,yes,1024
98.14814815,98.14814815,598.8518519,598.8518519,black,legacy,legacy,legacy,0,incongruent,uniform,1,undefined,1,h,0,0,0,53,0,53,0,0,0,53,0,53,53,53,53,53,9/21/19 16:55,1500,The main experiment item,yes,Flankertask2.osexp,C:/Users/Carolyn/OneDrive,no,mono,no,18,no,white,no,no,768,legacy,53,53,C:/Users/Carolyn/OneDrive/cp-subject-4.csv,legacy,Kafkaesque Koffka,3.2.8,0,h,NA,s,NA,NA,h,602,NA,115126,NA,NA,602,2,legacy,1024,2,48000,-16,experiment,SSHSS,4,even,120026,NA,NA,NA,NA,219854,4899,NA,NA,217541,4889,220998,221102,221706,220993,221101,Flankertask2,53,32338,54,yes,1024
98.18181818,98.18181818,597.4909091,597.4909091,black,legacy,legacy,legacy,0,incongruent,uniform,1,undefined,1,h,0,0,0,54,0,54,0,0,0,54,0,54,54,54,54,54,9/21/19 16:55,1500,The main experiment item,yes,Flankertask2.osexp,C:/Users/Carolyn/OneDrive,no,mono,no,18,no,white,no,no,768,legacy,54,54,C:/Users/Carolyn/OneDrive/cp-subject-4.csv,legacy,Kafkaesque Koffka,3.2.8,0,h,NA,s,NA,NA,h,524,NA,115126,NA,NA,524,2,legacy,1024,2,48000,-16,experiment,SSHSS,4,even,120026,NA,NA,NA,NA,221732,4899,NA,NA,217541,4889,222876,222980,223506,222872,222979,Flankertask2,54,32862,55,yes,1024
98.21428571,98.21428571,596.4821429,596.4821429,black,legacy,legacy,legacy,0,incongruent,uniform,1,undefined,1,h,0,0,0,55,0,55,0,0,0,55,0,55,55,55,55,55,9/21/19 16:55,1500,The main experiment item,yes,Flankertask2.osexp,C:/Users/Carolyn/OneDrive,no,mono,no,18,no,white,no,no,768,legacy,55,55,C:/Users/Carolyn/OneDrive/cp-subject-4.csv,legacy,Kafkaesque Koffka,3.2.8,0,h,NA,s,NA,NA,h,541,NA,115126,NA,NA,541,2,legacy,1024,2,48000,-16,experiment,SSHSS,4,even,120026,NA,NA,NA,NA,223524,4899,NA,NA,217541,4889,224668,224771,225314,224663,224771,Flankertask2,55,33403,56,yes,1024
98.24561404,98.24561404,596.754386,596.754386,black,legacy,legacy,legacy,0,congruent,uniform,1,undefined,1,h,0,0,0,56,0,56,0,0,0,56,0,56,56,56,56,56,9/21/19 16:55,1500,The main experiment item,yes,Flankertask2.osexp,C:/Users/Carolyn/OneDrive,no,mono,no,18,no,white,no,no,768,legacy,56,56,C:/Users/Carolyn/OneDrive/cp-subject-4.csv,legacy,Kafkaesque Koffka,3.2.8,0,h,NA,s,NA,NA,h,612,NA,115126,NA,NA,612,2,legacy,1024,2,48000,-16,experiment,HHHHH,4,even,120026,NA,NA,NA,NA,225341,4899,NA,NA,217541,4889,226485,226588,227202,226480,226588,Flankertask2,56,34015,57,yes,1024
98.27586207,98.27586207,597.637931,597.637931,black,legacy,legacy,legacy,0,incongruent,uniform,1,undefined,1,s,0,0,0,57,0,57,0,0,0,57,0,57,57,57,57,57,9/21/19 16:55,1500,The main experiment item,yes,Flankertask2.osexp,C:/Users/Carolyn/OneDrive,no,mono,no,18,no,white,no,no,768,legacy,57,57,C:/Users/Carolyn/OneDrive/cp-subject-4.csv,legacy,Kafkaesque Koffka,3.2.8,0,s,NA,s,NA,NA,s,648,NA,115126,NA,NA,648,2,legacy,1024,2,48000,-16,experiment,HHSHH,4,even,120026,NA,NA,NA,NA,227232,4899,NA,NA,217541,4889,228377,228480,229130,228372,228480,Flankertask2,57,34663,58,yes,1024
98.30508475,98.30508475,596.779661,596.779661,black,legacy,legacy,legacy,0,incongruent,uniform,1,undefined,1,h,0,0,0,58,0,58,0,0,0,58,0,58,58,58,58,58,9/21/19 16:55,1500,The main experiment item,yes,Flankertask2.osexp,C:/Users/Carolyn/OneDrive,no,mono,no,18,no,white,no,no,768,legacy,58,58,C:/Users/Carolyn/OneDrive/cp-subject-4.csv,legacy,Kafkaesque Koffka,3.2.8,0,h,NA,s,NA,NA,h,547,NA,115126,NA,NA,547,2,legacy,1024,2,48000,-16,experiment,SSHSS,4,even,120026,NA,NA,NA,NA,229149,4899,NA,NA,217541,4889,230294,230397,230946,230289,230397,Flankertask2,58,35210,59,yes,1024
96.66666667,96.66666667,598.9833333,598.9833333,black,legacy,legacy,legacy,0,incongruent,uniform,0,undefined,0,h,0,0,0,59,0,59,0,0,0,59,0,59,59,59,59,59,9/21/19 16:55,1500,The main experiment item,yes,Flankertask2.osexp,C:/Users/Carolyn/OneDrive,no,mono,no,18,no,white,no,no,768,legacy,59,59,C:/Users/Carolyn/OneDrive/cp-subject-4.csv,legacy,Kafkaesque Koffka,3.2.8,0,s,NA,s,NA,NA,s,729,NA,115126,NA,NA,729,2,legacy,1024,2,48000,-16,experiment,SSHSS,4,even,120026,NA,NA,NA,NA,230991,4899,NA,NA,217541,4889,232136,232239,232970,232131,232239,Flankertask2,58,35939,60,yes,1024
96.72131148,96.72131148,599.6721311,599.6721311,black,legacy,legacy,legacy,0,incongruent,uniform,1,undefined,1,s,0,0,0,60,0,60,0,0,0,60,0,60,60,60,60,60,9/21/19 16:55,1500,The main experiment item,yes,Flankertask2.osexp,C:/Users/Carolyn/OneDrive,no,mono,no,18,no,white,no,no,768,legacy,60,60,C:/Users/Carolyn/OneDrive/cp-subject-4.csv,legacy,Kafkaesque Koffka,3.2.8,0,s,NA,s,NA,NA,s,641,NA,115126,NA,NA,641,2,legacy,1024,2,48000,-16,experiment,HHSHH,4,even,120026,NA,NA,NA,NA,233494,4899,NA,NA,232991,4889,234640,234743,235386,234635,234743,Flankertask2,59,36580,61,yes,1024
96.77419355,96.77419355,600.2096774,600.2096774,black,legacy,legacy,legacy,0,congruent,uniform,1,undefined,1,s,0,0,0,61,0,61,0,0,0,61,0,61,61,61,61,61,9/21/19 16:55,1500,The main experiment item,yes,Flankertask2.osexp,C:/Users/Carolyn/OneDrive,no,mono,no,18,no,white,no,no,768,legacy,61,61,C:/Users/Carolyn/OneDrive/cp-subject-4.csv,legacy,Kafkaesque Koffka,3.2.8,0,s,NA,s,NA,NA,s,633,NA,115126,NA,NA,633,2,legacy,1024,2,48000,-16,experiment,SSSSS,4,even,120026,NA,NA,NA,NA,235407,4899,NA,NA,232991,4889,236552,236655,237290,236548,236655,Flankertask2,60,37213,62,yes,1024
96.82539683,96.82539683,600.6825397,600.6825397,black,legacy,legacy,legacy,0,congruent,uniform,1,undefined,1,s,0,0,0,62,0,62,0,0,0,62,0,62,62,62,62,62,9/21/19 16:55,1500,The main experiment item,yes,Flankertask2.osexp,C:/Users/Carolyn/OneDrive,no,mono,no,18,no,white,no,no,768,legacy,62,62,C:/Users/Carolyn/OneDrive/cp-subject-4.csv,legacy,Kafkaesque Koffka,3.2.8,0,s,NA,s,NA,NA,s,630,NA,115126,NA,NA,630,2,legacy,1024,2,48000,-16,experiment,SSSSS,4,even,120026,NA,NA,NA,NA,237307,4899,NA,NA,232991,4889,238451,238554,239186,238447,238554,Flankertask2,61,37843,63,yes,1024
96.875,96.875,599.28125,599.28125,black,legacy,legacy,legacy,0,congruent,uniform,1,undefined,1,h,0,0,0,63,0,63,0,0,0,63,0,63,63,63,63,63,9/21/19 16:55,1500,The main experiment item,yes,Flankertask2.osexp,C:/Users/Carolyn/OneDrive,no,mono,no,18,no,white,no,no,768,legacy,63,63,C:/Users/Carolyn/OneDrive/cp-subject-4.csv,legacy,Kafkaesque Koffka,3.2.8,0,h,NA,s,NA,NA,h,511,NA,115126,NA,NA,511,2,legacy,1024,2,48000,-16,experiment,HHHHH,4,even,120026,NA,NA,NA,NA,239207,4899,NA,NA,232991,4889,240369,240473,240986,240364,240472,Flankertask2,62,38354,64,yes,1024
96.92307692,96.92307692,599,599,black,legacy,legacy,legacy,0,congruent,uniform,1,undefined,1,h,0,0,0,64,0,64,0,0,0,64,0,64,64,64,64,64,9/21/19 16:55,1500,The main experiment item,yes,Flankertask2.osexp,C:/Users/Carolyn/OneDrive,no,mono,no,18,no,white,no,no,768,legacy,64,64,C:/Users/Carolyn/OneDrive/cp-subject-4.csv,legacy,Kafkaesque Koffka,3.2.8,0,h,NA,s,NA,NA,h,581,NA,115126,NA,NA,581,2,legacy,1024,2,48000,-16,experiment,HHHHH,4,even,120026,NA,NA,NA,NA,241007,4899,NA,NA,232991,4889,242155,242259,242842,242150,242258,Flankertask2,63,38935,65,yes,1024
96.96969697,96.96969697,600.0454545,600.0454545,black,legacy,legacy,legacy,0,incongruent,uniform,1,undefined,1,s,0,0,0,65,0,65,0,0,0,65,0,65,65,65,65,65,9/21/19 16:55,1500,The main experiment item,yes,Flankertask2.osexp,C:/Users/Carolyn/OneDrive,no,mono,no,18,no,white,no,no,768,legacy,65,65,C:/Users/Carolyn/OneDrive/cp-subject-4.csv,legacy,Kafkaesque Koffka,3.2.8,0,s,NA,s,NA,NA,s,668,NA,115126,NA,NA,668,2,legacy,1024,2,48000,-16,experiment,HHSHH,4,even,120026,NA,NA,NA,NA,242857,4899,NA,NA,232991,4889,244004,244108,244778,243999,244107,Flankertask2,64,39603,66,yes,1024
97.01492537,97.01492537,603.7164179,603.7164179,black,legacy,legacy,legacy,0,incongruent,uniform,1,undefined,1,s,0,0,0,66,0,66,0,0,0,66,0,66,66,66,66,66,9/21/19 16:55,1500,The main experiment item,yes,Flankertask2.osexp,C:/Users/Carolyn/OneDrive,no,mono,no,18,no,white,no,no,768,legacy,66,66,C:/Users/Carolyn/OneDrive/cp-subject-4.csv,legacy,Kafkaesque Koffka,3.2.8,0,s,NA,s,NA,NA,s,846,NA,115126,NA,NA,846,2,legacy,1024,2,48000,-16,experiment,HHSHH,4,even,120026,NA,NA,NA,NA,244807,4899,NA,NA,232991,4889,245954,246058,246906,245949,246057,Flankertask2,65,40449,67,yes,1024
97.05882353,97.05882353,604.0294118,604.0294118,black,legacy,legacy,legacy,0,congruent,uniform,1,undefined,1,h,0,0,0,67,0,67,0,0,0,67,0,67,67,67,67,67,9/21/19 16:55,1500,The main experiment item,yes,Flankertask2.osexp,C:/Users/Carolyn/OneDrive,no,mono,no,18,no,white,no,no,768,legacy,67,67,C:/Users/Carolyn/OneDrive/cp-subject-4.csv,legacy,Kafkaesque Koffka,3.2.8,0,h,NA,s,NA,NA,h,625,NA,115126,NA,NA,625,2,legacy,1024,2,48000,-16,experiment,HHHHH,4,even,120026,NA,NA,NA,NA,246924,4899,NA,NA,232991,4889,248072,248175,248806,248067,248175,Flankertask2,66,41074,68,yes,1024
97.10144928,97.10144928,606.2463768,606.2463768,black,legacy,legacy,legacy,0,incongruent,uniform,1,undefined,1,s,0,0,0,68,0,68,0,0,0,68,0,68,68,68,68,68,9/21/19 16:55,1500,The main experiment item,yes,Flankertask2.osexp,C:/Users/Carolyn/OneDrive,no,mono,no,18,no,white,no,no,768,legacy,68,68,C:/Users/Carolyn/OneDrive/cp-subject-4.csv,legacy,Kafkaesque Koffka,3.2.8,0,s,NA,s,NA,NA,s,757,NA,115126,NA,NA,757,2,legacy,1024,2,48000,-16,experiment,HHSHH,4,even,120026,NA,NA,NA,NA,248832,4899,NA,NA,232991,4889,250003,250107,250866,249998,250106,Flankertask2,67,41831,69,yes,1024
97.14285714,97.14285714,606.0285714,606.0285714,black,legacy,legacy,legacy,0,congruent,uniform,1,undefined,1,s,0,0,0,69,0,69,0,0,0,69,0,69,69,69,69,69,9/21/19 16:55,1500,The main experiment item,yes,Flankertask2.osexp,C:/Users/Carolyn/OneDrive,no,mono,no,18,no,white,no,no,768,legacy,69,69,C:/Users/Carolyn/OneDrive/cp-subject-4.csv,legacy,Kafkaesque Koffka,3.2.8,0,s,NA,s,NA,NA,s,591,NA,115126,NA,NA,591,2,legacy,1024,2,48000,-16,experiment,SSSSS,4,even,120026,NA,NA,NA,NA,250890,4899,NA,NA,232991,4889,252048,252153,252746,252043,252152,Flankertask2,68,42422,70,yes,1024
97.18309859,97.18309859,605.2957746,605.2957746,black,legacy,legacy,legacy,0,incongruent,uniform,1,undefined,1,s,0,0,0,70,0,70,0,0,0,70,0,70,70,70,70,70,9/21/19 16:55,1500,The main experiment item,yes,Flankertask2.osexp,C:/Users/Carolyn/OneDrive,no,mono,no,18,no,white,no,no,768,legacy,70,70,C:/Users/Carolyn/OneDrive/cp-subject-4.csv,legacy,Kafkaesque Koffka,3.2.8,0,s,NA,s,NA,NA,s,554,NA,115126,NA,NA,554,2,legacy,1024,2,48000,-16,experiment,HHSHH,4,even,120026,NA,NA,NA,NA,252774,4899,NA,NA,232991,4889,253918,254022,254578,253914,254022,Flankertask2,69,42976,71,yes,1024
97.22222222,97.22222222,606.4722222,606.4722222,black,legacy,legacy,legacy,0,congruent,uniform,1,undefined,1,h,0,0,0,71,0,71,0,0,0,71,0,71,71,71,71,71,9/21/19 16:55,1500,The main experiment item,yes,Flankertask2.osexp,C:/Users/Carolyn/OneDrive,no,mono,no,18,no,white,no,no,768,legacy,71,71,C:/Users/Carolyn/OneDrive/cp-subject-4.csv,legacy,Kafkaesque Koffka,3.2.8,0,h,NA,s,NA,NA,h,690,NA,115126,NA,NA,690,2,legacy,1024,2,48000,-16,experiment,HHHHH,4,even,120026,NA,NA,NA,NA,254599,4899,NA,NA,232991,4889,255743,255846,256538,255739,255846,Flankertask2,70,43666,72,yes,1024
97.26027397,97.26027397,605.3424658,605.3424658,black,legacy,legacy,legacy,0,incongruent,uniform,1,undefined,1,h,0,0,0,72,0,72,0,0,0,72,0,72,72,72,72,72,9/21/19 16:55,1500,The main experiment item,yes,Flankertask2.osexp,C:/Users/Carolyn/OneDrive,no,mono,no,18,no,white,no,no,768,legacy,72,72,C:/Users/Carolyn/OneDrive/cp-subject-4.csv,legacy,Kafkaesque Koffka,3.2.8,0,h,NA,s,NA,NA,h,524,NA,115126,NA,NA,524,2,legacy,1024,2,48000,-16,experiment,SSHSS,4,even,120026,NA,NA,NA,NA,256557,4899,NA,NA,232991,4889,257701,257804,258334,257697,257804,Flankertask2,71,44190,73,yes,1024
97.2972973,97.2972973,605.9864865,605.9864865,black,legacy,legacy,legacy,0,incongruent,uniform,1,undefined,1,s,0,0,0,73,0,73,0,0,0,73,0,73,73,73,73,73,9/21/19 16:55,1500,The main experiment item,yes,Flankertask2.osexp,C:/Users/Carolyn/OneDrive,no,mono,no,18,no,white,no,no,768,legacy,73,73,C:/Users/Carolyn/OneDrive/cp-subject-4.csv,legacy,Kafkaesque Koffka,3.2.8,0,s,NA,s,NA,NA,s,653,NA,115126,NA,NA,653,2,legacy,1024,2,48000,-16,experiment,HHSHH,4,even,120026,NA,NA,NA,NA,258365,4899,NA,NA,232991,4889,259531,259635,260290,259527,259635,Flankertask2,72,44843,74,yes,1024
97.33333333,97.33333333,604.9866667,604.9866667,black,legacy,legacy,legacy,0,incongruent,uniform,1,undefined,1,h,0,0,0,74,0,74,0,0,0,74,0,74,74,74,74,74,9/21/19 16:55,1500,The main experiment item,yes,Flankertask2.osexp,C:/Users/Carolyn/OneDrive,no,mono,no,18,no,white,no,no,768,legacy,74,74,C:/Users/Carolyn/OneDrive/cp-subject-4.csv,legacy,Kafkaesque Koffka,3.2.8,0,h,NA,s,NA,NA,h,531,NA,115126,NA,NA,531,2,legacy,1024,2,48000,-16,experiment,SSHSS,4,even,120026,NA,NA,NA,NA,260307,4899,NA,NA,232991,4889,261454,261557,262090,261450,261557,Flankertask2,73,45374,75,yes,1024
97.36842105,97.36842105,604.6842105,604.6842105,black,legacy,legacy,legacy,0,incongruent,uniform,1,undefined,1,h,0,0,0,75,0,75,0,0,0,75,0,75,75,75,75,75,9/21/19 16:55,1500,The main experiment item,yes,Flankertask2.osexp,C:/Users/Carolyn/OneDrive,no,mono,no,18,no,white,no,no,768,legacy,75,75,C:/Users/Carolyn/OneDrive/cp-subject-4.csv,legacy,Kafkaesque Koffka,3.2.8,0,h,NA,s,NA,NA,h,582,NA,115126,NA,NA,582,2,legacy,1024,2,48000,-16,experiment,SSHSS,4,even,120026,NA,NA,NA,NA,262115,4899,NA,NA,232991,4889,263259,263362,263946,263254,263362,Flankertask2,74,45956,76,yes,1024
97.4025974,97.4025974,604.5584416,604.5584416,black,legacy,legacy,legacy,0,incongruent,uniform,1,undefined,1,h,0,0,0,76,0,76,0,0,0,76,0,76,76,76,76,76,9/21/19 16:55,1500,The main experiment item,yes,Flankertask2.osexp,C:/Users/Carolyn/OneDrive,no,mono,no,18,no,white,no,no,768,legacy,76,76,C:/Users/Carolyn/OneDrive/cp-subject-4.csv,legacy,Kafkaesque Koffka,3.2.8,0,h,NA,s,NA,NA,h,595,NA,115126,NA,NA,595,2,legacy,1024,2,48000,-16,experiment,SSHSS,4,even,120026,NA,NA,NA,NA,263973,4899,NA,NA,232991,4889,265118,265221,265823,265113,265221,Flankertask2,75,46551,77,yes,1024
97.43589744,97.43589744,605.1153846,605.1153846,black,legacy,legacy,legacy,0,incongruent,uniform,1,undefined,1,s,0,0,0,77,0,77,0,0,0,77,0,77,77,77,77,77,9/21/19 16:55,1500,The main experiment item,yes,Flankertask2.osexp,C:/Users/Carolyn/OneDrive,no,mono,no,18,no,white,no,no,768,legacy,77,77,C:/Users/Carolyn/OneDrive/cp-subject-4.csv,legacy,Kafkaesque Koffka,3.2.8,0,s,NA,s,NA,NA,s,648,NA,115126,NA,NA,648,2,legacy,1024,2,48000,-16,experiment,HHSHH,4,even,120026,NA,NA,NA,NA,265840,4899,NA,NA,232991,4889,266985,267088,267738,266980,267088,Flankertask2,76,47199,78,yes,1024
97.46835443,97.46835443,605.4936709,605.4936709,black,legacy,legacy,legacy,0,congruent,uniform,1,undefined,1,s,0,0,0,78,0,78,0,0,0,78,0,78,78,78,78,78,9/21/19 16:55,1500,The main experiment item,yes,Flankertask2.osexp,C:/Users/Carolyn/OneDrive,no,mono,no,18,no,white,no,no,768,legacy,78,78,C:/Users/Carolyn/OneDrive/cp-subject-4.csv,legacy,Kafkaesque Koffka,3.2.8,0,s,NA,s,NA,NA,s,635,NA,115126,NA,NA,635,2,legacy,1024,2,48000,-16,experiment,SSSSS,4,even,120026,NA,NA,NA,NA,267757,4899,NA,NA,232991,4889,268910,269013,269650,268905,269013,Flankertask2,77,47834,79,yes,1024
97.5,97.5,606.125,606.125,black,legacy,legacy,legacy,0,congruent,uniform,1,undefined,1,s,0,0,0,79,0,79,0,0,0,79,0,79,79,79,79,79,9/21/19 16:55,1500,The main experiment item,yes,Flankertask2.osexp,C:/Users/Carolyn/OneDrive,no,mono,no,18,no,white,no,no,768,legacy,79,79,C:/Users/Carolyn/OneDrive/cp-subject-4.csv,legacy,Kafkaesque Koffka,3.2.8,0,s,NA,s,NA,NA,s,656,NA,115126,NA,NA,656,2,legacy,1024,2,48000,-16,experiment,SSSSS,4,even,120026,NA,NA,NA,NA,269665,4899,NA,NA,232991,4889,270809,270912,271570,270804,270912,Flankertask2,78,48490,80,yes,1024
97.5308642,97.5308642,607.0987654,607.0987654,black,legacy,legacy,legacy,0,congruent,uniform,1,undefined,1,h,0,0,0,80,0,80,0,0,0,80,0,80,80,80,80,80,9/21/19 16:55,600,The main experiment item,yes,Flankertask2.osexp,C:/Users/Carolyn/OneDrive,no,mono,no,18,no,white,no,no,768,legacy,0,79,C:/Users/Carolyn/OneDrive/cp-subject-4.csv,legacy,Kafkaesque Koffka,3.2.8,0,h,NA,s,h,NA,h,685,NA,115126,1862,NA,685,2,legacy,1024,2,48000,-16,experiment,HHHHH,4,even,120026,274482,NA,NA,NA,271590,4899,272618,NA,232991,4889,274619,274723,275414,274615,274722,Flankertask2,79,49175,81,yes,1024
96.34146341,96.34146341,603.5,603.5,black,legacy,legacy,legacy,0,incongruent,uniform,0,undefined,0,h,0,0,0,81,0,81,0,0,0,81,0,81,81,81,81,81,9/21/19 16:55,600,The main experiment item,yes,Flankertask2.osexp,C:/Users/Carolyn/OneDrive,no,mono,no,18,no,white,no,no,768,legacy,1,79,C:/Users/Carolyn/OneDrive/cp-subject-4.csv,legacy,Kafkaesque Koffka,3.2.8,0,s,NA,s,h,NA,s,312,NA,115126,1862,NA,312,2,legacy,1024,2,48000,-16,experiment,SSHSS,4,even,120026,274482,NA,275465,NA,275968,4899,272618,NA,232991,4889,277113,277216,277534,277108,277216,Flankertask2,79,49487,82,yes,1024
96.38554217,96.38554217,602.1686747,602.1686747,black,legacy,legacy,legacy,0,incongruent,uniform,1,undefined,1,h,0,0,0,82,0,82,0,0,0,82,0,82,82,82,82,82,9/21/19 16:55,600,The main experiment item,yes,Flankertask2.osexp,C:/Users/Carolyn/OneDrive,no,mono,no,18,no,white,no,no,768,legacy,2,79,C:/Users/Carolyn/OneDrive/cp-subject-4.csv,legacy,Kafkaesque Koffka,3.2.8,0,h,NA,s,h,NA,h,493,NA,115126,1862,NA,493,2,legacy,1024,2,48000,-16,experiment,SSHSS,4,even,120026,274482,NA,275465,NA,278060,4899,272618,NA,277557,4889,279204,279307,279802,279200,279307,Flankertask2,80,49980,83,yes,1024
96.42857143,96.42857143,600.8095238,600.8095238,black,legacy,legacy,legacy,0,incongruent,uniform,1,undefined,1,h,0,0,0,83,0,83,0,0,0,83,0,83,83,83,83,83,9/21/19 16:55,600,The main experiment item,yes,Flankertask2.osexp,C:/Users/Carolyn/OneDrive,no,mono,no,18,no,white,no,no,768,legacy,3,79,C:/Users/Carolyn/OneDrive/cp-subject-4.csv,legacy,Kafkaesque Koffka,3.2.8,0,h,NA,s,h,NA,h,488,NA,115126,1862,NA,488,2,legacy,1024,2,48000,-16,experiment,SSHSS,4,even,120026,274482,NA,275465,NA,279840,4899,272618,NA,277557,4889,280985,281088,281578,280980,281088,Flankertask2,81,50468,84,yes,1024
96.47058824,96.47058824,598.9294118,598.9294118,black,legacy,legacy,legacy,0,congruent,uniform,1,undefined,1,h,0,0,0,84,0,84,0,0,0,84,0,84,84,84,84,84,9/21/19 16:55,600,The main experiment item,yes,Flankertask2.osexp,C:/Users/Carolyn/OneDrive,no,mono,no,18,no,white,no,no,768,legacy,4,79,C:/Users/Carolyn/OneDrive/cp-subject-4.csv,legacy,Kafkaesque Koffka,3.2.8,0,h,NA,s,h,NA,h,441,NA,115126,1862,NA,441,2,legacy,1024,2,48000,-16,experiment,HHHHH,4,even,120026,274482,NA,275465,NA,281598,4899,272618,NA,277557,4889,282744,282847,283290,282739,282847,Flankertask2,82,50909,85,yes,1024
95.34883721,95.34883721,596.2093023,596.2093023,black,legacy,legacy,legacy,0,incongruent,uniform,0,undefined,0,h,0,0,0,85,0,85,0,0,0,85,0,85,85,85,85,85,9/21/19 16:55,600,The main experiment item,yes,Flankertask2.osexp,C:/Users/Carolyn/OneDrive,no,mono,no,18,no,white,no,no,768,legacy,5,79,C:/Users/Carolyn/OneDrive/cp-subject-4.csv,legacy,Kafkaesque Koffka,3.2.8,0,s,NA,s,h,NA,s,365,NA,115126,1862,NA,365,2,legacy,1024,2,48000,-16,experiment,SSHSS,4,even,120026,274482,NA,275465,NA,283315,4899,272618,NA,277557,4889,284460,284563,284935,284455,284563,Flankertask2,82,51274,86,yes,1024
95.40229885,95.40229885,594.3793103,594.3793103,black,legacy,legacy,legacy,0,congruent,uniform,1,undefined,1,h,0,0,0,86,0,86,0,0,0,86,0,86,86,86,86,86,9/21/19 16:55,600,The main experiment item,yes,Flankertask2.osexp,C:/Users/Carolyn/OneDrive,no,mono,no,18,no,white,no,no,768,legacy,6,79,C:/Users/Carolyn/OneDrive/cp-subject-4.csv,legacy,Kafkaesque Koffka,3.2.8,0,h,NA,s,h,NA,h,437,NA,115126,1862,NA,437,2,legacy,1024,2,48000,-16,experiment,HHHHH,4,even,120026,274482,NA,275465,NA,285460,4899,272618,NA,284957,4889,286604,286707,287146,286600,286707,Flankertask2,83,51711,87,yes,1024
95.45454545,95.45454545,592.4886364,592.4886364,black,legacy,legacy,legacy,0,congruent,uniform,1,undefined,1,h,0,0,0,87,0,87,0,0,0,87,0,87,87,87,87,87,9/21/19 16:55,600,The main experiment item,yes,Flankertask2.osexp,C:/Users/Carolyn/OneDrive,no,mono,no,18,no,white,no,no,768,legacy,7,79,C:/Users/Carolyn/OneDrive/cp-subject-4.csv,legacy,Kafkaesque Koffka,3.2.8,0,h,NA,s,h,NA,h,428,NA,115126,1862,NA,428,2,legacy,1024,2,48000,-16,experiment,HHHHH,4,even,120026,274482,NA,275465,NA,287173,4899,272618,NA,284957,4889,288317,288420,288850,288313,288420,Flankertask2,84,52139,88,yes,1024
95.50561798,95.50561798,590.7640449,590.7640449,black,legacy,legacy,legacy,0,congruent,uniform,1,undefined,1,h,0,0,0,88,0,88,0,0,0,88,0,88,88,88,88,88,9/21/19 16:55,600,The main experiment item,yes,Flankertask2.osexp,C:/Users/Carolyn/OneDrive,no,mono,no,18,no,white,no,no,768,legacy,8,79,C:/Users/Carolyn/OneDrive/cp-subject-4.csv,legacy,Kafkaesque Koffka,3.2.8,0,h,NA,s,h,NA,h,439,NA,115126,1862,NA,439,2,legacy,1024,2,48000,-16,experiment,HHHHH,4,even,120026,274482,NA,275465,NA,288865,4899,272618,NA,284957,4889,290009,290113,290554,290005,290112,Flankertask2,85,52578,89,yes,1024
95.55555556,95.55555556,590.1444444,590.1444444,black,legacy,legacy,legacy,0,incongruent,uniform,1,undefined,1,h,0,0,0,89,0,89,0,0,0,89,0,89,89,89,89,89,9/21/19 16:55,600,The main experiment item,yes,Flankertask2.osexp,C:/Users/Carolyn/OneDrive,no,mono,no,18,no,white,no,no,768,legacy,9,79,C:/Users/Carolyn/OneDrive/cp-subject-4.csv,legacy,Kafkaesque Koffka,3.2.8,0,h,NA,s,h,NA,h,535,NA,115126,1862,NA,535,2,legacy,1024,2,48000,-16,experiment,SSHSS,4,even,120026,274482,NA,275465,NA,290581,4899,272618,NA,284957,4889,291729,291833,292376,291724,291832,Flankertask2,86,53113,90,yes,1024
95.6043956,95.6043956,588.3186813,588.3186813,black,legacy,legacy,legacy,0,congruent,uniform,1,undefined,1,h,0,0,0,90,0,90,0,0,0,90,0,90,90,90,90,90,9/21/19 16:55,600,The main experiment item,yes,Flankertask2.osexp,C:/Users/Carolyn/OneDrive,no,mono,no,18,no,white,no,no,768,legacy,10,79,C:/Users/Carolyn/OneDrive/cp-subject-4.csv,legacy,Kafkaesque Koffka,3.2.8,0,h,NA,s,h,NA,h,424,NA,115126,1862,NA,424,2,legacy,1024,2,48000,-16,experiment,HHHHH,4,even,120026,274482,NA,275465,NA,292406,4899,272618,NA,284957,4889,293552,293656,294082,293547,293655,Flankertask2,87,53537,91,yes,1024
95.65217391,95.65217391,586.8478261,586.8478261,black,legacy,legacy,legacy,0,congruent,uniform,1,undefined,1,s,0,0,0,91,0,91,0,0,0,91,0,91,91,91,91,91,9/21/19 16:55,600,The main experiment item,yes,Flankertask2.osexp,C:/Users/Carolyn/OneDrive,no,mono,no,18,no,white,no,no,768,legacy,11,79,C:/Users/Carolyn/OneDrive/cp-subject-4.csv,legacy,Kafkaesque Koffka,3.2.8,0,s,NA,s,h,NA,s,453,NA,115126,1862,NA,453,2,legacy,1024,2,48000,-16,experiment,SSSSS,4,even,120026,274482,NA,275465,NA,294098,4899,272618,NA,284957,4889,295244,295347,295802,295239,295347,Flankertask2,88,53990,92,yes,1024
95.69892473,95.69892473,586.1075269,586.1075269,black,legacy,legacy,legacy,0,incongruent,uniform,1,undefined,1,h,0,0,0,92,0,92,0,0,0,92,0,92,92,92,92,92,9/21/19 16:55,600,The main experiment item,yes,Flankertask2.osexp,C:/Users/Carolyn/OneDrive,no,mono,no,18,no,white,no,no,768,legacy,12,79,C:/Users/Carolyn/OneDrive/cp-subject-4.csv,legacy,Kafkaesque Koffka,3.2.8,0,h,NA,s,h,NA,h,518,NA,115126,1862,NA,518,2,legacy,1024,2,48000,-16,experiment,SSHSS,4,even,120026,274482,NA,275465,NA,295832,4899,272618,NA,284957,4889,296978,297082,297608,296974,297081,Flankertask2,89,54508,93,yes,1024
94.68085106,94.68085106,584.2021277,584.2021277,black,legacy,legacy,legacy,0,congruent,uniform,0,undefined,0,s,0,0,0,93,0,93,0,0,0,93,0,93,93,93,93,93,9/21/19 16:55,600,The main experiment item,yes,Flankertask2.osexp,C:/Users/Carolyn/OneDrive,no,mono,no,18,no,white,no,no,768,legacy,13,79,C:/Users/Carolyn/OneDrive/cp-subject-4.csv,legacy,Kafkaesque Koffka,3.2.8,0,h,NA,s,h,NA,h,407,NA,115126,1862,NA,407,2,legacy,1024,2,48000,-16,experiment,SSSSS,4,even,120026,274482,NA,275465,NA,297640,4899,272618,NA,284957,4889,298810,298913,299322,298805,298913,Flankertask2,89,54915,94,yes,1024
94.73684211,94.73684211,583.6526316,583.6526316,black,legacy,legacy,legacy,0,congruent,uniform,1,undefined,1,s,0,0,0,94,0,94,0,0,0,94,0,94,94,94,94,94,9/21/19 16:55,600,The main experiment item,yes,Flankertask2.osexp,C:/Users/Carolyn/OneDrive,no,mono,no,18,no,white,no,no,768,legacy,14,79,C:/Users/Carolyn/OneDrive/cp-subject-4.csv,legacy,Kafkaesque Koffka,3.2.8,0,s,NA,s,h,NA,s,532,NA,115126,1862,NA,532,2,legacy,1024,2,48000,-16,experiment,SSSSS,4,even,120026,274482,NA,275465,NA,299851,4899,272618,NA,299348,4889,300997,301100,301634,300992,301100,Flankertask2,90,55447,95,yes,1024
94.79166667,94.79166667,586.8645833,586.8645833,black,legacy,legacy,legacy,0,incongruent,uniform,1,undefined,1,s,0,0,0,95,0,95,0,0,0,95,0,95,95,95,95,95,9/21/19 16:55,600,The main experiment item,yes,Flankertask2.osexp,C:/Users/Carolyn/OneDrive,no,mono,no,18,no,white,no,no,768,legacy,15,79,C:/Users/Carolyn/OneDrive/cp-subject-4.csv,legacy,Kafkaesque Koffka,3.2.8,0,s,NA,s,h,NA,s,892,NA,115126,1862,NA,892,2,legacy,1024,2,48000,-16,experiment,HHSHH,4,even,120026,274482,NA,275465,NA,301656,4899,272618,NA,299348,4889,302805,302908,303802,302800,302908,Flankertask2,91,56339,96,yes,1024
94.84536082,94.84536082,586.2783505,586.2783505,black,legacy,legacy,legacy,0,congruent,uniform,1,undefined,1,s,0,0,0,96,0,96,0,0,0,96,0,96,96,96,96,96,9/21/19 16:55,600,The main experiment item,yes,Flankertask2.osexp,C:/Users/Carolyn/OneDrive,no,mono,no,18,no,white,no,no,768,legacy,16,79,C:/Users/Carolyn/OneDrive/cp-subject-4.csv,legacy,Kafkaesque Koffka,3.2.8,0,s,NA,s,h,NA,s,530,NA,115126,1862,NA,530,2,legacy,1024,2,48000,-16,experiment,SSSSS,4,even,120026,274482,NA,303831,NA,304335,4899,272618,NA,299348,4889,305479,305582,306114,305475,305582,Flankertask2,92,56869,97,yes,1024
94.89795918,94.89795918,585.6428571,585.6428571,black,legacy,legacy,legacy,0,incongruent,uniform,1,undefined,1,s,0,0,0,97,0,97,0,0,0,97,0,97,97,97,97,97,9/21/19 16:55,600,The main experiment item,yes,Flankertask2.osexp,C:/Users/Carolyn/OneDrive,no,mono,no,18,no,white,no,no,768,legacy,17,79,C:/Users/Carolyn/OneDrive/cp-subject-4.csv,legacy,Kafkaesque Koffka,3.2.8,0,s,NA,s,h,NA,s,524,NA,115126,1862,NA,524,2,legacy,1024,2,48000,-16,experiment,HHSHH,4,even,120026,274482,NA,303831,NA,306131,4899,272618,NA,299348,4889,307277,307380,307906,307272,307380,Flankertask2,93,57393,98,yes,1024
94.94949495,94.94949495,584.1010101,584.1010101,black,legacy,legacy,legacy,0,congruent,uniform,1,undefined,1,s,0,0,0,98,0,98,0,0,0,98,0,98,98,98,98,98,9/21/19 16:55,600,The main experiment item,yes,Flankertask2.osexp,C:/Users/Carolyn/OneDrive,no,mono,no,18,no,white,no,no,768,legacy,18,79,C:/Users/Carolyn/OneDrive/cp-subject-4.csv,legacy,Kafkaesque Koffka,3.2.8,0,s,NA,s,h,NA,s,433,NA,115126,1862,NA,433,2,legacy,1024,2,48000,-16,experiment,SSSSS,4,even,120026,274482,NA,303831,NA,307931,4899,272618,NA,299348,4889,309079,309183,309618,309075,309183,Flankertask2,94,57826,99,yes,1024
95,95,582.51,582.51,black,legacy,legacy,legacy,0,congruent,uniform,1,undefined,1,s,0,0,0,99,0,99,0,0,0,99,0,99,99,99,99,99,9/21/19 16:55,600,The main experiment item,yes,Flankertask2.osexp,C:/Users/Carolyn/OneDrive,no,mono,no,18,no,white,no,no,768,legacy,19,79,C:/Users/Carolyn/OneDrive/cp-subject-4.csv,legacy,Kafkaesque Koffka,3.2.8,0,s,NA,s,h,NA,s,425,NA,115126,1862,NA,425,2,legacy,1024,2,48000,-16,experiment,SSSSS,4,even,120026,274482,NA,303831,NA,309656,4899,272618,NA,299348,4889,310800,310903,311330,310795,310903,Flankertask2,95,58251,100,yes,1024
95.04950495,95.04950495,580.6633663,580.6633663,black,legacy,legacy,legacy,0,congruent,uniform,1,undefined,1,h,0,0,0,100,0,100,0,0,0,100,0,100,100,100,100,100,9/21/19 16:55,600,The main experiment item,yes,Flankertask2.osexp,C:/Users/Carolyn/OneDrive,no,mono,no,18,no,white,no,no,768,legacy,20,79,C:/Users/Carolyn/OneDrive/cp-subject-4.csv,legacy,Kafkaesque Koffka,3.2.8,0,h,NA,s,h,NA,h,396,NA,115126,1862,NA,396,2,legacy,1024,2,48000,-16,experiment,HHHHH,4,even,120026,274482,NA,303831,NA,311348,4899,272618,NA,299348,4889,312493,312596,312994,312488,312596,Flankertask2,96,58647,101,yes,1024
95.09803922,95.09803922,579.754902,579.754902,black,legacy,legacy,legacy,0,incongruent,uniform,1,undefined,1,h,0,0,0,101,0,101,0,0,0,101,0,101,101,101,101,101,9/21/19 16:55,600,The main experiment item,yes,Flankertask2.osexp,C:/Users/Carolyn/OneDrive,no,mono,no,18,no,white,no,no,768,legacy,21,79,C:/Users/Carolyn/OneDrive/cp-subject-4.csv,legacy,Kafkaesque Koffka,3.2.8,0,h,NA,s,h,NA,h,488,NA,115126,1862,NA,488,2,legacy,1024,2,48000,-16,experiment,SSHSS,4,even,120026,274482,NA,303831,NA,313040,4899,272618,NA,299348,4889,314184,314288,314778,314179,314287,Flankertask2,97,59135,102,yes,1024
95.14563107,95.14563107,579.4368932,579.4368932,black,legacy,legacy,legacy,0,incongruent,uniform,1,undefined,1,h,0,0,0,102,0,102,0,0,0,102,0,102,102,102,102,102,9/21/19 16:55,600,The main experiment item,yes,Flankertask2.osexp,C:/Users/Carolyn/OneDrive,no,mono,no,18,no,white,no,no,768,legacy,22,79,C:/Users/Carolyn/OneDrive/cp-subject-4.csv,legacy,Kafkaesque Koffka,3.2.8,0,h,NA,s,h,NA,h,547,NA,115126,1862,NA,547,2,legacy,1024,2,48000,-16,experiment,SSHSS,4,even,120026,274482,NA,303831,NA,314806,4899,272618,NA,299348,4889,315950,316053,316602,315946,316053,Flankertask2,98,59682,103,yes,1024
95.19230769,95.19230769,578.7884615,578.7884615,black,legacy,legacy,legacy,0,incongruent,uniform,1,undefined,1,h,0,0,0,103,0,103,0,0,0,103,0,103,103,103,103,103,9/21/19 16:55,600,The main experiment item,yes,Flankertask2.osexp,C:/Users/Carolyn/OneDrive,no,mono,no,18,no,white,no,no,768,legacy,23,79,C:/Users/Carolyn/OneDrive/cp-subject-4.csv,legacy,Kafkaesque Koffka,3.2.8,0,h,NA,s,h,NA,h,512,NA,115126,1862,NA,512,2,legacy,1024,2,48000,-16,experiment,SSHSS,4,even,120026,274482,NA,303831,NA,316631,4899,272618,NA,299348,4889,317776,317880,318394,317772,317880,Flankertask2,99,60194,104,yes,1024
95.23809524,95.23809524,577.5428571,577.5428571,black,legacy,legacy,legacy,0,incongruent,uniform,1,undefined,1,h,0,0,0,104,0,104,0,0,0,104,0,104,104,104,104,104,9/21/19 16:55,600,The main experiment item,yes,Flankertask2.osexp,C:/Users/Carolyn/OneDrive,no,mono,no,18,no,white,no,no,768,legacy,24,79,C:/Users/Carolyn/OneDrive/cp-subject-4.csv,legacy,Kafkaesque Koffka,3.2.8,0,h,NA,s,h,NA,h,448,NA,115126,1862,NA,448,2,legacy,1024,2,48000,-16,experiment,SSHSS,4,even,120026,274482,NA,303831,NA,318423,4899,272618,NA,299348,4889,319568,319672,320122,319563,319671,Flankertask2,100,60642,105,yes,1024
95.28301887,95.28301887,577.0377358,577.0377358,black,legacy,legacy,legacy,0,congruent,uniform,1,undefined,1,h,0,0,0,105,0,105,0,0,0,105,0,105,105,105,105,105,9/21/19 16:55,600,The main experiment item,yes,Flankertask2.osexp,C:/Users/Carolyn/OneDrive,no,mono,no,18,no,white,no,no,768,legacy,25,79,C:/Users/Carolyn/OneDrive/cp-subject-4.csv,legacy,Kafkaesque Koffka,3.2.8,0,h,NA,s,h,NA,h,524,NA,115126,1862,NA,524,2,legacy,1024,2,48000,-16,experiment,HHHHH,4,even,120026,274482,NA,303831,NA,320148,4899,272618,NA,299348,4889,321292,321396,321922,321288,321396,Flankertask2,101,61166,106,yes,1024
95.3271028,95.3271028,576.3271028,576.3271028,black,legacy,legacy,legacy,0,congruent,uniform,1,undefined,1,s,0,0,0,106,0,106,0,0,0,106,0,106,106,106,106,106,9/21/19 16:55,600,The main experiment item,yes,Flankertask2.osexp,C:/Users/Carolyn/OneDrive,no,mono,no,18,no,white,no,no,768,legacy,26,79,C:/Users/Carolyn/OneDrive/cp-subject-4.csv,legacy,Kafkaesque Koffka,3.2.8,0,s,NA,s,h,NA,s,501,NA,115126,1862,NA,501,2,legacy,1024,2,48000,-16,experiment,SSSSS,4,even,120026,274482,NA,303831,NA,321948,4899,272618,NA,299348,4889,323092,323195,323698,323088,323195,Flankertask2,102,61667,107,yes,1024
95.37037037,95.37037037,575.5462963,575.5462963,black,legacy,legacy,legacy,0,congruent,uniform,1,undefined,1,h,0,0,0,107,0,107,0,0,0,107,0,107,107,107,107,107,9/21/19 16:55,600,The main experiment item,yes,Flankertask2.osexp,C:/Users/Carolyn/OneDrive,no,mono,no,18,no,white,no,no,768,legacy,27,79,C:/Users/Carolyn/OneDrive/cp-subject-4.csv,legacy,Kafkaesque Koffka,3.2.8,0,h,NA,s,h,NA,h,492,NA,115126,1862,NA,492,2,legacy,1024,2,48000,-16,experiment,HHHHH,4,even,120026,274482,NA,303831,NA,323715,4899,272618,NA,299348,4889,324868,324972,325466,324864,324972,Flankertask2,103,62159,108,yes,1024
95.41284404,95.41284404,574.3486239,574.3486239,black,legacy,legacy,legacy,0,congruent,uniform,1,undefined,1,h,0,0,0,108,0,108,0,0,0,108,0,108,108,108,108,108,9/21/19 16:55,600,The main experiment item,yes,Flankertask2.osexp,C:/Users/Carolyn/OneDrive,no,mono,no,18,no,white,no,no,768,legacy,28,79,C:/Users/Carolyn/OneDrive/cp-subject-4.csv,legacy,Kafkaesque Koffka,3.2.8,0,h,NA,s,h,NA,h,445,NA,115126,1862,NA,445,2,legacy,1024,2,48000,-16,experiment,HHHHH,4,even,120026,274482,NA,303831,NA,325514,4899,272618,NA,299348,4889,326659,326763,327210,326655,326763,Flankertask2,104,62604,109,yes,1024
95.45454545,95.45454545,574.1636364,574.1636364,black,legacy,legacy,legacy,0,congruent,uniform,1,undefined,1,s,0,0,0,109,0,109,0,0,0,109,0,109,109,109,109,109,9/21/19 16:55,600,The main experiment item,yes,Flankertask2.osexp,C:/Users/Carolyn/OneDrive,no,mono,no,18,no,white,no,no,768,legacy,29,79,C:/Users/Carolyn/OneDrive/cp-subject-4.csv,legacy,Kafkaesque Koffka,3.2.8,0,s,NA,s,h,NA,s,554,NA,115126,1862,NA,554,2,legacy,1024,2,48000,-16,experiment,SSSSS,4,even,120026,274482,NA,303831,NA,327239,4899,272618,NA,299348,4889,328383,328486,329042,328378,328486,Flankertask2,105,63158,110,yes,1024
95.4954955,95.4954955,573.3063063,573.3063063,black,legacy,legacy,legacy,0,congruent,uniform,1,undefined,1,h,0,0,0,110,0,110,0,0,0,110,0,110,110,110,110,110,9/21/19 16:55,600,The main experiment item,yes,Flankertask2.osexp,C:/Users/Carolyn/OneDrive,no,mono,no,18,no,white,no,no,768,legacy,30,79,C:/Users/Carolyn/OneDrive/cp-subject-4.csv,legacy,Kafkaesque Koffka,3.2.8,0,h,NA,s,h,NA,h,479,NA,115126,1862,NA,479,2,legacy,1024,2,48000,-16,experiment,HHHHH,4,even,120026,274482,NA,303831,NA,329072,4899,272618,NA,299348,4889,330242,330346,330828,330237,330346,Flankertask2,106,63637,111,yes,1024
95.53571429,95.53571429,573.7142857,573.7142857,black,legacy,legacy,legacy,0,incongruent,uniform,1,undefined,1,s,0,0,0,111,0,111,0,0,0,111,0,111,111,111,111,111,9/21/19 16:55,600,The main experiment item,yes,Flankertask2.osexp,C:/Users/Carolyn/OneDrive,no,mono,no,18,no,white,no,no,768,legacy,31,79,C:/Users/Carolyn/OneDrive/cp-subject-4.csv,legacy,Kafkaesque Koffka,3.2.8,0,s,NA,s,h,NA,s,619,NA,115126,1862,NA,619,2,legacy,1024,2,48000,-16,experiment,HHSHH,4,even,120026,274482,NA,303831,NA,330857,4899,272618,NA,299348,4889,332005,332110,332731,332001,332110,Flankertask2,107,64256,112,yes,1024
95.57522124,95.57522124,573.2212389,573.2212389,black,legacy,legacy,legacy,0,incongruent,uniform,1,undefined,1,h,0,0,0,112,0,112,0,0,0,112,0,112,112,112,112,112,9/21/19 16:55,600,The main experiment item,yes,Flankertask2.osexp,C:/Users/Carolyn/OneDrive,no,mono,no,18,no,white,no,no,768,legacy,32,79,C:/Users/Carolyn/OneDrive/cp-subject-4.csv,legacy,Kafkaesque Koffka,3.2.8,0,h,NA,s,h,NA,h,518,NA,115126,1862,NA,518,2,legacy,1024,2,48000,-16,experiment,SSHSS,4,even,120026,274482,NA,332757,NA,333261,4899,272618,NA,299348,4889,334419,334523,335043,334414,334523,Flankertask2,108,64774,113,yes,1024
95.61403509,95.61403509,572.0964912,572.0964912,black,legacy,legacy,legacy,0,congruent,uniform,1,undefined,1,h,0,0,0,113,0,113,0,0,0,113,0,113,113,113,113,113,9/21/19 16:55,600,The main experiment item,yes,Flankertask2.osexp,C:/Users/Carolyn/OneDrive,no,mono,no,18,no,white,no,no,768,legacy,33,79,C:/Users/Carolyn/OneDrive/cp-subject-4.csv,legacy,Kafkaesque Koffka,3.2.8,0,h,NA,s,h,NA,h,445,NA,115126,1862,NA,445,2,legacy,1024,2,48000,-16,experiment,HHHHH,4,even,120026,274482,NA,332757,NA,335073,4899,272618,NA,299348,4889,336221,336324,336771,336216,336324,Flankertask2,109,65219,114,yes,1024
95.65217391,95.65217391,572.0695652,572.0695652,black,legacy,legacy,legacy,0,incongruent,uniform,1,undefined,1,h,0,0,0,114,0,114,0,0,0,114,0,114,114,114,114,114,9/21/19 16:55,600,The main experiment item,yes,Flankertask2.osexp,C:/Users/Carolyn/OneDrive,no,mono,no,18,no,white,no,no,768,legacy,34,79,C:/Users/Carolyn/OneDrive/cp-subject-4.csv,legacy,Kafkaesque Koffka,3.2.8,0,h,NA,s,h,NA,h,569,NA,115126,1862,NA,569,2,legacy,1024,2,48000,-16,experiment,SSHSS,4,even,120026,274482,NA,332757,NA,336799,4899,272618,NA,299348,4889,337945,338048,338627,337941,338048,Flankertask2,110,65788,115,yes,1024
95.68965517,95.68965517,571.1896552,571.1896552,black,legacy,legacy,legacy,0,incongruent,uniform,1,undefined,1,h,0,0,0,115,0,115,0,0,0,115,0,115,115,115,115,115,9/21/19 16:55,600,The main experiment item,yes,Flankertask2.osexp,C:/Users/Carolyn/OneDrive,no,mono,no,18,no,white,no,no,768,legacy,35,79,C:/Users/Carolyn/OneDrive/cp-subject-4.csv,legacy,Kafkaesque Koffka,3.2.8,0,h,NA,s,h,NA,h,470,NA,115126,1862,NA,470,2,legacy,1024,2,48000,-16,experiment,SSHSS,4,even,120026,274482,NA,332757,NA,338657,4899,272618,NA,299348,4889,339827,339931,340403,339822,339931,Flankertask2,111,66258,116,yes,1024
94.87179487,94.87179487,569.9316239,569.9316239,black,legacy,legacy,legacy,0,incongruent,uniform,0,undefined,0,s,0,0,0,116,0,116,0,0,0,116,0,116,116,116,116,116,9/21/19 16:55,600,The main experiment item,yes,Flankertask2.osexp,C:/Users/Carolyn/OneDrive,no,mono,no,18,no,white,no,no,768,legacy,36,79,C:/Users/Carolyn/OneDrive/cp-subject-4.csv,legacy,Kafkaesque Koffka,3.2.8,0,h,NA,s,h,NA,h,424,NA,115126,1862,NA,424,2,legacy,1024,2,48000,-16,experiment,HHSHH,4,even,120026,274482,NA,332757,NA,340453,4899,272618,NA,299348,4889,341601,341705,342131,341597,341705,Flankertask2,111,66682,117,yes,1024
94.91525424,94.91525424,570.4067797,570.4067797,black,legacy,legacy,legacy,0,incongruent,uniform,1,undefined,1,h,0,0,0,117,0,117,0,0,0,117,0,117,117,117,117,117,9/21/19 16:55,600,The main experiment item,yes,Flankertask2.osexp,C:/Users/Carolyn/OneDrive,no,mono,no,18,no,white,no,no,768,legacy,37,79,C:/Users/Carolyn/OneDrive/cp-subject-4.csv,legacy,Kafkaesque Koffka,3.2.8,0,h,NA,s,h,NA,h,626,NA,115126,1862,NA,626,2,legacy,1024,2,48000,-16,experiment,SSHSS,4,even,120026,274482,NA,332757,NA,342668,4899,272618,NA,342165,4889,343815,343918,344547,343810,343918,Flankertask2,112,67308,118,yes,1024
94.95798319,94.95798319,569.3277311,569.3277311,black,legacy,legacy,legacy,0,congruent,uniform,1,undefined,1,s,0,0,0,118,0,118,0,0,0,118,0,118,118,118,118,118,9/21/19 16:55,600,The main experiment item,yes,Flankertask2.osexp,C:/Users/Carolyn/OneDrive,no,mono,no,18,no,white,no,no,768,legacy,38,79,C:/Users/Carolyn/OneDrive/cp-subject-4.csv,legacy,Kafkaesque Koffka,3.2.8,0,s,NA,s,h,NA,s,442,NA,115126,1862,NA,442,2,legacy,1024,2,48000,-16,experiment,SSSSS,4,even,120026,274482,NA,344565,NA,345070,4899,272618,NA,342165,4889,346240,346343,346787,346236,346343,Flankertask2,113,67750,119,yes,1024
95,95,569.0416667,569.0416667,black,legacy,legacy,legacy,0,incongruent,uniform,1,undefined,1,h,0,0,0,119,0,119,0,0,0,119,0,119,119,119,119,119,9/21/19 16:55,600,The main experiment item,yes,Flankertask2.osexp,C:/Users/Carolyn/OneDrive,no,mono,no,18,no,white,no,no,768,legacy,39,79,C:/Users/Carolyn/OneDrive/cp-subject-4.csv,legacy,Kafkaesque Koffka,3.2.8,0,h,NA,s,h,NA,h,535,NA,115126,1862,NA,535,2,legacy,1024,2,48000,-16,experiment,SSHSS,4,even,120026,274482,NA,344565,NA,346815,4899,272618,NA,342165,4889,347962,348066,348603,347957,348066,Flankertask2,114,68285,120,yes,1024
95.04132231,95.04132231,569,569,black,legacy,legacy,legacy,0,congruent,uniform,1,undefined,1,s,0,0,0,120,0,120,0,0,0,120,0,120,120,120,120,120,9/21/19 16:55,600,The main experiment item,yes,Flankertask2.osexp,C:/Users/Carolyn/OneDrive,no,mono,no,18,no,white,no,no,768,legacy,40,79,C:/Users/Carolyn/OneDrive/cp-subject-4.csv,legacy,Kafkaesque Koffka,3.2.8,0,s,NA,s,h,NA,s,564,NA,115126,1862,NA,564,2,legacy,1024,2,48000,-16,experiment,SSSSS,4,even,120026,274482,NA,344565,NA,348690,4899,272618,NA,342165,4889,349838,349941,350507,349833,349941,Flankertask2,115,68849,121,yes,1024
95.08196721,95.08196721,568.147541,568.147541,black,legacy,legacy,legacy,0,congruent,uniform,1,undefined,1,h,0,0,0,121,0,121,0,0,0,121,0,121,121,121,121,121,9/21/19 16:55,600,The main experiment item,yes,Flankertask2.osexp,C:/Users/Carolyn/OneDrive,no,mono,no,18,no,white,no,no,768,legacy,41,79,C:/Users/Carolyn/OneDrive/cp-subject-4.csv,legacy,Kafkaesque Koffka,3.2.8,0,h,NA,s,h,NA,h,465,NA,115126,1862,NA,465,2,legacy,1024,2,48000,-16,experiment,HHHHH,4,even,120026,274482,NA,344565,NA,350572,4899,272618,NA,342165,4889,351719,351823,352291,351714,351822,Flankertask2,116,69314,122,yes,1024
95.12195122,95.12195122,567.8617886,567.8617886,black,legacy,legacy,legacy,0,congruent,uniform,1,undefined,1,s,0,0,0,122,0,122,0,0,0,122,0,122,122,122,122,122,9/21/19 16:55,600,The main experiment item,yes,Flankertask2.osexp,C:/Users/Carolyn/OneDrive,no,mono,no,18,no,white,no,no,768,legacy,42,79,C:/Users/Carolyn/OneDrive/cp-subject-4.csv,legacy,Kafkaesque Koffka,3.2.8,0,s,NA,s,h,NA,s,533,NA,115126,1862,NA,533,2,legacy,1024,2,48000,-16,experiment,SSSSS,4,even,120026,274482,NA,344565,NA,352315,4899,272618,NA,342165,4889,353461,353564,354099,353456,353564,Flankertask2,117,69847,123,yes,1024
95.16129032,95.16129032,568.6451613,568.6451613,black,legacy,legacy,legacy,0,congruent,uniform,1,undefined,1,s,0,0,0,123,0,123,0,0,0,123,0,123,123,123,123,123,9/21/19 16:55,600,The main experiment item,yes,Flankertask2.osexp,C:/Users/Carolyn/OneDrive,no,mono,no,18,no,white,no,no,768,legacy,43,79,C:/Users/Carolyn/OneDrive/cp-subject-4.csv,legacy,Kafkaesque Koffka,3.2.8,0,s,NA,s,h,NA,s,665,NA,115126,1862,NA,665,2,legacy,1024,2,48000,-16,experiment,SSSSS,4,even,120026,274482,NA,344565,NA,354140,4899,272618,NA,342165,4889,355287,355392,356059,355283,355392,Flankertask2,118,70512,124,yes,1024
95.2,95.2,568.264,568.264,black,legacy,legacy,legacy,0,congruent,uniform,1,undefined,1,s,0,0,0,124,0,124,0,0,0,124,0,124,124,124,124,124,9/21/19 16:55,600,The main experiment item,yes,Flankertask2.osexp,C:/Users/Carolyn/OneDrive,no,mono,no,18,no,white,no,no,768,legacy,44,79,C:/Users/Carolyn/OneDrive/cp-subject-4.csv,legacy,Kafkaesque Koffka,3.2.8,0,s,NA,s,h,NA,s,521,NA,115126,1862,NA,521,2,legacy,1024,2,48000,-16,experiment,SSSSS,4,even,120026,274482,NA,356117,NA,356620,4899,272618,NA,342165,4889,357776,357880,358403,357772,357880,Flankertask2,119,71033,125,yes,1024
95.23809524,95.23809524,568.6269841,568.6269841,black,legacy,legacy,legacy,0,incongruent,uniform,1,undefined,1,s,0,0,0,125,0,125,0,0,0,125,0,125,125,125,125,125,9/21/19 16:55,600,The main experiment item,yes,Flankertask2.osexp,C:/Users/Carolyn/OneDrive,no,mono,no,18,no,white,no,no,768,legacy,45,79,C:/Users/Carolyn/OneDrive/cp-subject-4.csv,legacy,Kafkaesque Koffka,3.2.8,0,s,NA,s,h,NA,s,614,NA,115126,1862,NA,614,2,legacy,1024,2,48000,-16,experiment,HHSHH,4,even,120026,274482,NA,356117,NA,358431,4899,272618,NA,342165,4889,359579,359683,360300,359574,359682,Flankertask2,120,71647,126,yes,1024
95.27559055,95.27559055,567.8503937,567.8503937,black,legacy,legacy,legacy,0,incongruent,uniform,1,undefined,1,h,0,0,0,126,0,126,0,0,0,126,0,126,126,126,126,126,9/21/19 16:55,600,The main experiment item,yes,Flankertask2.osexp,C:/Users/Carolyn/OneDrive,no,mono,no,18,no,white,no,no,768,legacy,46,79,C:/Users/Carolyn/OneDrive/cp-subject-4.csv,legacy,Kafkaesque Koffka,3.2.8,0,h,NA,s,h,NA,h,470,NA,115126,1862,NA,470,2,legacy,1024,2,48000,-16,experiment,SSHSS,4,even,120026,274482,NA,360323,NA,360827,4899,272618,NA,342165,4889,361977,362082,362556,361973,362082,Flankertask2,121,72117,127,yes,1024
95.3125,95.3125,568.2265625,568.2265625,black,legacy,legacy,legacy,0,incongruent,uniform,1,undefined,1,h,0,0,0,127,0,127,0,0,0,127,0,127,127,127,127,127,9/21/19 16:55,600,The main experiment item,yes,Flankertask2.osexp,C:/Users/Carolyn/OneDrive,no,mono,no,18,no,white,no,no,768,legacy,47,79,C:/Users/Carolyn/OneDrive/cp-subject-4.csv,legacy,Kafkaesque Koffka,3.2.8,0,h,NA,s,h,NA,h,616,NA,115126,1862,NA,616,2,legacy,1024,2,48000,-16,experiment,SSHSS,4,even,120026,274482,NA,360323,NA,362582,4899,272618,NA,342165,4889,363729,363833,364452,363724,363833,Flankertask2,122,72733,128,yes,1024
95.34883721,95.34883721,567.0852713,567.0852713,black,legacy,legacy,legacy,0,congruent,uniform,1,undefined,1,h,0,0,0,128,0,128,0,0,0,128,0,128,128,128,128,128,9/21/19 16:55,600,The main experiment item,yes,Flankertask2.osexp,C:/Users/Carolyn/OneDrive,no,mono,no,18,no,white,no,no,768,legacy,48,79,C:/Users/Carolyn/OneDrive/cp-subject-4.csv,legacy,Kafkaesque Koffka,3.2.8,0,h,NA,s,h,NA,h,421,NA,115126,1862,NA,421,2,legacy,1024,2,48000,-16,experiment,HHHHH,4,even,120026,274482,NA,364481,NA,364984,4899,272618,NA,342165,4889,366132,366236,366659,366127,366235,Flankertask2,123,73154,129,yes,1024
95.38461538,95.38461538,567.8461538,567.8461538,black,legacy,legacy,legacy,0,incongruent,uniform,1,undefined,1,s,0,0,0,129,0,129,0,0,0,129,0,129,129,129,129,129,9/21/19 16:55,600,The main experiment item,yes,Flankertask2.osexp,C:/Users/Carolyn/OneDrive,no,mono,no,18,no,white,no,no,768,legacy,49,79,C:/Users/Carolyn/OneDrive/cp-subject-4.csv,legacy,Kafkaesque Koffka,3.2.8,0,s,NA,s,h,NA,s,666,NA,115126,1862,NA,666,2,legacy,1024,2,48000,-16,experiment,HHSHH,4,even,120026,274482,NA,364481,NA,366690,4899,272618,NA,342165,4889,367838,367942,368612,367833,367942,Flankertask2,124,73820,130,yes,1024
95.41984733,95.41984733,567.9465649,567.9465649,black,legacy,legacy,legacy,0,incongruent,uniform,1,undefined,1,s,0,0,0,130,0,130,0,0,0,130,0,130,130,130,130,130,9/21/19 16:55,600,The main experiment item,yes,Flankertask2.osexp,C:/Users/Carolyn/OneDrive,no,mono,no,18,no,white,no,no,768,legacy,50,79,C:/Users/Carolyn/OneDrive/cp-subject-4.csv,legacy,Kafkaesque Koffka,3.2.8,0,s,NA,s,h,NA,s,581,NA,115126,1862,NA,581,2,legacy,1024,2,48000,-16,experiment,HHSHH,4,even,120026,274482,NA,368640,NA,369143,4899,272618,NA,342165,4889,370291,370395,370980,370286,370394,Flankertask2,125,74401,131,yes,1024
95.45454545,95.45454545,566.8484848,566.8484848,black,legacy,legacy,legacy,0,congruent,uniform,1,undefined,1,h,0,0,0,131,0,131,0,0,0,131,0,131,131,131,131,131,9/21/19 16:55,600,The main experiment item,yes,Flankertask2.osexp,C:/Users/Carolyn/OneDrive,no,mono,no,18,no,white,no,no,768,legacy,51,79,C:/Users/Carolyn/OneDrive/cp-subject-4.csv,legacy,Kafkaesque Koffka,3.2.8,0,h,NA,s,h,NA,h,423,NA,115126,1862,NA,423,2,legacy,1024,2,48000,-16,experiment,HHHHH,4,even,120026,274482,NA,368640,NA,371007,4899,272618,NA,342165,4889,372155,372258,372683,372150,372258,Flankertask2,126,74824,132,yes,1024
94.73684211,94.73684211,565.5488722,565.5488722,black,legacy,legacy,legacy,0,incongruent,uniform,0,undefined,0,s,0,0,0,132,0,132,0,0,0,132,0,132,132,132,132,132,9/21/19 16:55,600,The main experiment item,yes,Flankertask2.osexp,C:/Users/Carolyn/OneDrive,no,mono,no,18,no,white,no,no,768,legacy,52,79,C:/Users/Carolyn/OneDrive/cp-subject-4.csv,legacy,Kafkaesque Koffka,3.2.8,0,h,NA,s,h,NA,h,394,NA,115126,1862,NA,394,2,legacy,1024,2,48000,-16,experiment,HHSHH,4,even,120026,274482,NA,368640,NA,372715,4899,272618,NA,342165,4889,373862,373966,374363,373858,373966,Flankertask2,126,75218,133,yes,1024
94.7761194,94.7761194,564.238806,564.238806,black,legacy,legacy,legacy,0,congruent,uniform,1,undefined,1,h,0,0,0,133,0,133,0,0,0,133,0,133,133,133,133,133,9/21/19 16:55,600,The main experiment item,yes,Flankertask2.osexp,C:/Users/Carolyn/OneDrive,no,mono,no,18,no,white,no,no,768,legacy,53,79,C:/Users/Carolyn/OneDrive/cp-subject-4.csv,legacy,Kafkaesque Koffka,3.2.8,0,h,NA,s,h,NA,h,390,NA,115126,1862,NA,390,2,legacy,1024,2,48000,-16,experiment,HHHHH,4,even,120026,274482,NA,368640,NA,374894,4899,272618,NA,374389,4889,376043,376147,376539,376038,376147,Flankertask2,127,75608,134,yes,1024
94.81481481,94.81481481,563.8740741,563.8740741,black,legacy,legacy,legacy,0,congruent,uniform,1,undefined,1,s,0,0,0,134,0,134,0,0,0,134,0,134,134,134,134,134,9/21/19 16:55,600,The main experiment item,yes,Flankertask2.osexp,C:/Users/Carolyn/OneDrive,no,mono,no,18,no,white,no,no,768,legacy,54,79,C:/Users/Carolyn/OneDrive/cp-subject-4.csv,legacy,Kafkaesque Koffka,3.2.8,0,s,NA,s,h,NA,s,515,NA,115126,1862,NA,515,2,legacy,1024,2,48000,-16,experiment,SSSSS,4,even,120026,274482,NA,368640,NA,376565,4899,272618,NA,374389,4889,377725,377830,378347,377721,377830,Flankertask2,128,76123,135,yes,1024
94.85294118,94.85294118,563.5514706,563.5514706,black,legacy,legacy,legacy,0,incongruent,uniform,1,undefined,1,s,0,0,0,135,0,135,0,0,0,135,0,135,135,135,135,135,9/21/19 16:55,600,The main experiment item,yes,Flankertask2.osexp,C:/Users/Carolyn/OneDrive,no,mono,no,18,no,white,no,no,768,legacy,55,79,C:/Users/Carolyn/OneDrive/cp-subject-4.csv,legacy,Kafkaesque Koffka,3.2.8,0,s,NA,s,h,NA,s,520,NA,115126,1862,NA,520,2,legacy,1024,2,48000,-16,experiment,HHSHH,4,even,120026,274482,NA,368640,NA,378373,4899,272618,NA,374389,4889,379521,379625,380148,379516,379624,Flankertask2,129,76643,136,yes,1024
94.89051095,94.89051095,563.7810219,563.7810219,black,legacy,legacy,legacy,0,incongruent,uniform,1,undefined,1,h,0,0,0,136,0,136,0,0,0,136,0,136,136,136,136,136,9/21/19 16:55,600,The main experiment item,yes,Flankertask2.osexp,C:/Users/Carolyn/OneDrive,no,mono,no,18,no,white,no,no,768,legacy,56,79,C:/Users/Carolyn/OneDrive/cp-subject-4.csv,legacy,Kafkaesque Koffka,3.2.8,0,h,NA,s,h,NA,h,595,NA,115126,1862,NA,595,2,legacy,1024,2,48000,-16,experiment,SSHSS,4,even,120026,274482,NA,368640,NA,380173,4899,272618,NA,374389,4889,381318,381421,382019,381313,381421,Flankertask2,130,77238,137,yes,1024
94.92753623,94.92753623,563.2246377,563.2246377,black,legacy,legacy,legacy,0,incongruent,uniform,1,undefined,1,s,0,0,0,137,0,137,0,0,0,137,0,137,137,137,137,137,9/21/19 16:55,600,The main experiment item,yes,Flankertask2.osexp,C:/Users/Carolyn/OneDrive,no,mono,no,18,no,white,no,no,768,legacy,57,79,C:/Users/Carolyn/OneDrive/cp-subject-4.csv,legacy,Kafkaesque Koffka,3.2.8,0,s,NA,s,h,NA,s,487,NA,115126,1862,NA,487,2,legacy,1024,2,48000,-16,experiment,HHSHH,4,even,120026,274482,NA,368640,NA,382057,4899,272618,NA,374389,4889,383202,383305,383796,383197,383305,Flankertask2,131,77725,138,yes,1024
94.96402878,94.96402878,562.6330935,562.6330935,black,legacy,legacy,legacy,0,incongruent,uniform,1,undefined,1,h,0,0,0,138,0,138,0,0,0,138,0,138,138,138,138,138,9/21/19 16:55,600,The main experiment item,yes,Flankertask2.osexp,C:/Users/Carolyn/OneDrive,no,mono,no,18,no,white,no,no,768,legacy,58,79,C:/Users/Carolyn/OneDrive/cp-subject-4.csv,legacy,Kafkaesque Koffka,3.2.8,0,h,NA,s,h,NA,h,481,NA,115126,1862,NA,481,2,legacy,1024,2,48000,-16,experiment,SSHSS,4,even,120026,274482,NA,368640,NA,383823,4899,272618,NA,374389,4889,384968,385071,385555,384963,385071,Flankertask2,132,78206,139,yes,1024
95,95,561.6071429,561.6071429,black,legacy,legacy,legacy,0,incongruent,uniform,1,undefined,1,s,0,0,0,139,0,139,0,0,0,139,0,139,139,139,139,139,9/21/19 16:55,600,The main experiment item,yes,Flankertask2.osexp,C:/Users/Carolyn/OneDrive,no,mono,no,18,no,white,no,no,768,legacy,59,79,C:/Users/Carolyn/OneDrive/cp-subject-4.csv,legacy,Kafkaesque Koffka,3.2.8,0,s,NA,s,h,NA,s,419,NA,115126,1862,NA,419,2,legacy,1024,2,48000,-16,experiment,HHSHH,4,even,120026,274482,NA,368640,NA,385581,4899,272618,NA,374389,4889,386726,386829,387251,386722,386829,Flankertask2,133,78625,140,yes,1024
94.32624113,94.32624113,560.6453901,560.6453901,black,legacy,legacy,legacy,0,incongruent,uniform,0,undefined,0,s,0,0,0,140,0,140,0,0,0,140,0,140,140,140,140,140,9/21/19 16:55,600,The main experiment item,yes,Flankertask2.osexp,C:/Users/Carolyn/OneDrive,no,mono,no,18,no,white,no,no,768,legacy,60,79,C:/Users/Carolyn/OneDrive/cp-subject-4.csv,legacy,Kafkaesque Koffka,3.2.8,0,h,NA,s,h,NA,h,426,NA,115126,1862,NA,426,2,legacy,1024,2,48000,-16,experiment,HHSHH,4,even,120026,274482,NA,368640,NA,387281,4899,272618,NA,374389,4889,388429,388534,388963,388425,388533,Flankertask2,133,79051,141,yes,1024
93.66197183,93.66197183,559.915493,559.915493,black,legacy,legacy,legacy,0,incongruent,uniform,0,undefined,0,s,0,0,0,141,0,141,0,0,0,141,0,141,141,141,141,141,9/21/19 16:55,600,The main experiment item,yes,Flankertask2.osexp,C:/Users/Carolyn/OneDrive,no,mono,no,18,no,white,no,no,768,legacy,61,79,C:/Users/Carolyn/OneDrive/cp-subject-4.csv,legacy,Kafkaesque Koffka,3.2.8,0,h,NA,s,h,NA,h,457,NA,115126,1862,NA,457,2,legacy,1024,2,48000,-16,experiment,HHSHH,4,even,120026,274482,NA,368640,NA,389493,4899,272618,NA,388990,4889,390640,390743,391204,390635,390743,Flankertask2,133,79508,142,yes,1024
93.70629371,93.70629371,560.0699301,560.0699301,black,legacy,legacy,legacy,0,incongruent,uniform,1,undefined,1,s,0,0,0,142,0,142,0,0,0,142,0,142,142,142,142,142,9/21/19 16:55,600,The main experiment item,yes,Flankertask2.osexp,C:/Users/Carolyn/OneDrive,no,mono,no,18,no,white,no,no,768,legacy,62,79,C:/Users/Carolyn/OneDrive/cp-subject-4.csv,legacy,Kafkaesque Koffka,3.2.8,0,s,NA,s,h,NA,s,582,NA,115126,1862,NA,582,2,legacy,1024,2,48000,-16,experiment,HHSHH,4,even,120026,274482,NA,368640,NA,391734,4899,272618,NA,391231,4889,392882,392986,393571,392877,392985,Flankertask2,134,80090,143,yes,1024
93.75,93.75,559.4444444,559.4444444,black,legacy,legacy,legacy,0,incongruent,uniform,1,undefined,1,s,0,0,0,143,0,143,0,0,0,143,0,143,143,143,143,143,9/21/19 16:55,600,The main experiment item,yes,Flankertask2.osexp,C:/Users/Carolyn/OneDrive,no,mono,no,18,no,white,no,no,768,legacy,63,79,C:/Users/Carolyn/OneDrive/cp-subject-4.csv,legacy,Kafkaesque Koffka,3.2.8,0,s,NA,s,h,NA,s,470,NA,115126,1862,NA,470,2,legacy,1024,2,48000,-16,experiment,HHSHH,4,even,120026,274482,NA,368640,NA,393598,4899,272618,NA,391231,4889,394745,394850,395324,394741,394849,Flankertask2,135,80560,144,yes,1024
93.79310345,93.79310345,558.8758621,558.8758621,black,legacy,legacy,legacy,0,congruent,uniform,1,undefined,1,s,0,0,0,144,0,144,0,0,0,144,0,144,144,144,144,144,9/21/19 16:55,600,The main experiment item,yes,Flankertask2.osexp,C:/Users/Carolyn/OneDrive,no,mono,no,18,no,white,no,no,768,legacy,64,79,C:/Users/Carolyn/OneDrive/cp-subject-4.csv,legacy,Kafkaesque Koffka,3.2.8,0,s,NA,s,h,NA,s,477,NA,115126,1862,NA,477,2,legacy,1024,2,48000,-16,experiment,SSSSS,4,even,120026,274482,NA,368640,NA,395365,4899,272618,NA,391231,4889,396515,396619,397100,396510,396618,Flankertask2,136,81037,145,yes,1024
93.83561644,93.83561644,558.6780822,558.6780822,black,legacy,legacy,legacy,0,congruent,uniform,1,undefined,1,s,0,0,0,145,0,145,0,0,0,145,0,145,145,145,145,145,9/21/19 16:55,600,The main experiment item,yes,Flankertask2.osexp,C:/Users/Carolyn/OneDrive,no,mono,no,18,no,white,no,no,768,legacy,65,79,C:/Users/Carolyn/OneDrive/cp-subject-4.csv,legacy,Kafkaesque Koffka,3.2.8,0,s,NA,s,h,NA,s,530,NA,115126,1862,NA,530,2,legacy,1024,2,48000,-16,experiment,SSSSS,4,even,120026,274482,NA,368640,NA,397131,4899,272618,NA,391231,4889,398278,398382,398916,398273,398381,Flankertask2,137,81567,146,yes,1024
93.87755102,93.87755102,557.6734694,557.6734694,black,legacy,legacy,legacy,0,congruent,uniform,1,undefined,1,s,0,0,0,146,0,146,0,0,0,146,0,146,146,146,146,146,9/21/19 16:55,600,The main experiment item,yes,Flankertask2.osexp,C:/Users/Carolyn/OneDrive,no,mono,no,18,no,white,no,no,768,legacy,66,79,C:/Users/Carolyn/OneDrive/cp-subject-4.csv,legacy,Kafkaesque Koffka,3.2.8,0,s,NA,s,h,NA,s,411,NA,115126,1862,NA,411,2,legacy,1024,2,48000,-16,experiment,SSSSS,4,even,120026,274482,NA,368640,NA,398948,4899,272618,NA,391231,4889,400093,400197,400611,400088,400196,Flankertask2,138,81978,147,yes,1024
93.91891892,93.91891892,557.4527027,557.4527027,black,legacy,legacy,legacy,0,congruent,uniform,1,undefined,1,h,0,0,0,147,0,147,0,0,0,147,0,147,147,147,147,147,9/21/19 16:55,600,The main experiment item,yes,Flankertask2.osexp,C:/Users/Carolyn/OneDrive,no,mono,no,18,no,white,no,no,768,legacy,67,79,C:/Users/Carolyn/OneDrive/cp-subject-4.csv,legacy,Kafkaesque Koffka,3.2.8,0,h,NA,s,h,NA,h,525,NA,115126,1862,NA,525,2,legacy,1024,2,48000,-16,experiment,HHHHH,4,even,120026,274482,NA,368640,NA,400639,4899,272618,NA,391231,4889,401795,401899,402428,401791,401899,Flankertask2,139,82503,148,yes,1024
93.95973154,93.95973154,557.2013423,557.2013423,black,legacy,legacy,legacy,0,congruent,uniform,1,undefined,1,s,0,0,0,148,0,148,0,0,0,148,0,148,148,148,148,148,9/21/19 16:55,600,The main experiment item,yes,Flankertask2.osexp,C:/Users/Carolyn/OneDrive,no,mono,no,18,no,white,no,no,768,legacy,68,79,C:/Users/Carolyn/OneDrive/cp-subject-4.csv,legacy,Kafkaesque Koffka,3.2.8,0,s,NA,s,h,NA,s,520,NA,115126,1862,NA,520,2,legacy,1024,2,48000,-16,experiment,SSSSS,4,even,120026,274482,NA,368640,NA,402456,4899,272618,NA,391231,4889,403601,403704,404227,403596,403704,Flankertask2,140,83023,149,yes,1024
94,94,556.7866667,556.7866667,black,legacy,legacy,legacy,0,incongruent,uniform,1,undefined,1,s,0,0,0,149,0,149,0,0,0,149,0,149,149,149,149,149,9/21/19 16:55,600,The main experiment item,yes,Flankertask2.osexp,C:/Users/Carolyn/OneDrive,no,mono,no,18,no,white,no,no,768,legacy,69,79,C:/Users/Carolyn/OneDrive/cp-subject-4.csv,legacy,Kafkaesque Koffka,3.2.8,0,s,NA,s,h,NA,s,495,NA,115126,1862,NA,495,2,legacy,1024,2,48000,-16,experiment,HHSHH,4,even,120026,274482,NA,368640,NA,404256,4899,272618,NA,391231,4889,405402,405505,406013,405397,405505,Flankertask2,141,83518,150,yes,1024
94.0397351,94.0397351,556.1589404,556.1589404,black,legacy,legacy,legacy,0,incongruent,uniform,1,undefined,1,s,0,0,0,150,0,150,0,0,0,150,0,150,150,150,150,150,9/21/19 16:55,600,The main experiment item,yes,Flankertask2.osexp,C:/Users/Carolyn/OneDrive,no,mono,no,18,no,white,no,no,768,legacy,70,79,C:/Users/Carolyn/OneDrive/cp-subject-4.csv,legacy,Kafkaesque Koffka,3.2.8,0,s,NA,s,h,NA,s,462,NA,115126,1862,NA,462,2,legacy,1024,2,48000,-16,experiment,HHSHH,4,even,120026,274482,NA,368640,NA,406072,4899,272618,NA,391231,4889,407219,407322,407788,407214,407322,Flankertask2,142,83980,151,yes,1024
94.07894737,94.07894737,556.1907895,556.1907895,black,legacy,legacy,legacy,0,congruent,uniform,1,undefined,1,h,0,0,0,151,0,151,0,0,0,151,0,151,151,151,151,151,9/21/19 16:55,600,The main experiment item,yes,Flankertask2.osexp,C:/Users/Carolyn/OneDrive,no,mono,no,18,no,white,no,no,768,legacy,71,79,C:/Users/Carolyn/OneDrive/cp-subject-4.csv,legacy,Kafkaesque Koffka,3.2.8,0,h,NA,s,h,NA,h,561,NA,115126,1862,NA,561,2,legacy,1024,2,48000,-16,experiment,HHHHH,4,even,120026,274482,NA,368640,NA,407814,4899,272618,NA,391231,4889,408960,409063,409628,408955,409063,Flankertask2,143,84541,152,yes,1024
93.46405229,93.46405229,555.7973856,555.7973856,black,legacy,legacy,legacy,0,congruent,uniform,0,undefined,0,s,0,0,0,152,0,152,0,0,0,152,0,152,152,152,152,152,9/21/19 16:55,600,The main experiment item,yes,Flankertask2.osexp,C:/Users/Carolyn/OneDrive,no,mono,no,18,no,white,no,no,768,legacy,72,79,C:/Users/Carolyn/OneDrive/cp-subject-4.csv,legacy,Kafkaesque Koffka,3.2.8,0,h,NA,s,h,NA,h,496,NA,115126,1862,NA,496,2,legacy,1024,2,48000,-16,experiment,SSSSS,4,even,120026,274482,NA,368640,NA,409656,4899,272618,NA,391231,4889,410801,410904,411404,410797,410904,Flankertask2,143,85037,153,yes,1024
93.50649351,93.50649351,555,555,black,legacy,legacy,legacy,0,congruent,uniform,1,undefined,1,s,0,0,0,153,0,153,0,0,0,153,0,153,153,153,153,153,9/21/19 16:55,600,The main experiment item,yes,Flankertask2.osexp,C:/Users/Carolyn/OneDrive,no,mono,no,18,no,white,no,no,768,legacy,73,79,C:/Users/Carolyn/OneDrive/cp-subject-4.csv,legacy,Kafkaesque Koffka,3.2.8,0,s,NA,s,h,NA,s,433,NA,115126,1862,NA,433,2,legacy,1024,2,48000,-16,experiment,SSSSS,4,even,120026,274482,NA,368640,NA,411942,4899,272618,NA,411439,4889,413088,413191,413628,413083,413191,Flankertask2,144,85470,154,yes,1024
93.5483871,93.5483871,554.9741935,554.9741935,black,legacy,legacy,legacy,0,incongruent,uniform,1,undefined,1,s,0,0,0,154,0,154,0,0,0,154,0,154,154,154,154,154,9/21/19 16:55,600,The main experiment item,yes,Flankertask2.osexp,C:/Users/Carolyn/OneDrive,no,mono,no,18,no,white,no,no,768,legacy,74,79,C:/Users/Carolyn/OneDrive/cp-subject-4.csv,legacy,Kafkaesque Koffka,3.2.8,0,s,NA,s,h,NA,s,551,NA,115126,1862,NA,551,2,legacy,1024,2,48000,-16,experiment,HHSHH,4,even,120026,274482,NA,368640,NA,413664,4899,272618,NA,411439,4889,414809,414913,415468,414805,414912,Flankertask2,145,86021,155,yes,1024
93.58974359,93.58974359,555,555,black,legacy,legacy,legacy,0,congruent,uniform,1,undefined,1,h,0,0,0,155,0,155,0,0,0,155,0,155,155,155,155,155,9/21/19 16:55,600,The main experiment item,yes,Flankertask2.osexp,C:/Users/Carolyn/OneDrive,no,mono,no,18,no,white,no,no,768,legacy,75,79,C:/Users/Carolyn/OneDrive/cp-subject-4.csv,legacy,Kafkaesque Koffka,3.2.8,0,h,NA,s,h,NA,h,559,NA,115126,1862,NA,559,2,legacy,1024,2,48000,-16,experiment,HHHHH,4,even,120026,274482,NA,368640,NA,415497,4899,272618,NA,411439,4889,416658,416761,417324,416653,416761,Flankertask2,146,86580,156,yes,1024
93.63057325,93.63057325,554.9872611,554.9872611,black,legacy,legacy,legacy,0,incongruent,uniform,1,undefined,1,s,0,0,0,156,0,156,0,0,0,156,0,156,156,156,156,156,9/21/19 16:55,600,The main experiment item,yes,Flankertask2.osexp,C:/Users/Carolyn/OneDrive,no,mono,no,18,no,white,no,no,768,legacy,76,79,C:/Users/Carolyn/OneDrive/cp-subject-4.csv,legacy,Kafkaesque Koffka,3.2.8,0,s,NA,s,h,NA,s,553,NA,115126,1862,NA,553,2,legacy,1024,2,48000,-16,experiment,HHSHH,4,even,120026,274482,NA,368640,NA,417347,4899,272618,NA,411439,4889,418496,418599,419156,418491,418599,Flankertask2,147,87133,157,yes,1024
93.67088608,93.67088608,554.8797468,554.8797468,black,legacy,legacy,legacy,0,congruent,uniform,1,undefined,1,h,0,0,0,157,0,157,0,0,0,157,0,157,157,157,157,157,9/21/19 16:55,600,The main experiment item,yes,Flankertask2.osexp,C:/Users/Carolyn/OneDrive,no,mono,no,18,no,white,no,no,768,legacy,77,79,C:/Users/Carolyn/OneDrive/cp-subject-4.csv,legacy,Kafkaesque Koffka,3.2.8,0,h,NA,s,h,NA,h,538,NA,115126,1862,NA,538,2,legacy,1024,2,48000,-16,experiment,HHHHH,4,even,120026,274482,NA,368640,NA,419173,4899,272618,NA,411439,4889,420319,420422,420964,420314,420422,Flankertask2,148,87671,158,yes,1024
93.71069182,93.71069182,554.7106918,554.7106918,black,legacy,legacy,legacy,0,incongruent,uniform,1,undefined,1,s,0,0,0,158,0,158,0,0,0,158,0,158,158,158,158,158,9/21/19 16:55,600,The main experiment item,yes,Flankertask2.osexp,C:/Users/Carolyn/OneDrive,no,mono,no,18,no,white,no,no,768,legacy,78,79,C:/Users/Carolyn/OneDrive/cp-subject-4.csv,legacy,Kafkaesque Koffka,3.2.8,0,s,NA,s,h,NA,s,528,NA,115126,1862,NA,528,2,legacy,1024,2,48000,-16,experiment,HHSHH,4,even,120026,274482,NA,368640,NA,420998,4899,272618,NA,411439,4889,422145,422248,422780,422140,422248,Flankertask2,149,88199,159,yes,1024
93.75,93.75,554.7375,554.7375,black,legacy,legacy,legacy,0,incongruent,uniform,1,undefined,1,h,0,0,0,159,0,159,0,0,0,159,0,159,159,159,159,159,9/21/19 16:55,600,The main experiment item,yes,Flankertask2.osexp,C:/Users/Carolyn/OneDrive,no,mono,no,18,no,white,no,no,768,legacy,79,79,C:/Users/Carolyn/OneDrive/cp-subject-4.csv,legacy,Kafkaesque Koffka,3.2.8,0,h,NA,s,h,NA,h,559,NA,115126,1862,NA,559,2,legacy,1024,2,48000,-16,experiment,SSHSS,4,even,120026,274482,NA,368640,NA,422805,4899,272618,NA,411439,4889,423954,424057,424620,423949,424057,Flankertask2,150,88758,160,yes,1024
93.78881988,93.78881988,555.6645963,555.6645963,black,legacy,legacy,legacy,0,incongruent,uniform,1,undefined,1,s,0,0,0,160,0,160,0,0,0,160,0,160,160,160,160,160,9/21/19 16:55,300,The main experiment item,yes,Flankertask2.osexp,C:/Users/Carolyn/OneDrive,no,mono,no,18,no,white,no,no,768,legacy,0,79,C:/Users/Carolyn/OneDrive/cp-subject-4.csv,legacy,Kafkaesque Koffka,3.2.8,0,s,NA,s,h,h,s,704,NA,115126,1862,23003,704,2,legacy,1024,2,48000,-16,experiment,HHSHH,4,even,120026,274482,448692,368640,NA,424656,4899,272618,425685,411439,4889,448833,448936,449654,448829,448936,Flankertask2,151,89462,161,yes,1024
93.20987654,93.20987654,554.7962963,554.7962963,black,legacy,legacy,legacy,0,congruent,uniform,0,undefined,0,s,0,0,0,161,0,161,0,0,0,161,0,161,161,161,161,161,9/21/19 16:55,300,The main experiment item,yes,Flankertask2.osexp,C:/Users/Carolyn/OneDrive,no,mono,no,18,no,white,no,no,768,legacy,1,79,C:/Users/Carolyn/OneDrive/cp-subject-4.csv,legacy,Kafkaesque Koffka,3.2.8,0,h,NA,s,h,h,h,415,NA,115126,1862,23003,415,2,legacy,1024,2,48000,-16,experiment,SSSSS,4,even,120026,274482,448692,449697,NA,450200,4899,272618,425685,411439,4889,451346,451449,451868,451341,451449,Flankertask2,151,89877,162,yes,1024
92.63803681,92.63803681,553.595092,553.595092,black,legacy,legacy,legacy,0,incongruent,uniform,0,undefined,0,h,0,0,0,162,0,162,0,0,0,162,0,162,162,162,162,162,9/21/19 16:55,300,The main experiment item,yes,Flankertask2.osexp,C:/Users/Carolyn/OneDrive,no,mono,no,18,no,white,no,no,768,legacy,2,79,C:/Users/Carolyn/OneDrive/cp-subject-4.csv,legacy,Kafkaesque Koffka,3.2.8,0,s,NA,s,h,h,s,359,NA,115126,1862,23003,359,2,legacy,1024,2,48000,-16,experiment,SSHSS,4,even,120026,274482,448692,452408,NA,452912,4899,272618,425685,451905,4889,454057,454161,454523,454053,454161,Flankertask2,151,90236,163,yes,1024
92.68292683,92.68292683,552.5365854,552.5365854,black,legacy,legacy,legacy,0,congruent,uniform,1,undefined,1,h,0,0,0,163,0,163,0,0,0,163,0,163,163,163,163,163,9/21/19 16:55,300,The main experiment item,yes,Flankertask2.osexp,C:/Users/Carolyn/OneDrive,no,mono,no,18,no,white,no,no,768,legacy,3,79,C:/Users/Carolyn/OneDrive/cp-subject-4.csv,legacy,Kafkaesque Koffka,3.2.8,0,h,NA,s,h,h,h,380,NA,115126,1862,23003,380,2,legacy,1024,2,48000,-16,experiment,HHHHH,4,even,120026,274482,448692,455059,NA,455563,4899,272618,425685,454556,4889,456709,456812,457196,456704,456812,Flankertask2,152,90616,164,yes,1024
92.12121212,92.12121212,551.2848485,551.2848485,black,legacy,legacy,legacy,0,incongruent,uniform,0,undefined,0,s,0,0,0,164,0,164,0,0,0,164,0,164,164,164,164,164,9/21/19 16:55,300,The main experiment item,yes,Flankertask2.osexp,C:/Users/Carolyn/OneDrive,no,mono,no,18,no,white,no,no,768,legacy,4,79,C:/Users/Carolyn/OneDrive/cp-subject-4.csv,legacy,Kafkaesque Koffka,3.2.8,0,h,NA,s,h,h,h,346,NA,115126,1862,23003,346,2,legacy,1024,2,48000,-16,experiment,HHSHH,4,even,120026,274482,448692,457222,NA,457725,4899,272618,425685,454556,4889,458871,458974,459323,458867,458974,Flankertask2,152,90962,165,yes,1024
92.1686747,92.1686747,550.0722892,550.0722892,black,legacy,legacy,legacy,0,congruent,uniform,1,undefined,1,h,0,0,0,165,0,165,0,0,0,165,0,165,165,165,165,165,9/21/19 16:55,300,The main experiment item,yes,Flankertask2.osexp,C:/Users/Carolyn/OneDrive,no,mono,no,18,no,white,no,no,768,legacy,5,79,C:/Users/Carolyn/OneDrive/cp-subject-4.csv,legacy,Kafkaesque Koffka,3.2.8,0,h,NA,s,h,h,h,350,NA,115126,1862,23003,350,2,legacy,1024,2,48000,-16,experiment,HHHHH,4,even,120026,274482,448692,459850,NA,460353,4899,272618,425685,459346,4889,461498,461602,461955,461494,461602,Flankertask2,153,91312,166,yes,1024
92.21556886,92.21556886,548.994012,548.994012,black,legacy,legacy,legacy,0,congruent,uniform,1,undefined,1,h,0,0,0,166,0,166,0,0,0,166,0,166,166,166,166,166,9/21/19 16:55,300,The main experiment item,yes,Flankertask2.osexp,C:/Users/Carolyn/OneDrive,no,mono,no,18,no,white,no,no,768,legacy,6,79,C:/Users/Carolyn/OneDrive/cp-subject-4.csv,legacy,Kafkaesque Koffka,3.2.8,0,h,NA,s,h,h,h,370,NA,115126,1862,23003,370,2,legacy,1024,2,48000,-16,experiment,HHHHH,4,even,120026,274482,448692,462013,NA,462517,4899,272618,425685,459346,4889,463663,463766,464139,463658,463766,Flankertask2,154,91682,167,yes,1024
92.26190476,92.26190476,548.1666667,548.1666667,black,legacy,legacy,legacy,0,incongruent,uniform,1,undefined,1,h,0,0,0,167,0,167,0,0,0,167,0,167,167,167,167,167,9/21/19 16:55,300,The main experiment item,yes,Flankertask2.osexp,C:/Users/Carolyn/OneDrive,no,mono,no,18,no,white,no,no,768,legacy,7,79,C:/Users/Carolyn/OneDrive/cp-subject-4.csv,legacy,Kafkaesque Koffka,3.2.8,0,h,NA,s,h,h,h,410,NA,115126,1862,23003,410,2,legacy,1024,2,48000,-16,experiment,SSHSS,4,even,120026,274482,448692,464180,NA,464683,4899,272618,425685,459346,4889,465831,465934,466357,465826,465934,Flankertask2,155,92092,168,yes,1024
92.30769231,92.30769231,546.6390533,546.6390533,black,legacy,legacy,legacy,0,congruent,uniform,1,undefined,1,h,0,0,0,168,0,168,0,0,0,168,0,168,168,168,168,168,9/21/19 16:55,300,The main experiment item,yes,Flankertask2.osexp,C:/Users/Carolyn/OneDrive,no,mono,no,18,no,white,no,no,768,legacy,8,79,C:/Users/Carolyn/OneDrive/cp-subject-4.csv,legacy,Kafkaesque Koffka,3.2.8,0,h,NA,s,h,h,h,290,NA,115126,1862,23003,290,2,legacy,1024,2,48000,-16,experiment,HHHHH,4,even,120026,274482,448692,466397,NA,466900,4899,272618,425685,459346,4889,468047,468150,468454,468042,468150,Flankertask2,156,92382,169,yes,1024
92.35294118,92.35294118,546.4705882,546.4705882,black,legacy,legacy,legacy,0,congruent,uniform,1,undefined,1,s,0,0,0,169,0,169,0,0,0,169,0,169,169,169,169,169,9/21/19 16:55,300,The main experiment item,yes,Flankertask2.osexp,C:/Users/Carolyn/OneDrive,no,mono,no,18,no,white,no,no,768,legacy,9,79,C:/Users/Carolyn/OneDrive/cp-subject-4.csv,legacy,Kafkaesque Koffka,3.2.8,0,s,NA,s,h,h,s,518,NA,115126,1862,23003,518,2,legacy,1024,2,48000,-16,experiment,SSSSS,4,even,120026,274482,448692,466397,NA,468496,4899,272618,425685,459346,4889,469658,469762,470283,469653,469761,Flankertask2,157,92900,170,yes,1024
