acc,accuracy,average_response_time,avg_rt,background,canvas_backend,clock_backend,color_backend,compensation,condition,coordinates,correct,correct_instructions1,correct_new_keyboard_response,correct_response,count_ISI,count_block1,count_block2,count_block3,count_errorFeedback,count_experiment,count_faster,count_finish,count_fixation,count_instructions1,count_instructions2,count_instructions3,count_new_keyboard_response,count_new_logger,count_sequence,count_stimulus,datetime,deadline,description,disable_garbage_collection,experiment_file,experiment_path,font_bold,font_family,font_italic,font_size,font_underline,foreground,form_clicks,fullscreen,height,keyboard_backend,live_row,live_row_block1,logfile,mouse_backend,opensesame_codename,opensesame_version,repeat_cycle,response,response_finish,response_instructions1,response_instructions2,response_instructions3,response_new_keyboard_response,response_time,response_time_finish,response_time_instructions1,response_time_instructions2,response_time_instructions3,response_time_new_keyboard_response,round_decimals,sampler_backend,sound_buf_size,sound_channels,sound_freq,sound_sample_size,start,stimulus,subject_nr,subject_parity,time_ISI,time_block1,time_block2,time_block3,time_errorFeedback,time_experiment,time_faster,time_finish,time_fixation,time_instructions1,time_instructions2,time_instructions3,time_new_keyboard_response,time_new_logger,time_sequence,time_stimulus,title,total_correct,total_response_time,total_responses,uniform_coordinates,width
100,100,1146,1146,black,legacy,legacy,legacy,0,incongruent,uniform,1,undefined,1,h,0,0,0,0,0,0,0,0,0,0,0,0,0,0,0,0,Fri Sep 27 09:37:18 2019,1500,The main experiment item,yes,FlankerTask.osexp,/Users/kaylicolpitts/Desktop/adv quant/lab 2,no,mono,no,18,no,white,no,yes,768,legacy,0,0,/Users/kaylicolpitts/Desktop/adv quant/lab 2/KC-subject-2.csv,legacy,Kafkaesque Koffka,3.2.8,0,h,NA,return,NA,NA,h,1146,NA,38273,NA,NA,1146,2,legacy,1024,2,48000,-16,experiment,SSHSS,2,even,NA,41461,NA,NA,NA,3156,NA,NA,41560,3177,NA,NA,41672,42819,41548,41672,FlankerTask,1,1146,1,yes,1024
100,100,987.5,987.5,black,legacy,legacy,legacy,0,incongruent,uniform,1,undefined,1,s,1,0,0,0,1,0,1,0,1,0,0,0,1,1,1,1,Fri Sep 27 09:37:18 2019,1500,The main experiment item,yes,FlankerTask.osexp,/Users/kaylicolpitts/Desktop/adv quant/lab 2,no,mono,no,18,no,white,no,yes,768,legacy,1,1,/Users/kaylicolpitts/Desktop/adv quant/lab 2/KC-subject-2.csv,legacy,Kafkaesque Koffka,3.2.8,0,s,NA,return,NA,NA,s,829,NA,38273,NA,NA,829,2,legacy,1024,2,48000,-16,experiment,HHSHH,2,even,42837,41461,NA,NA,NA,3156,NA,NA,43937,3177,NA,NA,44049,44880,43925,44049,FlankerTask,2,1975,2,yes,1024
100,100,853,853,black,legacy,legacy,legacy,0,congruent,uniform,1,undefined,1,s,2,0,0,0,2,0,2,0,2,0,0,0,2,2,2,2,Fri Sep 27 09:37:18 2019,1500,The main experiment item,yes,FlankerTask.osexp,/Users/kaylicolpitts/Desktop/adv quant/lab 2,no,mono,no,18,no,white,no,yes,768,legacy,2,2,/Users/kaylicolpitts/Desktop/adv quant/lab 2/KC-subject-2.csv,legacy,Kafkaesque Koffka,3.2.8,0,s,NA,return,NA,NA,s,584,NA,38273,NA,NA,584,2,legacy,1024,2,48000,-16,experiment,SSSSS,2,even,44894,41461,NA,NA,NA,3156,NA,NA,46001,3177,NA,NA,46113,46699,45990,46113,FlankerTask,3,2559,3,yes,1024
100,100,803.75,803.75,black,legacy,legacy,legacy,0,congruent,uniform,1,undefined,1,h,3,0,0,0,3,0,3,0,3,0,0,0,3,3,3,3,Fri Sep 27 09:37:18 2019,1500,The main experiment item,yes,FlankerTask.osexp,/Users/kaylicolpitts/Desktop/adv quant/lab 2,no,mono,no,18,no,white,no,yes,768,legacy,3,3,/Users/kaylicolpitts/Desktop/adv quant/lab 2/KC-subject-2.csv,legacy,Kafkaesque Koffka,3.2.8,0,h,NA,return,NA,NA,h,656,NA,38273,NA,NA,656,2,legacy,1024,2,48000,-16,experiment,HHHHH,2,even,46713,41461,NA,NA,NA,3156,NA,NA,47808,3177,NA,NA,47920,48578,47796,47920,FlankerTask,4,3215,4,yes,1024
100,100,769,769,black,legacy,legacy,legacy,0,congruent,uniform,1,undefined,1,h,4,0,0,0,4,0,4,0,4,0,0,0,4,4,4,4,Fri Sep 27 09:37:18 2019,1500,The main experiment item,yes,FlankerTask.osexp,/Users/kaylicolpitts/Desktop/adv quant/lab 2,no,mono,no,18,no,white,no,yes,768,legacy,4,4,/Users/kaylicolpitts/Desktop/adv quant/lab 2/KC-subject-2.csv,legacy,Kafkaesque Koffka,3.2.8,0,h,NA,return,NA,NA,h,630,NA,38273,NA,NA,630,2,legacy,1024,2,48000,-16,experiment,HHHHH,2,even,48592,41461,NA,NA,NA,3156,NA,NA,49683,3177,NA,NA,49795,50427,49671,49795,FlankerTask,5,3845,5,yes,1024
100,100,747.3333333,747.3333333,black,legacy,legacy,legacy,0,incongruent,uniform,1,undefined,1,h,5,0,0,0,5,0,5,0,5,0,0,0,5,5,5,5,Fri Sep 27 09:37:18 2019,1500,The main experiment item,yes,FlankerTask.osexp,/Users/kaylicolpitts/Desktop/adv quant/lab 2,no,mono,no,18,no,white,no,yes,768,legacy,5,5,/Users/kaylicolpitts/Desktop/adv quant/lab 2/KC-subject-2.csv,legacy,Kafkaesque Koffka,3.2.8,0,h,NA,return,NA,NA,h,639,NA,38273,NA,NA,639,2,legacy,1024,2,48000,-16,experiment,SSHSS,2,even,50441,41461,NA,NA,NA,3156,NA,NA,51533,3177,NA,NA,51645,52286,51521,51645,FlankerTask,6,4484,6,yes,1024
100,100,719.4285714,719.4285714,black,legacy,legacy,legacy,0,congruent,uniform,1,undefined,1,h,6,0,0,0,6,0,6,0,6,0,0,0,6,6,6,6,Fri Sep 27 09:37:18 2019,1500,The main experiment item,yes,FlankerTask.osexp,/Users/kaylicolpitts/Desktop/adv quant/lab 2,no,mono,no,18,no,white,no,yes,768,legacy,6,6,/Users/kaylicolpitts/Desktop/adv quant/lab 2/KC-subject-2.csv,legacy,Kafkaesque Koffka,3.2.8,0,h,NA,return,NA,NA,h,552,NA,38273,NA,NA,552,2,legacy,1024,2,48000,-16,experiment,HHHHH,2,even,52300,41461,NA,NA,NA,3156,NA,NA,53392,3177,NA,NA,53505,54059,53380,53505,FlankerTask,7,5036,7,yes,1024
100,100,698.75,698.75,black,legacy,legacy,legacy,0,incongruent,uniform,1,undefined,1,h,7,0,0,0,7,0,7,0,7,0,0,0,7,7,7,7,Fri Sep 27 09:37:18 2019,1500,The main experiment item,yes,FlankerTask.osexp,/Users/kaylicolpitts/Desktop/adv quant/lab 2,no,mono,no,18,no,white,no,yes,768,legacy,7,7,/Users/kaylicolpitts/Desktop/adv quant/lab 2/KC-subject-2.csv,legacy,Kafkaesque Koffka,3.2.8,0,h,NA,return,NA,NA,h,554,NA,38273,NA,NA,554,2,legacy,1024,2,48000,-16,experiment,SSHSS,2,even,54073,41461,NA,NA,NA,3156,NA,NA,55164,3177,NA,NA,55277,55832,55152,55277,FlankerTask,8,5590,8,yes,1024
100,100,678,678,black,legacy,legacy,legacy,0,congruent,uniform,1,undefined,1,h,8,0,0,0,8,0,8,0,8,0,0,0,8,8,8,8,Fri Sep 27 09:37:18 2019,1500,The main experiment item,yes,FlankerTask.osexp,/Users/kaylicolpitts/Desktop/adv quant/lab 2,no,mono,no,18,no,white,no,yes,768,legacy,8,8,/Users/kaylicolpitts/Desktop/adv quant/lab 2/KC-subject-2.csv,legacy,Kafkaesque Koffka,3.2.8,0,h,NA,return,NA,NA,h,512,NA,38273,NA,NA,512,2,legacy,1024,2,48000,-16,experiment,HHHHH,2,even,55847,41461,NA,NA,NA,3156,NA,NA,56941,3177,NA,NA,57053,57566,56928,57053,FlankerTask,9,6102,9,yes,1024
100,100,659.3,659.3,black,legacy,legacy,legacy,0,congruent,uniform,1,undefined,1,h,9,0,0,0,9,0,9,0,9,0,0,0,9,9,9,9,Fri Sep 27 09:37:18 2019,1500,The main experiment item,yes,FlankerTask.osexp,/Users/kaylicolpitts/Desktop/adv quant/lab 2,no,mono,no,18,no,white,no,yes,768,legacy,9,9,/Users/kaylicolpitts/Desktop/adv quant/lab 2/KC-subject-2.csv,legacy,Kafkaesque Koffka,3.2.8,0,h,NA,return,NA,NA,h,491,NA,38273,NA,NA,491,2,legacy,1024,2,48000,-16,experiment,HHHHH,2,even,57581,41461,NA,NA,NA,3156,NA,NA,58673,3177,NA,NA,58786,59278,58661,58785,FlankerTask,10,6593,10,yes,1024
100,100,658.0909091,658.0909091,black,legacy,legacy,legacy,0,incongruent,uniform,1,undefined,1,h,10,0,0,0,10,0,10,0,10,0,0,0,10,10,10,10,Fri Sep 27 09:37:18 2019,1500,The main experiment item,yes,FlankerTask.osexp,/Users/kaylicolpitts/Desktop/adv quant/lab 2,no,mono,no,18,no,white,no,yes,768,legacy,10,10,/Users/kaylicolpitts/Desktop/adv quant/lab 2/KC-subject-2.csv,legacy,Kafkaesque Koffka,3.2.8,0,h,NA,return,NA,NA,h,646,NA,38273,NA,NA,646,2,legacy,1024,2,48000,-16,experiment,SSHSS,2,even,59293,41461,NA,NA,NA,3156,NA,NA,60386,3177,NA,NA,60498,61145,60374,60498,FlankerTask,11,7239,11,yes,1024
100,100,653.25,653.25,black,legacy,legacy,legacy,0,incongruent,uniform,1,undefined,1,s,11,0,0,0,11,0,11,0,11,0,0,0,11,11,11,11,Fri Sep 27 09:37:18 2019,1500,The main experiment item,yes,FlankerTask.osexp,/Users/kaylicolpitts/Desktop/adv quant/lab 2,no,mono,no,18,no,white,no,yes,768,legacy,11,11,/Users/kaylicolpitts/Desktop/adv quant/lab 2/KC-subject-2.csv,legacy,Kafkaesque Koffka,3.2.8,0,s,NA,return,NA,NA,s,600,NA,38273,NA,NA,600,2,legacy,1024,2,48000,-16,experiment,HHSHH,2,even,61160,41461,NA,NA,NA,3156,NA,NA,62253,3177,NA,NA,62366,62967,62241,62365,FlankerTask,12,7839,12,yes,1024
100,100,646.8461538,646.8461538,black,legacy,legacy,legacy,0,congruent,uniform,1,undefined,1,h,12,0,0,0,12,0,12,0,12,0,0,0,12,12,12,12,Fri Sep 27 09:37:18 2019,1500,The main experiment item,yes,FlankerTask.osexp,/Users/kaylicolpitts/Desktop/adv quant/lab 2,no,mono,no,18,no,white,no,yes,768,legacy,12,12,/Users/kaylicolpitts/Desktop/adv quant/lab 2/KC-subject-2.csv,legacy,Kafkaesque Koffka,3.2.8,0,h,NA,return,NA,NA,h,570,NA,38273,NA,NA,570,2,legacy,1024,2,48000,-16,experiment,HHHHH,2,even,62982,41461,NA,NA,NA,3156,NA,NA,64072,3177,NA,NA,64184,64755,64060,64184,FlankerTask,13,8409,13,yes,1024
92.85714286,92.85714286,632.3571429,632.3571429,black,legacy,legacy,legacy,0,incongruent,uniform,0,undefined,0,s,13,0,0,0,13,0,13,0,13,0,0,0,13,13,13,13,Fri Sep 27 09:37:18 2019,1500,The main experiment item,yes,FlankerTask.osexp,/Users/kaylicolpitts/Desktop/adv quant/lab 2,no,mono,no,18,no,white,no,yes,768,legacy,13,13,/Users/kaylicolpitts/Desktop/adv quant/lab 2/KC-subject-2.csv,legacy,Kafkaesque Koffka,3.2.8,0,h,NA,return,NA,NA,h,444,NA,38273,NA,NA,444,2,legacy,1024,2,48000,-16,experiment,HHSHH,2,even,64769,41461,NA,NA,NA,3156,NA,NA,65861,3177,NA,NA,65974,66419,65849,65974,FlankerTask,13,8853,14,yes,1024
93.33333333,93.33333333,628.8,628.8,black,legacy,legacy,legacy,0,congruent,uniform,1,undefined,1,s,14,0,0,0,14,0,14,0,14,0,0,0,14,14,14,14,Fri Sep 27 09:37:18 2019,1500,The main experiment item,yes,FlankerTask.osexp,/Users/kaylicolpitts/Desktop/adv quant/lab 2,no,mono,no,18,no,white,no,yes,768,legacy,14,14,/Users/kaylicolpitts/Desktop/adv quant/lab 2/KC-subject-2.csv,legacy,Kafkaesque Koffka,3.2.8,0,s,NA,return,NA,NA,s,579,NA,38273,NA,NA,579,2,legacy,1024,2,48000,-16,experiment,SSSSS,2,even,66946,41461,NA,NA,66434,3156,NA,NA,68036,3177,NA,NA,68149,68729,68024,68149,FlankerTask,14,9432,15,yes,1024
93.75,93.75,628.6875,628.6875,black,legacy,legacy,legacy,0,incongruent,uniform,1,undefined,1,h,15,0,0,0,15,0,15,0,15,0,0,0,15,15,15,15,Fri Sep 27 09:37:18 2019,1500,The main experiment item,yes,FlankerTask.osexp,/Users/kaylicolpitts/Desktop/adv quant/lab 2,no,mono,no,18,no,white,no,yes,768,legacy,15,15,/Users/kaylicolpitts/Desktop/adv quant/lab 2/KC-subject-2.csv,legacy,Kafkaesque Koffka,3.2.8,0,h,NA,return,NA,NA,h,627,NA,38273,NA,NA,627,2,legacy,1024,2,48000,-16,experiment,SSHSS,2,even,68744,41461,NA,NA,66434,3156,NA,NA,69836,3177,NA,NA,69948,70576,69824,69948,FlankerTask,15,10059,16,yes,1024
94.11764706,94.11764706,625.1764706,625.1764706,black,legacy,legacy,legacy,0,congruent,uniform,1,undefined,1,s,16,0,0,0,16,0,16,0,16,0,0,0,16,16,16,16,Fri Sep 27 09:37:18 2019,1500,The main experiment item,yes,FlankerTask.osexp,/Users/kaylicolpitts/Desktop/adv quant/lab 2,no,mono,no,18,no,white,no,yes,768,legacy,16,16,/Users/kaylicolpitts/Desktop/adv quant/lab 2/KC-subject-2.csv,legacy,Kafkaesque Koffka,3.2.8,0,s,NA,return,NA,NA,s,569,NA,38273,NA,NA,569,2,legacy,1024,2,48000,-16,experiment,SSSSS,2,even,70590,41461,NA,NA,66434,3156,NA,NA,71682,3177,NA,NA,71795,72365,71670,71794,FlankerTask,16,10628,17,yes,1024
94.44444444,94.44444444,624.7777778,624.7777778,black,legacy,legacy,legacy,0,incongruent,uniform,1,undefined,1,h,17,0,0,0,17,0,17,0,17,0,0,0,17,17,17,17,Fri Sep 27 09:37:18 2019,1500,The main experiment item,yes,FlankerTask.osexp,/Users/kaylicolpitts/Desktop/adv quant/lab 2,no,mono,no,18,no,white,no,yes,768,legacy,17,17,/Users/kaylicolpitts/Desktop/adv quant/lab 2/KC-subject-2.csv,legacy,Kafkaesque Koffka,3.2.8,0,h,NA,return,NA,NA,h,618,NA,38273,NA,NA,618,2,legacy,1024,2,48000,-16,experiment,SSHSS,2,even,72390,41461,NA,NA,66434,3156,NA,NA,73486,3177,NA,NA,73599,74218,73471,73599,FlankerTask,17,11246,18,yes,1024
94.73684211,94.73684211,649.6315789,649.6315789,black,legacy,legacy,legacy,0,incongruent,uniform,1,undefined,1,h,18,0,0,0,18,0,18,0,18,0,0,0,18,18,18,18,Fri Sep 27 09:37:18 2019,1500,The main experiment item,yes,FlankerTask.osexp,/Users/kaylicolpitts/Desktop/adv quant/lab 2,no,mono,no,18,no,white,no,yes,768,legacy,18,18,/Users/kaylicolpitts/Desktop/adv quant/lab 2/KC-subject-2.csv,legacy,Kafkaesque Koffka,3.2.8,0,h,NA,return,NA,NA,h,1097,NA,38273,NA,NA,1097,2,legacy,1024,2,48000,-16,experiment,SSHSS,2,even,74233,41461,NA,NA,66434,3156,NA,NA,75325,3177,NA,NA,75438,76536,75312,75437,FlankerTask,18,12343,19,yes,1024
95,95,637.3,637.3,black,legacy,legacy,legacy,0,congruent,uniform,1,undefined,1,s,19,0,0,0,19,0,19,0,19,0,0,0,19,19,19,19,Fri Sep 27 09:37:18 2019,1500,The main experiment item,yes,FlankerTask.osexp,/Users/kaylicolpitts/Desktop/adv quant/lab 2,no,mono,no,18,no,white,no,yes,768,legacy,19,19,/Users/kaylicolpitts/Desktop/adv quant/lab 2/KC-subject-2.csv,legacy,Kafkaesque Koffka,3.2.8,0,s,NA,return,NA,NA,s,403,NA,38273,NA,NA,403,2,legacy,1024,2,48000,-16,experiment,SSSSS,2,even,76552,41461,NA,NA,66434,3156,NA,NA,77643,3177,NA,NA,77755,78160,77631,77755,FlankerTask,19,12746,20,yes,1024
95.23809524,95.23809524,632.7142857,632.7142857,black,legacy,legacy,legacy,0,congruent,uniform,1,undefined,1,s,20,0,0,0,20,0,20,0,20,0,0,0,20,20,20,20,Fri Sep 27 09:37:18 2019,1500,The main experiment item,yes,FlankerTask.osexp,/Users/kaylicolpitts/Desktop/adv quant/lab 2,no,mono,no,18,no,white,no,yes,768,legacy,20,20,/Users/kaylicolpitts/Desktop/adv quant/lab 2/KC-subject-2.csv,legacy,Kafkaesque Koffka,3.2.8,0,s,NA,return,NA,NA,s,541,NA,38273,NA,NA,541,2,legacy,1024,2,48000,-16,experiment,SSSSS,2,even,78174,41461,NA,NA,66434,3156,NA,NA,79265,3177,NA,NA,79378,79921,79253,79378,FlankerTask,20,13287,21,yes,1024
95.45454545,95.45454545,623.5,623.5,black,legacy,legacy,legacy,0,incongruent,uniform,1,undefined,1,h,21,0,0,0,21,0,21,0,21,0,0,0,21,21,21,21,Fri Sep 27 09:37:18 2019,1500,The main experiment item,yes,FlankerTask.osexp,/Users/kaylicolpitts/Desktop/adv quant/lab 2,no,mono,no,18,no,white,no,yes,768,legacy,21,21,/Users/kaylicolpitts/Desktop/adv quant/lab 2/KC-subject-2.csv,legacy,Kafkaesque Koffka,3.2.8,0,h,NA,return,NA,NA,h,430,NA,38273,NA,NA,430,2,legacy,1024,2,48000,-16,experiment,SSHSS,2,even,79935,41461,NA,NA,66434,3156,NA,NA,81026,3177,NA,NA,81138,81570,81014,81138,FlankerTask,21,13717,22,yes,1024
95.65217391,95.65217391,619.3478261,619.3478261,black,legacy,legacy,legacy,0,congruent,uniform,1,undefined,1,h,22,0,0,0,22,0,22,0,22,0,0,0,22,22,22,22,Fri Sep 27 09:37:18 2019,1500,The main experiment item,yes,FlankerTask.osexp,/Users/kaylicolpitts/Desktop/adv quant/lab 2,no,mono,no,18,no,white,no,yes,768,legacy,22,22,/Users/kaylicolpitts/Desktop/adv quant/lab 2/KC-subject-2.csv,legacy,Kafkaesque Koffka,3.2.8,0,h,NA,return,NA,NA,h,528,NA,38273,NA,NA,528,2,legacy,1024,2,48000,-16,experiment,HHHHH,2,even,81584,41461,NA,NA,66434,3156,NA,NA,82676,3177,NA,NA,82788,83318,82664,82788,FlankerTask,22,14245,23,yes,1024
95.83333333,95.83333333,616.0833333,616.0833333,black,legacy,legacy,legacy,0,congruent,uniform,1,undefined,1,s,23,0,0,0,23,0,23,0,23,0,0,0,23,23,23,23,Fri Sep 27 09:37:18 2019,1500,The main experiment item,yes,FlankerTask.osexp,/Users/kaylicolpitts/Desktop/adv quant/lab 2,no,mono,no,18,no,white,no,yes,768,legacy,23,23,/Users/kaylicolpitts/Desktop/adv quant/lab 2/KC-subject-2.csv,legacy,Kafkaesque Koffka,3.2.8,0,s,NA,return,NA,NA,s,541,NA,38273,NA,NA,541,2,legacy,1024,2,48000,-16,experiment,SSSSS,2,even,83332,41461,NA,NA,66434,3156,NA,NA,84425,3177,NA,NA,84538,85081,84413,84538,FlankerTask,23,14786,24,yes,1024
96,96,609.4,609.4,black,legacy,legacy,legacy,0,congruent,uniform,1,undefined,1,s,24,0,0,0,24,0,24,0,24,0,0,0,24,24,24,24,Fri Sep 27 09:37:18 2019,1500,The main experiment item,yes,FlankerTask.osexp,/Users/kaylicolpitts/Desktop/adv quant/lab 2,no,mono,no,18,no,white,no,yes,768,legacy,24,24,/Users/kaylicolpitts/Desktop/adv quant/lab 2/KC-subject-2.csv,legacy,Kafkaesque Koffka,3.2.8,0,s,NA,return,NA,NA,s,449,NA,38273,NA,NA,449,2,legacy,1024,2,48000,-16,experiment,SSSSS,2,even,85095,41461,NA,NA,66434,3156,NA,NA,86186,3177,NA,NA,86298,86749,86174,86298,FlankerTask,24,15235,25,yes,1024
96.15384615,96.15384615,602.4615385,602.4615385,black,legacy,legacy,legacy,0,congruent,uniform,1,undefined,1,h,25,0,0,0,25,0,25,0,25,0,0,0,25,25,25,25,Fri Sep 27 09:37:18 2019,1500,The main experiment item,yes,FlankerTask.osexp,/Users/kaylicolpitts/Desktop/adv quant/lab 2,no,mono,no,18,no,white,no,yes,768,legacy,25,25,/Users/kaylicolpitts/Desktop/adv quant/lab 2/KC-subject-2.csv,legacy,Kafkaesque Koffka,3.2.8,0,h,NA,return,NA,NA,h,429,NA,38273,NA,NA,429,2,legacy,1024,2,48000,-16,experiment,HHHHH,2,even,86763,41461,NA,NA,66434,3156,NA,NA,87856,3177,NA,NA,87968,88399,87843,87968,FlankerTask,25,15664,26,yes,1024
96.2962963,96.2962963,600.8518519,600.8518519,black,legacy,legacy,legacy,0,incongruent,uniform,1,undefined,1,s,26,0,0,0,26,0,26,0,26,0,0,0,26,26,26,26,Fri Sep 27 09:37:18 2019,1500,The main experiment item,yes,FlankerTask.osexp,/Users/kaylicolpitts/Desktop/adv quant/lab 2,no,mono,no,18,no,white,no,yes,768,legacy,26,26,/Users/kaylicolpitts/Desktop/adv quant/lab 2/KC-subject-2.csv,legacy,Kafkaesque Koffka,3.2.8,0,s,NA,return,NA,NA,s,559,NA,38273,NA,NA,559,2,legacy,1024,2,48000,-16,experiment,HHSHH,2,even,88414,41461,NA,NA,66434,3156,NA,NA,89507,3177,NA,NA,89620,90182,89494,89620,FlankerTask,26,16223,27,yes,1024
96.42857143,96.42857143,603.9642857,603.9642857,black,legacy,legacy,legacy,0,incongruent,uniform,1,undefined,1,h,27,0,0,0,27,0,27,0,27,0,0,0,27,27,27,27,Fri Sep 27 09:37:18 2019,1500,The main experiment item,yes,FlankerTask.osexp,/Users/kaylicolpitts/Desktop/adv quant/lab 2,no,mono,no,18,no,white,no,yes,768,legacy,27,27,/Users/kaylicolpitts/Desktop/adv quant/lab 2/KC-subject-2.csv,legacy,Kafkaesque Koffka,3.2.8,0,h,NA,return,NA,NA,h,688,NA,38273,NA,NA,688,2,legacy,1024,2,48000,-16,experiment,SSHSS,2,even,90195,41461,NA,NA,66434,3156,NA,NA,91287,3177,NA,NA,91401,92091,91275,91399,FlankerTask,27,16911,28,yes,1024
96.55172414,96.55172414,599.2758621,599.2758621,black,legacy,legacy,legacy,0,incongruent,uniform,1,undefined,1,s,28,0,0,0,28,0,28,0,28,0,0,0,28,28,28,28,Fri Sep 27 09:37:18 2019,1500,The main experiment item,yes,FlankerTask.osexp,/Users/kaylicolpitts/Desktop/adv quant/lab 2,no,mono,no,18,no,white,no,yes,768,legacy,28,28,/Users/kaylicolpitts/Desktop/adv quant/lab 2/KC-subject-2.csv,legacy,Kafkaesque Koffka,3.2.8,0,s,NA,return,NA,NA,s,468,NA,38273,NA,NA,468,2,legacy,1024,2,48000,-16,experiment,HHSHH,2,even,92105,41461,NA,NA,66434,3156,NA,NA,93197,3177,NA,NA,93310,93780,93185,93309,FlankerTask,28,17379,29,yes,1024
96.66666667,96.66666667,596.9333333,596.9333333,black,legacy,legacy,legacy,0,incongruent,uniform,1,undefined,1,s,29,0,0,0,29,0,29,0,29,0,0,0,29,29,29,29,Fri Sep 27 09:37:18 2019,1500,The main experiment item,yes,FlankerTask.osexp,/Users/kaylicolpitts/Desktop/adv quant/lab 2,no,mono,no,18,no,white,no,yes,768,legacy,29,29,/Users/kaylicolpitts/Desktop/adv quant/lab 2/KC-subject-2.csv,legacy,Kafkaesque Koffka,3.2.8,0,s,NA,return,NA,NA,s,529,NA,38273,NA,NA,529,2,legacy,1024,2,48000,-16,experiment,HHSHH,2,even,93794,41461,NA,NA,66434,3156,NA,NA,94887,3177,NA,NA,94999,95530,94875,94999,FlankerTask,29,17908,30,yes,1024
96.77419355,96.77419355,591,591,black,legacy,legacy,legacy,0,congruent,uniform,1,undefined,1,s,30,0,0,0,30,0,30,0,30,0,0,0,30,30,30,30,Fri Sep 27 09:37:18 2019,1500,The main experiment item,yes,FlankerTask.osexp,/Users/kaylicolpitts/Desktop/adv quant/lab 2,no,mono,no,18,no,white,no,yes,768,legacy,30,30,/Users/kaylicolpitts/Desktop/adv quant/lab 2/KC-subject-2.csv,legacy,Kafkaesque Koffka,3.2.8,0,s,NA,return,NA,NA,s,413,NA,38273,NA,NA,413,2,legacy,1024,2,48000,-16,experiment,SSSSS,2,even,95544,41461,NA,NA,66434,3156,NA,NA,96635,3177,NA,NA,96748,97162,96623,96747,FlankerTask,30,18321,31,yes,1024
96.875,96.875,588.03125,588.03125,black,legacy,legacy,legacy,0,congruent,uniform,1,undefined,1,h,31,0,0,0,31,0,31,0,31,0,0,0,31,31,31,31,Fri Sep 27 09:37:18 2019,1500,The main experiment item,yes,FlankerTask.osexp,/Users/kaylicolpitts/Desktop/adv quant/lab 2,no,mono,no,18,no,white,no,yes,768,legacy,31,31,/Users/kaylicolpitts/Desktop/adv quant/lab 2/KC-subject-2.csv,legacy,Kafkaesque Koffka,3.2.8,0,h,NA,return,NA,NA,h,496,NA,38273,NA,NA,496,2,legacy,1024,2,48000,-16,experiment,HHHHH,2,even,97177,41461,NA,NA,66434,3156,NA,NA,98268,3177,NA,NA,98381,98878,98256,98381,FlankerTask,31,18817,32,yes,1024
96.96969697,96.96969697,585.4242424,585.4242424,black,legacy,legacy,legacy,0,incongruent,uniform,1,undefined,1,h,32,0,0,0,32,0,32,0,32,0,0,0,32,32,32,32,Fri Sep 27 09:37:18 2019,1500,The main experiment item,yes,FlankerTask.osexp,/Users/kaylicolpitts/Desktop/adv quant/lab 2,no,mono,no,18,no,white,no,yes,768,legacy,32,32,/Users/kaylicolpitts/Desktop/adv quant/lab 2/KC-subject-2.csv,legacy,Kafkaesque Koffka,3.2.8,0,h,NA,return,NA,NA,h,502,NA,38273,NA,NA,502,2,legacy,1024,2,48000,-16,experiment,SSHSS,2,even,98892,41461,NA,NA,66434,3156,NA,NA,99984,3177,NA,NA,100097,100600,99972,100096,FlankerTask,32,19319,33,yes,1024
97.05882353,97.05882353,582.9411765,582.9411765,black,legacy,legacy,legacy,0,congruent,uniform,1,undefined,1,h,33,0,0,0,33,0,33,0,33,0,0,0,33,33,33,33,Fri Sep 27 09:37:18 2019,1500,The main experiment item,yes,FlankerTask.osexp,/Users/kaylicolpitts/Desktop/adv quant/lab 2,no,mono,no,18,no,white,no,yes,768,legacy,33,33,/Users/kaylicolpitts/Desktop/adv quant/lab 2/KC-subject-2.csv,legacy,Kafkaesque Koffka,3.2.8,0,h,NA,return,NA,NA,h,501,NA,38273,NA,NA,501,2,legacy,1024,2,48000,-16,experiment,HHHHH,2,even,100615,41461,NA,NA,66434,3156,NA,NA,101706,3177,NA,NA,101820,102322,101694,101820,FlankerTask,33,19820,34,yes,1024
97.14285714,97.14285714,578.8285714,578.8285714,black,legacy,legacy,legacy,0,congruent,uniform,1,undefined,1,s,34,0,0,0,34,0,34,0,34,0,0,0,34,34,34,34,Fri Sep 27 09:37:18 2019,1500,The main experiment item,yes,FlankerTask.osexp,/Users/kaylicolpitts/Desktop/adv quant/lab 2,no,mono,no,18,no,white,no,yes,768,legacy,34,34,/Users/kaylicolpitts/Desktop/adv quant/lab 2/KC-subject-2.csv,legacy,Kafkaesque Koffka,3.2.8,0,s,NA,return,NA,NA,s,439,NA,38273,NA,NA,439,2,legacy,1024,2,48000,-16,experiment,SSSSS,2,even,102337,41461,NA,NA,66434,3156,NA,NA,103431,3177,NA,NA,103544,103984,103419,103543,FlankerTask,34,20259,35,yes,1024
97.22222222,97.22222222,582.3611111,582.3611111,black,legacy,legacy,legacy,0,incongruent,uniform,1,undefined,1,s,35,0,0,0,35,0,35,0,35,0,0,0,35,35,35,35,Fri Sep 27 09:37:18 2019,1500,The main experiment item,yes,FlankerTask.osexp,/Users/kaylicolpitts/Desktop/adv quant/lab 2,no,mono,no,18,no,white,no,yes,768,legacy,35,35,/Users/kaylicolpitts/Desktop/adv quant/lab 2/KC-subject-2.csv,legacy,Kafkaesque Koffka,3.2.8,0,s,NA,return,NA,NA,s,706,NA,38273,NA,NA,706,2,legacy,1024,2,48000,-16,experiment,HHSHH,2,even,103998,41461,NA,NA,66434,3156,NA,NA,105089,3177,NA,NA,105201,105909,105077,105201,FlankerTask,35,20965,36,yes,1024
97.2972973,97.2972973,577.2432432,577.2432432,black,legacy,legacy,legacy,0,incongruent,uniform,1,undefined,1,s,36,0,0,0,36,0,36,0,36,0,0,0,36,36,36,36,Fri Sep 27 09:37:18 2019,1500,The main experiment item,yes,FlankerTask.osexp,/Users/kaylicolpitts/Desktop/adv quant/lab 2,no,mono,no,18,no,white,no,yes,768,legacy,36,36,/Users/kaylicolpitts/Desktop/adv quant/lab 2/KC-subject-2.csv,legacy,Kafkaesque Koffka,3.2.8,0,s,NA,return,NA,NA,s,393,NA,38273,NA,NA,393,2,legacy,1024,2,48000,-16,experiment,HHSHH,2,even,105926,41461,NA,NA,66434,3156,NA,NA,107018,3177,NA,NA,107130,107525,107006,107130,FlankerTask,36,21358,37,yes,1024
97.36842105,97.36842105,572.2631579,572.2631579,black,legacy,legacy,legacy,0,congruent,uniform,1,undefined,1,h,37,0,0,0,37,0,37,0,37,0,0,0,37,37,37,37,Fri Sep 27 09:37:18 2019,1500,The main experiment item,yes,FlankerTask.osexp,/Users/kaylicolpitts/Desktop/adv quant/lab 2,no,mono,no,18,no,white,no,yes,768,legacy,37,37,/Users/kaylicolpitts/Desktop/adv quant/lab 2/KC-subject-2.csv,legacy,Kafkaesque Koffka,3.2.8,0,h,NA,return,NA,NA,h,388,NA,38273,NA,NA,388,2,legacy,1024,2,48000,-16,experiment,HHHHH,2,even,107547,41461,NA,NA,66434,3156,NA,NA,108638,3177,NA,NA,108751,109141,108626,108751,FlankerTask,37,21746,38,yes,1024
97.43589744,97.43589744,569.5641026,569.5641026,black,legacy,legacy,legacy,0,congruent,uniform,1,undefined,1,h,38,0,0,0,38,0,38,0,38,0,0,0,38,38,38,38,Fri Sep 27 09:37:18 2019,1500,The main experiment item,yes,FlankerTask.osexp,/Users/kaylicolpitts/Desktop/adv quant/lab 2,no,mono,no,18,no,white,no,yes,768,legacy,38,38,/Users/kaylicolpitts/Desktop/adv quant/lab 2/KC-subject-2.csv,legacy,Kafkaesque Koffka,3.2.8,0,h,NA,return,NA,NA,h,467,NA,38273,NA,NA,467,2,legacy,1024,2,48000,-16,experiment,HHHHH,2,even,109156,41461,NA,NA,66434,3156,NA,NA,110248,3177,NA,NA,110361,110830,110236,110360,FlankerTask,38,22213,39,yes,1024
97.5,97.5,565.5,565.5,black,legacy,legacy,legacy,0,congruent,uniform,1,undefined,1,h,39,0,0,0,39,0,39,0,39,0,0,0,39,39,39,39,Fri Sep 27 09:37:18 2019,1500,The main experiment item,yes,FlankerTask.osexp,/Users/kaylicolpitts/Desktop/adv quant/lab 2,no,mono,no,18,no,white,no,yes,768,legacy,39,39,/Users/kaylicolpitts/Desktop/adv quant/lab 2/KC-subject-2.csv,legacy,Kafkaesque Koffka,3.2.8,0,h,NA,return,NA,NA,h,407,NA,38273,NA,NA,407,2,legacy,1024,2,48000,-16,experiment,HHHHH,2,even,110844,41461,NA,NA,66434,3156,NA,NA,111938,3177,NA,NA,112051,112460,111927,112050,FlankerTask,39,22620,40,yes,1024
97.56097561,97.56097561,560.7804878,560.7804878,black,legacy,legacy,legacy,0,congruent,uniform,1,undefined,1,s,40,0,0,0,40,0,40,0,40,0,0,0,40,40,40,40,Fri Sep 27 09:37:18 2019,1500,The main experiment item,yes,FlankerTask.osexp,/Users/kaylicolpitts/Desktop/adv quant/lab 2,no,mono,no,18,no,white,no,yes,768,legacy,40,40,/Users/kaylicolpitts/Desktop/adv quant/lab 2/KC-subject-2.csv,legacy,Kafkaesque Koffka,3.2.8,0,s,NA,return,NA,NA,s,372,NA,38273,NA,NA,372,2,legacy,1024,2,48000,-16,experiment,SSSSS,2,even,112473,41461,NA,NA,66434,3156,NA,NA,113564,3177,NA,NA,113677,114051,113552,113676,FlankerTask,40,22992,41,yes,1024
95.23809524,95.23809524,557.4285714,557.4285714,black,legacy,legacy,legacy,0,incongruent,uniform,0,undefined,0,s,41,0,0,0,41,0,41,0,41,0,0,0,41,41,41,41,Fri Sep 27 09:37:18 2019,1500,The main experiment item,yes,FlankerTask.osexp,/Users/kaylicolpitts/Desktop/adv quant/lab 2,no,mono,no,18,no,white,no,yes,768,legacy,41,41,/Users/kaylicolpitts/Desktop/adv quant/lab 2/KC-subject-2.csv,legacy,Kafkaesque Koffka,3.2.8,0,h,NA,return,NA,NA,h,420,NA,38273,NA,NA,420,2,legacy,1024,2,48000,-16,experiment,HHSHH,2,even,114065,41461,NA,NA,66434,3156,NA,NA,115158,3177,NA,NA,115271,115693,115146,115270,FlankerTask,40,23412,42,yes,1024
95.34883721,95.34883721,556.2790698,556.2790698,black,legacy,legacy,legacy,0,incongruent,uniform,1,undefined,1,h,42,0,0,0,42,0,42,0,42,0,0,0,42,42,42,42,Fri Sep 27 09:37:18 2019,1500,The main experiment item,yes,FlankerTask.osexp,/Users/kaylicolpitts/Desktop/adv quant/lab 2,no,mono,no,18,no,white,no,yes,768,legacy,42,42,/Users/kaylicolpitts/Desktop/adv quant/lab 2/KC-subject-2.csv,legacy,Kafkaesque Koffka,3.2.8,0,h,NA,return,NA,NA,h,508,NA,38273,NA,NA,508,2,legacy,1024,2,48000,-16,experiment,SSHSS,2,even,116219,41461,NA,NA,115707,3156,NA,NA,117310,3177,NA,NA,117423,117933,117299,117423,FlankerTask,41,23920,43,yes,1024
95.45454545,95.45454545,555.3863636,555.3863636,black,legacy,legacy,legacy,0,congruent,uniform,1,undefined,1,s,43,0,0,0,43,0,43,0,43,0,0,0,43,43,43,43,Fri Sep 27 09:37:18 2019,1500,The main experiment item,yes,FlankerTask.osexp,/Users/kaylicolpitts/Desktop/adv quant/lab 2,no,mono,no,18,no,white,no,yes,768,legacy,43,43,/Users/kaylicolpitts/Desktop/adv quant/lab 2/KC-subject-2.csv,legacy,Kafkaesque Koffka,3.2.8,0,s,NA,return,NA,NA,s,517,NA,38273,NA,NA,517,2,legacy,1024,2,48000,-16,experiment,SSSSS,2,even,117948,41461,NA,NA,115707,3156,NA,NA,119039,3177,NA,NA,119152,119671,119027,119152,FlankerTask,42,24437,44,yes,1024
95.55555556,95.55555556,551.9555556,551.9555556,black,legacy,legacy,legacy,0,congruent,uniform,1,undefined,1,s,44,0,0,0,44,0,44,0,44,0,0,0,44,44,44,44,Fri Sep 27 09:37:18 2019,1500,The main experiment item,yes,FlankerTask.osexp,/Users/kaylicolpitts/Desktop/adv quant/lab 2,no,mono,no,18,no,white,no,yes,768,legacy,44,44,/Users/kaylicolpitts/Desktop/adv quant/lab 2/KC-subject-2.csv,legacy,Kafkaesque Koffka,3.2.8,0,s,NA,return,NA,NA,s,401,NA,38273,NA,NA,401,2,legacy,1024,2,48000,-16,experiment,SSSSS,2,even,119686,41461,NA,NA,115707,3156,NA,NA,120778,3177,NA,NA,120890,121293,120765,120890,FlankerTask,43,24838,45,yes,1024
95.65217391,95.65217391,548.9130435,548.9130435,black,legacy,legacy,legacy,0,incongruent,uniform,1,undefined,1,s,45,0,0,0,45,0,45,0,45,0,0,0,45,45,45,45,Fri Sep 27 09:37:18 2019,1500,The main experiment item,yes,FlankerTask.osexp,/Users/kaylicolpitts/Desktop/adv quant/lab 2,no,mono,no,18,no,white,no,yes,768,legacy,45,45,/Users/kaylicolpitts/Desktop/adv quant/lab 2/KC-subject-2.csv,legacy,Kafkaesque Koffka,3.2.8,0,s,NA,return,NA,NA,s,412,NA,38273,NA,NA,412,2,legacy,1024,2,48000,-16,experiment,HHSHH,2,even,121308,41461,NA,NA,115707,3156,NA,NA,122402,3177,NA,NA,122515,122929,122389,122515,FlankerTask,44,25250,46,yes,1024
95.74468085,95.74468085,546.2340426,546.2340426,black,legacy,legacy,legacy,0,congruent,uniform,1,undefined,1,s,46,0,0,0,46,0,46,0,46,0,0,0,46,46,46,46,Fri Sep 27 09:37:18 2019,1500,The main experiment item,yes,FlankerTask.osexp,/Users/kaylicolpitts/Desktop/adv quant/lab 2,no,mono,no,18,no,white,no,yes,768,legacy,46,46,/Users/kaylicolpitts/Desktop/adv quant/lab 2/KC-subject-2.csv,legacy,Kafkaesque Koffka,3.2.8,0,s,NA,return,NA,NA,s,423,NA,38273,NA,NA,423,2,legacy,1024,2,48000,-16,experiment,SSSSS,2,even,122943,41461,NA,NA,115707,3156,NA,NA,124034,3177,NA,NA,124146,124571,124022,124146,FlankerTask,45,25673,47,yes,1024
95.83333333,95.83333333,543.7291667,543.7291667,black,legacy,legacy,legacy,0,congruent,uniform,1,undefined,1,s,47,0,0,0,47,0,47,0,47,0,0,0,47,47,47,47,Fri Sep 27 09:37:18 2019,1500,The main experiment item,yes,FlankerTask.osexp,/Users/kaylicolpitts/Desktop/adv quant/lab 2,no,mono,no,18,no,white,no,yes,768,legacy,47,47,/Users/kaylicolpitts/Desktop/adv quant/lab 2/KC-subject-2.csv,legacy,Kafkaesque Koffka,3.2.8,0,s,NA,return,NA,NA,s,426,NA,38273,NA,NA,426,2,legacy,1024,2,48000,-16,experiment,SSSSS,2,even,124585,41461,NA,NA,115707,3156,NA,NA,125676,3177,NA,NA,125789,126217,125664,125789,FlankerTask,46,26099,48,yes,1024
93.87755102,93.87755102,540.877551,540.877551,black,legacy,legacy,legacy,0,incongruent,uniform,0,undefined,0,h,48,0,0,0,48,0,48,0,48,0,0,0,48,48,48,48,Fri Sep 27 09:37:18 2019,1500,The main experiment item,yes,FlankerTask.osexp,/Users/kaylicolpitts/Desktop/adv quant/lab 2,no,mono,no,18,no,white,no,yes,768,legacy,48,48,/Users/kaylicolpitts/Desktop/adv quant/lab 2/KC-subject-2.csv,legacy,Kafkaesque Koffka,3.2.8,0,s,NA,return,NA,NA,s,404,NA,38273,NA,NA,404,2,legacy,1024,2,48000,-16,experiment,SSHSS,2,even,126231,41461,NA,NA,115707,3156,NA,NA,127322,3177,NA,NA,127435,127841,127310,127435,FlankerTask,46,26503,49,yes,1024
94,94,540.82,540.82,black,legacy,legacy,legacy,0,congruent,uniform,1,undefined,1,h,49,0,0,0,49,0,49,0,49,0,0,0,49,49,49,49,Fri Sep 27 09:37:18 2019,1500,The main experiment item,yes,FlankerTask.osexp,/Users/kaylicolpitts/Desktop/adv quant/lab 2,no,mono,no,18,no,white,no,yes,768,legacy,49,49,/Users/kaylicolpitts/Desktop/adv quant/lab 2/KC-subject-2.csv,legacy,Kafkaesque Koffka,3.2.8,0,h,NA,return,NA,NA,h,538,NA,38273,NA,NA,538,2,legacy,1024,2,48000,-16,experiment,HHHHH,2,even,128368,41461,NA,NA,127855,3156,NA,NA,129462,3177,NA,NA,129575,130115,129450,129575,FlankerTask,47,27041,50,yes,1024
94.11764706,94.11764706,540.7647059,540.7647059,black,legacy,legacy,legacy,0,incongruent,uniform,1,undefined,1,s,50,0,0,0,50,0,50,0,50,0,0,0,50,50,50,50,Fri Sep 27 09:37:18 2019,1500,The main experiment item,yes,FlankerTask.osexp,/Users/kaylicolpitts/Desktop/adv quant/lab 2,no,mono,no,18,no,white,no,yes,768,legacy,50,50,/Users/kaylicolpitts/Desktop/adv quant/lab 2/KC-subject-2.csv,legacy,Kafkaesque Koffka,3.2.8,0,s,NA,return,NA,NA,s,538,NA,38273,NA,NA,538,2,legacy,1024,2,48000,-16,experiment,HHSHH,2,even,130129,41461,NA,NA,127855,3156,NA,NA,131221,3177,NA,NA,131333,131873,131209,131333,FlankerTask,48,27579,51,yes,1024
94.23076923,94.23076923,537.8269231,537.8269231,black,legacy,legacy,legacy,0,incongruent,uniform,1,undefined,1,s,51,0,0,0,51,0,51,0,51,0,0,0,51,51,51,51,Fri Sep 27 09:37:18 2019,1500,The main experiment item,yes,FlankerTask.osexp,/Users/kaylicolpitts/Desktop/adv quant/lab 2,no,mono,no,18,no,white,no,yes,768,legacy,51,51,/Users/kaylicolpitts/Desktop/adv quant/lab 2/KC-subject-2.csv,legacy,Kafkaesque Koffka,3.2.8,0,s,NA,return,NA,NA,s,388,NA,38273,NA,NA,388,2,legacy,1024,2,48000,-16,experiment,HHSHH,2,even,131887,41461,NA,NA,127855,3156,NA,NA,132979,3177,NA,NA,133092,133482,132967,133092,FlankerTask,49,27967,52,yes,1024
94.33962264,94.33962264,536.7924528,536.7924528,black,legacy,legacy,legacy,0,congruent,uniform,1,undefined,1,s,52,0,0,0,52,0,52,0,52,0,0,0,52,52,52,52,Fri Sep 27 09:37:18 2019,1500,The main experiment item,yes,FlankerTask.osexp,/Users/kaylicolpitts/Desktop/adv quant/lab 2,no,mono,no,18,no,white,no,yes,768,legacy,52,52,/Users/kaylicolpitts/Desktop/adv quant/lab 2/KC-subject-2.csv,legacy,Kafkaesque Koffka,3.2.8,0,s,NA,return,NA,NA,s,483,NA,38273,NA,NA,483,2,legacy,1024,2,48000,-16,experiment,SSSSS,2,even,133496,41461,NA,NA,127855,3156,NA,NA,134587,3177,NA,NA,134700,135185,134575,134700,FlankerTask,50,28450,53,yes,1024
94.44444444,94.44444444,536.2592593,536.2592593,black,legacy,legacy,legacy,0,incongruent,uniform,1,undefined,1,h,53,0,0,0,53,0,53,0,53,0,0,0,53,53,53,53,Fri Sep 27 09:37:18 2019,1500,The main experiment item,yes,FlankerTask.osexp,/Users/kaylicolpitts/Desktop/adv quant/lab 2,no,mono,no,18,no,white,no,yes,768,legacy,53,53,/Users/kaylicolpitts/Desktop/adv quant/lab 2/KC-subject-2.csv,legacy,Kafkaesque Koffka,3.2.8,0,h,NA,return,NA,NA,h,508,NA,38273,NA,NA,508,2,legacy,1024,2,48000,-16,experiment,SSHSS,2,even,135199,41461,NA,NA,127855,3156,NA,NA,136292,3177,NA,NA,136406,136916,136280,136406,FlankerTask,51,28958,54,yes,1024
94.54545455,94.54545455,534,534,black,legacy,legacy,legacy,0,congruent,uniform,1,undefined,1,h,54,0,0,0,54,0,54,0,54,0,0,0,54,54,54,54,Fri Sep 27 09:37:18 2019,1500,The main experiment item,yes,FlankerTask.osexp,/Users/kaylicolpitts/Desktop/adv quant/lab 2,no,mono,no,18,no,white,no,yes,768,legacy,54,54,/Users/kaylicolpitts/Desktop/adv quant/lab 2/KC-subject-2.csv,legacy,Kafkaesque Koffka,3.2.8,0,h,NA,return,NA,NA,h,412,NA,38273,NA,NA,412,2,legacy,1024,2,48000,-16,experiment,HHHHH,2,even,136937,41461,NA,NA,127855,3156,NA,NA,138028,3177,NA,NA,138141,138555,138016,138141,FlankerTask,52,29370,55,yes,1024
94.64285714,94.64285714,533.6071429,533.6071429,black,legacy,legacy,legacy,0,incongruent,uniform,1,undefined,1,h,55,0,0,0,55,0,55,0,55,0,0,0,55,55,55,55,Fri Sep 27 09:37:18 2019,1500,The main experiment item,yes,FlankerTask.osexp,/Users/kaylicolpitts/Desktop/adv quant/lab 2,no,mono,no,18,no,white,no,yes,768,legacy,55,55,/Users/kaylicolpitts/Desktop/adv quant/lab 2/KC-subject-2.csv,legacy,Kafkaesque Koffka,3.2.8,0,h,NA,return,NA,NA,h,512,NA,38273,NA,NA,512,2,legacy,1024,2,48000,-16,experiment,SSHSS,2,even,138570,41461,NA,NA,127855,3156,NA,NA,139662,3177,NA,NA,139775,140289,139650,139775,FlankerTask,53,29882,56,yes,1024
94.73684211,94.73684211,535.9473684,535.9473684,black,legacy,legacy,legacy,0,congruent,uniform,1,undefined,1,h,56,0,0,0,56,0,56,0,56,0,0,0,56,56,56,56,Fri Sep 27 09:37:18 2019,1500,The main experiment item,yes,FlankerTask.osexp,/Users/kaylicolpitts/Desktop/adv quant/lab 2,no,mono,no,18,no,white,no,yes,768,legacy,56,56,/Users/kaylicolpitts/Desktop/adv quant/lab 2/KC-subject-2.csv,legacy,Kafkaesque Koffka,3.2.8,0,h,NA,return,NA,NA,h,667,NA,38273,NA,NA,667,2,legacy,1024,2,48000,-16,experiment,HHHHH,2,even,140304,41461,NA,NA,127855,3156,NA,NA,141397,3177,NA,NA,141509,142178,141385,141509,FlankerTask,54,30549,57,yes,1024
94.82758621,94.82758621,536.9310345,536.9310345,black,legacy,legacy,legacy,0,incongruent,uniform,1,undefined,1,s,57,0,0,0,57,0,57,0,57,0,0,0,57,57,57,57,Fri Sep 27 09:37:18 2019,1500,The main experiment item,yes,FlankerTask.osexp,/Users/kaylicolpitts/Desktop/adv quant/lab 2,no,mono,no,18,no,white,no,yes,768,legacy,57,57,/Users/kaylicolpitts/Desktop/adv quant/lab 2/KC-subject-2.csv,legacy,Kafkaesque Koffka,3.2.8,0,s,NA,return,NA,NA,s,593,NA,38273,NA,NA,593,2,legacy,1024,2,48000,-16,experiment,HHSHH,2,even,142193,41461,NA,NA,127855,3156,NA,NA,143285,3177,NA,NA,143397,143992,143273,143397,FlankerTask,55,31142,58,yes,1024
94.91525424,94.91525424,537.7118644,537.7118644,black,legacy,legacy,legacy,0,congruent,uniform,1,undefined,1,s,58,0,0,0,58,0,58,0,58,0,0,0,58,58,58,58,Fri Sep 27 09:37:18 2019,1500,The main experiment item,yes,FlankerTask.osexp,/Users/kaylicolpitts/Desktop/adv quant/lab 2,no,mono,no,18,no,white,no,yes,768,legacy,58,58,/Users/kaylicolpitts/Desktop/adv quant/lab 2/KC-subject-2.csv,legacy,Kafkaesque Koffka,3.2.8,0,s,NA,return,NA,NA,s,583,NA,38273,NA,NA,583,2,legacy,1024,2,48000,-16,experiment,SSSSS,2,even,144006,41461,NA,NA,127855,3156,NA,NA,145097,3177,NA,NA,145209,145794,145085,145209,FlankerTask,56,31725,59,yes,1024
95,95,539.1,539.1,black,legacy,legacy,legacy,0,incongruent,uniform,1,undefined,1,s,59,0,0,0,59,0,59,0,59,0,0,0,59,59,59,59,Fri Sep 27 09:37:18 2019,1500,The main experiment item,yes,FlankerTask.osexp,/Users/kaylicolpitts/Desktop/adv quant/lab 2,no,mono,no,18,no,white,no,yes,768,legacy,59,59,/Users/kaylicolpitts/Desktop/adv quant/lab 2/KC-subject-2.csv,legacy,Kafkaesque Koffka,3.2.8,0,s,NA,return,NA,NA,s,621,NA,38273,NA,NA,621,2,legacy,1024,2,48000,-16,experiment,HHSHH,2,even,145809,41461,NA,NA,127855,3156,NA,NA,146902,3177,NA,NA,147014,147637,146890,147014,FlankerTask,57,32346,60,yes,1024
95.08196721,95.08196721,540.2786885,540.2786885,black,legacy,legacy,legacy,0,incongruent,uniform,1,undefined,1,s,60,0,0,0,60,0,60,0,60,0,0,0,60,60,60,60,Fri Sep 27 09:37:18 2019,1500,The main experiment item,yes,FlankerTask.osexp,/Users/kaylicolpitts/Desktop/adv quant/lab 2,no,mono,no,18,no,white,no,yes,768,legacy,60,60,/Users/kaylicolpitts/Desktop/adv quant/lab 2/KC-subject-2.csv,legacy,Kafkaesque Koffka,3.2.8,0,s,NA,return,NA,NA,s,611,NA,38273,NA,NA,611,2,legacy,1024,2,48000,-16,experiment,HHSHH,2,even,147651,41461,NA,NA,127855,3156,NA,NA,148742,3177,NA,NA,148854,149467,148730,148854,FlankerTask,58,32957,61,yes,1024
95.16129032,95.16129032,539.8870968,539.8870968,black,legacy,legacy,legacy,0,incongruent,uniform,1,undefined,1,s,61,0,0,0,61,0,61,0,61,0,0,0,61,61,61,61,Fri Sep 27 09:37:18 2019,1500,The main experiment item,yes,FlankerTask.osexp,/Users/kaylicolpitts/Desktop/adv quant/lab 2,no,mono,no,18,no,white,no,yes,768,legacy,61,61,/Users/kaylicolpitts/Desktop/adv quant/lab 2/KC-subject-2.csv,legacy,Kafkaesque Koffka,3.2.8,0,s,NA,return,NA,NA,s,516,NA,38273,NA,NA,516,2,legacy,1024,2,48000,-16,experiment,HHSHH,2,even,149482,41461,NA,NA,127855,3156,NA,NA,150574,3177,NA,NA,150686,151204,150562,150686,FlankerTask,59,33473,62,yes,1024
95.23809524,95.23809524,540.5079365,540.5079365,black,legacy,legacy,legacy,0,incongruent,uniform,1,undefined,1,h,62,0,0,0,62,0,62,0,62,0,0,0,62,62,62,62,Fri Sep 27 09:37:18 2019,1500,The main experiment item,yes,FlankerTask.osexp,/Users/kaylicolpitts/Desktop/adv quant/lab 2,no,mono,no,18,no,white,no,yes,768,legacy,62,62,/Users/kaylicolpitts/Desktop/adv quant/lab 2/KC-subject-2.csv,legacy,Kafkaesque Koffka,3.2.8,0,h,NA,return,NA,NA,h,579,NA,38273,NA,NA,579,2,legacy,1024,2,48000,-16,experiment,SSHSS,2,even,151218,41461,NA,NA,127855,3156,NA,NA,152310,3177,NA,NA,152422,153003,152298,152422,FlankerTask,60,34052,63,yes,1024
95.3125,95.3125,539.859375,539.859375,black,legacy,legacy,legacy,0,congruent,uniform,1,undefined,1,s,63,0,0,0,63,0,63,0,63,0,0,0,63,63,63,63,Fri Sep 27 09:37:18 2019,1500,The main experiment item,yes,FlankerTask.osexp,/Users/kaylicolpitts/Desktop/adv quant/lab 2,no,mono,no,18,no,white,no,yes,768,legacy,63,63,/Users/kaylicolpitts/Desktop/adv quant/lab 2/KC-subject-2.csv,legacy,Kafkaesque Koffka,3.2.8,0,s,NA,return,NA,NA,s,499,NA,38273,NA,NA,499,2,legacy,1024,2,48000,-16,experiment,SSSSS,2,even,153018,41461,NA,NA,127855,3156,NA,NA,154109,3177,NA,NA,154222,154723,154097,154222,FlankerTask,61,34551,64,yes,1024
95.38461538,95.38461538,539.1538462,539.1538462,black,legacy,legacy,legacy,0,incongruent,uniform,1,undefined,1,s,64,0,0,0,64,0,64,0,64,0,0,0,64,64,64,64,Fri Sep 27 09:37:18 2019,1500,The main experiment item,yes,FlankerTask.osexp,/Users/kaylicolpitts/Desktop/adv quant/lab 2,no,mono,no,18,no,white,no,yes,768,legacy,64,64,/Users/kaylicolpitts/Desktop/adv quant/lab 2/KC-subject-2.csv,legacy,Kafkaesque Koffka,3.2.8,0,s,NA,return,NA,NA,s,494,NA,38273,NA,NA,494,2,legacy,1024,2,48000,-16,experiment,HHSHH,2,even,154738,41461,NA,NA,127855,3156,NA,NA,155830,3177,NA,NA,155942,156438,155818,155942,FlankerTask,62,35045,65,yes,1024
95.45454545,95.45454545,538.8636364,538.8636364,black,legacy,legacy,legacy,0,incongruent,uniform,1,undefined,1,s,65,0,0,0,65,0,65,0,65,0,0,0,65,65,65,65,Fri Sep 27 09:37:18 2019,1500,The main experiment item,yes,FlankerTask.osexp,/Users/kaylicolpitts/Desktop/adv quant/lab 2,no,mono,no,18,no,white,no,yes,768,legacy,65,65,/Users/kaylicolpitts/Desktop/adv quant/lab 2/KC-subject-2.csv,legacy,Kafkaesque Koffka,3.2.8,0,s,NA,return,NA,NA,s,520,NA,38273,NA,NA,520,2,legacy,1024,2,48000,-16,experiment,HHSHH,2,even,156453,41461,NA,NA,127855,3156,NA,NA,157545,3177,NA,NA,157658,158180,157533,157658,FlankerTask,63,35565,66,yes,1024
95.52238806,95.52238806,539.761194,539.761194,black,legacy,legacy,legacy,0,incongruent,uniform,1,undefined,1,h,66,0,0,0,66,0,66,0,66,0,0,0,66,66,66,66,Fri Sep 27 09:37:18 2019,1500,The main experiment item,yes,FlankerTask.osexp,/Users/kaylicolpitts/Desktop/adv quant/lab 2,no,mono,no,18,no,white,no,yes,768,legacy,66,66,/Users/kaylicolpitts/Desktop/adv quant/lab 2/KC-subject-2.csv,legacy,Kafkaesque Koffka,3.2.8,0,h,NA,return,NA,NA,h,599,NA,38273,NA,NA,599,2,legacy,1024,2,48000,-16,experiment,SSHSS,2,even,158194,41461,NA,NA,127855,3156,NA,NA,159299,3177,NA,NA,159413,160016,159283,159413,FlankerTask,64,36164,67,yes,1024
95.58823529,95.58823529,539.4117647,539.4117647,black,legacy,legacy,legacy,0,incongruent,uniform,1,undefined,1,s,67,0,0,0,67,0,67,0,67,0,0,0,67,67,67,67,Fri Sep 27 09:37:18 2019,1500,The main experiment item,yes,FlankerTask.osexp,/Users/kaylicolpitts/Desktop/adv quant/lab 2,no,mono,no,18,no,white,no,yes,768,legacy,67,67,/Users/kaylicolpitts/Desktop/adv quant/lab 2/KC-subject-2.csv,legacy,Kafkaesque Koffka,3.2.8,0,s,NA,return,NA,NA,s,516,NA,38273,NA,NA,516,2,legacy,1024,2,48000,-16,experiment,HHSHH,2,even,160030,41461,NA,NA,127855,3156,NA,NA,161127,3177,NA,NA,161240,161758,161114,161239,FlankerTask,65,36680,68,yes,1024
95.65217391,95.65217391,538.3478261,538.3478261,black,legacy,legacy,legacy,0,incongruent,uniform,1,undefined,1,s,68,0,0,0,68,0,68,0,68,0,0,0,68,68,68,68,Fri Sep 27 09:37:18 2019,1500,The main experiment item,yes,FlankerTask.osexp,/Users/kaylicolpitts/Desktop/adv quant/lab 2,no,mono,no,18,no,white,no,yes,768,legacy,68,68,/Users/kaylicolpitts/Desktop/adv quant/lab 2/KC-subject-2.csv,legacy,Kafkaesque Koffka,3.2.8,0,s,NA,return,NA,NA,s,466,NA,38273,NA,NA,466,2,legacy,1024,2,48000,-16,experiment,HHSHH,2,even,161772,41461,NA,NA,127855,3156,NA,NA,162864,3177,NA,NA,162977,163445,162852,162977,FlankerTask,66,37146,69,yes,1024
95.71428571,95.71428571,537.0142857,537.0142857,black,legacy,legacy,legacy,0,congruent,uniform,1,undefined,1,s,69,0,0,0,69,0,69,0,69,0,0,0,69,69,69,69,Fri Sep 27 09:37:18 2019,1500,The main experiment item,yes,FlankerTask.osexp,/Users/kaylicolpitts/Desktop/adv quant/lab 2,no,mono,no,18,no,white,no,yes,768,legacy,69,69,/Users/kaylicolpitts/Desktop/adv quant/lab 2/KC-subject-2.csv,legacy,Kafkaesque Koffka,3.2.8,0,s,NA,return,NA,NA,s,445,NA,38273,NA,NA,445,2,legacy,1024,2,48000,-16,experiment,SSSSS,2,even,163461,41461,NA,NA,127855,3156,NA,NA,164558,3177,NA,NA,164670,165117,164545,164670,FlankerTask,67,37591,70,yes,1024
95.77464789,95.77464789,536.9295775,536.9295775,black,legacy,legacy,legacy,0,incongruent,uniform,1,undefined,1,h,70,0,0,0,70,0,70,0,70,0,0,0,70,70,70,70,Fri Sep 27 09:37:18 2019,1500,The main experiment item,yes,FlankerTask.osexp,/Users/kaylicolpitts/Desktop/adv quant/lab 2,no,mono,no,18,no,white,no,yes,768,legacy,70,70,/Users/kaylicolpitts/Desktop/adv quant/lab 2/KC-subject-2.csv,legacy,Kafkaesque Koffka,3.2.8,0,h,NA,return,NA,NA,h,531,NA,38273,NA,NA,531,2,legacy,1024,2,48000,-16,experiment,SSHSS,2,even,165132,41461,NA,NA,127855,3156,NA,NA,166224,3177,NA,NA,166337,166870,166212,166337,FlankerTask,68,38122,71,yes,1024
95.83333333,95.83333333,537.4166667,537.4166667,black,legacy,legacy,legacy,0,congruent,uniform,1,undefined,1,s,71,0,0,0,71,0,71,0,71,0,0,0,71,71,71,71,Fri Sep 27 09:37:18 2019,1500,The main experiment item,yes,FlankerTask.osexp,/Users/kaylicolpitts/Desktop/adv quant/lab 2,no,mono,no,18,no,white,no,yes,768,legacy,71,71,/Users/kaylicolpitts/Desktop/adv quant/lab 2/KC-subject-2.csv,legacy,Kafkaesque Koffka,3.2.8,0,s,NA,return,NA,NA,s,572,NA,38273,NA,NA,572,2,legacy,1024,2,48000,-16,experiment,SSSSS,2,even,166886,41461,NA,NA,127855,3156,NA,NA,167978,3177,NA,NA,168091,168666,167966,168090,FlankerTask,69,38694,72,yes,1024
95.89041096,95.89041096,537.9041096,537.9041096,black,legacy,legacy,legacy,0,congruent,uniform,1,undefined,1,h,72,0,0,0,72,0,72,0,72,0,0,0,72,72,72,72,Fri Sep 27 09:37:18 2019,1500,The main experiment item,yes,FlankerTask.osexp,/Users/kaylicolpitts/Desktop/adv quant/lab 2,no,mono,no,18,no,white,no,yes,768,legacy,72,72,/Users/kaylicolpitts/Desktop/adv quant/lab 2/KC-subject-2.csv,legacy,Kafkaesque Koffka,3.2.8,0,h,NA,return,NA,NA,h,573,NA,38273,NA,NA,573,2,legacy,1024,2,48000,-16,experiment,HHHHH,2,even,168680,41461,NA,NA,127855,3156,NA,NA,169771,3177,NA,NA,169885,170460,169760,169885,FlankerTask,70,39267,73,yes,1024
95.94594595,95.94594595,539.2837838,539.2837838,black,legacy,legacy,legacy,0,incongruent,uniform,1,undefined,1,h,73,0,0,0,73,0,73,0,73,0,0,0,73,73,73,73,Fri Sep 27 09:37:18 2019,1500,The main experiment item,yes,FlankerTask.osexp,/Users/kaylicolpitts/Desktop/adv quant/lab 2,no,mono,no,18,no,white,no,yes,768,legacy,73,73,/Users/kaylicolpitts/Desktop/adv quant/lab 2/KC-subject-2.csv,legacy,Kafkaesque Koffka,3.2.8,0,h,NA,return,NA,NA,h,640,NA,38273,NA,NA,640,2,legacy,1024,2,48000,-16,experiment,SSHSS,2,even,170475,41461,NA,NA,127855,3156,NA,NA,171567,3177,NA,NA,171680,172323,171555,171679,FlankerTask,71,39907,74,yes,1024
96,96,538.24,538.24,black,legacy,legacy,legacy,0,congruent,uniform,1,undefined,1,h,74,0,0,0,74,0,74,0,74,0,0,0,74,74,74,74,Fri Sep 27 09:37:18 2019,1500,The main experiment item,yes,FlankerTask.osexp,/Users/kaylicolpitts/Desktop/adv quant/lab 2,no,mono,no,18,no,white,no,yes,768,legacy,74,74,/Users/kaylicolpitts/Desktop/adv quant/lab 2/KC-subject-2.csv,legacy,Kafkaesque Koffka,3.2.8,0,h,NA,return,NA,NA,h,461,NA,38273,NA,NA,461,2,legacy,1024,2,48000,-16,experiment,HHHHH,2,even,172337,41461,NA,NA,127855,3156,NA,NA,173431,3177,NA,NA,173543,174006,173419,173543,FlankerTask,72,40368,75,yes,1024
96.05263158,96.05263158,540.0657895,540.0657895,black,legacy,legacy,legacy,0,congruent,uniform,1,undefined,1,h,75,0,0,0,75,0,75,0,75,0,0,0,75,75,75,75,Fri Sep 27 09:37:18 2019,1500,The main experiment item,yes,FlankerTask.osexp,/Users/kaylicolpitts/Desktop/adv quant/lab 2,no,mono,no,18,no,white,no,yes,768,legacy,75,75,/Users/kaylicolpitts/Desktop/adv quant/lab 2/KC-subject-2.csv,legacy,Kafkaesque Koffka,3.2.8,0,h,NA,return,NA,NA,h,677,NA,38273,NA,NA,677,2,legacy,1024,2,48000,-16,experiment,HHHHH,2,even,174021,41461,NA,NA,127855,3156,NA,NA,175113,3177,NA,NA,175225,175905,175101,175225,FlankerTask,73,41045,76,yes,1024
96.1038961,96.1038961,538.8571429,538.8571429,black,legacy,legacy,legacy,0,congruent,uniform,1,undefined,1,s,76,0,0,0,76,0,76,0,76,0,0,0,76,76,76,76,Fri Sep 27 09:37:18 2019,1500,The main experiment item,yes,FlankerTask.osexp,/Users/kaylicolpitts/Desktop/adv quant/lab 2,no,mono,no,18,no,white,no,yes,768,legacy,76,76,/Users/kaylicolpitts/Desktop/adv quant/lab 2/KC-subject-2.csv,legacy,Kafkaesque Koffka,3.2.8,0,s,NA,return,NA,NA,s,447,NA,38273,NA,NA,447,2,legacy,1024,2,48000,-16,experiment,SSSSS,2,even,175919,41461,NA,NA,127855,3156,NA,NA,177009,3177,NA,NA,177123,177572,176999,177123,FlankerTask,74,41492,77,yes,1024
96.15384615,96.15384615,539.6666667,539.6666667,black,legacy,legacy,legacy,0,incongruent,uniform,1,undefined,1,h,77,0,0,0,77,0,77,0,77,0,0,0,77,77,77,77,Fri Sep 27 09:37:18 2019,1500,The main experiment item,yes,FlankerTask.osexp,/Users/kaylicolpitts/Desktop/adv quant/lab 2,no,mono,no,18,no,white,no,yes,768,legacy,77,77,/Users/kaylicolpitts/Desktop/adv quant/lab 2/KC-subject-2.csv,legacy,Kafkaesque Koffka,3.2.8,0,h,NA,return,NA,NA,h,602,NA,38273,NA,NA,602,2,legacy,1024,2,48000,-16,experiment,SSHSS,2,even,177587,41461,NA,NA,127855,3156,NA,NA,178678,3177,NA,NA,178791,179396,178666,178791,FlankerTask,75,42094,78,yes,1024
96.20253165,96.20253165,537.9240506,537.9240506,black,legacy,legacy,legacy,0,congruent,uniform,1,undefined,1,h,78,0,0,0,78,0,78,0,78,0,0,0,78,78,78,78,Fri Sep 27 09:37:18 2019,1500,The main experiment item,yes,FlankerTask.osexp,/Users/kaylicolpitts/Desktop/adv quant/lab 2,no,mono,no,18,no,white,no,yes,768,legacy,78,78,/Users/kaylicolpitts/Desktop/adv quant/lab 2/KC-subject-2.csv,legacy,Kafkaesque Koffka,3.2.8,0,h,NA,return,NA,NA,h,402,NA,38273,NA,NA,402,2,legacy,1024,2,48000,-16,experiment,HHHHH,2,even,179411,41461,NA,NA,127855,3156,NA,NA,180503,3177,NA,NA,180616,181020,180491,180616,FlankerTask,76,42496,79,yes,1024
96.25,96.25,537.8375,537.8375,black,legacy,legacy,legacy,0,incongruent,uniform,1,undefined,1,h,79,0,0,0,79,0,79,0,79,0,0,0,79,79,79,79,Fri Sep 27 09:37:18 2019,1500,The main experiment item,yes,FlankerTask.osexp,/Users/kaylicolpitts/Desktop/adv quant/lab 2,no,mono,no,18,no,white,no,yes,768,legacy,79,79,/Users/kaylicolpitts/Desktop/adv quant/lab 2/KC-subject-2.csv,legacy,Kafkaesque Koffka,3.2.8,0,h,NA,return,NA,NA,h,531,NA,38273,NA,NA,531,2,legacy,1024,2,48000,-16,experiment,SSHSS,2,even,181035,41461,NA,NA,127855,3156,NA,NA,182126,3177,NA,NA,182239,182772,182114,182238,FlankerTask,77,43027,80,yes,1024
96.2962963,96.2962963,537.8518519,537.8518519,black,legacy,legacy,legacy,0,incongruent,uniform,1,undefined,1,h,80,0,0,0,80,0,80,0,80,0,0,0,80,80,80,80,Fri Sep 27 09:37:18 2019,600,The main experiment item,yes,FlankerTask.osexp,/Users/kaylicolpitts/Desktop/adv quant/lab 2,no,mono,no,18,no,white,no,yes,768,legacy,0,79,/Users/kaylicolpitts/Desktop/adv quant/lab 2/KC-subject-2.csv,legacy,Kafkaesque Koffka,3.2.8,0,h,NA,return,s,NA,h,539,NA,38273,16019,NA,539,2,legacy,1024,2,48000,-16,experiment,SSHSS,2,even,182786,41461,199840,NA,127855,3156,NA,NA,199924,3177,183819,NA,200037,200578,199913,200037,FlankerTask,78,43566,81,yes,1024
96.34146341,96.34146341,537.2439024,537.2439024,black,legacy,legacy,legacy,0,incongruent,uniform,1,undefined,1,h,81,0,0,0,81,0,81,0,81,0,0,0,81,81,81,81,Fri Sep 27 09:37:18 2019,600,The main experiment item,yes,FlankerTask.osexp,/Users/kaylicolpitts/Desktop/adv quant/lab 2,no,mono,no,18,no,white,no,yes,768,legacy,1,79,/Users/kaylicolpitts/Desktop/adv quant/lab 2/KC-subject-2.csv,legacy,Kafkaesque Koffka,3.2.8,0,h,NA,return,s,NA,h,488,NA,38273,16019,NA,488,2,legacy,1024,2,48000,-16,experiment,SSHSS,2,even,200593,41461,199840,NA,127855,3156,NA,NA,201690,3177,183819,NA,201803,202293,201677,201803,FlankerTask,79,44054,82,yes,1024
95.18072289,95.18072289,534.9638554,534.9638554,black,legacy,legacy,legacy,0,incongruent,uniform,0,undefined,0,s,82,0,0,0,82,0,82,0,82,0,0,0,82,82,82,82,Fri Sep 27 09:37:18 2019,600,The main experiment item,yes,FlankerTask.osexp,/Users/kaylicolpitts/Desktop/adv quant/lab 2,no,mono,no,18,no,white,no,yes,768,legacy,2,79,/Users/kaylicolpitts/Desktop/adv quant/lab 2/KC-subject-2.csv,legacy,Kafkaesque Koffka,3.2.8,0,h,NA,return,s,NA,h,348,NA,38273,16019,NA,348,2,legacy,1024,2,48000,-16,experiment,HHSHH,2,even,202308,41461,199840,NA,127855,3156,NA,NA,203402,3177,183819,NA,203514,203864,203389,203514,FlankerTask,79,44402,83,yes,1024
95.23809524,95.23809524,533.6190476,533.6190476,black,legacy,legacy,legacy,0,incongruent,uniform,1,undefined,1,h,83,0,0,0,83,0,83,0,83,0,0,0,83,83,83,83,Fri Sep 27 09:37:18 2019,600,The main experiment item,yes,FlankerTask.osexp,/Users/kaylicolpitts/Desktop/adv quant/lab 2,no,mono,no,18,no,white,no,yes,768,legacy,3,79,/Users/kaylicolpitts/Desktop/adv quant/lab 2/KC-subject-2.csv,legacy,Kafkaesque Koffka,3.2.8,0,h,NA,return,s,NA,h,422,NA,38273,16019,NA,422,2,legacy,1024,2,48000,-16,experiment,SSHSS,2,even,204392,41461,199840,NA,203879,3156,NA,NA,205485,3177,183819,NA,205597,206021,205473,205597,FlankerTask,80,44824,84,yes,1024
95.29411765,95.29411765,533.6,533.6,black,legacy,legacy,legacy,0,incongruent,uniform,1,undefined,1,s,84,0,0,0,84,0,84,0,84,0,0,0,84,84,84,84,Fri Sep 27 09:37:18 2019,600,The main experiment item,yes,FlankerTask.osexp,/Users/kaylicolpitts/Desktop/adv quant/lab 2,no,mono,no,18,no,white,no,yes,768,legacy,4,79,/Users/kaylicolpitts/Desktop/adv quant/lab 2/KC-subject-2.csv,legacy,Kafkaesque Koffka,3.2.8,0,s,NA,return,s,NA,s,532,NA,38273,16019,NA,532,2,legacy,1024,2,48000,-16,experiment,HHSHH,2,even,206036,41461,199840,NA,203879,3156,NA,NA,207127,3177,183819,NA,207240,207774,207115,207240,FlankerTask,81,45356,85,yes,1024
95.34883721,95.34883721,533.8837209,533.8837209,black,legacy,legacy,legacy,0,incongruent,uniform,1,undefined,1,h,85,0,0,0,85,0,85,0,85,0,0,0,85,85,85,85,Fri Sep 27 09:37:18 2019,600,The main experiment item,yes,FlankerTask.osexp,/Users/kaylicolpitts/Desktop/adv quant/lab 2,no,mono,no,18,no,white,no,yes,768,legacy,5,79,/Users/kaylicolpitts/Desktop/adv quant/lab 2/KC-subject-2.csv,legacy,Kafkaesque Koffka,3.2.8,0,h,NA,return,s,NA,h,558,NA,38273,16019,NA,558,2,legacy,1024,2,48000,-16,experiment,SSHSS,2,even,207789,41461,199840,NA,203879,3156,NA,NA,208882,3177,183819,NA,208994,209554,208869,208994,FlankerTask,82,45914,86,yes,1024
95.40229885,95.40229885,534.6091954,534.6091954,black,legacy,legacy,legacy,0,incongruent,uniform,1,undefined,1,s,86,0,0,0,86,0,86,0,86,0,0,0,86,86,86,86,Fri Sep 27 09:37:18 2019,600,The main experiment item,yes,FlankerTask.osexp,/Users/kaylicolpitts/Desktop/adv quant/lab 2,no,mono,no,18,no,white,no,yes,768,legacy,6,79,/Users/kaylicolpitts/Desktop/adv quant/lab 2/KC-subject-2.csv,legacy,Kafkaesque Koffka,3.2.8,0,s,NA,return,s,NA,s,597,NA,38273,16019,NA,597,2,legacy,1024,2,48000,-16,experiment,HHSHH,2,even,209569,41461,199840,NA,203879,3156,NA,NA,210661,3177,183819,NA,210773,211372,210649,210773,FlankerTask,83,46511,87,yes,1024
95.45454545,95.45454545,533.9204545,533.9204545,black,legacy,legacy,legacy,0,congruent,uniform,1,undefined,1,h,87,0,0,0,87,0,87,0,87,0,0,0,87,87,87,87,Fri Sep 27 09:37:18 2019,600,The main experiment item,yes,FlankerTask.osexp,/Users/kaylicolpitts/Desktop/adv quant/lab 2,no,mono,no,18,no,white,no,yes,768,legacy,7,79,/Users/kaylicolpitts/Desktop/adv quant/lab 2/KC-subject-2.csv,legacy,Kafkaesque Koffka,3.2.8,0,h,NA,return,s,NA,h,474,NA,38273,16019,NA,474,2,legacy,1024,2,48000,-16,experiment,HHHHH,2,even,211387,41461,199840,NA,203879,3156,NA,NA,212482,3177,183819,NA,212595,213071,212470,212595,FlankerTask,84,46985,88,yes,1024
95.50561798,95.50561798,532.6067416,532.6067416,black,legacy,legacy,legacy,0,congruent,uniform,1,undefined,1,s,88,0,0,0,88,0,88,0,88,0,0,0,88,88,88,88,Fri Sep 27 09:37:18 2019,600,The main experiment item,yes,FlankerTask.osexp,/Users/kaylicolpitts/Desktop/adv quant/lab 2,no,mono,no,18,no,white,no,yes,768,legacy,8,79,/Users/kaylicolpitts/Desktop/adv quant/lab 2/KC-subject-2.csv,legacy,Kafkaesque Koffka,3.2.8,0,s,NA,return,s,NA,s,417,NA,38273,16019,NA,417,2,legacy,1024,2,48000,-16,experiment,SSSSS,2,even,213085,41461,199840,NA,203879,3156,NA,NA,214176,3177,183819,NA,214289,214708,214164,214289,FlankerTask,85,47402,89,yes,1024
95.55555556,95.55555556,530.9222222,530.9222222,black,legacy,legacy,legacy,0,congruent,uniform,1,undefined,1,s,89,0,0,0,89,0,89,0,89,0,0,0,89,89,89,89,Fri Sep 27 09:37:18 2019,600,The main experiment item,yes,FlankerTask.osexp,/Users/kaylicolpitts/Desktop/adv quant/lab 2,no,mono,no,18,no,white,no,yes,768,legacy,9,79,/Users/kaylicolpitts/Desktop/adv quant/lab 2/KC-subject-2.csv,legacy,Kafkaesque Koffka,3.2.8,0,s,NA,return,s,NA,s,381,NA,38273,16019,NA,381,2,legacy,1024,2,48000,-16,experiment,SSSSS,2,even,214724,41461,199840,NA,203879,3156,NA,NA,215815,3177,183819,NA,215927,216310,215803,215927,FlankerTask,86,47783,90,yes,1024
95.6043956,95.6043956,529.6043956,529.6043956,black,legacy,legacy,legacy,0,congruent,uniform,1,undefined,1,s,90,0,0,0,90,0,90,0,90,0,0,0,90,90,90,90,Fri Sep 27 09:37:18 2019,600,The main experiment item,yes,FlankerTask.osexp,/Users/kaylicolpitts/Desktop/adv quant/lab 2,no,mono,no,18,no,white,no,yes,768,legacy,10,79,/Users/kaylicolpitts/Desktop/adv quant/lab 2/KC-subject-2.csv,legacy,Kafkaesque Koffka,3.2.8,0,s,NA,return,s,NA,s,411,NA,38273,16019,NA,411,2,legacy,1024,2,48000,-16,experiment,SSSSS,2,even,216324,41461,199840,NA,203879,3156,NA,NA,217419,3177,183819,NA,217531,217944,217407,217531,FlankerTask,87,48194,91,yes,1024
95.65217391,95.65217391,528.9456522,528.9456522,black,legacy,legacy,legacy,0,congruent,uniform,1,undefined,1,h,91,0,0,0,91,0,91,0,91,0,0,0,91,91,91,91,Fri Sep 27 09:37:18 2019,600,The main experiment item,yes,FlankerTask.osexp,/Users/kaylicolpitts/Desktop/adv quant/lab 2,no,mono,no,18,no,white,no,yes,768,legacy,11,79,/Users/kaylicolpitts/Desktop/adv quant/lab 2/KC-subject-2.csv,legacy,Kafkaesque Koffka,3.2.8,0,h,NA,return,s,NA,h,469,NA,38273,16019,NA,469,2,legacy,1024,2,48000,-16,experiment,HHHHH,2,even,217959,41461,199840,NA,203879,3156,NA,NA,219050,3177,183819,NA,219162,219633,219038,219162,FlankerTask,88,48663,92,yes,1024
95.69892473,95.69892473,529.1505376,529.1505376,black,legacy,legacy,legacy,0,incongruent,uniform,1,undefined,1,h,92,0,0,0,92,0,92,0,92,0,0,0,92,92,92,92,Fri Sep 27 09:37:18 2019,600,The main experiment item,yes,FlankerTask.osexp,/Users/kaylicolpitts/Desktop/adv quant/lab 2,no,mono,no,18,no,white,no,yes,768,legacy,12,79,/Users/kaylicolpitts/Desktop/adv quant/lab 2/KC-subject-2.csv,legacy,Kafkaesque Koffka,3.2.8,0,h,NA,return,s,NA,h,548,NA,38273,16019,NA,548,2,legacy,1024,2,48000,-16,experiment,SSHSS,2,even,219647,41461,199840,NA,203879,3156,NA,NA,220738,3177,183819,NA,220850,221401,220726,220850,FlankerTask,89,49211,93,yes,1024
95.74468085,95.74468085,528.9148936,528.9148936,black,legacy,legacy,legacy,0,congruent,uniform,1,undefined,1,s,93,0,0,0,93,0,93,0,93,0,0,0,93,93,93,93,Fri Sep 27 09:37:18 2019,600,The main experiment item,yes,FlankerTask.osexp,/Users/kaylicolpitts/Desktop/adv quant/lab 2,no,mono,no,18,no,white,no,yes,768,legacy,13,79,/Users/kaylicolpitts/Desktop/adv quant/lab 2/KC-subject-2.csv,legacy,Kafkaesque Koffka,3.2.8,0,s,NA,return,s,NA,s,507,NA,38273,16019,NA,507,2,legacy,1024,2,48000,-16,experiment,SSSSS,2,even,221415,41461,199840,NA,203879,3156,NA,NA,222507,3177,183819,NA,222620,223129,222495,222620,FlankerTask,90,49718,94,yes,1024
95.78947368,95.78947368,527.3684211,527.3684211,black,legacy,legacy,legacy,0,congruent,uniform,1,undefined,1,s,94,0,0,0,94,0,94,0,94,0,0,0,94,94,94,94,Fri Sep 27 09:37:18 2019,600,The main experiment item,yes,FlankerTask.osexp,/Users/kaylicolpitts/Desktop/adv quant/lab 2,no,mono,no,18,no,white,no,yes,768,legacy,14,79,/Users/kaylicolpitts/Desktop/adv quant/lab 2/KC-subject-2.csv,legacy,Kafkaesque Koffka,3.2.8,0,s,NA,return,s,NA,s,382,NA,38273,16019,NA,382,2,legacy,1024,2,48000,-16,experiment,SSSSS,2,even,223143,41461,199840,NA,203879,3156,NA,NA,224235,3177,183819,NA,224347,224731,224222,224347,FlankerTask,91,50100,95,yes,1024
95.83333333,95.83333333,527.3333333,527.3333333,black,legacy,legacy,legacy,0,congruent,uniform,1,undefined,1,h,95,0,0,0,95,0,95,0,95,0,0,0,95,95,95,95,Fri Sep 27 09:37:18 2019,600,The main experiment item,yes,FlankerTask.osexp,/Users/kaylicolpitts/Desktop/adv quant/lab 2,no,mono,no,18,no,white,no,yes,768,legacy,15,79,/Users/kaylicolpitts/Desktop/adv quant/lab 2/KC-subject-2.csv,legacy,Kafkaesque Koffka,3.2.8,0,h,NA,return,s,NA,h,524,NA,38273,16019,NA,524,2,legacy,1024,2,48000,-16,experiment,HHHHH,2,even,224745,41461,199840,NA,203879,3156,NA,NA,225837,3177,183819,NA,225949,226475,225825,225949,FlankerTask,92,50624,96,yes,1024
95.87628866,95.87628866,527.0103093,527.0103093,black,legacy,legacy,legacy,0,incongruent,uniform,1,undefined,1,s,96,0,0,0,96,0,96,0,96,0,0,0,96,96,96,96,Fri Sep 27 09:37:18 2019,600,The main experiment item,yes,FlankerTask.osexp,/Users/kaylicolpitts/Desktop/adv quant/lab 2,no,mono,no,18,no,white,no,yes,768,legacy,16,79,/Users/kaylicolpitts/Desktop/adv quant/lab 2/KC-subject-2.csv,legacy,Kafkaesque Koffka,3.2.8,0,s,NA,return,s,NA,s,496,NA,38273,16019,NA,496,2,legacy,1024,2,48000,-16,experiment,HHSHH,2,even,226490,41461,199840,NA,203879,3156,NA,NA,227581,3177,183819,NA,227693,228192,227569,227693,FlankerTask,93,51120,97,yes,1024
95.91836735,95.91836735,527.1530612,527.1530612,black,legacy,legacy,legacy,0,incongruent,uniform,1,undefined,1,h,97,0,0,0,97,0,97,0,97,0,0,0,97,97,97,97,Fri Sep 27 09:37:18 2019,600,The main experiment item,yes,FlankerTask.osexp,/Users/kaylicolpitts/Desktop/adv quant/lab 2,no,mono,no,18,no,white,no,yes,768,legacy,17,79,/Users/kaylicolpitts/Desktop/adv quant/lab 2/KC-subject-2.csv,legacy,Kafkaesque Koffka,3.2.8,0,h,NA,return,s,NA,h,541,NA,38273,16019,NA,541,2,legacy,1024,2,48000,-16,experiment,SSHSS,2,even,228206,41461,199840,NA,203879,3156,NA,NA,229298,3177,183819,NA,229413,229957,229286,229413,FlankerTask,94,51661,98,yes,1024
95.95959596,95.95959596,526.4141414,526.4141414,black,legacy,legacy,legacy,0,congruent,uniform,1,undefined,1,s,98,0,0,0,98,0,98,0,98,0,0,0,98,98,98,98,Fri Sep 27 09:37:18 2019,600,The main experiment item,yes,FlankerTask.osexp,/Users/kaylicolpitts/Desktop/adv quant/lab 2,no,mono,no,18,no,white,no,yes,768,legacy,18,79,/Users/kaylicolpitts/Desktop/adv quant/lab 2/KC-subject-2.csv,legacy,Kafkaesque Koffka,3.2.8,0,s,NA,return,s,NA,s,454,NA,38273,16019,NA,454,2,legacy,1024,2,48000,-16,experiment,SSSSS,2,even,229971,41461,199840,NA,203879,3156,NA,NA,231061,3177,183819,NA,231175,231632,231050,231175,FlankerTask,95,52115,99,yes,1024
96,96,526.11,526.11,black,legacy,legacy,legacy,0,incongruent,uniform,1,undefined,1,h,99,0,0,0,99,0,99,0,99,0,0,0,99,99,99,99,Fri Sep 27 09:37:18 2019,600,The main experiment item,yes,FlankerTask.osexp,/Users/kaylicolpitts/Desktop/adv quant/lab 2,no,mono,no,18,no,white,no,yes,768,legacy,19,79,/Users/kaylicolpitts/Desktop/adv quant/lab 2/KC-subject-2.csv,legacy,Kafkaesque Koffka,3.2.8,0,h,NA,return,s,NA,h,496,NA,38273,16019,NA,496,2,legacy,1024,2,48000,-16,experiment,SSHSS,2,even,231646,41461,199840,NA,203879,3156,NA,NA,232738,3177,183819,NA,232851,233350,232726,232851,FlankerTask,96,52611,100,yes,1024
96.03960396,96.03960396,526.2574257,526.2574257,black,legacy,legacy,legacy,0,congruent,uniform,1,undefined,1,s,100,0,0,0,100,0,100,0,100,0,0,0,100,100,100,100,Fri Sep 27 09:37:18 2019,600,The main experiment item,yes,FlankerTask.osexp,/Users/kaylicolpitts/Desktop/adv quant/lab 2,no,mono,no,18,no,white,no,yes,768,legacy,20,79,/Users/kaylicolpitts/Desktop/adv quant/lab 2/KC-subject-2.csv,legacy,Kafkaesque Koffka,3.2.8,0,s,NA,return,s,NA,s,541,NA,38273,16019,NA,541,2,legacy,1024,2,48000,-16,experiment,SSSSS,2,even,233364,41461,199840,NA,203879,3156,NA,NA,234459,3177,183819,NA,234572,235116,234447,234571,FlankerTask,97,53152,101,yes,1024
96.07843137,96.07843137,527.7745098,527.7745098,black,legacy,legacy,legacy,0,incongruent,uniform,1,undefined,1,s,101,0,0,0,101,0,101,0,101,0,0,0,101,101,101,101,Fri Sep 27 09:37:18 2019,600,The main experiment item,yes,FlankerTask.osexp,/Users/kaylicolpitts/Desktop/adv quant/lab 2,no,mono,no,18,no,white,no,yes,768,legacy,21,79,/Users/kaylicolpitts/Desktop/adv quant/lab 2/KC-subject-2.csv,legacy,Kafkaesque Koffka,3.2.8,0,s,NA,return,s,NA,s,681,NA,38273,16019,NA,681,2,legacy,1024,2,48000,-16,experiment,HHSHH,2,even,235130,41461,199840,NA,203879,3156,NA,NA,236222,3177,183819,NA,236334,237018,236210,236334,FlankerTask,98,53833,102,yes,1024
96.11650485,96.11650485,528.223301,528.223301,black,legacy,legacy,legacy,0,incongruent,uniform,1,undefined,1,s,102,0,0,0,102,0,102,0,102,0,0,0,102,102,102,102,Fri Sep 27 09:37:18 2019,600,The main experiment item,yes,FlankerTask.osexp,/Users/kaylicolpitts/Desktop/adv quant/lab 2,no,mono,no,18,no,white,no,yes,768,legacy,22,79,/Users/kaylicolpitts/Desktop/adv quant/lab 2/KC-subject-2.csv,legacy,Kafkaesque Koffka,3.2.8,0,s,NA,return,s,NA,s,574,NA,38273,16019,NA,574,2,legacy,1024,2,48000,-16,experiment,HHSHH,2,even,237544,41461,199840,NA,203879,3156,237032,NA,238635,3177,183819,NA,238748,239325,238624,238747,FlankerTask,99,54407,103,yes,1024
96.15384615,96.15384615,527.1442308,527.1442308,black,legacy,legacy,legacy,0,incongruent,uniform,1,undefined,1,s,103,0,0,0,103,0,103,0,103,0,0,0,103,103,103,103,Fri Sep 27 09:37:18 2019,600,The main experiment item,yes,FlankerTask.osexp,/Users/kaylicolpitts/Desktop/adv quant/lab 2,no,mono,no,18,no,white,no,yes,768,legacy,23,79,/Users/kaylicolpitts/Desktop/adv quant/lab 2/KC-subject-2.csv,legacy,Kafkaesque Koffka,3.2.8,0,s,NA,return,s,NA,s,416,NA,38273,16019,NA,416,2,legacy,1024,2,48000,-16,experiment,HHSHH,2,even,239339,41461,199840,NA,203879,3156,237032,NA,240434,3177,183819,NA,240546,240965,240422,240546,FlankerTask,100,54823,104,yes,1024
96.19047619,96.19047619,526.2857143,526.2857143,black,legacy,legacy,legacy,0,congruent,uniform,1,undefined,1,h,104,0,0,0,104,0,104,0,104,0,0,0,104,104,104,104,Fri Sep 27 09:37:18 2019,600,The main experiment item,yes,FlankerTask.osexp,/Users/kaylicolpitts/Desktop/adv quant/lab 2,no,mono,no,18,no,white,no,yes,768,legacy,24,79,/Users/kaylicolpitts/Desktop/adv quant/lab 2/KC-subject-2.csv,legacy,Kafkaesque Koffka,3.2.8,0,h,NA,return,s,NA,h,437,NA,38273,16019,NA,437,2,legacy,1024,2,48000,-16,experiment,HHHHH,2,even,240979,41461,199840,NA,203879,3156,237032,NA,242070,3177,183819,NA,242182,242622,242058,242182,FlankerTask,101,55260,105,yes,1024
96.22641509,96.22641509,525.509434,525.509434,black,legacy,legacy,legacy,0,incongruent,uniform,1,undefined,1,s,105,0,0,0,105,0,105,0,105,0,0,0,105,105,105,105,Fri Sep 27 09:37:18 2019,600,The main experiment item,yes,FlankerTask.osexp,/Users/kaylicolpitts/Desktop/adv quant/lab 2,no,mono,no,18,no,white,no,yes,768,legacy,25,79,/Users/kaylicolpitts/Desktop/adv quant/lab 2/KC-subject-2.csv,legacy,Kafkaesque Koffka,3.2.8,0,s,NA,return,s,NA,s,444,NA,38273,16019,NA,444,2,legacy,1024,2,48000,-16,experiment,HHSHH,2,even,242636,41461,199840,NA,203879,3156,237032,NA,243727,3177,183819,NA,243841,244288,243716,243840,FlankerTask,102,55704,106,yes,1024
96.26168224,96.26168224,524.6448598,524.6448598,black,legacy,legacy,legacy,0,congruent,uniform,1,undefined,1,h,106,0,0,0,106,0,106,0,106,0,0,0,106,106,106,106,Fri Sep 27 09:37:18 2019,600,The main experiment item,yes,FlankerTask.osexp,/Users/kaylicolpitts/Desktop/adv quant/lab 2,no,mono,no,18,no,white,no,yes,768,legacy,26,79,/Users/kaylicolpitts/Desktop/adv quant/lab 2/KC-subject-2.csv,legacy,Kafkaesque Koffka,3.2.8,0,h,NA,return,s,NA,h,433,NA,38273,16019,NA,433,2,legacy,1024,2,48000,-16,experiment,HHHHH,2,even,244302,41461,199840,NA,203879,3156,237032,NA,245394,3177,183819,NA,245507,245942,245382,245507,FlankerTask,103,56137,107,yes,1024
96.2962963,96.2962963,525.7777778,525.7777778,black,legacy,legacy,legacy,0,incongruent,uniform,1,undefined,1,h,107,0,0,0,107,0,107,0,107,0,0,0,107,107,107,107,Fri Sep 27 09:37:18 2019,600,The main experiment item,yes,FlankerTask.osexp,/Users/kaylicolpitts/Desktop/adv quant/lab 2,no,mono,no,18,no,white,no,yes,768,legacy,27,79,/Users/kaylicolpitts/Desktop/adv quant/lab 2/KC-subject-2.csv,legacy,Kafkaesque Koffka,3.2.8,0,h,NA,return,s,NA,h,647,NA,38273,16019,NA,647,2,legacy,1024,2,48000,-16,experiment,SSHSS,2,even,245957,41461,199840,NA,203879,3156,237032,NA,247047,3177,183819,NA,247160,247809,247035,247160,FlankerTask,104,56784,108,yes,1024
96.33027523,96.33027523,524.6330275,524.6330275,black,legacy,legacy,legacy,0,incongruent,uniform,1,undefined,1,h,108,0,0,0,108,0,108,0,108,0,0,0,108,108,108,108,Fri Sep 27 09:37:18 2019,600,The main experiment item,yes,FlankerTask.osexp,/Users/kaylicolpitts/Desktop/adv quant/lab 2,no,mono,no,18,no,white,no,yes,768,legacy,28,79,/Users/kaylicolpitts/Desktop/adv quant/lab 2/KC-subject-2.csv,legacy,Kafkaesque Koffka,3.2.8,0,h,NA,return,s,NA,h,401,NA,38273,16019,NA,401,2,legacy,1024,2,48000,-16,experiment,SSHSS,2,even,248336,41461,199840,NA,203879,3156,247824,NA,249430,3177,183819,NA,249543,249947,249418,249543,FlankerTask,105,57185,109,yes,1024
96.36363636,96.36363636,524.1454545,524.1454545,black,legacy,legacy,legacy,0,congruent,uniform,1,undefined,1,h,109,0,0,0,109,0,109,0,109,0,0,0,109,109,109,109,Fri Sep 27 09:37:18 2019,600,The main experiment item,yes,FlankerTask.osexp,/Users/kaylicolpitts/Desktop/adv quant/lab 2,no,mono,no,18,no,white,no,yes,768,legacy,29,79,/Users/kaylicolpitts/Desktop/adv quant/lab 2/KC-subject-2.csv,legacy,Kafkaesque Koffka,3.2.8,0,h,NA,return,s,NA,h,471,NA,38273,16019,NA,471,2,legacy,1024,2,48000,-16,experiment,HHHHH,2,even,249962,41461,199840,NA,203879,3156,247824,NA,251053,3177,183819,NA,251165,251638,251041,251165,FlankerTask,106,57656,110,yes,1024
95.4954955,95.4954955,522.4414414,522.4414414,black,legacy,legacy,legacy,0,congruent,uniform,0,undefined,0,h,110,0,0,0,110,0,110,0,110,0,0,0,110,110,110,110,Fri Sep 27 09:37:18 2019,600,The main experiment item,yes,FlankerTask.osexp,/Users/kaylicolpitts/Desktop/adv quant/lab 2,no,mono,no,18,no,white,no,yes,768,legacy,30,79,/Users/kaylicolpitts/Desktop/adv quant/lab 2/KC-subject-2.csv,legacy,Kafkaesque Koffka,3.2.8,0,s,NA,return,s,NA,s,335,NA,38273,16019,NA,335,2,legacy,1024,2,48000,-16,experiment,HHHHH,2,even,251654,41461,199840,NA,203879,3156,247824,NA,252749,3177,183819,NA,252861,253198,252737,252861,FlankerTask,106,57991,111,yes,1024
95.53571429,95.53571429,522.2321429,522.2321429,black,legacy,legacy,legacy,0,congruent,uniform,1,undefined,1,s,111,0,0,0,111,0,111,0,111,0,0,0,111,111,111,111,Fri Sep 27 09:37:18 2019,600,The main experiment item,yes,FlankerTask.osexp,/Users/kaylicolpitts/Desktop/adv quant/lab 2,no,mono,no,18,no,white,no,yes,768,legacy,31,79,/Users/kaylicolpitts/Desktop/adv quant/lab 2/KC-subject-2.csv,legacy,Kafkaesque Koffka,3.2.8,0,s,NA,return,s,NA,s,499,NA,38273,16019,NA,499,2,legacy,1024,2,48000,-16,experiment,SSSSS,2,even,253724,41461,199840,NA,253212,3156,247824,NA,254815,3177,183819,NA,254927,255428,254804,254927,FlankerTask,107,58490,112,yes,1024
95.57522124,95.57522124,521.159292,521.159292,black,legacy,legacy,legacy,0,congruent,uniform,1,undefined,1,h,112,0,0,0,112,0,112,0,112,0,0,0,112,112,112,112,Fri Sep 27 09:37:18 2019,600,The main experiment item,yes,FlankerTask.osexp,/Users/kaylicolpitts/Desktop/adv quant/lab 2,no,mono,no,18,no,white,no,yes,768,legacy,32,79,/Users/kaylicolpitts/Desktop/adv quant/lab 2/KC-subject-2.csv,legacy,Kafkaesque Koffka,3.2.8,0,h,NA,return,s,NA,h,401,NA,38273,16019,NA,401,2,legacy,1024,2,48000,-16,experiment,HHHHH,2,even,255443,41461,199840,NA,253212,3156,247824,NA,256535,3177,183819,NA,256647,257050,256522,256647,FlankerTask,108,58891,113,yes,1024
94.73684211,94.73684211,519.8596491,519.8596491,black,legacy,legacy,legacy,0,incongruent,uniform,0,undefined,0,s,113,0,0,0,113,0,113,0,113,0,0,0,113,113,113,113,Fri Sep 27 09:37:18 2019,600,The main experiment item,yes,FlankerTask.osexp,/Users/kaylicolpitts/Desktop/adv quant/lab 2,no,mono,no,18,no,white,no,yes,768,legacy,33,79,/Users/kaylicolpitts/Desktop/adv quant/lab 2/KC-subject-2.csv,legacy,Kafkaesque Koffka,3.2.8,0,h,NA,return,s,NA,h,373,NA,38273,16019,NA,373,2,legacy,1024,2,48000,-16,experiment,HHSHH,2,even,257066,41461,199840,NA,253212,3156,247824,NA,258158,3177,183819,NA,258272,258647,258146,258271,FlankerTask,108,59264,114,yes,1024
94.7826087,94.7826087,519.0521739,519.0521739,black,legacy,legacy,legacy,0,congruent,uniform,1,undefined,1,h,114,0,0,0,114,0,114,0,114,0,0,0,114,114,114,114,Fri Sep 27 09:37:18 2019,600,The main experiment item,yes,FlankerTask.osexp,/Users/kaylicolpitts/Desktop/adv quant/lab 2,no,mono,no,18,no,white,no,yes,768,legacy,34,79,/Users/kaylicolpitts/Desktop/adv quant/lab 2/KC-subject-2.csv,legacy,Kafkaesque Koffka,3.2.8,0,h,NA,return,s,NA,h,427,NA,38273,16019,NA,427,2,legacy,1024,2,48000,-16,experiment,HHHHH,2,even,259173,41461,199840,NA,258661,3156,247824,NA,260265,3177,183819,NA,260378,260807,260253,260378,FlankerTask,109,59691,115,yes,1024
93.96551724,93.96551724,518.2155172,518.2155172,black,legacy,legacy,legacy,0,incongruent,uniform,0,undefined,0,h,115,0,0,0,115,0,115,0,115,0,0,0,115,115,115,115,Fri Sep 27 09:37:18 2019,600,The main experiment item,yes,FlankerTask.osexp,/Users/kaylicolpitts/Desktop/adv quant/lab 2,no,mono,no,18,no,white,no,yes,768,legacy,35,79,/Users/kaylicolpitts/Desktop/adv quant/lab 2/KC-subject-2.csv,legacy,Kafkaesque Koffka,3.2.8,0,s,NA,return,s,NA,s,422,NA,38273,16019,NA,422,2,legacy,1024,2,48000,-16,experiment,SSHSS,2,even,260821,41461,199840,NA,258661,3156,247824,NA,261914,3177,183819,NA,262026,262451,261902,262026,FlankerTask,109,60113,116,yes,1024
94.01709402,94.01709402,518.4786325,518.4786325,black,legacy,legacy,legacy,0,incongruent,uniform,1,undefined,1,s,116,0,0,0,116,0,116,0,116,0,0,0,116,116,116,116,Fri Sep 27 09:37:18 2019,600,The main experiment item,yes,FlankerTask.osexp,/Users/kaylicolpitts/Desktop/adv quant/lab 2,no,mono,no,18,no,white,no,yes,768,legacy,36,79,/Users/kaylicolpitts/Desktop/adv quant/lab 2/KC-subject-2.csv,legacy,Kafkaesque Koffka,3.2.8,0,s,NA,return,s,NA,s,549,NA,38273,16019,NA,549,2,legacy,1024,2,48000,-16,experiment,HHSHH,2,even,262977,41461,199840,NA,262465,3156,247824,NA,264068,3177,183819,NA,264181,264733,264056,264180,FlankerTask,110,60662,117,yes,1024
94.06779661,94.06779661,518.2966102,518.2966102,black,legacy,legacy,legacy,0,incongruent,uniform,1,undefined,1,s,117,0,0,0,117,0,117,0,117,0,0,0,117,117,117,117,Fri Sep 27 09:37:18 2019,600,The main experiment item,yes,FlankerTask.osexp,/Users/kaylicolpitts/Desktop/adv quant/lab 2,no,mono,no,18,no,white,no,yes,768,legacy,37,79,/Users/kaylicolpitts/Desktop/adv quant/lab 2/KC-subject-2.csv,legacy,Kafkaesque Koffka,3.2.8,0,s,NA,return,s,NA,s,497,NA,38273,16019,NA,497,2,legacy,1024,2,48000,-16,experiment,HHSHH,2,even,264747,41461,199840,NA,262465,3156,247824,NA,265839,3177,183819,NA,265952,266452,265827,265952,FlankerTask,111,61159,118,yes,1024
94.11764706,94.11764706,517.9411765,517.9411765,black,legacy,legacy,legacy,0,congruent,uniform,1,undefined,1,h,118,0,0,0,118,0,118,0,118,0,0,0,118,118,118,118,Fri Sep 27 09:37:18 2019,600,The main experiment item,yes,FlankerTask.osexp,/Users/kaylicolpitts/Desktop/adv quant/lab 2,no,mono,no,18,no,white,no,yes,768,legacy,38,79,/Users/kaylicolpitts/Desktop/adv quant/lab 2/KC-subject-2.csv,legacy,Kafkaesque Koffka,3.2.8,0,h,NA,return,s,NA,h,476,NA,38273,16019,NA,476,2,legacy,1024,2,48000,-16,experiment,HHHHH,2,even,266465,41461,199840,NA,262465,3156,247824,NA,267557,3177,183819,NA,267669,268147,267545,267669,FlankerTask,112,61635,119,yes,1024
94.16666667,94.16666667,516.8083333,516.8083333,black,legacy,legacy,legacy,0,congruent,uniform,1,undefined,1,s,119,0,0,0,119,0,119,0,119,0,0,0,119,119,119,119,Fri Sep 27 09:37:18 2019,600,The main experiment item,yes,FlankerTask.osexp,/Users/kaylicolpitts/Desktop/adv quant/lab 2,no,mono,no,18,no,white,no,yes,768,legacy,39,79,/Users/kaylicolpitts/Desktop/adv quant/lab 2/KC-subject-2.csv,legacy,Kafkaesque Koffka,3.2.8,0,s,NA,return,s,NA,s,382,NA,38273,16019,NA,382,2,legacy,1024,2,48000,-16,experiment,SSSSS,2,even,268161,41461,199840,NA,262465,3156,247824,NA,269252,3177,183819,NA,269364,269749,269240,269364,FlankerTask,113,62017,120,yes,1024
94.21487603,94.21487603,515.8842975,515.8842975,black,legacy,legacy,legacy,0,congruent,uniform,1,undefined,1,h,120,0,0,0,120,0,120,0,120,0,0,0,120,120,120,120,Fri Sep 27 09:37:18 2019,600,The main experiment item,yes,FlankerTask.osexp,/Users/kaylicolpitts/Desktop/adv quant/lab 2,no,mono,no,18,no,white,no,yes,768,legacy,40,79,/Users/kaylicolpitts/Desktop/adv quant/lab 2/KC-subject-2.csv,legacy,Kafkaesque Koffka,3.2.8,0,h,NA,return,s,NA,h,405,NA,38273,16019,NA,405,2,legacy,1024,2,48000,-16,experiment,HHHHH,2,even,269763,41461,199840,NA,262465,3156,247824,NA,270854,3177,183819,NA,270967,271374,270842,270966,FlankerTask,114,62422,121,yes,1024
93.44262295,93.44262295,514.9016393,514.9016393,black,legacy,legacy,legacy,0,incongruent,uniform,0,undefined,0,h,121,0,0,0,121,0,121,0,121,0,0,0,121,121,121,121,Fri Sep 27 09:37:18 2019,600,The main experiment item,yes,FlankerTask.osexp,/Users/kaylicolpitts/Desktop/adv quant/lab 2,no,mono,no,18,no,white,no,yes,768,legacy,41,79,/Users/kaylicolpitts/Desktop/adv quant/lab 2/KC-subject-2.csv,legacy,Kafkaesque Koffka,3.2.8,0,s,NA,return,s,NA,s,396,NA,38273,16019,NA,396,2,legacy,1024,2,48000,-16,experiment,SSHSS,2,even,271389,41461,199840,NA,262465,3156,247824,NA,272482,3177,183819,NA,272595,272994,272470,272595,FlankerTask,114,62818,122,yes,1024
93.49593496,93.49593496,514.796748,514.796748,black,legacy,legacy,legacy,0,congruent,uniform,1,undefined,1,s,122,0,0,0,122,0,122,0,122,0,0,0,122,122,122,122,Fri Sep 27 09:37:18 2019,600,The main experiment item,yes,FlankerTask.osexp,/Users/kaylicolpitts/Desktop/adv quant/lab 2,no,mono,no,18,no,white,no,yes,768,legacy,42,79,/Users/kaylicolpitts/Desktop/adv quant/lab 2/KC-subject-2.csv,legacy,Kafkaesque Koffka,3.2.8,0,s,NA,return,s,NA,s,502,NA,38273,16019,NA,502,2,legacy,1024,2,48000,-16,experiment,SSSSS,2,even,273519,41461,199840,NA,273007,3156,247824,NA,274610,3177,183819,NA,274723,275228,274598,274722,FlankerTask,115,63320,123,yes,1024
93.5483871,93.5483871,514.25,514.25,black,legacy,legacy,legacy,0,congruent,uniform,1,undefined,1,h,123,0,0,0,123,0,123,0,123,0,0,0,123,123,123,123,Fri Sep 27 09:37:18 2019,600,The main experiment item,yes,FlankerTask.osexp,/Users/kaylicolpitts/Desktop/adv quant/lab 2,no,mono,no,18,no,white,no,yes,768,legacy,43,79,/Users/kaylicolpitts/Desktop/adv quant/lab 2/KC-subject-2.csv,legacy,Kafkaesque Koffka,3.2.8,0,h,NA,return,s,NA,h,447,NA,38273,16019,NA,447,2,legacy,1024,2,48000,-16,experiment,HHHHH,2,even,275242,41461,199840,NA,273007,3156,247824,NA,276334,3177,183819,NA,276446,276896,276322,276446,FlankerTask,116,63767,124,yes,1024
93.6,93.6,513.976,513.976,black,legacy,legacy,legacy,0,congruent,uniform,1,undefined,1,s,124,0,0,0,124,0,124,0,124,0,0,0,124,124,124,124,Fri Sep 27 09:37:18 2019,600,The main experiment item,yes,FlankerTask.osexp,/Users/kaylicolpitts/Desktop/adv quant/lab 2,no,mono,no,18,no,white,no,yes,768,legacy,44,79,/Users/kaylicolpitts/Desktop/adv quant/lab 2/KC-subject-2.csv,legacy,Kafkaesque Koffka,3.2.8,0,s,NA,return,s,NA,s,480,NA,38273,16019,NA,480,2,legacy,1024,2,48000,-16,experiment,SSSSS,2,even,276910,41461,199840,NA,273007,3156,247824,NA,278001,3177,183819,NA,278114,278597,277989,278114,FlankerTask,117,64247,125,yes,1024
93.65079365,93.65079365,513.1666667,513.1666667,black,legacy,legacy,legacy,0,congruent,uniform,1,undefined,1,s,125,0,0,0,125,0,125,0,125,0,0,0,125,125,125,125,Fri Sep 27 09:37:18 2019,600,The main experiment item,yes,FlankerTask.osexp,/Users/kaylicolpitts/Desktop/adv quant/lab 2,no,mono,no,18,no,white,no,yes,768,legacy,45,79,/Users/kaylicolpitts/Desktop/adv quant/lab 2/KC-subject-2.csv,legacy,Kafkaesque Koffka,3.2.8,0,s,NA,return,s,NA,s,412,NA,38273,16019,NA,412,2,legacy,1024,2,48000,-16,experiment,SSSSS,2,even,278611,41461,199840,NA,273007,3156,247824,NA,279703,3177,183819,NA,279817,280232,279691,279816,FlankerTask,118,64659,126,yes,1024
93.7007874,93.7007874,512.8267717,512.8267717,black,legacy,legacy,legacy,0,incongruent,uniform,1,undefined,1,s,126,0,0,0,126,0,126,0,126,0,0,0,126,126,126,126,Fri Sep 27 09:37:18 2019,600,The main experiment item,yes,FlankerTask.osexp,/Users/kaylicolpitts/Desktop/adv quant/lab 2,no,mono,no,18,no,white,no,yes,768,legacy,46,79,/Users/kaylicolpitts/Desktop/adv quant/lab 2/KC-subject-2.csv,legacy,Kafkaesque Koffka,3.2.8,0,s,NA,return,s,NA,s,470,NA,38273,16019,NA,470,2,legacy,1024,2,48000,-16,experiment,HHSHH,2,even,280246,41461,199840,NA,273007,3156,247824,NA,281337,3177,183819,NA,281450,281923,281326,281450,FlankerTask,119,65129,127,yes,1024
93.75,93.75,511.8359375,511.8359375,black,legacy,legacy,legacy,0,congruent,uniform,1,undefined,1,s,127,0,0,0,127,0,127,0,127,0,0,0,127,127,127,127,Fri Sep 27 09:37:18 2019,600,The main experiment item,yes,FlankerTask.osexp,/Users/kaylicolpitts/Desktop/adv quant/lab 2,no,mono,no,18,no,white,no,yes,768,legacy,47,79,/Users/kaylicolpitts/Desktop/adv quant/lab 2/KC-subject-2.csv,legacy,Kafkaesque Koffka,3.2.8,0,s,NA,return,s,NA,s,386,NA,38273,16019,NA,386,2,legacy,1024,2,48000,-16,experiment,SSSSS,2,even,281937,41461,199840,NA,273007,3156,247824,NA,283027,3177,183819,NA,283139,283527,283015,283139,FlankerTask,120,65515,128,yes,1024
93.79844961,93.79844961,510.9069767,510.9069767,black,legacy,legacy,legacy,0,congruent,uniform,1,undefined,1,s,128,0,0,0,128,0,128,0,128,0,0,0,128,128,128,128,Fri Sep 27 09:37:18 2019,600,The main experiment item,yes,FlankerTask.osexp,/Users/kaylicolpitts/Desktop/adv quant/lab 2,no,mono,no,18,no,white,no,yes,768,legacy,48,79,/Users/kaylicolpitts/Desktop/adv quant/lab 2/KC-subject-2.csv,legacy,Kafkaesque Koffka,3.2.8,0,s,NA,return,s,NA,s,392,NA,38273,16019,NA,392,2,legacy,1024,2,48000,-16,experiment,SSSSS,2,even,283542,41461,199840,NA,273007,3156,247824,NA,284633,3177,183819,NA,284745,285139,284621,284745,FlankerTask,121,65907,129,yes,1024
93.84615385,93.84615385,510.2076923,510.2076923,black,legacy,legacy,legacy,0,incongruent,uniform,1,undefined,1,h,129,0,0,0,129,0,129,0,129,0,0,0,129,129,129,129,Fri Sep 27 09:37:18 2019,600,The main experiment item,yes,FlankerTask.osexp,/Users/kaylicolpitts/Desktop/adv quant/lab 2,no,mono,no,18,no,white,no,yes,768,legacy,49,79,/Users/kaylicolpitts/Desktop/adv quant/lab 2/KC-subject-2.csv,legacy,Kafkaesque Koffka,3.2.8,0,h,NA,return,s,NA,h,420,NA,38273,16019,NA,420,2,legacy,1024,2,48000,-16,experiment,SSHSS,2,even,285154,41461,199840,NA,273007,3156,247824,NA,286246,3177,183819,NA,286359,286781,286234,286359,FlankerTask,122,66327,130,yes,1024
93.89312977,93.89312977,510.1450382,510.1450382,black,legacy,legacy,legacy,0,incongruent,uniform,1,undefined,1,s,130,0,0,0,130,0,130,0,130,0,0,0,130,130,130,130,Fri Sep 27 09:37:18 2019,600,The main experiment item,yes,FlankerTask.osexp,/Users/kaylicolpitts/Desktop/adv quant/lab 2,no,mono,no,18,no,white,no,yes,768,legacy,50,79,/Users/kaylicolpitts/Desktop/adv quant/lab 2/KC-subject-2.csv,legacy,Kafkaesque Koffka,3.2.8,0,s,NA,return,s,NA,s,502,NA,38273,16019,NA,502,2,legacy,1024,2,48000,-16,experiment,HHSHH,2,even,286798,41461,199840,NA,273007,3156,247824,NA,287890,3177,183819,NA,288002,288506,287878,288002,FlankerTask,123,66829,131,yes,1024
93.93939394,93.93939394,509.2121212,509.2121212,black,legacy,legacy,legacy,0,congruent,uniform,1,undefined,1,s,131,0,0,0,131,0,131,0,131,0,0,0,131,131,131,131,Fri Sep 27 09:37:18 2019,600,The main experiment item,yes,FlankerTask.osexp,/Users/kaylicolpitts/Desktop/adv quant/lab 2,no,mono,no,18,no,white,no,yes,768,legacy,51,79,/Users/kaylicolpitts/Desktop/adv quant/lab 2/KC-subject-2.csv,legacy,Kafkaesque Koffka,3.2.8,0,s,NA,return,s,NA,s,387,NA,38273,16019,NA,387,2,legacy,1024,2,48000,-16,experiment,SSSSS,2,even,288520,41461,199840,NA,273007,3156,247824,NA,289612,3177,183819,NA,289726,290115,289600,289725,FlankerTask,124,67216,132,yes,1024
93.98496241,93.98496241,508.4210526,508.4210526,black,legacy,legacy,legacy,0,congruent,uniform,1,undefined,1,h,132,0,0,0,132,0,132,0,132,0,0,0,132,132,132,132,Fri Sep 27 09:37:18 2019,600,The main experiment item,yes,FlankerTask.osexp,/Users/kaylicolpitts/Desktop/adv quant/lab 2,no,mono,no,18,no,white,no,yes,768,legacy,52,79,/Users/kaylicolpitts/Desktop/adv quant/lab 2/KC-subject-2.csv,legacy,Kafkaesque Koffka,3.2.8,0,h,NA,return,s,NA,h,404,NA,38273,16019,NA,404,2,legacy,1024,2,48000,-16,experiment,HHHHH,2,even,290130,41461,199840,NA,273007,3156,247824,NA,291222,3177,183819,NA,291335,291741,291210,291334,FlankerTask,125,67620,133,yes,1024
94.02985075,94.02985075,507.0522388,507.0522388,black,legacy,legacy,legacy,0,congruent,uniform,1,undefined,1,h,133,0,0,0,133,0,133,0,133,0,0,0,133,133,133,133,Fri Sep 27 09:37:18 2019,600,The main experiment item,yes,FlankerTask.osexp,/Users/kaylicolpitts/Desktop/adv quant/lab 2,no,mono,no,18,no,white,no,yes,768,legacy,53,79,/Users/kaylicolpitts/Desktop/adv quant/lab 2/KC-subject-2.csv,legacy,Kafkaesque Koffka,3.2.8,0,h,NA,return,s,NA,h,325,NA,38273,16019,NA,325,2,legacy,1024,2,48000,-16,experiment,HHHHH,2,even,291756,41461,199840,NA,273007,3156,247824,NA,292848,3177,183819,NA,292961,293288,292836,292960,FlankerTask,126,67945,134,yes,1024
94.07407407,94.07407407,505.9037037,505.9037037,black,legacy,legacy,legacy,0,incongruent,uniform,1,undefined,1,h,134,0,0,0,134,0,134,0,134,0,0,0,134,134,134,134,Fri Sep 27 09:37:18 2019,600,The main experiment item,yes,FlankerTask.osexp,/Users/kaylicolpitts/Desktop/adv quant/lab 2,no,mono,no,18,no,white,no,yes,768,legacy,54,79,/Users/kaylicolpitts/Desktop/adv quant/lab 2/KC-subject-2.csv,legacy,Kafkaesque Koffka,3.2.8,0,h,NA,return,s,NA,h,352,NA,38273,16019,NA,352,2,legacy,1024,2,48000,-16,experiment,SSHSS,2,even,293303,41461,199840,NA,273007,3156,247824,NA,294397,3177,183819,NA,294509,294864,294384,294509,FlankerTask,127,68297,135,yes,1024
94.11764706,94.11764706,505.8014706,505.8014706,black,legacy,legacy,legacy,0,incongruent,uniform,1,undefined,1,s,135,0,0,0,135,0,135,0,135,0,0,0,135,135,135,135,Fri Sep 27 09:37:18 2019,600,The main experiment item,yes,FlankerTask.osexp,/Users/kaylicolpitts/Desktop/adv quant/lab 2,no,mono,no,18,no,white,no,yes,768,legacy,55,79,/Users/kaylicolpitts/Desktop/adv quant/lab 2/KC-subject-2.csv,legacy,Kafkaesque Koffka,3.2.8,0,s,NA,return,s,NA,s,492,NA,38273,16019,NA,492,2,legacy,1024,2,48000,-16,experiment,HHSHH,2,even,294880,41461,199840,NA,273007,3156,247824,NA,295973,3177,183819,NA,296085,296580,295961,296085,FlankerTask,128,68789,136,yes,1024
94.16058394,94.16058394,505.5036496,505.5036496,black,legacy,legacy,legacy,0,congruent,uniform,1,undefined,1,h,136,0,0,0,136,0,136,0,136,0,0,0,136,136,136,136,Fri Sep 27 09:37:18 2019,600,The main experiment item,yes,FlankerTask.osexp,/Users/kaylicolpitts/Desktop/adv quant/lab 2,no,mono,no,18,no,white,no,yes,768,legacy,56,79,/Users/kaylicolpitts/Desktop/adv quant/lab 2/KC-subject-2.csv,legacy,Kafkaesque Koffka,3.2.8,0,h,NA,return,s,NA,h,465,NA,38273,16019,NA,465,2,legacy,1024,2,48000,-16,experiment,HHHHH,2,even,296594,41461,199840,NA,273007,3156,247824,NA,297686,3177,183819,NA,297800,298268,297674,297800,FlankerTask,129,69254,137,yes,1024
94.20289855,94.20289855,504.7028986,504.7028986,black,legacy,legacy,legacy,0,congruent,uniform,1,undefined,1,h,137,0,0,0,137,0,137,0,137,0,0,0,137,137,137,137,Fri Sep 27 09:37:18 2019,600,The main experiment item,yes,FlankerTask.osexp,/Users/kaylicolpitts/Desktop/adv quant/lab 2,no,mono,no,18,no,white,no,yes,768,legacy,57,79,/Users/kaylicolpitts/Desktop/adv quant/lab 2/KC-subject-2.csv,legacy,Kafkaesque Koffka,3.2.8,0,h,NA,return,s,NA,h,395,NA,38273,16019,NA,395,2,legacy,1024,2,48000,-16,experiment,HHHHH,2,even,298283,41461,199840,NA,273007,3156,247824,NA,299377,3177,183819,NA,299489,299887,299365,299489,FlankerTask,130,69649,138,yes,1024
94.24460432,94.24460432,503.942446,503.942446,black,legacy,legacy,legacy,0,incongruent,uniform,1,undefined,1,s,138,0,0,0,138,0,138,0,138,0,0,0,138,138,138,138,Fri Sep 27 09:37:18 2019,600,The main experiment item,yes,FlankerTask.osexp,/Users/kaylicolpitts/Desktop/adv quant/lab 2,no,mono,no,18,no,white,no,yes,768,legacy,58,79,/Users/kaylicolpitts/Desktop/adv quant/lab 2/KC-subject-2.csv,legacy,Kafkaesque Koffka,3.2.8,0,s,NA,return,s,NA,s,399,NA,38273,16019,NA,399,2,legacy,1024,2,48000,-16,experiment,HHSHH,2,even,299902,41461,199840,NA,273007,3156,247824,NA,300994,3177,183819,NA,301107,301509,300982,301107,FlankerTask,131,70048,139,yes,1024
93.57142857,93.57142857,502.8,502.8,black,legacy,legacy,legacy,0,incongruent,uniform,0,undefined,0,h,139,0,0,0,139,0,139,0,139,0,0,0,139,139,139,139,Fri Sep 27 09:37:18 2019,600,The main experiment item,yes,FlankerTask.osexp,/Users/kaylicolpitts/Desktop/adv quant/lab 2,no,mono,no,18,no,white,no,yes,768,legacy,59,79,/Users/kaylicolpitts/Desktop/adv quant/lab 2/KC-subject-2.csv,legacy,Kafkaesque Koffka,3.2.8,0,s,NA,return,s,NA,s,344,NA,38273,16019,NA,344,2,legacy,1024,2,48000,-16,experiment,SSHSS,2,even,301523,41461,199840,NA,273007,3156,247824,NA,302615,3177,183819,NA,302728,303075,302603,302727,FlankerTask,131,70392,140,yes,1024
93.61702128,93.61702128,502.2907801,502.2907801,black,legacy,legacy,legacy,0,congruent,uniform,1,undefined,1,h,140,0,0,0,140,0,140,0,140,0,0,0,140,140,140,140,Fri Sep 27 09:37:18 2019,600,The main experiment item,yes,FlankerTask.osexp,/Users/kaylicolpitts/Desktop/adv quant/lab 2,no,mono,no,18,no,white,no,yes,768,legacy,60,79,/Users/kaylicolpitts/Desktop/adv quant/lab 2/KC-subject-2.csv,legacy,Kafkaesque Koffka,3.2.8,0,h,NA,return,s,NA,h,431,NA,38273,16019,NA,431,2,legacy,1024,2,48000,-16,experiment,HHHHH,2,even,303601,41461,199840,NA,303089,3156,247824,NA,304693,3177,183819,NA,304805,305239,304681,304805,FlankerTask,132,70823,141,yes,1024
93.66197183,93.66197183,501.7746479,501.7746479,black,legacy,legacy,legacy,0,incongruent,uniform,1,undefined,1,h,141,0,0,0,141,0,141,0,141,0,0,0,141,141,141,141,Fri Sep 27 09:37:18 2019,600,The main experiment item,yes,FlankerTask.osexp,/Users/kaylicolpitts/Desktop/adv quant/lab 2,no,mono,no,18,no,white,no,yes,768,legacy,61,79,/Users/kaylicolpitts/Desktop/adv quant/lab 2/KC-subject-2.csv,legacy,Kafkaesque Koffka,3.2.8,0,h,NA,return,s,NA,h,429,NA,38273,16019,NA,429,2,legacy,1024,2,48000,-16,experiment,SSHSS,2,even,305253,41461,199840,NA,303089,3156,247824,NA,306345,3177,183819,NA,306458,306890,306333,306458,FlankerTask,133,71252,142,yes,1024
93.70629371,93.70629371,502.6993007,502.6993007,black,legacy,legacy,legacy,0,incongruent,uniform,1,undefined,1,s,142,0,0,0,142,0,142,0,142,0,0,0,142,142,142,142,Fri Sep 27 09:37:18 2019,600,The main experiment item,yes,FlankerTask.osexp,/Users/kaylicolpitts/Desktop/adv quant/lab 2,no,mono,no,18,no,white,no,yes,768,legacy,62,79,/Users/kaylicolpitts/Desktop/adv quant/lab 2/KC-subject-2.csv,legacy,Kafkaesque Koffka,3.2.8,0,s,NA,return,s,NA,s,634,NA,38273,16019,NA,634,2,legacy,1024,2,48000,-16,experiment,HHSHH,2,even,306904,41461,199840,NA,303089,3156,247824,NA,307997,3177,183819,NA,308110,308747,307985,308110,FlankerTask,134,71886,143,yes,1024
93.75,93.75,502.1388889,502.1388889,black,legacy,legacy,legacy,0,congruent,uniform,1,undefined,1,h,143,0,0,0,143,0,143,0,143,0,0,0,143,143,143,143,Fri Sep 27 09:37:18 2019,600,The main experiment item,yes,FlankerTask.osexp,/Users/kaylicolpitts/Desktop/adv quant/lab 2,no,mono,no,18,no,white,no,yes,768,legacy,63,79,/Users/kaylicolpitts/Desktop/adv quant/lab 2/KC-subject-2.csv,legacy,Kafkaesque Koffka,3.2.8,0,h,NA,return,s,NA,h,422,NA,38273,16019,NA,422,2,legacy,1024,2,48000,-16,experiment,HHHHH,2,even,309273,41461,199840,NA,303089,3156,308761,NA,310365,3177,183819,NA,310478,310903,310353,310478,FlankerTask,135,72308,144,yes,1024
93.10344828,93.10344828,501.1724138,501.1724138,black,legacy,legacy,legacy,0,congruent,uniform,0,undefined,0,s,144,0,0,0,144,0,144,0,144,0,0,0,144,144,144,144,Fri Sep 27 09:37:18 2019,600,The main experiment item,yes,FlankerTask.osexp,/Users/kaylicolpitts/Desktop/adv quant/lab 2,no,mono,no,18,no,white,no,yes,768,legacy,64,79,/Users/kaylicolpitts/Desktop/adv quant/lab 2/KC-subject-2.csv,legacy,Kafkaesque Koffka,3.2.8,0,h,NA,return,s,NA,h,362,NA,38273,16019,NA,362,2,legacy,1024,2,48000,-16,experiment,SSSSS,2,even,310917,41461,199840,NA,303089,3156,308761,NA,312008,3177,183819,NA,312120,312485,311997,312120,FlankerTask,135,72670,145,yes,1024
93.15068493,93.15068493,501.7260274,501.7260274,black,legacy,legacy,legacy,0,congruent,uniform,1,undefined,1,s,145,0,0,0,145,0,145,0,145,0,0,0,145,145,145,145,Fri Sep 27 09:37:18 2019,600,The main experiment item,yes,FlankerTask.osexp,/Users/kaylicolpitts/Desktop/adv quant/lab 2,no,mono,no,18,no,white,no,yes,768,legacy,65,79,/Users/kaylicolpitts/Desktop/adv quant/lab 2/KC-subject-2.csv,legacy,Kafkaesque Koffka,3.2.8,0,s,NA,return,s,NA,s,582,NA,38273,16019,NA,582,2,legacy,1024,2,48000,-16,experiment,SSSSS,2,even,313010,41461,199840,NA,312499,3156,308761,NA,314102,3177,183819,NA,314215,314800,314090,314214,FlankerTask,136,73252,146,yes,1024
92.5170068,92.5170068,501.8571429,501.8571429,black,legacy,legacy,legacy,0,incongruent,uniform,0,undefined,0,s,146,0,0,0,146,0,146,0,146,0,0,0,146,146,146,146,Fri Sep 27 09:37:18 2019,600,The main experiment item,yes,FlankerTask.osexp,/Users/kaylicolpitts/Desktop/adv quant/lab 2,no,mono,no,18,no,white,no,yes,768,legacy,66,79,/Users/kaylicolpitts/Desktop/adv quant/lab 2/KC-subject-2.csv,legacy,Kafkaesque Koffka,3.2.8,0,h,NA,return,s,NA,h,521,NA,38273,16019,NA,521,2,legacy,1024,2,48000,-16,experiment,HHSHH,2,even,314814,41461,199840,NA,312499,3156,308761,NA,315917,3177,183819,NA,316030,316554,315903,316029,FlankerTask,136,73773,147,yes,1024
92.56756757,92.56756757,502.0743243,502.0743243,black,legacy,legacy,legacy,0,incongruent,uniform,1,undefined,1,h,147,0,0,0,147,0,147,0,147,0,0,0,147,147,147,147,Fri Sep 27 09:37:18 2019,600,The main experiment item,yes,FlankerTask.osexp,/Users/kaylicolpitts/Desktop/adv quant/lab 2,no,mono,no,18,no,white,no,yes,768,legacy,67,79,/Users/kaylicolpitts/Desktop/adv quant/lab 2/KC-subject-2.csv,legacy,Kafkaesque Koffka,3.2.8,0,h,NA,return,s,NA,h,534,NA,38273,16019,NA,534,2,legacy,1024,2,48000,-16,experiment,SSHSS,2,even,317082,41461,199840,NA,316569,3156,308761,NA,318174,3177,183819,NA,318286,318823,318162,318286,FlankerTask,137,74307,148,yes,1024
92.61744966,92.61744966,501.5838926,501.5838926,black,legacy,legacy,legacy,0,congruent,uniform,1,undefined,1,s,148,0,0,0,148,0,148,0,148,0,0,0,148,148,148,148,Fri Sep 27 09:37:18 2019,600,The main experiment item,yes,FlankerTask.osexp,/Users/kaylicolpitts/Desktop/adv quant/lab 2,no,mono,no,18,no,white,no,yes,768,legacy,68,79,/Users/kaylicolpitts/Desktop/adv quant/lab 2/KC-subject-2.csv,legacy,Kafkaesque Koffka,3.2.8,0,s,NA,return,s,NA,s,429,NA,38273,16019,NA,429,2,legacy,1024,2,48000,-16,experiment,SSSSS,2,even,318837,41461,199840,NA,316569,3156,308761,NA,319930,3177,183819,NA,320042,320473,319918,320042,FlankerTask,138,74736,149,yes,1024
92.66666667,92.66666667,503.6533333,503.6533333,black,legacy,legacy,legacy,0,incongruent,uniform,1,undefined,1,h,149,0,0,0,149,0,149,0,149,0,0,0,149,149,149,149,Fri Sep 27 09:37:18 2019,600,The main experiment item,yes,FlankerTask.osexp,/Users/kaylicolpitts/Desktop/adv quant/lab 2,no,mono,no,18,no,white,no,yes,768,legacy,69,79,/Users/kaylicolpitts/Desktop/adv quant/lab 2/KC-subject-2.csv,legacy,Kafkaesque Koffka,3.2.8,0,h,NA,return,s,NA,h,812,NA,38273,16019,NA,812,2,legacy,1024,2,48000,-16,experiment,SSHSS,2,even,320488,41461,199840,NA,316569,3156,308761,NA,321582,3177,183819,NA,321695,322509,321570,321694,FlankerTask,139,75548,150,yes,1024
92.71523179,92.71523179,503.8410596,503.8410596,black,legacy,legacy,legacy,0,incongruent,uniform,1,undefined,1,s,150,0,0,0,150,0,150,0,150,0,0,0,150,150,150,150,Fri Sep 27 09:37:18 2019,600,The main experiment item,yes,FlankerTask.osexp,/Users/kaylicolpitts/Desktop/adv quant/lab 2,no,mono,no,18,no,white,no,yes,768,legacy,70,79,/Users/kaylicolpitts/Desktop/adv quant/lab 2/KC-subject-2.csv,legacy,Kafkaesque Koffka,3.2.8,0,s,NA,return,s,NA,s,532,NA,38273,16019,NA,532,2,legacy,1024,2,48000,-16,experiment,HHSHH,2,even,323036,41461,199840,NA,316569,3156,322523,NA,324128,3177,183819,NA,324240,324775,324116,324240,FlankerTask,140,76080,151,yes,1024
92.76315789,92.76315789,503.0592105,503.0592105,black,legacy,legacy,legacy,0,congruent,uniform,1,undefined,1,s,151,0,0,0,151,0,151,0,151,0,0,0,151,151,151,151,Fri Sep 27 09:37:18 2019,600,The main experiment item,yes,FlankerTask.osexp,/Users/kaylicolpitts/Desktop/adv quant/lab 2,no,mono,no,18,no,white,no,yes,768,legacy,71,79,/Users/kaylicolpitts/Desktop/adv quant/lab 2/KC-subject-2.csv,legacy,Kafkaesque Koffka,3.2.8,0,s,NA,return,s,NA,s,385,NA,38273,16019,NA,385,2,legacy,1024,2,48000,-16,experiment,SSSSS,2,even,324789,41461,199840,NA,316569,3156,322523,NA,325882,3177,183819,NA,325994,326383,325869,325994,FlankerTask,141,76465,152,yes,1024
92.81045752,92.81045752,503.6666667,503.6666667,black,legacy,legacy,legacy,0,incongruent,uniform,1,undefined,1,s,152,0,0,0,152,0,152,0,152,0,0,0,152,152,152,152,Fri Sep 27 09:37:18 2019,600,The main experiment item,yes,FlankerTask.osexp,/Users/kaylicolpitts/Desktop/adv quant/lab 2,no,mono,no,18,no,white,no,yes,768,legacy,72,79,/Users/kaylicolpitts/Desktop/adv quant/lab 2/KC-subject-2.csv,legacy,Kafkaesque Koffka,3.2.8,0,s,NA,return,s,NA,s,596,NA,38273,16019,NA,596,2,legacy,1024,2,48000,-16,experiment,HHSHH,2,even,326398,41461,199840,NA,316569,3156,322523,NA,327491,3177,183819,NA,327603,328202,327479,327603,FlankerTask,142,77061,153,yes,1024
92.85714286,92.85714286,502.8246753,502.8246753,black,legacy,legacy,legacy,0,congruent,uniform,1,undefined,1,h,153,0,0,0,153,0,153,0,153,0,0,0,153,153,153,153,Fri Sep 27 09:37:18 2019,600,The main experiment item,yes,FlankerTask.osexp,/Users/kaylicolpitts/Desktop/adv quant/lab 2,no,mono,no,18,no,white,no,yes,768,legacy,73,79,/Users/kaylicolpitts/Desktop/adv quant/lab 2/KC-subject-2.csv,legacy,Kafkaesque Koffka,3.2.8,0,h,NA,return,s,NA,h,374,NA,38273,16019,NA,374,2,legacy,1024,2,48000,-16,experiment,HHHHH,2,even,328216,41461,199840,NA,316569,3156,322523,NA,329308,3177,183819,NA,329422,329799,329296,329421,FlankerTask,143,77435,154,yes,1024
92.90322581,92.90322581,502.4193548,502.4193548,black,legacy,legacy,legacy,0,congruent,uniform,1,undefined,1,h,154,0,0,0,154,0,154,0,154,0,0,0,154,154,154,154,Fri Sep 27 09:37:18 2019,600,The main experiment item,yes,FlankerTask.osexp,/Users/kaylicolpitts/Desktop/adv quant/lab 2,no,mono,no,18,no,white,no,yes,768,legacy,74,79,/Users/kaylicolpitts/Desktop/adv quant/lab 2/KC-subject-2.csv,legacy,Kafkaesque Koffka,3.2.8,0,h,NA,return,s,NA,h,440,NA,38273,16019,NA,440,2,legacy,1024,2,48000,-16,experiment,HHHHH,2,even,329814,41461,199840,NA,316569,3156,322523,NA,330907,3177,183819,NA,331019,331462,330895,331019,FlankerTask,144,77875,155,yes,1024
92.30769231,92.30769231,501.3461538,501.3461538,black,legacy,legacy,legacy,0,incongruent,uniform,0,undefined,0,h,155,0,0,0,155,0,155,0,155,0,0,0,155,155,155,155,Fri Sep 27 09:37:18 2019,600,The main experiment item,yes,FlankerTask.osexp,/Users/kaylicolpitts/Desktop/adv quant/lab 2,no,mono,no,18,no,white,no,yes,768,legacy,75,79,/Users/kaylicolpitts/Desktop/adv quant/lab 2/KC-subject-2.csv,legacy,Kafkaesque Koffka,3.2.8,0,s,NA,return,s,NA,s,335,NA,38273,16019,NA,335,2,legacy,1024,2,48000,-16,experiment,SSHSS,2,even,331477,41461,199840,NA,316569,3156,322523,NA,332569,3177,183819,NA,332682,333020,332557,332682,FlankerTask,144,78210,156,yes,1024
