acc,accuracy,average_response_time,avg_rt,background,bidi,canvas_backend,clock_backend,color_backend,compensation,condition,coordinates,correct,correct_instructions1,correct_keyboard_response,correct_response,count_Block1,count_Block2,count_Block3,count_ISI,count_errorFeedback,count_experiment,count_faster,count_finish,count_fixation,count_instructions1,count_instructions2,count_instructions3,count_keyboard_response,count_new_logger,count_sequence,count_stimulus,datetime,deadline,description,disable_garbage_collection,experiment_file,experiment_path,font_bold,font_family,font_italic,font_size,font_underline,foreground,form_clicks,fullscreen,height,keyboard_backend,live_row,live_row_Block1,logfile,mouse_backend,opensesame_codename,opensesame_version,repeat_cycle,response,response_finish,response_instructions1,response_instructions2,response_instructions3,response_keyboard_response,response_time,response_time_finish,response_time_instructions1,response_time_instructions2,response_time_instructions3,response_time_keyboard_response,round_decimals,sampler_backend,sound_buf_size,sound_channels,sound_freq,sound_sample_size,start,stimulus,subject_nr,subject_parity,time_Block1,time_Block2,time_Block3,time_ISI,time_errorFeedback,time_experiment,time_faster,time_finish,time_fixation,time_instructions1,time_instructions2,time_instructions3,time_keyboard_response,time_new_logger,time_sequence,time_stimulus,title,total_correct,total_response_time,total_responses,uniform_coordinates,width
100,100,1385,1385,black,no,legacy,legacy,legacy,0,incongruent,uniform,1,undefined,1,h,0,0,0,0,0,0,0,0,0,0,0,0,0,0,0,0,Tue Sep 24 12:50:53 2019,1500,The main experiment item,yes,FlankerTaskKBowman.osexp,/Users/KrisBow/Dropbox/GradSchoolTarleton/Fall2019/AdvQuant/Lab2,no,mono,no,18,no,white,no,yes,768,legacy,0,0,/Users/KrisBow/Dropbox/GradSchoolTarleton/Fall2019/AdvQuant/Lab2/KB-subject-4-F23.csv,legacy,Kafkaesque Koffka,3.2.6,0,h,NA,s,NA,NA,h,1385,NA,44876,NA,NA,1385,2,legacy,1024,2,48000,-16,experiment,SSHSS,4,even,46490,NA,NA,NA,NA,1599,NA,NA,46587,1611,NA,NA,46698,48085,46576,46697,FlankerTaskKBowman,1,1385,1,yes,1024
100,100,956,956,black,no,legacy,legacy,legacy,0,incongruent,uniform,1,undefined,1,h,0,0,0,1,1,0,1,0,1,0,0,0,1,1,1,1,Tue Sep 24 12:50:53 2019,1500,The main experiment item,yes,FlankerTaskKBowman.osexp,/Users/KrisBow/Dropbox/GradSchoolTarleton/Fall2019/AdvQuant/Lab2,no,mono,no,18,no,white,no,yes,768,legacy,1,1,/Users/KrisBow/Dropbox/GradSchoolTarleton/Fall2019/AdvQuant/Lab2/KB-subject-4-F23.csv,legacy,Kafkaesque Koffka,3.2.6,0,h,NA,s,NA,NA,h,527,NA,44876,NA,NA,527,2,legacy,1024,2,48000,-16,experiment,SSHSS,4,even,46490,NA,NA,48102,NA,1599,NA,NA,49208,1611,NA,NA,49320,49849,49197,49320,FlankerTaskKBowman,2,1912,2,yes,1024
100,100,873.6666667,873.6666667,black,no,legacy,legacy,legacy,0,congruent,uniform,1,undefined,1,h,0,0,0,2,2,0,2,0,2,0,0,0,2,2,2,2,Tue Sep 24 12:50:53 2019,1500,The main experiment item,yes,FlankerTaskKBowman.osexp,/Users/KrisBow/Dropbox/GradSchoolTarleton/Fall2019/AdvQuant/Lab2,no,mono,no,18,no,white,no,yes,768,legacy,2,2,/Users/KrisBow/Dropbox/GradSchoolTarleton/Fall2019/AdvQuant/Lab2/KB-subject-4-F23.csv,legacy,Kafkaesque Koffka,3.2.6,0,h,NA,s,NA,NA,h,709,NA,44876,NA,NA,709,2,legacy,1024,2,48000,-16,experiment,HHHHH,4,even,46490,NA,NA,49862,NA,1599,NA,NA,50964,1611,NA,NA,51075,51787,50953,51075,FlankerTaskKBowman,3,2621,3,yes,1024
100,100,817.25,817.25,black,no,legacy,legacy,legacy,0,incongruent,uniform,1,undefined,1,s,0,0,0,3,3,0,3,0,3,0,0,0,3,3,3,3,Tue Sep 24 12:50:53 2019,1500,The main experiment item,yes,FlankerTaskKBowman.osexp,/Users/KrisBow/Dropbox/GradSchoolTarleton/Fall2019/AdvQuant/Lab2,no,mono,no,18,no,white,no,yes,768,legacy,3,3,/Users/KrisBow/Dropbox/GradSchoolTarleton/Fall2019/AdvQuant/Lab2/KB-subject-4-F23.csv,legacy,Kafkaesque Koffka,3.2.6,0,s,NA,s,NA,NA,s,648,NA,44876,NA,NA,648,2,legacy,1024,2,48000,-16,experiment,HHSHH,4,even,46490,NA,NA,51799,NA,1599,NA,NA,52901,1611,NA,NA,53012,53663,52891,53012,FlankerTaskKBowman,4,3269,4,yes,1024
100,100,757.8,757.8,black,no,legacy,legacy,legacy,0,incongruent,uniform,1,undefined,1,s,0,0,0,4,4,0,4,0,4,0,0,0,4,4,4,4,Tue Sep 24 12:50:53 2019,1500,The main experiment item,yes,FlankerTaskKBowman.osexp,/Users/KrisBow/Dropbox/GradSchoolTarleton/Fall2019/AdvQuant/Lab2,no,mono,no,18,no,white,no,yes,768,legacy,4,4,/Users/KrisBow/Dropbox/GradSchoolTarleton/Fall2019/AdvQuant/Lab2/KB-subject-4-F23.csv,legacy,Kafkaesque Koffka,3.2.6,0,s,NA,s,NA,NA,s,520,NA,44876,NA,NA,520,2,legacy,1024,2,48000,-16,experiment,HHSHH,4,even,46490,NA,NA,53676,NA,1599,NA,NA,54778,1611,NA,NA,54889,55411,54767,54889,FlankerTaskKBowman,5,3789,5,yes,1024
100,100,711.5,711.5,black,no,legacy,legacy,legacy,0,incongruent,uniform,1,undefined,1,s,0,0,0,5,5,0,5,0,5,0,0,0,5,5,5,5,Tue Sep 24 12:50:53 2019,1500,The main experiment item,yes,FlankerTaskKBowman.osexp,/Users/KrisBow/Dropbox/GradSchoolTarleton/Fall2019/AdvQuant/Lab2,no,mono,no,18,no,white,no,yes,768,legacy,5,5,/Users/KrisBow/Dropbox/GradSchoolTarleton/Fall2019/AdvQuant/Lab2/KB-subject-4-F23.csv,legacy,Kafkaesque Koffka,3.2.6,0,s,NA,s,NA,NA,s,480,NA,44876,NA,NA,480,2,legacy,1024,2,48000,-16,experiment,HHSHH,4,even,46490,NA,NA,55424,NA,1599,NA,NA,56525,1611,NA,NA,56636,57118,56514,56635,FlankerTaskKBowman,6,4269,6,yes,1024
100,100,674.2857143,674.2857143,black,no,legacy,legacy,legacy,0,incongruent,uniform,1,undefined,1,s,0,0,0,6,6,0,6,0,6,0,0,0,6,6,6,6,Tue Sep 24 12:50:53 2019,1500,The main experiment item,yes,FlankerTaskKBowman.osexp,/Users/KrisBow/Dropbox/GradSchoolTarleton/Fall2019/AdvQuant/Lab2,no,mono,no,18,no,white,no,yes,768,legacy,6,6,/Users/KrisBow/Dropbox/GradSchoolTarleton/Fall2019/AdvQuant/Lab2/KB-subject-4-F23.csv,legacy,Kafkaesque Koffka,3.2.6,0,s,NA,s,NA,NA,s,451,NA,44876,NA,NA,451,2,legacy,1024,2,48000,-16,experiment,HHSHH,4,even,46490,NA,NA,57131,NA,1599,NA,NA,58235,1611,NA,NA,58346,58799,58224,58345,FlankerTaskKBowman,7,4720,7,yes,1024
100,100,673.125,673.125,black,no,legacy,legacy,legacy,0,congruent,uniform,1,undefined,1,s,0,0,0,7,7,0,7,0,7,0,0,0,7,7,7,7,Tue Sep 24 12:50:53 2019,1500,The main experiment item,yes,FlankerTaskKBowman.osexp,/Users/KrisBow/Dropbox/GradSchoolTarleton/Fall2019/AdvQuant/Lab2,no,mono,no,18,no,white,no,yes,768,legacy,7,7,/Users/KrisBow/Dropbox/GradSchoolTarleton/Fall2019/AdvQuant/Lab2/KB-subject-4-F23.csv,legacy,Kafkaesque Koffka,3.2.6,0,s,NA,s,NA,NA,s,665,NA,44876,NA,NA,665,2,legacy,1024,2,48000,-16,experiment,SSSSS,4,even,46490,NA,NA,58812,NA,1599,NA,NA,59913,1611,NA,NA,60024,60692,59902,60024,FlankerTaskKBowman,8,5385,8,yes,1024
100,100,672.1111111,672.1111111,black,no,legacy,legacy,legacy,0,incongruent,uniform,1,undefined,1,h,0,0,0,8,8,0,8,0,8,0,0,0,8,8,8,8,Tue Sep 24 12:50:53 2019,1500,The main experiment item,yes,FlankerTaskKBowman.osexp,/Users/KrisBow/Dropbox/GradSchoolTarleton/Fall2019/AdvQuant/Lab2,no,mono,no,18,no,white,no,yes,768,legacy,8,8,/Users/KrisBow/Dropbox/GradSchoolTarleton/Fall2019/AdvQuant/Lab2/KB-subject-4-F23.csv,legacy,Kafkaesque Koffka,3.2.6,0,h,NA,s,NA,NA,h,664,NA,44876,NA,NA,664,2,legacy,1024,2,48000,-16,experiment,SSHSS,4,even,46490,NA,NA,60705,NA,1599,NA,NA,61807,1611,NA,NA,61918,62584,61797,61918,FlankerTaskKBowman,9,6049,9,yes,1024
100,100,653.9,653.9,black,no,legacy,legacy,legacy,0,congruent,uniform,1,undefined,1,h,0,0,0,9,9,0,9,0,9,0,0,0,9,9,9,9,Tue Sep 24 12:50:53 2019,1500,The main experiment item,yes,FlankerTaskKBowman.osexp,/Users/KrisBow/Dropbox/GradSchoolTarleton/Fall2019/AdvQuant/Lab2,no,mono,no,18,no,white,no,yes,768,legacy,9,9,/Users/KrisBow/Dropbox/GradSchoolTarleton/Fall2019/AdvQuant/Lab2/KB-subject-4-F23.csv,legacy,Kafkaesque Koffka,3.2.6,0,h,NA,s,NA,NA,h,490,NA,44876,NA,NA,490,2,legacy,1024,2,48000,-16,experiment,HHHHH,4,even,46490,NA,NA,62597,NA,1599,NA,NA,63698,1611,NA,NA,63809,64301,63688,63809,FlankerTaskKBowman,10,6539,10,yes,1024
100,100,639.5454545,639.5454545,black,no,legacy,legacy,legacy,0,congruent,uniform,1,undefined,1,s,0,0,0,10,10,0,10,0,10,0,0,0,10,10,10,10,Tue Sep 24 12:50:53 2019,1500,The main experiment item,yes,FlankerTaskKBowman.osexp,/Users/KrisBow/Dropbox/GradSchoolTarleton/Fall2019/AdvQuant/Lab2,no,mono,no,18,no,white,no,yes,768,legacy,10,10,/Users/KrisBow/Dropbox/GradSchoolTarleton/Fall2019/AdvQuant/Lab2/KB-subject-4-F23.csv,legacy,Kafkaesque Koffka,3.2.6,0,s,NA,s,NA,NA,s,496,NA,44876,NA,NA,496,2,legacy,1024,2,48000,-16,experiment,SSSSS,4,even,46490,NA,NA,64314,NA,1599,NA,NA,65417,1611,NA,NA,65528,66026,65406,65528,FlankerTaskKBowman,11,7035,11,yes,1024
100,100,627.5833333,627.5833333,black,no,legacy,legacy,legacy,0,congruent,uniform,1,undefined,1,h,0,0,0,11,11,0,11,0,11,0,0,0,11,11,11,11,Tue Sep 24 12:50:53 2019,1500,The main experiment item,yes,FlankerTaskKBowman.osexp,/Users/KrisBow/Dropbox/GradSchoolTarleton/Fall2019/AdvQuant/Lab2,no,mono,no,18,no,white,no,yes,768,legacy,11,11,/Users/KrisBow/Dropbox/GradSchoolTarleton/Fall2019/AdvQuant/Lab2/KB-subject-4-F23.csv,legacy,Kafkaesque Koffka,3.2.6,0,h,NA,s,NA,NA,h,496,NA,44876,NA,NA,496,2,legacy,1024,2,48000,-16,experiment,HHHHH,4,even,46490,NA,NA,66039,NA,1599,NA,NA,67141,1611,NA,NA,67252,67751,67130,67252,FlankerTaskKBowman,12,7531,12,yes,1024
100,100,628.6923077,628.6923077,black,no,legacy,legacy,legacy,0,incongruent,uniform,1,undefined,1,s,0,0,0,12,12,0,12,0,12,0,0,0,12,12,12,12,Tue Sep 24 12:50:53 2019,1500,The main experiment item,yes,FlankerTaskKBowman.osexp,/Users/KrisBow/Dropbox/GradSchoolTarleton/Fall2019/AdvQuant/Lab2,no,mono,no,18,no,white,no,yes,768,legacy,12,12,/Users/KrisBow/Dropbox/GradSchoolTarleton/Fall2019/AdvQuant/Lab2/KB-subject-4-F23.csv,legacy,Kafkaesque Koffka,3.2.6,0,s,NA,s,NA,NA,s,642,NA,44876,NA,NA,642,2,legacy,1024,2,48000,-16,experiment,HHSHH,4,even,46490,NA,NA,67765,NA,1599,NA,NA,68866,1611,NA,NA,68977,69621,68856,68977,FlankerTaskKBowman,13,8173,13,yes,1024
100,100,629.5,629.5,black,no,legacy,legacy,legacy,0,incongruent,uniform,1,undefined,1,h,0,0,0,13,13,0,13,0,13,0,0,0,13,13,13,13,Tue Sep 24 12:50:53 2019,1500,The main experiment item,yes,FlankerTaskKBowman.osexp,/Users/KrisBow/Dropbox/GradSchoolTarleton/Fall2019/AdvQuant/Lab2,no,mono,no,18,no,white,no,yes,768,legacy,13,13,/Users/KrisBow/Dropbox/GradSchoolTarleton/Fall2019/AdvQuant/Lab2/KB-subject-4-F23.csv,legacy,Kafkaesque Koffka,3.2.6,0,h,NA,s,NA,NA,h,640,NA,44876,NA,NA,640,2,legacy,1024,2,48000,-16,experiment,SSHSS,4,even,46490,NA,NA,69635,NA,1599,NA,NA,70758,1611,NA,NA,70870,71512,70744,70870,FlankerTaskKBowman,14,8813,14,yes,1024
100,100,644.7333333,644.7333333,black,no,legacy,legacy,legacy,0,congruent,uniform,1,undefined,1,h,0,0,0,14,14,0,14,0,14,0,0,0,14,14,14,14,Tue Sep 24 12:50:53 2019,1500,The main experiment item,yes,FlankerTaskKBowman.osexp,/Users/KrisBow/Dropbox/GradSchoolTarleton/Fall2019/AdvQuant/Lab2,no,mono,no,18,no,white,no,yes,768,legacy,14,14,/Users/KrisBow/Dropbox/GradSchoolTarleton/Fall2019/AdvQuant/Lab2/KB-subject-4-F23.csv,legacy,Kafkaesque Koffka,3.2.6,0,h,NA,s,NA,NA,h,858,NA,44876,NA,NA,858,2,legacy,1024,2,48000,-16,experiment,HHHHH,4,even,46490,NA,NA,71525,NA,1599,NA,NA,72627,1611,NA,NA,72738,73598,72616,72738,FlankerTaskKBowman,15,9671,15,yes,1024
100,100,635.9375,635.9375,black,no,legacy,legacy,legacy,0,congruent,uniform,1,undefined,1,h,0,0,0,15,15,0,15,0,15,0,0,0,15,15,15,15,Tue Sep 24 12:50:53 2019,1500,The main experiment item,yes,FlankerTaskKBowman.osexp,/Users/KrisBow/Dropbox/GradSchoolTarleton/Fall2019/AdvQuant/Lab2,no,mono,no,18,no,white,no,yes,768,legacy,15,15,/Users/KrisBow/Dropbox/GradSchoolTarleton/Fall2019/AdvQuant/Lab2/KB-subject-4-F23.csv,legacy,Kafkaesque Koffka,3.2.6,0,h,NA,s,NA,NA,h,504,NA,44876,NA,NA,504,2,legacy,1024,2,48000,-16,experiment,HHHHH,4,even,46490,NA,NA,73611,NA,1599,NA,NA,74713,1611,NA,NA,74824,75331,74703,74824,FlankerTaskKBowman,16,10175,16,yes,1024
100,100,631.2352941,631.2352941,black,no,legacy,legacy,legacy,0,incongruent,uniform,1,undefined,1,s,0,0,0,16,16,0,16,0,16,0,0,0,16,16,16,16,Tue Sep 24 12:50:53 2019,1500,The main experiment item,yes,FlankerTaskKBowman.osexp,/Users/KrisBow/Dropbox/GradSchoolTarleton/Fall2019/AdvQuant/Lab2,no,mono,no,18,no,white,no,yes,768,legacy,16,16,/Users/KrisBow/Dropbox/GradSchoolTarleton/Fall2019/AdvQuant/Lab2/KB-subject-4-F23.csv,legacy,Kafkaesque Koffka,3.2.6,0,s,NA,s,NA,NA,s,556,NA,44876,NA,NA,556,2,legacy,1024,2,48000,-16,experiment,HHSHH,4,even,46490,NA,NA,75344,NA,1599,NA,NA,76445,1611,NA,NA,76556,77114,76435,76556,FlankerTaskKBowman,17,10731,17,yes,1024
100,100,621.9444444,621.9444444,black,no,legacy,legacy,legacy,0,incongruent,uniform,1,undefined,1,s,0,0,0,17,17,0,17,0,17,0,0,0,17,17,17,17,Tue Sep 24 12:50:53 2019,1500,The main experiment item,yes,FlankerTaskKBowman.osexp,/Users/KrisBow/Dropbox/GradSchoolTarleton/Fall2019/AdvQuant/Lab2,no,mono,no,18,no,white,no,yes,768,legacy,17,17,/Users/KrisBow/Dropbox/GradSchoolTarleton/Fall2019/AdvQuant/Lab2/KB-subject-4-F23.csv,legacy,Kafkaesque Koffka,3.2.6,0,s,NA,s,NA,NA,s,464,NA,44876,NA,NA,464,2,legacy,1024,2,48000,-16,experiment,HHSHH,4,even,46490,NA,NA,77127,NA,1599,NA,NA,78229,1611,NA,NA,78340,78806,78218,78340,FlankerTaskKBowman,18,11195,18,yes,1024
100,100,618.7894737,618.7894737,black,no,legacy,legacy,legacy,0,incongruent,uniform,1,undefined,1,h,0,0,0,18,18,0,18,0,18,0,0,0,18,18,18,18,Tue Sep 24 12:50:53 2019,1500,The main experiment item,yes,FlankerTaskKBowman.osexp,/Users/KrisBow/Dropbox/GradSchoolTarleton/Fall2019/AdvQuant/Lab2,no,mono,no,18,no,white,no,yes,768,legacy,18,18,/Users/KrisBow/Dropbox/GradSchoolTarleton/Fall2019/AdvQuant/Lab2/KB-subject-4-F23.csv,legacy,Kafkaesque Koffka,3.2.6,0,h,NA,s,NA,NA,h,562,NA,44876,NA,NA,562,2,legacy,1024,2,48000,-16,experiment,SSHSS,4,even,46490,NA,NA,78819,NA,1599,NA,NA,79920,1611,NA,NA,80031,80595,79909,80030,FlankerTaskKBowman,19,11757,19,yes,1024
100,100,612.1,612.1,black,no,legacy,legacy,legacy,0,congruent,uniform,1,undefined,1,h,0,0,0,19,19,0,19,0,19,0,0,0,19,19,19,19,Tue Sep 24 12:50:53 2019,1500,The main experiment item,yes,FlankerTaskKBowman.osexp,/Users/KrisBow/Dropbox/GradSchoolTarleton/Fall2019/AdvQuant/Lab2,no,mono,no,18,no,white,no,yes,768,legacy,19,19,/Users/KrisBow/Dropbox/GradSchoolTarleton/Fall2019/AdvQuant/Lab2/KB-subject-4-F23.csv,legacy,Kafkaesque Koffka,3.2.6,0,h,NA,s,NA,NA,h,485,NA,44876,NA,NA,485,2,legacy,1024,2,48000,-16,experiment,HHHHH,4,even,46490,NA,NA,80608,NA,1599,NA,NA,81709,1611,NA,NA,81820,82307,81698,81820,FlankerTaskKBowman,20,12242,20,yes,1024
100,100,604.8571429,604.8571429,black,no,legacy,legacy,legacy,0,congruent,uniform,1,undefined,1,h,0,0,0,20,20,0,20,0,20,0,0,0,20,20,20,20,Tue Sep 24 12:50:53 2019,1500,The main experiment item,yes,FlankerTaskKBowman.osexp,/Users/KrisBow/Dropbox/GradSchoolTarleton/Fall2019/AdvQuant/Lab2,no,mono,no,18,no,white,no,yes,768,legacy,20,20,/Users/KrisBow/Dropbox/GradSchoolTarleton/Fall2019/AdvQuant/Lab2/KB-subject-4-F23.csv,legacy,Kafkaesque Koffka,3.2.6,0,h,NA,s,NA,NA,h,460,NA,44876,NA,NA,460,2,legacy,1024,2,48000,-16,experiment,HHHHH,4,even,46490,NA,NA,82320,NA,1599,NA,NA,83422,1611,NA,NA,83533,83995,83411,83533,FlankerTaskKBowman,21,12702,21,yes,1024
100,100,600.7272727,600.7272727,black,no,legacy,legacy,legacy,0,incongruent,uniform,1,undefined,1,s,0,0,0,21,21,0,21,0,21,0,0,0,21,21,21,21,Tue Sep 24 12:50:53 2019,1500,The main experiment item,yes,FlankerTaskKBowman.osexp,/Users/KrisBow/Dropbox/GradSchoolTarleton/Fall2019/AdvQuant/Lab2,no,mono,no,18,no,white,no,yes,768,legacy,21,21,/Users/KrisBow/Dropbox/GradSchoolTarleton/Fall2019/AdvQuant/Lab2/KB-subject-4-F23.csv,legacy,Kafkaesque Koffka,3.2.6,0,s,NA,s,NA,NA,s,514,NA,44876,NA,NA,514,2,legacy,1024,2,48000,-16,experiment,HHSHH,4,even,46490,NA,NA,84007,NA,1599,NA,NA,85116,1611,NA,NA,85228,85745,85105,85228,FlankerTaskKBowman,22,13216,22,yes,1024
100,100,591.9130435,591.9130435,black,no,legacy,legacy,legacy,0,congruent,uniform,1,undefined,1,s,0,0,0,22,22,0,22,0,22,0,0,0,22,22,22,22,Tue Sep 24 12:50:53 2019,1500,The main experiment item,yes,FlankerTaskKBowman.osexp,/Users/KrisBow/Dropbox/GradSchoolTarleton/Fall2019/AdvQuant/Lab2,no,mono,no,18,no,white,no,yes,768,legacy,22,22,/Users/KrisBow/Dropbox/GradSchoolTarleton/Fall2019/AdvQuant/Lab2/KB-subject-4-F23.csv,legacy,Kafkaesque Koffka,3.2.6,0,s,NA,s,NA,NA,s,398,NA,44876,NA,NA,398,2,legacy,1024,2,48000,-16,experiment,SSSSS,4,even,46490,NA,NA,85759,NA,1599,NA,NA,86860,1611,NA,NA,86971,87371,86850,86971,FlankerTaskKBowman,23,13614,23,yes,1024
100,100,586.375,586.375,black,no,legacy,legacy,legacy,0,incongruent,uniform,1,undefined,1,s,0,0,0,23,23,0,23,0,23,0,0,0,23,23,23,23,Tue Sep 24 12:50:53 2019,1500,The main experiment item,yes,FlankerTaskKBowman.osexp,/Users/KrisBow/Dropbox/GradSchoolTarleton/Fall2019/AdvQuant/Lab2,no,mono,no,18,no,white,no,yes,768,legacy,23,23,/Users/KrisBow/Dropbox/GradSchoolTarleton/Fall2019/AdvQuant/Lab2/KB-subject-4-F23.csv,legacy,Kafkaesque Koffka,3.2.6,0,s,NA,s,NA,NA,s,459,NA,44876,NA,NA,459,2,legacy,1024,2,48000,-16,experiment,HHSHH,4,even,46490,NA,NA,87384,NA,1599,NA,NA,88487,1611,NA,NA,88598,89059,88476,88598,FlankerTaskKBowman,24,14073,24,yes,1024
100,100,589,589,black,no,legacy,legacy,legacy,0,congruent,uniform,1,undefined,1,h,0,0,0,24,24,0,24,0,24,0,0,0,24,24,24,24,Tue Sep 24 12:50:53 2019,1500,The main experiment item,yes,FlankerTaskKBowman.osexp,/Users/KrisBow/Dropbox/GradSchoolTarleton/Fall2019/AdvQuant/Lab2,no,mono,no,18,no,white,no,yes,768,legacy,24,24,/Users/KrisBow/Dropbox/GradSchoolTarleton/Fall2019/AdvQuant/Lab2/KB-subject-4-F23.csv,legacy,Kafkaesque Koffka,3.2.6,0,h,NA,s,NA,NA,h,652,NA,44876,NA,NA,652,2,legacy,1024,2,48000,-16,experiment,HHHHH,4,even,46490,NA,NA,89072,NA,1599,NA,NA,90173,1611,NA,NA,90285,90940,90163,90285,FlankerTaskKBowman,25,14725,25,yes,1024
100,100,585.6923077,585.6923077,black,no,legacy,legacy,legacy,0,congruent,uniform,1,undefined,1,h,0,0,0,25,25,0,25,0,25,0,0,0,25,25,25,25,Tue Sep 24 12:50:53 2019,1500,The main experiment item,yes,FlankerTaskKBowman.osexp,/Users/KrisBow/Dropbox/GradSchoolTarleton/Fall2019/AdvQuant/Lab2,no,mono,no,18,no,white,no,yes,768,legacy,25,25,/Users/KrisBow/Dropbox/GradSchoolTarleton/Fall2019/AdvQuant/Lab2/KB-subject-4-F23.csv,legacy,Kafkaesque Koffka,3.2.6,0,h,NA,s,NA,NA,h,503,NA,44876,NA,NA,503,2,legacy,1024,2,48000,-16,experiment,HHHHH,4,even,46490,NA,NA,90956,NA,1599,NA,NA,92058,1611,NA,NA,92169,92675,92047,92169,FlankerTaskKBowman,26,15228,26,yes,1024
100,100,587.6666667,587.6666667,black,no,legacy,legacy,legacy,0,incongruent,uniform,1,undefined,1,h,0,0,0,26,26,0,26,0,26,0,0,0,26,26,26,26,Tue Sep 24 12:50:53 2019,1500,The main experiment item,yes,FlankerTaskKBowman.osexp,/Users/KrisBow/Dropbox/GradSchoolTarleton/Fall2019/AdvQuant/Lab2,no,mono,no,18,no,white,no,yes,768,legacy,26,26,/Users/KrisBow/Dropbox/GradSchoolTarleton/Fall2019/AdvQuant/Lab2/KB-subject-4-F23.csv,legacy,Kafkaesque Koffka,3.2.6,0,h,NA,s,NA,NA,h,639,NA,44876,NA,NA,639,2,legacy,1024,2,48000,-16,experiment,SSHSS,4,even,46490,NA,NA,92688,NA,1599,NA,NA,93790,1611,NA,NA,93901,94543,93779,93901,FlankerTaskKBowman,27,15867,27,yes,1024
100,100,580.3214286,580.3214286,black,no,legacy,legacy,legacy,0,congruent,uniform,1,undefined,1,h,0,0,0,27,27,0,27,0,27,0,0,0,27,27,27,27,Tue Sep 24 12:50:53 2019,1500,The main experiment item,yes,FlankerTaskKBowman.osexp,/Users/KrisBow/Dropbox/GradSchoolTarleton/Fall2019/AdvQuant/Lab2,no,mono,no,18,no,white,no,yes,768,legacy,27,27,/Users/KrisBow/Dropbox/GradSchoolTarleton/Fall2019/AdvQuant/Lab2/KB-subject-4-F23.csv,legacy,Kafkaesque Koffka,3.2.6,0,h,NA,s,NA,NA,h,382,NA,44876,NA,NA,382,2,legacy,1024,2,48000,-16,experiment,HHHHH,4,even,46490,NA,NA,94556,NA,1599,NA,NA,95659,1611,NA,NA,95770,96154,95647,95770,FlankerTaskKBowman,28,16249,28,yes,1024
100,100,577.9655172,577.9655172,black,no,legacy,legacy,legacy,0,incongruent,uniform,1,undefined,1,s,0,0,0,28,28,0,28,0,28,0,0,0,28,28,28,28,Tue Sep 24 12:50:53 2019,1500,The main experiment item,yes,FlankerTaskKBowman.osexp,/Users/KrisBow/Dropbox/GradSchoolTarleton/Fall2019/AdvQuant/Lab2,no,mono,no,18,no,white,no,yes,768,legacy,28,28,/Users/KrisBow/Dropbox/GradSchoolTarleton/Fall2019/AdvQuant/Lab2/KB-subject-4-F23.csv,legacy,Kafkaesque Koffka,3.2.6,0,s,NA,s,NA,NA,s,512,NA,44876,NA,NA,512,2,legacy,1024,2,48000,-16,experiment,HHSHH,4,even,46490,NA,NA,96167,NA,1599,NA,NA,97269,1611,NA,NA,97380,97894,97258,97380,FlankerTaskKBowman,29,16761,29,yes,1024
100,100,573.3,573.3,black,no,legacy,legacy,legacy,0,congruent,uniform,1,undefined,1,s,0,0,0,29,29,0,29,0,29,0,0,0,29,29,29,29,Tue Sep 24 12:50:53 2019,1500,The main experiment item,yes,FlankerTaskKBowman.osexp,/Users/KrisBow/Dropbox/GradSchoolTarleton/Fall2019/AdvQuant/Lab2,no,mono,no,18,no,white,no,yes,768,legacy,29,29,/Users/KrisBow/Dropbox/GradSchoolTarleton/Fall2019/AdvQuant/Lab2/KB-subject-4-F23.csv,legacy,Kafkaesque Koffka,3.2.6,0,s,NA,s,NA,NA,s,438,NA,44876,NA,NA,438,2,legacy,1024,2,48000,-16,experiment,SSSSS,4,even,46490,NA,NA,97907,NA,1599,NA,NA,99010,1611,NA,NA,99121,99561,99000,99121,FlankerTaskKBowman,30,17199,30,yes,1024
100,100,571.0645161,571.0645161,black,no,legacy,legacy,legacy,0,congruent,uniform,1,undefined,1,s,0,0,0,30,30,0,30,0,30,0,0,0,30,30,30,30,Tue Sep 24 12:50:53 2019,1500,The main experiment item,yes,FlankerTaskKBowman.osexp,/Users/KrisBow/Dropbox/GradSchoolTarleton/Fall2019/AdvQuant/Lab2,no,mono,no,18,no,white,no,yes,768,legacy,30,30,/Users/KrisBow/Dropbox/GradSchoolTarleton/Fall2019/AdvQuant/Lab2/KB-subject-4-F23.csv,legacy,Kafkaesque Koffka,3.2.6,0,s,NA,s,NA,NA,s,504,NA,44876,NA,NA,504,2,legacy,1024,2,48000,-16,experiment,SSSSS,4,even,46490,NA,NA,99574,NA,1599,NA,NA,100676,1611,NA,NA,100787,101293,100664,100787,FlankerTaskKBowman,31,17703,31,yes,1024
100,100,566.1875,566.1875,black,no,legacy,legacy,legacy,0,congruent,uniform,1,undefined,1,s,0,0,0,31,31,0,31,0,31,0,0,0,31,31,31,31,Tue Sep 24 12:50:53 2019,1500,The main experiment item,yes,FlankerTaskKBowman.osexp,/Users/KrisBow/Dropbox/GradSchoolTarleton/Fall2019/AdvQuant/Lab2,no,mono,no,18,no,white,no,yes,768,legacy,31,31,/Users/KrisBow/Dropbox/GradSchoolTarleton/Fall2019/AdvQuant/Lab2/KB-subject-4-F23.csv,legacy,Kafkaesque Koffka,3.2.6,0,s,NA,s,NA,NA,s,415,NA,44876,NA,NA,415,2,legacy,1024,2,48000,-16,experiment,SSSSS,4,even,46490,NA,NA,101306,NA,1599,NA,NA,102422,1611,NA,NA,102533,102950,102411,102533,FlankerTaskKBowman,32,18118,32,yes,1024
100,100,563.6060606,563.6060606,black,no,legacy,legacy,legacy,0,congruent,uniform,1,undefined,1,h,0,0,0,32,32,0,32,0,32,0,0,0,32,32,32,32,Tue Sep 24 12:50:53 2019,1500,The main experiment item,yes,FlankerTaskKBowman.osexp,/Users/KrisBow/Dropbox/GradSchoolTarleton/Fall2019/AdvQuant/Lab2,no,mono,no,18,no,white,no,yes,768,legacy,32,32,/Users/KrisBow/Dropbox/GradSchoolTarleton/Fall2019/AdvQuant/Lab2/KB-subject-4-F23.csv,legacy,Kafkaesque Koffka,3.2.6,0,h,NA,s,NA,NA,h,481,NA,44876,NA,NA,481,2,legacy,1024,2,48000,-16,experiment,HHHHH,4,even,46490,NA,NA,102964,NA,1599,NA,NA,104066,1611,NA,NA,104177,104661,104055,104177,FlankerTaskKBowman,33,18599,33,yes,1024
100,100,566.0294118,566.0294118,black,no,legacy,legacy,legacy,0,incongruent,uniform,1,undefined,1,h,0,0,0,33,33,0,33,0,33,0,0,0,33,33,33,33,Tue Sep 24 12:50:53 2019,1500,The main experiment item,yes,FlankerTaskKBowman.osexp,/Users/KrisBow/Dropbox/GradSchoolTarleton/Fall2019/AdvQuant/Lab2,no,mono,no,18,no,white,no,yes,768,legacy,33,33,/Users/KrisBow/Dropbox/GradSchoolTarleton/Fall2019/AdvQuant/Lab2/KB-subject-4-F23.csv,legacy,Kafkaesque Koffka,3.2.6,0,h,NA,s,NA,NA,h,646,NA,44876,NA,NA,646,2,legacy,1024,2,48000,-16,experiment,SSHSS,4,even,46490,NA,NA,104674,NA,1599,NA,NA,105775,1611,NA,NA,105886,106533,105765,105886,FlankerTaskKBowman,34,19245,34,yes,1024
100,100,564.6,564.6,black,no,legacy,legacy,legacy,0,congruent,uniform,1,undefined,1,s,0,0,0,34,34,0,34,0,34,0,0,0,34,34,34,34,Tue Sep 24 12:50:53 2019,1500,The main experiment item,yes,FlankerTaskKBowman.osexp,/Users/KrisBow/Dropbox/GradSchoolTarleton/Fall2019/AdvQuant/Lab2,no,mono,no,18,no,white,no,yes,768,legacy,34,34,/Users/KrisBow/Dropbox/GradSchoolTarleton/Fall2019/AdvQuant/Lab2/KB-subject-4-F23.csv,legacy,Kafkaesque Koffka,3.2.6,0,s,NA,s,NA,NA,s,516,NA,44876,NA,NA,516,2,legacy,1024,2,48000,-16,experiment,SSSSS,4,even,46490,NA,NA,106547,NA,1599,NA,NA,107649,1611,NA,NA,107760,108278,107638,107760,FlankerTaskKBowman,35,19761,35,yes,1024
100,100,563.5555556,563.5555556,black,no,legacy,legacy,legacy,0,incongruent,uniform,1,undefined,1,h,0,0,0,35,35,0,35,0,35,0,0,0,35,35,35,35,Tue Sep 24 12:50:53 2019,1500,The main experiment item,yes,FlankerTaskKBowman.osexp,/Users/KrisBow/Dropbox/GradSchoolTarleton/Fall2019/AdvQuant/Lab2,no,mono,no,18,no,white,no,yes,768,legacy,35,35,/Users/KrisBow/Dropbox/GradSchoolTarleton/Fall2019/AdvQuant/Lab2/KB-subject-4-F23.csv,legacy,Kafkaesque Koffka,3.2.6,0,h,NA,s,NA,NA,h,527,NA,44876,NA,NA,527,2,legacy,1024,2,48000,-16,experiment,SSHSS,4,even,46490,NA,NA,108291,NA,1599,NA,NA,109392,1611,NA,NA,109503,110032,109381,109503,FlankerTaskKBowman,36,20288,36,yes,1024
100,100,566.6486486,566.6486486,black,no,legacy,legacy,legacy,0,congruent,uniform,1,undefined,1,h,0,0,0,36,36,0,36,0,36,0,0,0,36,36,36,36,Tue Sep 24 12:50:53 2019,1500,The main experiment item,yes,FlankerTaskKBowman.osexp,/Users/KrisBow/Dropbox/GradSchoolTarleton/Fall2019/AdvQuant/Lab2,no,mono,no,18,no,white,no,yes,768,legacy,36,36,/Users/KrisBow/Dropbox/GradSchoolTarleton/Fall2019/AdvQuant/Lab2/KB-subject-4-F23.csv,legacy,Kafkaesque Koffka,3.2.6,0,h,NA,s,NA,NA,h,678,NA,44876,NA,NA,678,2,legacy,1024,2,48000,-16,experiment,HHHHH,4,even,46490,NA,NA,110045,NA,1599,NA,NA,111147,1611,NA,NA,111258,111938,111137,111258,FlankerTaskKBowman,37,20966,37,yes,1024
100,100,566.5526316,566.5526316,black,no,legacy,legacy,legacy,0,incongruent,uniform,1,undefined,1,h,0,0,0,37,37,0,37,0,37,0,0,0,37,37,37,37,Tue Sep 24 12:50:53 2019,1500,The main experiment item,yes,FlankerTaskKBowman.osexp,/Users/KrisBow/Dropbox/GradSchoolTarleton/Fall2019/AdvQuant/Lab2,no,mono,no,18,no,white,no,yes,768,legacy,37,37,/Users/KrisBow/Dropbox/GradSchoolTarleton/Fall2019/AdvQuant/Lab2/KB-subject-4-F23.csv,legacy,Kafkaesque Koffka,3.2.6,0,h,NA,s,NA,NA,h,563,NA,44876,NA,NA,563,2,legacy,1024,2,48000,-16,experiment,SSHSS,4,even,46490,NA,NA,111951,NA,1599,NA,NA,113053,1611,NA,NA,113164,113730,113043,113164,FlankerTaskKBowman,38,21529,38,yes,1024
100,100,564.1025641,564.1025641,black,no,legacy,legacy,legacy,0,congruent,uniform,1,undefined,1,s,0,0,0,38,38,0,38,0,38,0,0,0,38,38,38,38,Tue Sep 24 12:50:53 2019,1500,The main experiment item,yes,FlankerTaskKBowman.osexp,/Users/KrisBow/Dropbox/GradSchoolTarleton/Fall2019/AdvQuant/Lab2,no,mono,no,18,no,white,no,yes,768,legacy,38,38,/Users/KrisBow/Dropbox/GradSchoolTarleton/Fall2019/AdvQuant/Lab2/KB-subject-4-F23.csv,legacy,Kafkaesque Koffka,3.2.6,0,s,NA,s,NA,NA,s,471,NA,44876,NA,NA,471,2,legacy,1024,2,48000,-16,experiment,SSSSS,4,even,46490,NA,NA,113743,NA,1599,NA,NA,114845,1611,NA,NA,114958,115431,114834,114958,FlankerTaskKBowman,39,22000,39,yes,1024
100,100,560.625,560.625,black,no,legacy,legacy,legacy,0,incongruent,uniform,1,undefined,1,s,0,0,0,39,39,0,39,0,39,0,0,0,39,39,39,39,Tue Sep 24 12:50:53 2019,1500,The main experiment item,yes,FlankerTaskKBowman.osexp,/Users/KrisBow/Dropbox/GradSchoolTarleton/Fall2019/AdvQuant/Lab2,no,mono,no,18,no,white,no,yes,768,legacy,39,39,/Users/KrisBow/Dropbox/GradSchoolTarleton/Fall2019/AdvQuant/Lab2/KB-subject-4-F23.csv,legacy,Kafkaesque Koffka,3.2.6,0,s,NA,s,NA,NA,s,425,NA,44876,NA,NA,425,2,legacy,1024,2,48000,-16,experiment,HHSHH,4,even,46490,NA,NA,115448,NA,1599,NA,NA,116551,1611,NA,NA,116662,117089,116540,116662,FlankerTaskKBowman,40,22425,40,yes,1024
100,100,559.195122,559.195122,black,no,legacy,legacy,legacy,0,congruent,uniform,1,undefined,1,s,0,0,0,40,40,0,40,0,40,0,0,0,40,40,40,40,Tue Sep 24 12:50:53 2019,1500,The main experiment item,yes,FlankerTaskKBowman.osexp,/Users/KrisBow/Dropbox/GradSchoolTarleton/Fall2019/AdvQuant/Lab2,no,mono,no,18,no,white,no,yes,768,legacy,40,40,/Users/KrisBow/Dropbox/GradSchoolTarleton/Fall2019/AdvQuant/Lab2/KB-subject-4-F23.csv,legacy,Kafkaesque Koffka,3.2.6,0,s,NA,s,NA,NA,s,502,NA,44876,NA,NA,502,2,legacy,1024,2,48000,-16,experiment,SSSSS,4,even,46490,NA,NA,117102,NA,1599,NA,NA,118205,1611,NA,NA,118316,118821,118194,118316,FlankerTaskKBowman,41,22927,41,yes,1024
100,100,557.7380952,557.7380952,black,no,legacy,legacy,legacy,0,incongruent,uniform,1,undefined,1,h,0,0,0,41,41,0,41,0,41,0,0,0,41,41,41,41,Tue Sep 24 12:50:53 2019,1500,The main experiment item,yes,FlankerTaskKBowman.osexp,/Users/KrisBow/Dropbox/GradSchoolTarleton/Fall2019/AdvQuant/Lab2,no,mono,no,18,no,white,no,yes,768,legacy,41,41,/Users/KrisBow/Dropbox/GradSchoolTarleton/Fall2019/AdvQuant/Lab2/KB-subject-4-F23.csv,legacy,Kafkaesque Koffka,3.2.6,0,h,NA,s,NA,NA,h,498,NA,44876,NA,NA,498,2,legacy,1024,2,48000,-16,experiment,SSHSS,4,even,46490,NA,NA,118834,NA,1599,NA,NA,119936,1611,NA,NA,120047,120548,119925,120047,FlankerTaskKBowman,42,23425,42,yes,1024
100,100,553.3488372,553.3488372,black,no,legacy,legacy,legacy,0,congruent,uniform,1,undefined,1,s,0,0,0,42,42,0,42,0,42,0,0,0,42,42,42,42,Tue Sep 24 12:50:53 2019,1500,The main experiment item,yes,FlankerTaskKBowman.osexp,/Users/KrisBow/Dropbox/GradSchoolTarleton/Fall2019/AdvQuant/Lab2,no,mono,no,18,no,white,no,yes,768,legacy,42,42,/Users/KrisBow/Dropbox/GradSchoolTarleton/Fall2019/AdvQuant/Lab2/KB-subject-4-F23.csv,legacy,Kafkaesque Koffka,3.2.6,0,s,NA,s,NA,NA,s,369,NA,44876,NA,NA,369,2,legacy,1024,2,48000,-16,experiment,SSSSS,4,even,46490,NA,NA,120561,NA,1599,NA,NA,121663,1611,NA,NA,121774,122145,121652,121774,FlankerTaskKBowman,43,23794,43,yes,1024
100,100,551.2727273,551.2727273,black,no,legacy,legacy,legacy,0,incongruent,uniform,1,undefined,1,s,0,0,0,43,43,0,43,0,43,0,0,0,43,43,43,43,Tue Sep 24 12:50:53 2019,1500,The main experiment item,yes,FlankerTaskKBowman.osexp,/Users/KrisBow/Dropbox/GradSchoolTarleton/Fall2019/AdvQuant/Lab2,no,mono,no,18,no,white,no,yes,768,legacy,43,43,/Users/KrisBow/Dropbox/GradSchoolTarleton/Fall2019/AdvQuant/Lab2/KB-subject-4-F23.csv,legacy,Kafkaesque Koffka,3.2.6,0,s,NA,s,NA,NA,s,462,NA,44876,NA,NA,462,2,legacy,1024,2,48000,-16,experiment,HHSHH,4,even,46490,NA,NA,122159,NA,1599,NA,NA,123260,1611,NA,NA,123371,123836,123250,123371,FlankerTaskKBowman,44,24256,44,yes,1024
100,100,546.4666667,546.4666667,black,no,legacy,legacy,legacy,0,congruent,uniform,1,undefined,1,s,0,0,0,44,44,0,44,0,44,0,0,0,44,44,44,44,Tue Sep 24 12:50:53 2019,1500,The main experiment item,yes,FlankerTaskKBowman.osexp,/Users/KrisBow/Dropbox/GradSchoolTarleton/Fall2019/AdvQuant/Lab2,no,mono,no,18,no,white,no,yes,768,legacy,44,44,/Users/KrisBow/Dropbox/GradSchoolTarleton/Fall2019/AdvQuant/Lab2/KB-subject-4-F23.csv,legacy,Kafkaesque Koffka,3.2.6,0,s,NA,s,NA,NA,s,335,NA,44876,NA,NA,335,2,legacy,1024,2,48000,-16,experiment,SSSSS,4,even,46490,NA,NA,123849,NA,1599,NA,NA,124950,1611,NA,NA,125061,125398,124940,125061,FlankerTaskKBowman,45,24591,45,yes,1024
100,100,545.4130435,545.4130435,black,no,legacy,legacy,legacy,0,incongruent,uniform,1,undefined,1,h,0,0,0,45,45,0,45,0,45,0,0,0,45,45,45,45,Tue Sep 24 12:50:53 2019,1500,The main experiment item,yes,FlankerTaskKBowman.osexp,/Users/KrisBow/Dropbox/GradSchoolTarleton/Fall2019/AdvQuant/Lab2,no,mono,no,18,no,white,no,yes,768,legacy,45,45,/Users/KrisBow/Dropbox/GradSchoolTarleton/Fall2019/AdvQuant/Lab2/KB-subject-4-F23.csv,legacy,Kafkaesque Koffka,3.2.6,0,h,NA,s,NA,NA,h,498,NA,44876,NA,NA,498,2,legacy,1024,2,48000,-16,experiment,SSHSS,4,even,46490,NA,NA,125411,NA,1599,NA,NA,126513,1611,NA,NA,126623,127125,126502,126623,FlankerTaskKBowman,46,25089,46,yes,1024
100,100,542.5744681,542.5744681,black,no,legacy,legacy,legacy,0,congruent,uniform,1,undefined,1,h,0,0,0,46,46,0,46,0,46,0,0,0,46,46,46,46,Tue Sep 24 12:50:53 2019,1500,The main experiment item,yes,FlankerTaskKBowman.osexp,/Users/KrisBow/Dropbox/GradSchoolTarleton/Fall2019/AdvQuant/Lab2,no,mono,no,18,no,white,no,yes,768,legacy,46,46,/Users/KrisBow/Dropbox/GradSchoolTarleton/Fall2019/AdvQuant/Lab2/KB-subject-4-F23.csv,legacy,Kafkaesque Koffka,3.2.6,0,h,NA,s,NA,NA,h,412,NA,44876,NA,NA,412,2,legacy,1024,2,48000,-16,experiment,HHHHH,4,even,46490,NA,NA,127139,NA,1599,NA,NA,128242,1611,NA,NA,128354,128769,128232,128353,FlankerTaskKBowman,47,25501,47,yes,1024
100,100,540.875,540.875,black,no,legacy,legacy,legacy,0,incongruent,uniform,1,undefined,1,s,0,0,0,47,47,0,47,0,47,0,0,0,47,47,47,47,Tue Sep 24 12:50:53 2019,1500,The main experiment item,yes,FlankerTaskKBowman.osexp,/Users/KrisBow/Dropbox/GradSchoolTarleton/Fall2019/AdvQuant/Lab2,no,mono,no,18,no,white,no,yes,768,legacy,47,47,/Users/KrisBow/Dropbox/GradSchoolTarleton/Fall2019/AdvQuant/Lab2/KB-subject-4-F23.csv,legacy,Kafkaesque Koffka,3.2.6,0,s,NA,s,NA,NA,s,461,NA,44876,NA,NA,461,2,legacy,1024,2,48000,-16,experiment,HHSHH,4,even,46490,NA,NA,128782,NA,1599,NA,NA,129884,1611,NA,NA,129996,130459,129874,129996,FlankerTaskKBowman,48,25962,48,yes,1024
100,100,541.5102041,541.5102041,black,no,legacy,legacy,legacy,0,congruent,uniform,1,undefined,1,s,0,0,0,48,48,0,48,0,48,0,0,0,48,48,48,48,Tue Sep 24 12:50:53 2019,1500,The main experiment item,yes,FlankerTaskKBowman.osexp,/Users/KrisBow/Dropbox/GradSchoolTarleton/Fall2019/AdvQuant/Lab2,no,mono,no,18,no,white,no,yes,768,legacy,48,48,/Users/KrisBow/Dropbox/GradSchoolTarleton/Fall2019/AdvQuant/Lab2/KB-subject-4-F23.csv,legacy,Kafkaesque Koffka,3.2.6,0,s,NA,s,NA,NA,s,572,NA,44876,NA,NA,572,2,legacy,1024,2,48000,-16,experiment,SSSSS,4,even,46490,NA,NA,130472,NA,1599,NA,NA,131575,1611,NA,NA,131686,132260,131564,131686,FlankerTaskKBowman,49,26534,49,yes,1024
100,100,539.52,539.52,black,no,legacy,legacy,legacy,0,incongruent,uniform,1,undefined,1,h,0,0,0,49,49,0,49,0,49,0,0,0,49,49,49,49,Tue Sep 24 12:50:53 2019,1500,The main experiment item,yes,FlankerTaskKBowman.osexp,/Users/KrisBow/Dropbox/GradSchoolTarleton/Fall2019/AdvQuant/Lab2,no,mono,no,18,no,white,no,yes,768,legacy,49,49,/Users/KrisBow/Dropbox/GradSchoolTarleton/Fall2019/AdvQuant/Lab2/KB-subject-4-F23.csv,legacy,Kafkaesque Koffka,3.2.6,0,h,NA,s,NA,NA,h,442,NA,44876,NA,NA,442,2,legacy,1024,2,48000,-16,experiment,SSHSS,4,even,46490,NA,NA,132273,NA,1599,NA,NA,133379,1611,NA,NA,133490,133935,133368,133490,FlankerTaskKBowman,50,26976,50,yes,1024
100,100,536.5686275,536.5686275,black,no,legacy,legacy,legacy,0,congruent,uniform,1,undefined,1,s,0,0,0,50,50,0,50,0,50,0,0,0,50,50,50,50,Tue Sep 24 12:50:53 2019,1500,The main experiment item,yes,FlankerTaskKBowman.osexp,/Users/KrisBow/Dropbox/GradSchoolTarleton/Fall2019/AdvQuant/Lab2,no,mono,no,18,no,white,no,yes,768,legacy,50,50,/Users/KrisBow/Dropbox/GradSchoolTarleton/Fall2019/AdvQuant/Lab2/KB-subject-4-F23.csv,legacy,Kafkaesque Koffka,3.2.6,0,s,NA,s,NA,NA,s,389,NA,44876,NA,NA,389,2,legacy,1024,2,48000,-16,experiment,SSSSS,4,even,46490,NA,NA,133948,NA,1599,NA,NA,135049,1611,NA,NA,135160,135553,135039,135160,FlankerTaskKBowman,51,27365,51,yes,1024
100,100,534.9423077,534.9423077,black,no,legacy,legacy,legacy,0,congruent,uniform,1,undefined,1,s,0,0,0,51,51,0,51,0,51,0,0,0,51,51,51,51,Tue Sep 24 12:50:53 2019,1500,The main experiment item,yes,FlankerTaskKBowman.osexp,/Users/KrisBow/Dropbox/GradSchoolTarleton/Fall2019/AdvQuant/Lab2,no,mono,no,18,no,white,no,yes,768,legacy,51,51,/Users/KrisBow/Dropbox/GradSchoolTarleton/Fall2019/AdvQuant/Lab2/KB-subject-4-F23.csv,legacy,Kafkaesque Koffka,3.2.6,0,s,NA,s,NA,NA,s,452,NA,44876,NA,NA,452,2,legacy,1024,2,48000,-16,experiment,SSSSS,4,even,46490,NA,NA,135566,NA,1599,NA,NA,136667,1611,NA,NA,136778,137233,136656,136778,FlankerTaskKBowman,52,27817,52,yes,1024
100,100,533.1886792,533.1886792,black,no,legacy,legacy,legacy,0,incongruent,uniform,1,undefined,1,h,0,0,0,52,52,0,52,0,52,0,0,0,52,52,52,52,Tue Sep 24 12:50:53 2019,1500,The main experiment item,yes,FlankerTaskKBowman.osexp,/Users/KrisBow/Dropbox/GradSchoolTarleton/Fall2019/AdvQuant/Lab2,no,mono,no,18,no,white,no,yes,768,legacy,52,52,/Users/KrisBow/Dropbox/GradSchoolTarleton/Fall2019/AdvQuant/Lab2/KB-subject-4-F23.csv,legacy,Kafkaesque Koffka,3.2.6,0,h,NA,s,NA,NA,h,442,NA,44876,NA,NA,442,2,legacy,1024,2,48000,-16,experiment,SSHSS,4,even,46490,NA,NA,137245,NA,1599,NA,NA,138347,1611,NA,NA,138459,138904,138337,138459,FlankerTaskKBowman,53,28259,53,yes,1024
100,100,532.8333333,532.8333333,black,no,legacy,legacy,legacy,0,incongruent,uniform,1,undefined,1,h,0,0,0,53,53,0,53,0,53,0,0,0,53,53,53,53,Tue Sep 24 12:50:53 2019,1500,The main experiment item,yes,FlankerTaskKBowman.osexp,/Users/KrisBow/Dropbox/GradSchoolTarleton/Fall2019/AdvQuant/Lab2,no,mono,no,18,no,white,no,yes,768,legacy,53,53,/Users/KrisBow/Dropbox/GradSchoolTarleton/Fall2019/AdvQuant/Lab2/KB-subject-4-F23.csv,legacy,Kafkaesque Koffka,3.2.6,0,h,NA,s,NA,NA,h,514,NA,44876,NA,NA,514,2,legacy,1024,2,48000,-16,experiment,SSHSS,4,even,46490,NA,NA,138917,NA,1599,NA,NA,140018,1611,NA,NA,140129,140646,140007,140129,FlankerTaskKBowman,54,28773,54,yes,1024
100,100,530.7636364,530.7636364,black,no,legacy,legacy,legacy,0,congruent,uniform,1,undefined,1,s,0,0,0,54,54,0,54,0,54,0,0,0,54,54,54,54,Tue Sep 24 12:50:53 2019,1500,The main experiment item,yes,FlankerTaskKBowman.osexp,/Users/KrisBow/Dropbox/GradSchoolTarleton/Fall2019/AdvQuant/Lab2,no,mono,no,18,no,white,no,yes,768,legacy,54,54,/Users/KrisBow/Dropbox/GradSchoolTarleton/Fall2019/AdvQuant/Lab2/KB-subject-4-F23.csv,legacy,Kafkaesque Koffka,3.2.6,0,s,NA,s,NA,NA,s,419,NA,44876,NA,NA,419,2,legacy,1024,2,48000,-16,experiment,SSSSS,4,even,46490,NA,NA,140659,NA,1599,NA,NA,141760,1611,NA,NA,141871,142292,141750,141871,FlankerTaskKBowman,55,29192,55,yes,1024
100,100,529.2321429,529.2321429,black,no,legacy,legacy,legacy,0,congruent,uniform,1,undefined,1,h,0,0,0,55,55,0,55,0,55,0,0,0,55,55,55,55,Tue Sep 24 12:50:53 2019,1500,The main experiment item,yes,FlankerTaskKBowman.osexp,/Users/KrisBow/Dropbox/GradSchoolTarleton/Fall2019/AdvQuant/Lab2,no,mono,no,18,no,white,no,yes,768,legacy,55,55,/Users/KrisBow/Dropbox/GradSchoolTarleton/Fall2019/AdvQuant/Lab2/KB-subject-4-F23.csv,legacy,Kafkaesque Koffka,3.2.6,0,h,NA,s,NA,NA,h,445,NA,44876,NA,NA,445,2,legacy,1024,2,48000,-16,experiment,HHHHH,4,even,46490,NA,NA,142306,NA,1599,NA,NA,143407,1611,NA,NA,143518,143965,143397,143518,FlankerTaskKBowman,56,29637,56,yes,1024
100,100,528.1403509,528.1403509,black,no,legacy,legacy,legacy,0,incongruent,uniform,1,undefined,1,s,0,0,0,56,56,0,56,0,56,0,0,0,56,56,56,56,Tue Sep 24 12:50:53 2019,1500,The main experiment item,yes,FlankerTaskKBowman.osexp,/Users/KrisBow/Dropbox/GradSchoolTarleton/Fall2019/AdvQuant/Lab2,no,mono,no,18,no,white,no,yes,768,legacy,56,56,/Users/KrisBow/Dropbox/GradSchoolTarleton/Fall2019/AdvQuant/Lab2/KB-subject-4-F23.csv,legacy,Kafkaesque Koffka,3.2.6,0,s,NA,s,NA,NA,s,467,NA,44876,NA,NA,467,2,legacy,1024,2,48000,-16,experiment,HHSHH,4,even,46490,NA,NA,143978,NA,1599,NA,NA,145087,1611,NA,NA,145198,145668,145077,145198,FlankerTaskKBowman,57,30104,57,yes,1024
100,100,527.0344828,527.0344828,black,no,legacy,legacy,legacy,0,incongruent,uniform,1,undefined,1,h,0,0,0,57,57,0,57,0,57,0,0,0,57,57,57,57,Tue Sep 24 12:50:53 2019,1500,The main experiment item,yes,FlankerTaskKBowman.osexp,/Users/KrisBow/Dropbox/GradSchoolTarleton/Fall2019/AdvQuant/Lab2,no,mono,no,18,no,white,no,yes,768,legacy,57,57,/Users/KrisBow/Dropbox/GradSchoolTarleton/Fall2019/AdvQuant/Lab2/KB-subject-4-F23.csv,legacy,Kafkaesque Koffka,3.2.6,0,h,NA,s,NA,NA,h,464,NA,44876,NA,NA,464,2,legacy,1024,2,48000,-16,experiment,SSHSS,4,even,46490,NA,NA,145686,NA,1599,NA,NA,146788,1611,NA,NA,146899,147365,146777,146899,FlankerTaskKBowman,58,30568,58,yes,1024
100,100,526.2881356,526.2881356,black,no,legacy,legacy,legacy,0,incongruent,uniform,1,undefined,1,h,0,0,0,58,58,0,58,0,58,0,0,0,58,58,58,58,Tue Sep 24 12:50:53 2019,1500,The main experiment item,yes,FlankerTaskKBowman.osexp,/Users/KrisBow/Dropbox/GradSchoolTarleton/Fall2019/AdvQuant/Lab2,no,mono,no,18,no,white,no,yes,768,legacy,58,58,/Users/KrisBow/Dropbox/GradSchoolTarleton/Fall2019/AdvQuant/Lab2/KB-subject-4-F23.csv,legacy,Kafkaesque Koffka,3.2.6,0,h,NA,s,NA,NA,h,483,NA,44876,NA,NA,483,2,legacy,1024,2,48000,-16,experiment,SSHSS,4,even,46490,NA,NA,147378,NA,1599,NA,NA,148479,1611,NA,NA,148590,149075,148469,148590,FlankerTaskKBowman,59,31051,59,yes,1024
100,100,524.6,524.6,black,no,legacy,legacy,legacy,0,congruent,uniform,1,undefined,1,s,0,0,0,59,59,0,59,0,59,0,0,0,59,59,59,59,Tue Sep 24 12:50:53 2019,1500,The main experiment item,yes,FlankerTaskKBowman.osexp,/Users/KrisBow/Dropbox/GradSchoolTarleton/Fall2019/AdvQuant/Lab2,no,mono,no,18,no,white,no,yes,768,legacy,59,59,/Users/KrisBow/Dropbox/GradSchoolTarleton/Fall2019/AdvQuant/Lab2/KB-subject-4-F23.csv,legacy,Kafkaesque Koffka,3.2.6,0,s,NA,s,NA,NA,s,425,NA,44876,NA,NA,425,2,legacy,1024,2,48000,-16,experiment,SSSSS,4,even,46490,NA,NA,149088,NA,1599,NA,NA,150190,1611,NA,NA,150301,150729,150180,150301,FlankerTaskKBowman,60,31476,60,yes,1024
100,100,523.6393443,523.6393443,black,no,legacy,legacy,legacy,0,incongruent,uniform,1,undefined,1,s,0,0,0,60,60,0,60,0,60,0,0,0,60,60,60,60,Tue Sep 24 12:50:53 2019,1500,The main experiment item,yes,FlankerTaskKBowman.osexp,/Users/KrisBow/Dropbox/GradSchoolTarleton/Fall2019/AdvQuant/Lab2,no,mono,no,18,no,white,no,yes,768,legacy,60,60,/Users/KrisBow/Dropbox/GradSchoolTarleton/Fall2019/AdvQuant/Lab2/KB-subject-4-F23.csv,legacy,Kafkaesque Koffka,3.2.6,0,s,NA,s,NA,NA,s,466,NA,44876,NA,NA,466,2,legacy,1024,2,48000,-16,experiment,HHSHH,4,even,46490,NA,NA,150742,NA,1599,NA,NA,151844,1611,NA,NA,151956,152424,151834,151956,FlankerTaskKBowman,61,31942,61,yes,1024
100,100,521.983871,521.983871,black,no,legacy,legacy,legacy,0,congruent,uniform,1,undefined,1,s,0,0,0,61,61,0,61,0,61,0,0,0,61,61,61,61,Tue Sep 24 12:50:53 2019,1500,The main experiment item,yes,FlankerTaskKBowman.osexp,/Users/KrisBow/Dropbox/GradSchoolTarleton/Fall2019/AdvQuant/Lab2,no,mono,no,18,no,white,no,yes,768,legacy,61,61,/Users/KrisBow/Dropbox/GradSchoolTarleton/Fall2019/AdvQuant/Lab2/KB-subject-4-F23.csv,legacy,Kafkaesque Koffka,3.2.6,0,s,NA,s,NA,NA,s,421,NA,44876,NA,NA,421,2,legacy,1024,2,48000,-16,experiment,SSSSS,4,even,46490,NA,NA,152437,NA,1599,NA,NA,153545,1611,NA,NA,153655,154079,153533,153655,FlankerTaskKBowman,62,32363,62,yes,1024
100,100,519.7777778,519.7777778,black,no,legacy,legacy,legacy,0,congruent,uniform,1,undefined,1,h,0,0,0,62,62,0,62,0,62,0,0,0,62,62,62,62,Tue Sep 24 12:50:53 2019,1500,The main experiment item,yes,FlankerTaskKBowman.osexp,/Users/KrisBow/Dropbox/GradSchoolTarleton/Fall2019/AdvQuant/Lab2,no,mono,no,18,no,white,no,yes,768,legacy,62,62,/Users/KrisBow/Dropbox/GradSchoolTarleton/Fall2019/AdvQuant/Lab2/KB-subject-4-F23.csv,legacy,Kafkaesque Koffka,3.2.6,0,h,NA,s,NA,NA,h,383,NA,44876,NA,NA,383,2,legacy,1024,2,48000,-16,experiment,HHHHH,4,even,46490,NA,NA,154093,NA,1599,NA,NA,155200,1611,NA,NA,155312,155698,155189,155311,FlankerTaskKBowman,63,32746,63,yes,1024
100,100,517.703125,517.703125,black,no,legacy,legacy,legacy,0,congruent,uniform,1,undefined,1,h,0,0,0,63,63,0,63,0,63,0,0,0,63,63,63,63,Tue Sep 24 12:50:53 2019,1500,The main experiment item,yes,FlankerTaskKBowman.osexp,/Users/KrisBow/Dropbox/GradSchoolTarleton/Fall2019/AdvQuant/Lab2,no,mono,no,18,no,white,no,yes,768,legacy,63,63,/Users/KrisBow/Dropbox/GradSchoolTarleton/Fall2019/AdvQuant/Lab2/KB-subject-4-F23.csv,legacy,Kafkaesque Koffka,3.2.6,0,h,NA,s,NA,NA,h,387,NA,44876,NA,NA,387,2,legacy,1024,2,48000,-16,experiment,HHHHH,4,even,46490,NA,NA,155711,NA,1599,NA,NA,156814,1611,NA,NA,156924,157313,156803,156924,FlankerTaskKBowman,64,33133,64,yes,1024
98.46153846,98.46153846,515.0615385,515.0615385,black,no,legacy,legacy,legacy,0,incongruent,uniform,0,undefined,0,h,0,0,0,64,64,0,64,0,64,0,0,0,64,64,64,64,Tue Sep 24 12:50:53 2019,1500,The main experiment item,yes,FlankerTaskKBowman.osexp,/Users/KrisBow/Dropbox/GradSchoolTarleton/Fall2019/AdvQuant/Lab2,no,mono,no,18,no,white,no,yes,768,legacy,64,64,/Users/KrisBow/Dropbox/GradSchoolTarleton/Fall2019/AdvQuant/Lab2/KB-subject-4-F23.csv,legacy,Kafkaesque Koffka,3.2.6,0,s,NA,s,NA,NA,s,346,NA,44876,NA,NA,346,2,legacy,1024,2,48000,-16,experiment,SSHSS,4,even,46490,NA,NA,157326,NA,1599,NA,NA,158446,1611,NA,NA,158557,158906,158435,158557,FlankerTaskKBowman,64,33479,65,yes,1024
98.48484848,98.48484848,513.0454545,513.0454545,black,no,legacy,legacy,legacy,0,incongruent,uniform,1,undefined,1,s,0,0,0,65,65,0,65,0,65,0,0,0,65,65,65,65,Tue Sep 24 12:50:53 2019,1500,The main experiment item,yes,FlankerTaskKBowman.osexp,/Users/KrisBow/Dropbox/GradSchoolTarleton/Fall2019/AdvQuant/Lab2,no,mono,no,18,no,white,no,yes,768,legacy,65,65,/Users/KrisBow/Dropbox/GradSchoolTarleton/Fall2019/AdvQuant/Lab2/KB-subject-4-F23.csv,legacy,Kafkaesque Koffka,3.2.6,0,s,NA,s,NA,NA,s,382,NA,44876,NA,NA,382,2,legacy,1024,2,48000,-16,experiment,HHSHH,4,even,46490,NA,NA,159429,158919,1599,NA,NA,160532,1611,NA,NA,160643,161027,160521,160643,FlankerTaskKBowman,65,33861,66,yes,1024
98.50746269,98.50746269,512.5074627,512.5074627,black,no,legacy,legacy,legacy,0,incongruent,uniform,1,undefined,1,s,0,0,0,66,66,0,66,0,66,0,0,0,66,66,66,66,Tue Sep 24 12:50:53 2019,1500,The main experiment item,yes,FlankerTaskKBowman.osexp,/Users/KrisBow/Dropbox/GradSchoolTarleton/Fall2019/AdvQuant/Lab2,no,mono,no,18,no,white,no,yes,768,legacy,66,66,/Users/KrisBow/Dropbox/GradSchoolTarleton/Fall2019/AdvQuant/Lab2/KB-subject-4-F23.csv,legacy,Kafkaesque Koffka,3.2.6,0,s,NA,s,NA,NA,s,477,NA,44876,NA,NA,477,2,legacy,1024,2,48000,-16,experiment,HHSHH,4,even,46490,NA,NA,161041,158919,1599,NA,NA,162143,1611,NA,NA,162254,162734,162132,162254,FlankerTaskKBowman,66,34338,67,yes,1024
98.52941176,98.52941176,510.9558824,510.9558824,black,no,legacy,legacy,legacy,0,congruent,uniform,1,undefined,1,s,0,0,0,67,67,0,67,0,67,0,0,0,67,67,67,67,Tue Sep 24 12:50:53 2019,1500,The main experiment item,yes,FlankerTaskKBowman.osexp,/Users/KrisBow/Dropbox/GradSchoolTarleton/Fall2019/AdvQuant/Lab2,no,mono,no,18,no,white,no,yes,768,legacy,67,67,/Users/KrisBow/Dropbox/GradSchoolTarleton/Fall2019/AdvQuant/Lab2/KB-subject-4-F23.csv,legacy,Kafkaesque Koffka,3.2.6,0,s,NA,s,NA,NA,s,407,NA,44876,NA,NA,407,2,legacy,1024,2,48000,-16,experiment,SSSSS,4,even,46490,NA,NA,162747,158919,1599,NA,NA,163848,1611,NA,NA,163958,164367,163837,163958,FlankerTaskKBowman,67,34745,68,yes,1024
98.55072464,98.55072464,509.7101449,509.7101449,black,no,legacy,legacy,legacy,0,incongruent,uniform,1,undefined,1,s,0,0,0,68,68,0,68,0,68,0,0,0,68,68,68,68,Tue Sep 24 12:50:53 2019,1500,The main experiment item,yes,FlankerTaskKBowman.osexp,/Users/KrisBow/Dropbox/GradSchoolTarleton/Fall2019/AdvQuant/Lab2,no,mono,no,18,no,white,no,yes,768,legacy,68,68,/Users/KrisBow/Dropbox/GradSchoolTarleton/Fall2019/AdvQuant/Lab2/KB-subject-4-F23.csv,legacy,Kafkaesque Koffka,3.2.6,0,s,NA,s,NA,NA,s,425,NA,44876,NA,NA,425,2,legacy,1024,2,48000,-16,experiment,HHSHH,4,even,46490,NA,NA,164380,158919,1599,NA,NA,165481,1611,NA,NA,165593,166021,165471,165593,FlankerTaskKBowman,68,35170,69,yes,1024
98.57142857,98.57142857,507.3714286,507.3714286,black,no,legacy,legacy,legacy,0,congruent,uniform,1,undefined,1,s,0,0,0,69,69,0,69,0,69,0,0,0,69,69,69,69,Tue Sep 24 12:50:53 2019,1500,The main experiment item,yes,FlankerTaskKBowman.osexp,/Users/KrisBow/Dropbox/GradSchoolTarleton/Fall2019/AdvQuant/Lab2,no,mono,no,18,no,white,no,yes,768,legacy,69,69,/Users/KrisBow/Dropbox/GradSchoolTarleton/Fall2019/AdvQuant/Lab2/KB-subject-4-F23.csv,legacy,Kafkaesque Koffka,3.2.6,0,s,NA,s,NA,NA,s,346,NA,44876,NA,NA,346,2,legacy,1024,2,48000,-16,experiment,SSSSS,4,even,46490,NA,NA,166034,158919,1599,NA,NA,167136,1611,NA,NA,167247,167596,167125,167247,FlankerTaskKBowman,69,35516,70,yes,1024
98.5915493,98.5915493,506.5633803,506.5633803,black,no,legacy,legacy,legacy,0,congruent,uniform,1,undefined,1,h,0,0,0,70,70,0,70,0,70,0,0,0,70,70,70,70,Tue Sep 24 12:50:53 2019,1500,The main experiment item,yes,FlankerTaskKBowman.osexp,/Users/KrisBow/Dropbox/GradSchoolTarleton/Fall2019/AdvQuant/Lab2,no,mono,no,18,no,white,no,yes,768,legacy,70,70,/Users/KrisBow/Dropbox/GradSchoolTarleton/Fall2019/AdvQuant/Lab2/KB-subject-4-F23.csv,legacy,Kafkaesque Koffka,3.2.6,0,h,NA,s,NA,NA,h,450,NA,44876,NA,NA,450,2,legacy,1024,2,48000,-16,experiment,HHHHH,4,even,46490,NA,NA,167609,158919,1599,NA,NA,168712,1611,NA,NA,168824,169276,168701,168824,FlankerTaskKBowman,70,35966,71,yes,1024
98.61111111,98.61111111,507.7361111,507.7361111,black,no,legacy,legacy,legacy,0,incongruent,uniform,1,undefined,1,h,0,0,0,71,71,0,71,0,71,0,0,0,71,71,71,71,Tue Sep 24 12:50:53 2019,1500,The main experiment item,yes,FlankerTaskKBowman.osexp,/Users/KrisBow/Dropbox/GradSchoolTarleton/Fall2019/AdvQuant/Lab2,no,mono,no,18,no,white,no,yes,768,legacy,71,71,/Users/KrisBow/Dropbox/GradSchoolTarleton/Fall2019/AdvQuant/Lab2/KB-subject-4-F23.csv,legacy,Kafkaesque Koffka,3.2.6,0,h,NA,s,NA,NA,h,591,NA,44876,NA,NA,591,2,legacy,1024,2,48000,-16,experiment,SSHSS,4,even,46490,NA,NA,169289,158919,1599,NA,NA,170390,1611,NA,NA,170501,171094,170379,170501,FlankerTaskKBowman,71,36557,72,yes,1024
98.63013699,98.63013699,507.260274,507.260274,black,no,legacy,legacy,legacy,0,incongruent,uniform,1,undefined,1,h,0,0,0,72,72,0,72,0,72,0,0,0,72,72,72,72,Tue Sep 24 12:50:53 2019,1500,The main experiment item,yes,FlankerTaskKBowman.osexp,/Users/KrisBow/Dropbox/GradSchoolTarleton/Fall2019/AdvQuant/Lab2,no,mono,no,18,no,white,no,yes,768,legacy,72,72,/Users/KrisBow/Dropbox/GradSchoolTarleton/Fall2019/AdvQuant/Lab2/KB-subject-4-F23.csv,legacy,Kafkaesque Koffka,3.2.6,0,h,NA,s,NA,NA,h,473,NA,44876,NA,NA,473,2,legacy,1024,2,48000,-16,experiment,SSHSS,4,even,46490,NA,NA,171107,158919,1599,NA,NA,172210,1611,NA,NA,172321,172796,172200,172321,FlankerTaskKBowman,72,37030,73,yes,1024
98.64864865,98.64864865,506.1081081,506.1081081,black,no,legacy,legacy,legacy,0,congruent,uniform,1,undefined,1,h,0,0,0,73,73,0,73,0,73,0,0,0,73,73,73,73,Tue Sep 24 12:50:53 2019,1500,The main experiment item,yes,FlankerTaskKBowman.osexp,/Users/KrisBow/Dropbox/GradSchoolTarleton/Fall2019/AdvQuant/Lab2,no,mono,no,18,no,white,no,yes,768,legacy,73,73,/Users/KrisBow/Dropbox/GradSchoolTarleton/Fall2019/AdvQuant/Lab2/KB-subject-4-F23.csv,legacy,Kafkaesque Koffka,3.2.6,0,h,NA,s,NA,NA,h,422,NA,44876,NA,NA,422,2,legacy,1024,2,48000,-16,experiment,HHHHH,4,even,46490,NA,NA,172809,158919,1599,NA,NA,173911,1611,NA,NA,174022,174447,173900,174022,FlankerTaskKBowman,73,37452,74,yes,1024
98.66666667,98.66666667,505.2,505.2,black,no,legacy,legacy,legacy,0,congruent,uniform,1,undefined,1,h,0,0,0,74,74,0,74,0,74,0,0,0,74,74,74,74,Tue Sep 24 12:50:53 2019,1500,The main experiment item,yes,FlankerTaskKBowman.osexp,/Users/KrisBow/Dropbox/GradSchoolTarleton/Fall2019/AdvQuant/Lab2,no,mono,no,18,no,white,no,yes,768,legacy,74,74,/Users/KrisBow/Dropbox/GradSchoolTarleton/Fall2019/AdvQuant/Lab2/KB-subject-4-F23.csv,legacy,Kafkaesque Koffka,3.2.6,0,h,NA,s,NA,NA,h,438,NA,44876,NA,NA,438,2,legacy,1024,2,48000,-16,experiment,HHHHH,4,even,46490,NA,NA,174460,158919,1599,NA,NA,175562,1611,NA,NA,175673,176114,175551,175673,FlankerTaskKBowman,74,37890,75,yes,1024
98.68421053,98.68421053,503.5394737,503.5394737,black,no,legacy,legacy,legacy,0,congruent,uniform,1,undefined,1,h,0,0,0,75,75,0,75,0,75,0,0,0,75,75,75,75,Tue Sep 24 12:50:53 2019,1500,The main experiment item,yes,FlankerTaskKBowman.osexp,/Users/KrisBow/Dropbox/GradSchoolTarleton/Fall2019/AdvQuant/Lab2,no,mono,no,18,no,white,no,yes,768,legacy,75,75,/Users/KrisBow/Dropbox/GradSchoolTarleton/Fall2019/AdvQuant/Lab2/KB-subject-4-F23.csv,legacy,Kafkaesque Koffka,3.2.6,0,h,NA,s,NA,NA,h,379,NA,44876,NA,NA,379,2,legacy,1024,2,48000,-16,experiment,HHHHH,4,even,46490,NA,NA,176127,158919,1599,NA,NA,177228,1611,NA,NA,177340,177721,177217,177339,FlankerTaskKBowman,75,38269,76,yes,1024
98.7012987,98.7012987,505.6493506,505.6493506,black,no,legacy,legacy,legacy,0,congruent,uniform,1,undefined,1,s,0,0,0,76,76,0,76,0,76,0,0,0,76,76,76,76,Tue Sep 24 12:50:53 2019,1500,The main experiment item,yes,FlankerTaskKBowman.osexp,/Users/KrisBow/Dropbox/GradSchoolTarleton/Fall2019/AdvQuant/Lab2,no,mono,no,18,no,white,no,yes,768,legacy,76,76,/Users/KrisBow/Dropbox/GradSchoolTarleton/Fall2019/AdvQuant/Lab2/KB-subject-4-F23.csv,legacy,Kafkaesque Koffka,3.2.6,0,s,NA,s,NA,NA,s,666,NA,44876,NA,NA,666,2,legacy,1024,2,48000,-16,experiment,SSSSS,4,even,46490,NA,NA,177734,158919,1599,NA,NA,178837,1611,NA,NA,178949,179618,178826,178948,FlankerTaskKBowman,76,38935,77,yes,1024
98.71794872,98.71794872,505.4102564,505.4102564,black,no,legacy,legacy,legacy,0,incongruent,uniform,1,undefined,1,h,0,0,0,77,77,0,77,0,77,0,0,0,77,77,77,77,Tue Sep 24 12:50:53 2019,1500,The main experiment item,yes,FlankerTaskKBowman.osexp,/Users/KrisBow/Dropbox/GradSchoolTarleton/Fall2019/AdvQuant/Lab2,no,mono,no,18,no,white,no,yes,768,legacy,77,77,/Users/KrisBow/Dropbox/GradSchoolTarleton/Fall2019/AdvQuant/Lab2/KB-subject-4-F23.csv,legacy,Kafkaesque Koffka,3.2.6,0,h,NA,s,NA,NA,h,487,NA,44876,NA,NA,487,2,legacy,1024,2,48000,-16,experiment,SSHSS,4,even,46490,NA,NA,179631,158919,1599,NA,NA,180734,1611,NA,NA,180845,181335,180721,180845,FlankerTaskKBowman,77,39422,78,yes,1024
97.46835443,97.46835443,503.7088608,503.7088608,black,no,legacy,legacy,legacy,0,incongruent,uniform,0,undefined,0,s,0,0,0,78,78,0,78,0,78,0,0,0,78,78,78,78,Tue Sep 24 12:50:53 2019,1500,The main experiment item,yes,FlankerTaskKBowman.osexp,/Users/KrisBow/Dropbox/GradSchoolTarleton/Fall2019/AdvQuant/Lab2,no,mono,no,18,no,white,no,yes,768,legacy,78,78,/Users/KrisBow/Dropbox/GradSchoolTarleton/Fall2019/AdvQuant/Lab2/KB-subject-4-F23.csv,legacy,Kafkaesque Koffka,3.2.6,0,h,NA,s,NA,NA,h,371,NA,44876,NA,NA,371,2,legacy,1024,2,48000,-16,experiment,HHSHH,4,even,46490,NA,NA,181348,158919,1599,NA,NA,182450,1611,NA,NA,182561,182935,182439,182561,FlankerTaskKBowman,77,39793,79,yes,1024
97.5,97.5,502.25,502.25,black,no,legacy,legacy,legacy,0,incongruent,uniform,1,undefined,1,s,0,0,0,79,79,0,79,0,79,0,0,0,79,79,79,79,Tue Sep 24 12:50:53 2019,1500,The main experiment item,yes,FlankerTaskKBowman.osexp,/Users/KrisBow/Dropbox/GradSchoolTarleton/Fall2019/AdvQuant/Lab2,no,mono,no,18,no,white,no,yes,768,legacy,79,79,/Users/KrisBow/Dropbox/GradSchoolTarleton/Fall2019/AdvQuant/Lab2/KB-subject-4-F23.csv,legacy,Kafkaesque Koffka,3.2.6,0,s,NA,s,NA,NA,s,387,NA,44876,NA,NA,387,2,legacy,1024,2,48000,-16,experiment,HHSHH,4,even,46490,NA,NA,183460,182948,1599,NA,NA,184562,1611,NA,NA,184673,185062,184551,184673,FlankerTaskKBowman,78,40180,80,yes,1024
97.5308642,97.5308642,503.7407407,503.7407407,black,no,legacy,legacy,legacy,0,congruent,uniform,1,undefined,1,h,0,0,0,80,80,0,80,0,80,0,0,0,80,80,80,80,Tue Sep 24 12:50:53 2019,600,The main experiment item,yes,FlankerTaskKBowman.osexp,/Users/KrisBow/Dropbox/GradSchoolTarleton/Fall2019/AdvQuant/Lab2,no,mono,no,18,no,white,no,yes,768,legacy,0,79,/Users/KrisBow/Dropbox/GradSchoolTarleton/Fall2019/AdvQuant/Lab2/KB-subject-4-F23.csv,legacy,Kafkaesque Koffka,3.2.6,0,h,NA,s,s,NA,h,623,NA,44876,7250,NA,623,2,legacy,1024,2,48000,-16,experiment,HHHHH,4,even,46490,193369,NA,185075,182948,1599,NA,NA,193452,1611,186117,NA,193563,194188,193442,193563,FlankerTaskKBowman,79,40803,81,yes,1024
96.34146341,96.34146341,502.4878049,502.4878049,black,no,legacy,legacy,legacy,0,incongruent,uniform,0,undefined,0,s,0,0,0,81,81,0,81,0,81,0,0,0,81,81,81,81,Tue Sep 24 12:50:53 2019,600,The main experiment item,yes,FlankerTaskKBowman.osexp,/Users/KrisBow/Dropbox/GradSchoolTarleton/Fall2019/AdvQuant/Lab2,no,mono,no,18,no,white,no,yes,768,legacy,1,79,/Users/KrisBow/Dropbox/GradSchoolTarleton/Fall2019/AdvQuant/Lab2/KB-subject-4-F23.csv,legacy,Kafkaesque Koffka,3.2.6,0,h,NA,s,s,NA,h,401,NA,44876,7250,NA,401,2,legacy,1024,2,48000,-16,experiment,HHSHH,4,even,46490,193369,NA,194712,182948,1599,194201,NA,195815,1611,186117,NA,195927,196330,195805,195927,FlankerTaskKBowman,79,41204,82,yes,1024
96.38554217,96.38554217,500.2409639,500.2409639,black,no,legacy,legacy,legacy,0,congruent,uniform,1,undefined,1,s,0,0,0,82,82,0,82,0,82,0,0,0,82,82,82,82,Tue Sep 24 12:50:53 2019,600,The main experiment item,yes,FlankerTaskKBowman.osexp,/Users/KrisBow/Dropbox/GradSchoolTarleton/Fall2019/AdvQuant/Lab2,no,mono,no,18,no,white,no,yes,768,legacy,2,79,/Users/KrisBow/Dropbox/GradSchoolTarleton/Fall2019/AdvQuant/Lab2/KB-subject-4-F23.csv,legacy,Kafkaesque Koffka,3.2.6,0,s,NA,s,s,NA,s,316,NA,44876,7250,NA,316,2,legacy,1024,2,48000,-16,experiment,SSSSS,4,even,46490,193369,NA,196856,196343,1599,194201,NA,197957,1611,186117,NA,198069,198387,197947,198069,FlankerTaskKBowman,80,41520,83,yes,1024
96.42857143,96.42857143,499.5595238,499.5595238,black,no,legacy,legacy,legacy,0,incongruent,uniform,1,undefined,1,s,0,0,0,83,83,0,83,0,83,0,0,0,83,83,83,83,Tue Sep 24 12:50:53 2019,600,The main experiment item,yes,FlankerTaskKBowman.osexp,/Users/KrisBow/Dropbox/GradSchoolTarleton/Fall2019/AdvQuant/Lab2,no,mono,no,18,no,white,no,yes,768,legacy,3,79,/Users/KrisBow/Dropbox/GradSchoolTarleton/Fall2019/AdvQuant/Lab2/KB-subject-4-F23.csv,legacy,Kafkaesque Koffka,3.2.6,0,s,NA,s,s,NA,s,443,NA,44876,7250,NA,443,2,legacy,1024,2,48000,-16,experiment,HHSHH,4,even,46490,193369,NA,198400,196343,1599,194201,NA,199502,1611,186117,NA,199613,200058,199492,199613,FlankerTaskKBowman,81,41963,84,yes,1024
96.47058824,96.47058824,498.0941176,498.0941176,black,no,legacy,legacy,legacy,0,incongruent,uniform,1,undefined,1,h,0,0,0,84,84,0,84,0,84,0,0,0,84,84,84,84,Tue Sep 24 12:50:53 2019,600,The main experiment item,yes,FlankerTaskKBowman.osexp,/Users/KrisBow/Dropbox/GradSchoolTarleton/Fall2019/AdvQuant/Lab2,no,mono,no,18,no,white,no,yes,768,legacy,4,79,/Users/KrisBow/Dropbox/GradSchoolTarleton/Fall2019/AdvQuant/Lab2/KB-subject-4-F23.csv,legacy,Kafkaesque Koffka,3.2.6,0,h,NA,s,s,NA,h,375,NA,44876,7250,NA,375,2,legacy,1024,2,48000,-16,experiment,SSHSS,4,even,46490,193369,NA,200072,196343,1599,194201,NA,201174,1611,186117,NA,201285,201663,201163,201285,FlankerTaskKBowman,82,42338,85,yes,1024
96.51162791,96.51162791,496.6162791,496.6162791,black,no,legacy,legacy,legacy,0,incongruent,uniform,1,undefined,1,h,0,0,0,85,85,0,85,0,85,0,0,0,85,85,85,85,Tue Sep 24 12:50:53 2019,600,The main experiment item,yes,FlankerTaskKBowman.osexp,/Users/KrisBow/Dropbox/GradSchoolTarleton/Fall2019/AdvQuant/Lab2,no,mono,no,18,no,white,no,yes,768,legacy,5,79,/Users/KrisBow/Dropbox/GradSchoolTarleton/Fall2019/AdvQuant/Lab2/KB-subject-4-F23.csv,legacy,Kafkaesque Koffka,3.2.6,0,h,NA,s,s,NA,h,371,NA,44876,7250,NA,371,2,legacy,1024,2,48000,-16,experiment,SSHSS,4,even,46490,193369,NA,201676,196343,1599,194201,NA,202777,1611,186117,NA,202888,203261,202767,202888,FlankerTaskKBowman,83,42709,86,yes,1024
96.55172414,96.55172414,494.8850575,494.8850575,black,no,legacy,legacy,legacy,0,congruent,uniform,1,undefined,1,h,0,0,0,86,86,0,86,0,86,0,0,0,86,86,86,86,Tue Sep 24 12:50:53 2019,600,The main experiment item,yes,FlankerTaskKBowman.osexp,/Users/KrisBow/Dropbox/GradSchoolTarleton/Fall2019/AdvQuant/Lab2,no,mono,no,18,no,white,no,yes,768,legacy,6,79,/Users/KrisBow/Dropbox/GradSchoolTarleton/Fall2019/AdvQuant/Lab2/KB-subject-4-F23.csv,legacy,Kafkaesque Koffka,3.2.6,0,h,NA,s,s,NA,h,346,NA,44876,7250,NA,346,2,legacy,1024,2,48000,-16,experiment,HHHHH,4,even,46490,193369,NA,203274,196343,1599,194201,NA,204377,1611,186117,NA,204488,204836,204365,204488,FlankerTaskKBowman,84,43055,87,yes,1024
95.45454545,95.45454545,492.7840909,492.7840909,black,no,legacy,legacy,legacy,0,incongruent,uniform,0,undefined,0,s,0,0,0,87,87,0,87,0,87,0,0,0,87,87,87,87,Tue Sep 24 12:50:53 2019,600,The main experiment item,yes,FlankerTaskKBowman.osexp,/Users/KrisBow/Dropbox/GradSchoolTarleton/Fall2019/AdvQuant/Lab2,no,mono,no,18,no,white,no,yes,768,legacy,7,79,/Users/KrisBow/Dropbox/GradSchoolTarleton/Fall2019/AdvQuant/Lab2/KB-subject-4-F23.csv,legacy,Kafkaesque Koffka,3.2.6,0,h,NA,s,s,NA,h,310,NA,44876,7250,NA,310,2,legacy,1024,2,48000,-16,experiment,HHSHH,4,even,46490,193369,NA,204849,196343,1599,194201,NA,205952,1611,186117,NA,206063,206375,205941,206063,FlankerTaskKBowman,84,43365,88,yes,1024
94.38202247,94.38202247,491.0224719,491.0224719,black,no,legacy,legacy,legacy,0,incongruent,uniform,0,undefined,0,h,0,0,0,88,88,0,88,0,88,0,0,0,88,88,88,88,Tue Sep 24 12:50:53 2019,600,The main experiment item,yes,FlankerTaskKBowman.osexp,/Users/KrisBow/Dropbox/GradSchoolTarleton/Fall2019/AdvQuant/Lab2,no,mono,no,18,no,white,no,yes,768,legacy,8,79,/Users/KrisBow/Dropbox/GradSchoolTarleton/Fall2019/AdvQuant/Lab2/KB-subject-4-F23.csv,legacy,Kafkaesque Koffka,3.2.6,0,s,NA,s,s,NA,s,336,NA,44876,7250,NA,336,2,legacy,1024,2,48000,-16,experiment,SSHSS,4,even,46490,193369,NA,206898,206388,1599,194201,NA,208000,1611,186117,NA,208111,208449,207991,208111,FlankerTaskKBowman,84,43701,89,yes,1024
94.44444444,94.44444444,490.0222222,490.0222222,black,no,legacy,legacy,legacy,0,incongruent,uniform,1,undefined,1,s,0,0,0,89,89,0,89,0,89,0,0,0,89,89,89,89,Tue Sep 24 12:50:53 2019,600,The main experiment item,yes,FlankerTaskKBowman.osexp,/Users/KrisBow/Dropbox/GradSchoolTarleton/Fall2019/AdvQuant/Lab2,no,mono,no,18,no,white,no,yes,768,legacy,9,79,/Users/KrisBow/Dropbox/GradSchoolTarleton/Fall2019/AdvQuant/Lab2/KB-subject-4-F23.csv,legacy,Kafkaesque Koffka,3.2.6,0,s,NA,s,s,NA,s,401,NA,44876,7250,NA,401,2,legacy,1024,2,48000,-16,experiment,HHSHH,4,even,46490,193369,NA,208973,208462,1599,194201,NA,210075,1611,186117,NA,210185,210589,210064,210185,FlankerTaskKBowman,85,44102,90,yes,1024
94.50549451,94.50549451,489.4395604,489.4395604,black,no,legacy,legacy,legacy,0,congruent,uniform,1,undefined,1,h,0,0,0,90,90,0,90,0,90,0,0,0,90,90,90,90,Tue Sep 24 12:50:53 2019,600,The main experiment item,yes,FlankerTaskKBowman.osexp,/Users/KrisBow/Dropbox/GradSchoolTarleton/Fall2019/AdvQuant/Lab2,no,mono,no,18,no,white,no,yes,768,legacy,10,79,/Users/KrisBow/Dropbox/GradSchoolTarleton/Fall2019/AdvQuant/Lab2/KB-subject-4-F23.csv,legacy,Kafkaesque Koffka,3.2.6,0,h,NA,s,s,NA,h,437,NA,44876,7250,NA,437,2,legacy,1024,2,48000,-16,experiment,HHHHH,4,even,46490,193369,NA,210602,208462,1599,194201,NA,211705,1611,186117,NA,211815,212254,211694,211815,FlankerTaskKBowman,86,44539,91,yes,1024
93.47826087,93.47826087,487.4565217,487.4565217,black,no,legacy,legacy,legacy,0,incongruent,uniform,0,undefined,0,h,0,0,0,91,91,0,91,0,91,0,0,0,91,91,91,91,Tue Sep 24 12:50:53 2019,600,The main experiment item,yes,FlankerTaskKBowman.osexp,/Users/KrisBow/Dropbox/GradSchoolTarleton/Fall2019/AdvQuant/Lab2,no,mono,no,18,no,white,no,yes,768,legacy,11,79,/Users/KrisBow/Dropbox/GradSchoolTarleton/Fall2019/AdvQuant/Lab2/KB-subject-4-F23.csv,legacy,Kafkaesque Koffka,3.2.6,0,s,NA,s,s,NA,s,307,NA,44876,7250,NA,307,2,legacy,1024,2,48000,-16,experiment,SSHSS,4,even,46490,193369,NA,212267,208462,1599,194201,NA,213368,1611,186117,NA,213479,213790,213358,213479,FlankerTaskKBowman,86,44846,92,yes,1024
93.5483871,93.5483871,487.6236559,487.6236559,black,no,legacy,legacy,legacy,0,incongruent,uniform,1,undefined,1,h,0,0,0,92,92,0,92,0,92,0,0,0,92,92,92,92,Tue Sep 24 12:50:53 2019,600,The main experiment item,yes,FlankerTaskKBowman.osexp,/Users/KrisBow/Dropbox/GradSchoolTarleton/Fall2019/AdvQuant/Lab2,no,mono,no,18,no,white,no,yes,768,legacy,12,79,/Users/KrisBow/Dropbox/GradSchoolTarleton/Fall2019/AdvQuant/Lab2/KB-subject-4-F23.csv,legacy,Kafkaesque Koffka,3.2.6,0,h,NA,s,s,NA,h,503,NA,44876,7250,NA,503,2,legacy,1024,2,48000,-16,experiment,SSHSS,4,even,46490,193369,NA,214313,213803,1599,194201,NA,215416,1611,186117,NA,215527,216033,215405,215527,FlankerTaskKBowman,87,45349,93,yes,1024
93.61702128,93.61702128,486.9255319,486.9255319,black,no,legacy,legacy,legacy,0,congruent,uniform,1,undefined,1,h,0,0,0,93,93,0,93,0,93,0,0,0,93,93,93,93,Tue Sep 24 12:50:53 2019,600,The main experiment item,yes,FlankerTaskKBowman.osexp,/Users/KrisBow/Dropbox/GradSchoolTarleton/Fall2019/AdvQuant/Lab2,no,mono,no,18,no,white,no,yes,768,legacy,13,79,/Users/KrisBow/Dropbox/GradSchoolTarleton/Fall2019/AdvQuant/Lab2/KB-subject-4-F23.csv,legacy,Kafkaesque Koffka,3.2.6,0,h,NA,s,s,NA,h,422,NA,44876,7250,NA,422,2,legacy,1024,2,48000,-16,experiment,HHHHH,4,even,46490,193369,NA,216047,213803,1599,194201,NA,217149,1611,186117,NA,217260,217686,217138,217260,FlankerTaskKBowman,88,45771,94,yes,1024
93.68421053,93.68421053,486.6105263,486.6105263,black,no,legacy,legacy,legacy,0,incongruent,uniform,1,undefined,1,s,0,0,0,94,94,0,94,0,94,0,0,0,94,94,94,94,Tue Sep 24 12:50:53 2019,600,The main experiment item,yes,FlankerTaskKBowman.osexp,/Users/KrisBow/Dropbox/GradSchoolTarleton/Fall2019/AdvQuant/Lab2,no,mono,no,18,no,white,no,yes,768,legacy,14,79,/Users/KrisBow/Dropbox/GradSchoolTarleton/Fall2019/AdvQuant/Lab2/KB-subject-4-F23.csv,legacy,Kafkaesque Koffka,3.2.6,0,s,NA,s,s,NA,s,457,NA,44876,7250,NA,457,2,legacy,1024,2,48000,-16,experiment,HHSHH,4,even,46490,193369,NA,217699,213803,1599,194201,NA,218801,1611,186117,NA,218912,219372,218790,218912,FlankerTaskKBowman,89,46228,95,yes,1024
93.75,93.75,485.2916667,485.2916667,black,no,legacy,legacy,legacy,0,congruent,uniform,1,undefined,1,s,0,0,0,95,95,0,95,0,95,0,0,0,95,95,95,95,Tue Sep 24 12:50:53 2019,600,The main experiment item,yes,FlankerTaskKBowman.osexp,/Users/KrisBow/Dropbox/GradSchoolTarleton/Fall2019/AdvQuant/Lab2,no,mono,no,18,no,white,no,yes,768,legacy,15,79,/Users/KrisBow/Dropbox/GradSchoolTarleton/Fall2019/AdvQuant/Lab2/KB-subject-4-F23.csv,legacy,Kafkaesque Koffka,3.2.6,0,s,NA,s,s,NA,s,360,NA,44876,7250,NA,360,2,legacy,1024,2,48000,-16,experiment,SSSSS,4,even,46490,193369,NA,219385,213803,1599,194201,NA,220486,1611,186117,NA,220597,220960,220476,220597,FlankerTaskKBowman,90,46588,96,yes,1024
93.81443299,93.81443299,484.1649485,484.1649485,black,no,legacy,legacy,legacy,0,congruent,uniform,1,undefined,1,s,0,0,0,96,96,0,96,0,96,0,0,0,96,96,96,96,Tue Sep 24 12:50:53 2019,600,The main experiment item,yes,FlankerTaskKBowman.osexp,/Users/KrisBow/Dropbox/GradSchoolTarleton/Fall2019/AdvQuant/Lab2,no,mono,no,18,no,white,no,yes,768,legacy,16,79,/Users/KrisBow/Dropbox/GradSchoolTarleton/Fall2019/AdvQuant/Lab2/KB-subject-4-F23.csv,legacy,Kafkaesque Koffka,3.2.6,0,s,NA,s,s,NA,s,376,NA,44876,7250,NA,376,2,legacy,1024,2,48000,-16,experiment,SSSSS,4,even,46490,193369,NA,220973,213803,1599,194201,NA,222075,1611,186117,NA,222186,222565,222064,222186,FlankerTaskKBowman,91,46964,97,yes,1024
93.87755102,93.87755102,483.3367347,483.3367347,black,no,legacy,legacy,legacy,0,incongruent,uniform,1,undefined,1,h,0,0,0,97,97,0,97,0,97,0,0,0,97,97,97,97,Tue Sep 24 12:50:53 2019,600,The main experiment item,yes,FlankerTaskKBowman.osexp,/Users/KrisBow/Dropbox/GradSchoolTarleton/Fall2019/AdvQuant/Lab2,no,mono,no,18,no,white,no,yes,768,legacy,17,79,/Users/KrisBow/Dropbox/GradSchoolTarleton/Fall2019/AdvQuant/Lab2/KB-subject-4-F23.csv,legacy,Kafkaesque Koffka,3.2.6,0,h,NA,s,s,NA,h,403,NA,44876,7250,NA,403,2,legacy,1024,2,48000,-16,experiment,SSHSS,4,even,46490,193369,NA,222579,213803,1599,194201,NA,223680,1611,186117,NA,223792,224198,223670,223792,FlankerTaskKBowman,92,47367,98,yes,1024
93.93939394,93.93939394,482.5151515,482.5151515,black,no,legacy,legacy,legacy,0,congruent,uniform,1,undefined,1,s,0,0,0,98,98,0,98,0,98,0,0,0,98,98,98,98,Tue Sep 24 12:50:53 2019,600,The main experiment item,yes,FlankerTaskKBowman.osexp,/Users/KrisBow/Dropbox/GradSchoolTarleton/Fall2019/AdvQuant/Lab2,no,mono,no,18,no,white,no,yes,768,legacy,18,79,/Users/KrisBow/Dropbox/GradSchoolTarleton/Fall2019/AdvQuant/Lab2/KB-subject-4-F23.csv,legacy,Kafkaesque Koffka,3.2.6,0,s,NA,s,s,NA,s,402,NA,44876,7250,NA,402,2,legacy,1024,2,48000,-16,experiment,SSSSS,4,even,46490,193369,NA,224211,213803,1599,194201,NA,225313,1611,186117,NA,225424,225829,225302,225424,FlankerTaskKBowman,93,47769,99,yes,1024
94,94,481.78,481.78,black,no,legacy,legacy,legacy,0,congruent,uniform,1,undefined,1,h,0,0,0,99,99,0,99,0,99,0,0,0,99,99,99,99,Tue Sep 24 12:50:53 2019,600,The main experiment item,yes,FlankerTaskKBowman.osexp,/Users/KrisBow/Dropbox/GradSchoolTarleton/Fall2019/AdvQuant/Lab2,no,mono,no,18,no,white,no,yes,768,legacy,19,79,/Users/KrisBow/Dropbox/GradSchoolTarleton/Fall2019/AdvQuant/Lab2/KB-subject-4-F23.csv,legacy,Kafkaesque Koffka,3.2.6,0,h,NA,s,s,NA,h,409,NA,44876,7250,NA,409,2,legacy,1024,2,48000,-16,experiment,HHHHH,4,even,46490,193369,NA,225842,213803,1599,194201,NA,226944,1611,186117,NA,227055,227467,226934,227055,FlankerTaskKBowman,94,48178,100,yes,1024
94.05940594,94.05940594,481.1683168,481.1683168,black,no,legacy,legacy,legacy,0,congruent,uniform,1,undefined,1,h,0,0,0,100,100,0,100,0,100,0,0,0,100,100,100,100,Tue Sep 24 12:50:53 2019,600,The main experiment item,yes,FlankerTaskKBowman.osexp,/Users/KrisBow/Dropbox/GradSchoolTarleton/Fall2019/AdvQuant/Lab2,no,mono,no,18,no,white,no,yes,768,legacy,20,79,/Users/KrisBow/Dropbox/GradSchoolTarleton/Fall2019/AdvQuant/Lab2/KB-subject-4-F23.csv,legacy,Kafkaesque Koffka,3.2.6,0,h,NA,s,s,NA,h,420,NA,44876,7250,NA,420,2,legacy,1024,2,48000,-16,experiment,HHHHH,4,even,46490,193369,NA,227480,213803,1599,194201,NA,228582,1611,186117,NA,228693,229116,228571,228693,FlankerTaskKBowman,95,48598,101,yes,1024
94.11764706,94.11764706,480.0196078,480.0196078,black,no,legacy,legacy,legacy,0,congruent,uniform,1,undefined,1,s,0,0,0,101,101,0,101,0,101,0,0,0,101,101,101,101,Tue Sep 24 12:50:53 2019,600,The main experiment item,yes,FlankerTaskKBowman.osexp,/Users/KrisBow/Dropbox/GradSchoolTarleton/Fall2019/AdvQuant/Lab2,no,mono,no,18,no,white,no,yes,768,legacy,21,79,/Users/KrisBow/Dropbox/GradSchoolTarleton/Fall2019/AdvQuant/Lab2/KB-subject-4-F23.csv,legacy,Kafkaesque Koffka,3.2.6,0,s,NA,s,s,NA,s,364,NA,44876,7250,NA,364,2,legacy,1024,2,48000,-16,experiment,SSSSS,4,even,46490,193369,NA,229129,213803,1599,194201,NA,230230,1611,186117,NA,230341,230708,230219,230341,FlankerTaskKBowman,96,48962,102,yes,1024
94.17475728,94.17475728,479.8932039,479.8932039,black,no,legacy,legacy,legacy,0,incongruent,uniform,1,undefined,1,h,0,0,0,102,102,0,102,0,102,0,0,0,102,102,102,102,Tue Sep 24 12:50:53 2019,600,The main experiment item,yes,FlankerTaskKBowman.osexp,/Users/KrisBow/Dropbox/GradSchoolTarleton/Fall2019/AdvQuant/Lab2,no,mono,no,18,no,white,no,yes,768,legacy,22,79,/Users/KrisBow/Dropbox/GradSchoolTarleton/Fall2019/AdvQuant/Lab2/KB-subject-4-F23.csv,legacy,Kafkaesque Koffka,3.2.6,0,h,NA,s,s,NA,h,467,NA,44876,7250,NA,467,2,legacy,1024,2,48000,-16,experiment,SSHSS,4,even,46490,193369,NA,230721,213803,1599,194201,NA,231822,1611,186117,NA,231933,232403,231811,231933,FlankerTaskKBowman,97,49429,103,yes,1024
94.23076923,94.23076923,480.0769231,480.0769231,black,no,legacy,legacy,legacy,0,incongruent,uniform,1,undefined,1,h,0,0,0,103,103,0,103,0,103,0,0,0,103,103,103,103,Tue Sep 24 12:50:53 2019,600,The main experiment item,yes,FlankerTaskKBowman.osexp,/Users/KrisBow/Dropbox/GradSchoolTarleton/Fall2019/AdvQuant/Lab2,no,mono,no,18,no,white,no,yes,768,legacy,23,79,/Users/KrisBow/Dropbox/GradSchoolTarleton/Fall2019/AdvQuant/Lab2/KB-subject-4-F23.csv,legacy,Kafkaesque Koffka,3.2.6,0,h,NA,s,s,NA,h,499,NA,44876,7250,NA,499,2,legacy,1024,2,48000,-16,experiment,SSHSS,4,even,46490,193369,NA,232416,213803,1599,194201,NA,233517,1611,186117,NA,233628,234130,233506,233628,FlankerTaskKBowman,98,49928,104,yes,1024
94.28571429,94.28571429,479.9047619,479.9047619,black,no,legacy,legacy,legacy,0,incongruent,uniform,1,undefined,1,s,0,0,0,104,104,0,104,0,104,0,0,0,104,104,104,104,Tue Sep 24 12:50:53 2019,600,The main experiment item,yes,FlankerTaskKBowman.osexp,/Users/KrisBow/Dropbox/GradSchoolTarleton/Fall2019/AdvQuant/Lab2,no,mono,no,18,no,white,no,yes,768,legacy,24,79,/Users/KrisBow/Dropbox/GradSchoolTarleton/Fall2019/AdvQuant/Lab2/KB-subject-4-F23.csv,legacy,Kafkaesque Koffka,3.2.6,0,s,NA,s,s,NA,s,462,NA,44876,7250,NA,462,2,legacy,1024,2,48000,-16,experiment,HHSHH,4,even,46490,193369,NA,234143,213803,1599,194201,NA,235245,1611,186117,NA,235355,235820,235234,235355,FlankerTaskKBowman,99,50390,105,yes,1024
94.33962264,94.33962264,479.0660377,479.0660377,black,no,legacy,legacy,legacy,0,congruent,uniform,1,undefined,1,s,0,0,0,105,105,0,105,0,105,0,0,0,105,105,105,105,Tue Sep 24 12:50:53 2019,600,The main experiment item,yes,FlankerTaskKBowman.osexp,/Users/KrisBow/Dropbox/GradSchoolTarleton/Fall2019/AdvQuant/Lab2,no,mono,no,18,no,white,no,yes,768,legacy,25,79,/Users/KrisBow/Dropbox/GradSchoolTarleton/Fall2019/AdvQuant/Lab2/KB-subject-4-F23.csv,legacy,Kafkaesque Koffka,3.2.6,0,s,NA,s,s,NA,s,391,NA,44876,7250,NA,391,2,legacy,1024,2,48000,-16,experiment,SSSSS,4,even,46490,193369,NA,235836,213803,1599,194201,NA,236951,1611,186117,NA,237062,237457,236939,237062,FlankerTaskKBowman,100,50781,106,yes,1024
94.39252336,94.39252336,478.6448598,478.6448598,black,no,legacy,legacy,legacy,0,incongruent,uniform,1,undefined,1,h,0,0,0,106,106,0,106,0,106,0,0,0,106,106,106,106,Tue Sep 24 12:50:53 2019,600,The main experiment item,yes,FlankerTaskKBowman.osexp,/Users/KrisBow/Dropbox/GradSchoolTarleton/Fall2019/AdvQuant/Lab2,no,mono,no,18,no,white,no,yes,768,legacy,26,79,/Users/KrisBow/Dropbox/GradSchoolTarleton/Fall2019/AdvQuant/Lab2/KB-subject-4-F23.csv,legacy,Kafkaesque Koffka,3.2.6,0,h,NA,s,s,NA,h,434,NA,44876,7250,NA,434,2,legacy,1024,2,48000,-16,experiment,SSHSS,4,even,46490,193369,NA,237471,213803,1599,194201,NA,238573,1611,186117,NA,238684,239121,238562,238684,FlankerTaskKBowman,101,51215,107,yes,1024
94.44444444,94.44444444,478.6851852,478.6851852,black,no,legacy,legacy,legacy,0,incongruent,uniform,1,undefined,1,h,0,0,0,107,107,0,107,0,107,0,0,0,107,107,107,107,Tue Sep 24 12:50:53 2019,600,The main experiment item,yes,FlankerTaskKBowman.osexp,/Users/KrisBow/Dropbox/GradSchoolTarleton/Fall2019/AdvQuant/Lab2,no,mono,no,18,no,white,no,yes,768,legacy,27,79,/Users/KrisBow/Dropbox/GradSchoolTarleton/Fall2019/AdvQuant/Lab2/KB-subject-4-F23.csv,legacy,Kafkaesque Koffka,3.2.6,0,h,NA,s,s,NA,h,483,NA,44876,7250,NA,483,2,legacy,1024,2,48000,-16,experiment,SSHSS,4,even,46490,193369,NA,239135,213803,1599,194201,NA,240237,1611,186117,NA,240348,240835,240226,240348,FlankerTaskKBowman,102,51698,108,yes,1024
94.49541284,94.49541284,478.2844037,478.2844037,black,no,legacy,legacy,legacy,0,incongruent,uniform,1,undefined,1,h,0,0,0,108,108,0,108,0,108,0,0,0,108,108,108,108,Tue Sep 24 12:50:53 2019,600,The main experiment item,yes,FlankerTaskKBowman.osexp,/Users/KrisBow/Dropbox/GradSchoolTarleton/Fall2019/AdvQuant/Lab2,no,mono,no,18,no,white,no,yes,768,legacy,28,79,/Users/KrisBow/Dropbox/GradSchoolTarleton/Fall2019/AdvQuant/Lab2/KB-subject-4-F23.csv,legacy,Kafkaesque Koffka,3.2.6,0,h,NA,s,s,NA,h,435,NA,44876,7250,NA,435,2,legacy,1024,2,48000,-16,experiment,SSHSS,4,even,46490,193369,NA,240848,213803,1599,194201,NA,241950,1611,186117,NA,242061,242500,241940,242061,FlankerTaskKBowman,103,52133,109,yes,1024
94.54545455,94.54545455,477.4636364,477.4636364,black,no,legacy,legacy,legacy,0,congruent,uniform,1,undefined,1,s,0,0,0,109,109,0,109,0,109,0,0,0,109,109,109,109,Tue Sep 24 12:50:53 2019,600,The main experiment item,yes,FlankerTaskKBowman.osexp,/Users/KrisBow/Dropbox/GradSchoolTarleton/Fall2019/AdvQuant/Lab2,no,mono,no,18,no,white,no,yes,768,legacy,29,79,/Users/KrisBow/Dropbox/GradSchoolTarleton/Fall2019/AdvQuant/Lab2/KB-subject-4-F23.csv,legacy,Kafkaesque Koffka,3.2.6,0,s,NA,s,s,NA,s,388,NA,44876,7250,NA,388,2,legacy,1024,2,48000,-16,experiment,SSSSS,4,even,46490,193369,NA,242513,213803,1599,194201,NA,243615,1611,186117,NA,243726,244117,243605,243726,FlankerTaskKBowman,104,52521,110,yes,1024
94.59459459,94.59459459,477.4144144,477.4144144,black,no,legacy,legacy,legacy,0,incongruent,uniform,1,undefined,1,s,0,0,0,110,110,0,110,0,110,0,0,0,110,110,110,110,Tue Sep 24 12:50:53 2019,600,The main experiment item,yes,FlankerTaskKBowman.osexp,/Users/KrisBow/Dropbox/GradSchoolTarleton/Fall2019/AdvQuant/Lab2,no,mono,no,18,no,white,no,yes,768,legacy,30,79,/Users/KrisBow/Dropbox/GradSchoolTarleton/Fall2019/AdvQuant/Lab2/KB-subject-4-F23.csv,legacy,Kafkaesque Koffka,3.2.6,0,s,NA,s,s,NA,s,472,NA,44876,7250,NA,472,2,legacy,1024,2,48000,-16,experiment,HHSHH,4,even,46490,193369,NA,244129,213803,1599,194201,NA,245231,1611,186117,NA,245342,245817,245220,245342,FlankerTaskKBowman,105,52993,111,yes,1024
94.64285714,94.64285714,476.5892857,476.5892857,black,no,legacy,legacy,legacy,0,congruent,uniform,1,undefined,1,s,0,0,0,111,111,0,111,0,111,0,0,0,111,111,111,111,Tue Sep 24 12:50:53 2019,600,The main experiment item,yes,FlankerTaskKBowman.osexp,/Users/KrisBow/Dropbox/GradSchoolTarleton/Fall2019/AdvQuant/Lab2,no,mono,no,18,no,white,no,yes,768,legacy,31,79,/Users/KrisBow/Dropbox/GradSchoolTarleton/Fall2019/AdvQuant/Lab2/KB-subject-4-F23.csv,legacy,Kafkaesque Koffka,3.2.6,0,s,NA,s,s,NA,s,385,NA,44876,7250,NA,385,2,legacy,1024,2,48000,-16,experiment,SSSSS,4,even,46490,193369,NA,245830,213803,1599,194201,NA,246931,1611,186117,NA,247042,247430,246921,247042,FlankerTaskKBowman,106,53378,112,yes,1024
94.69026549,94.69026549,476.4336283,476.4336283,black,no,legacy,legacy,legacy,0,incongruent,uniform,1,undefined,1,s,0,0,0,112,112,0,112,0,112,0,0,0,112,112,112,112,Tue Sep 24 12:50:53 2019,600,The main experiment item,yes,FlankerTaskKBowman.osexp,/Users/KrisBow/Dropbox/GradSchoolTarleton/Fall2019/AdvQuant/Lab2,no,mono,no,18,no,white,no,yes,768,legacy,32,79,/Users/KrisBow/Dropbox/GradSchoolTarleton/Fall2019/AdvQuant/Lab2/KB-subject-4-F23.csv,legacy,Kafkaesque Koffka,3.2.6,0,s,NA,s,s,NA,s,459,NA,44876,7250,NA,459,2,legacy,1024,2,48000,-16,experiment,HHSHH,4,even,46490,193369,NA,247443,213803,1599,194201,NA,248544,1611,186117,NA,248655,249117,248534,248655,FlankerTaskKBowman,107,53837,113,yes,1024
94.73684211,94.73684211,476.0438596,476.0438596,black,no,legacy,legacy,legacy,0,incongruent,uniform,1,undefined,1,s,0,0,0,113,113,0,113,0,113,0,0,0,113,113,113,113,Tue Sep 24 12:50:53 2019,600,The main experiment item,yes,FlankerTaskKBowman.osexp,/Users/KrisBow/Dropbox/GradSchoolTarleton/Fall2019/AdvQuant/Lab2,no,mono,no,18,no,white,no,yes,768,legacy,33,79,/Users/KrisBow/Dropbox/GradSchoolTarleton/Fall2019/AdvQuant/Lab2/KB-subject-4-F23.csv,legacy,Kafkaesque Koffka,3.2.6,0,s,NA,s,s,NA,s,432,NA,44876,7250,NA,432,2,legacy,1024,2,48000,-16,experiment,HHSHH,4,even,46490,193369,NA,249130,213803,1599,194201,NA,250231,1611,186117,NA,250343,250779,250221,250343,FlankerTaskKBowman,108,54269,114,yes,1024
94.7826087,94.7826087,475.1826087,475.1826087,black,no,legacy,legacy,legacy,0,congruent,uniform,1,undefined,1,h,0,0,0,114,114,0,114,0,114,0,0,0,114,114,114,114,Tue Sep 24 12:50:53 2019,600,The main experiment item,yes,FlankerTaskKBowman.osexp,/Users/KrisBow/Dropbox/GradSchoolTarleton/Fall2019/AdvQuant/Lab2,no,mono,no,18,no,white,no,yes,768,legacy,34,79,/Users/KrisBow/Dropbox/GradSchoolTarleton/Fall2019/AdvQuant/Lab2/KB-subject-4-F23.csv,legacy,Kafkaesque Koffka,3.2.6,0,h,NA,s,s,NA,h,377,NA,44876,7250,NA,377,2,legacy,1024,2,48000,-16,experiment,HHHHH,4,even,46490,193369,NA,250793,213803,1599,194201,NA,251895,1611,186117,NA,252005,252385,251884,252005,FlankerTaskKBowman,109,54646,115,yes,1024
94.82758621,94.82758621,474.5258621,474.5258621,black,no,legacy,legacy,legacy,0,incongruent,uniform,1,undefined,1,s,0,0,0,115,115,0,115,0,115,0,0,0,115,115,115,115,Tue Sep 24 12:50:53 2019,600,The main experiment item,yes,FlankerTaskKBowman.osexp,/Users/KrisBow/Dropbox/GradSchoolTarleton/Fall2019/AdvQuant/Lab2,no,mono,no,18,no,white,no,yes,768,legacy,35,79,/Users/KrisBow/Dropbox/GradSchoolTarleton/Fall2019/AdvQuant/Lab2/KB-subject-4-F23.csv,legacy,Kafkaesque Koffka,3.2.6,0,s,NA,s,s,NA,s,399,NA,44876,7250,NA,399,2,legacy,1024,2,48000,-16,experiment,HHSHH,4,even,46490,193369,NA,252398,213803,1599,194201,NA,253503,1611,186117,NA,253614,254016,253492,253614,FlankerTaskKBowman,110,55045,116,yes,1024
94.87179487,94.87179487,475.008547,475.008547,black,no,legacy,legacy,legacy,0,incongruent,uniform,1,undefined,1,h,0,0,0,116,116,0,116,0,116,0,0,0,116,116,116,116,Tue Sep 24 12:50:53 2019,600,The main experiment item,yes,FlankerTaskKBowman.osexp,/Users/KrisBow/Dropbox/GradSchoolTarleton/Fall2019/AdvQuant/Lab2,no,mono,no,18,no,white,no,yes,768,legacy,36,79,/Users/KrisBow/Dropbox/GradSchoolTarleton/Fall2019/AdvQuant/Lab2/KB-subject-4-F23.csv,legacy,Kafkaesque Koffka,3.2.6,0,h,NA,s,s,NA,h,531,NA,44876,7250,NA,531,2,legacy,1024,2,48000,-16,experiment,SSHSS,4,even,46490,193369,NA,254029,213803,1599,194201,NA,255136,1611,186117,NA,255248,255782,255126,255248,FlankerTaskKBowman,111,55576,117,yes,1024
94.91525424,94.91525424,474.7966102,474.7966102,black,no,legacy,legacy,legacy,0,incongruent,uniform,1,undefined,1,s,0,0,0,117,117,0,117,0,117,0,0,0,117,117,117,117,Tue Sep 24 12:50:53 2019,600,The main experiment item,yes,FlankerTaskKBowman.osexp,/Users/KrisBow/Dropbox/GradSchoolTarleton/Fall2019/AdvQuant/Lab2,no,mono,no,18,no,white,no,yes,768,legacy,37,79,/Users/KrisBow/Dropbox/GradSchoolTarleton/Fall2019/AdvQuant/Lab2/KB-subject-4-F23.csv,legacy,Kafkaesque Koffka,3.2.6,0,s,NA,s,s,NA,s,450,NA,44876,7250,NA,450,2,legacy,1024,2,48000,-16,experiment,HHSHH,4,even,46490,193369,NA,255794,213803,1599,194201,NA,256897,1611,186117,NA,257007,257459,256886,257007,FlankerTaskKBowman,112,56026,118,yes,1024
94.95798319,94.95798319,474.2773109,474.2773109,black,no,legacy,legacy,legacy,0,congruent,uniform,1,undefined,1,s,0,0,0,118,118,0,118,0,118,0,0,0,118,118,118,118,Tue Sep 24 12:50:53 2019,600,The main experiment item,yes,FlankerTaskKBowman.osexp,/Users/KrisBow/Dropbox/GradSchoolTarleton/Fall2019/AdvQuant/Lab2,no,mono,no,18,no,white,no,yes,768,legacy,38,79,/Users/KrisBow/Dropbox/GradSchoolTarleton/Fall2019/AdvQuant/Lab2/KB-subject-4-F23.csv,legacy,Kafkaesque Koffka,3.2.6,0,s,NA,s,s,NA,s,413,NA,44876,7250,NA,413,2,legacy,1024,2,48000,-16,experiment,SSSSS,4,even,46490,193369,NA,257473,213803,1599,194201,NA,258574,1611,186117,NA,258685,259101,258563,258685,FlankerTaskKBowman,113,56439,119,yes,1024
95,95,474.15,474.15,black,no,legacy,legacy,legacy,0,incongruent,uniform,1,undefined,1,h,0,0,0,119,119,0,119,0,119,0,0,0,119,119,119,119,Tue Sep 24 12:50:53 2019,600,The main experiment item,yes,FlankerTaskKBowman.osexp,/Users/KrisBow/Dropbox/GradSchoolTarleton/Fall2019/AdvQuant/Lab2,no,mono,no,18,no,white,no,yes,768,legacy,39,79,/Users/KrisBow/Dropbox/GradSchoolTarleton/Fall2019/AdvQuant/Lab2/KB-subject-4-F23.csv,legacy,Kafkaesque Koffka,3.2.6,0,h,NA,s,s,NA,h,459,NA,44876,7250,NA,459,2,legacy,1024,2,48000,-16,experiment,SSHSS,4,even,46490,193369,NA,259114,213803,1599,194201,NA,260215,1611,186117,NA,260326,260787,260204,260326,FlankerTaskKBowman,114,56898,120,yes,1024
95.04132231,95.04132231,473.892562,473.892562,black,no,legacy,legacy,legacy,0,incongruent,uniform,1,undefined,1,s,0,0,0,120,120,0,120,0,120,0,0,0,120,120,120,120,Tue Sep 24 12:50:53 2019,600,The main experiment item,yes,FlankerTaskKBowman.osexp,/Users/KrisBow/Dropbox/GradSchoolTarleton/Fall2019/AdvQuant/Lab2,no,mono,no,18,no,white,no,yes,768,legacy,40,79,/Users/KrisBow/Dropbox/GradSchoolTarleton/Fall2019/AdvQuant/Lab2/KB-subject-4-F23.csv,legacy,Kafkaesque Koffka,3.2.6,0,s,NA,s,s,NA,s,443,NA,44876,7250,NA,443,2,legacy,1024,2,48000,-16,experiment,HHSHH,4,even,46490,193369,NA,260800,213803,1599,194201,NA,261902,1611,186117,NA,262013,262459,261891,262013,FlankerTaskKBowman,115,57341,121,yes,1024
95.08196721,95.08196721,472.942623,472.942623,black,no,legacy,legacy,legacy,0,congruent,uniform,1,undefined,1,s,0,0,0,121,121,0,121,0,121,0,0,0,121,121,121,121,Tue Sep 24 12:50:53 2019,600,The main experiment item,yes,FlankerTaskKBowman.osexp,/Users/KrisBow/Dropbox/GradSchoolTarleton/Fall2019/AdvQuant/Lab2,no,mono,no,18,no,white,no,yes,768,legacy,41,79,/Users/KrisBow/Dropbox/GradSchoolTarleton/Fall2019/AdvQuant/Lab2/KB-subject-4-F23.csv,legacy,Kafkaesque Koffka,3.2.6,0,s,NA,s,s,NA,s,358,NA,44876,7250,NA,358,2,legacy,1024,2,48000,-16,experiment,SSSSS,4,even,46490,193369,NA,262471,213803,1599,194201,NA,263572,1611,186117,NA,263683,264044,263561,263683,FlankerTaskKBowman,116,57699,122,yes,1024
95.12195122,95.12195122,472.5447154,472.5447154,black,no,legacy,legacy,legacy,0,congruent,uniform,1,undefined,1,s,0,0,0,122,122,0,122,0,122,0,0,0,122,122,122,122,Tue Sep 24 12:50:53 2019,600,The main experiment item,yes,FlankerTaskKBowman.osexp,/Users/KrisBow/Dropbox/GradSchoolTarleton/Fall2019/AdvQuant/Lab2,no,mono,no,18,no,white,no,yes,768,legacy,42,79,/Users/KrisBow/Dropbox/GradSchoolTarleton/Fall2019/AdvQuant/Lab2/KB-subject-4-F23.csv,legacy,Kafkaesque Koffka,3.2.6,0,s,NA,s,s,NA,s,424,NA,44876,7250,NA,424,2,legacy,1024,2,48000,-16,experiment,SSSSS,4,even,46490,193369,NA,264057,213803,1599,194201,NA,265158,1611,186117,NA,265269,265696,265147,265269,FlankerTaskKBowman,117,58123,123,yes,1024
95.16129032,95.16129032,471.5080645,471.5080645,black,no,legacy,legacy,legacy,0,congruent,uniform,1,undefined,1,s,0,0,0,123,123,0,123,0,123,0,0,0,123,123,123,123,Tue Sep 24 12:50:53 2019,600,The main experiment item,yes,FlankerTaskKBowman.osexp,/Users/KrisBow/Dropbox/GradSchoolTarleton/Fall2019/AdvQuant/Lab2,no,mono,no,18,no,white,no,yes,768,legacy,43,79,/Users/KrisBow/Dropbox/GradSchoolTarleton/Fall2019/AdvQuant/Lab2/KB-subject-4-F23.csv,legacy,Kafkaesque Koffka,3.2.6,0,s,NA,s,s,NA,s,344,NA,44876,7250,NA,344,2,legacy,1024,2,48000,-16,experiment,SSSSS,4,even,46490,193369,NA,265713,213803,1599,194201,NA,266815,1611,186117,NA,266925,267272,266805,266925,FlankerTaskKBowman,118,58467,124,yes,1024
95.2,95.2,471.336,471.336,black,no,legacy,legacy,legacy,0,incongruent,uniform,1,undefined,1,h,0,0,0,124,124,0,124,0,124,0,0,0,124,124,124,124,Tue Sep 24 12:50:53 2019,600,The main experiment item,yes,FlankerTaskKBowman.osexp,/Users/KrisBow/Dropbox/GradSchoolTarleton/Fall2019/AdvQuant/Lab2,no,mono,no,18,no,white,no,yes,768,legacy,44,79,/Users/KrisBow/Dropbox/GradSchoolTarleton/Fall2019/AdvQuant/Lab2/KB-subject-4-F23.csv,legacy,Kafkaesque Koffka,3.2.6,0,h,NA,s,s,NA,h,450,NA,44876,7250,NA,450,2,legacy,1024,2,48000,-16,experiment,SSHSS,4,even,46490,193369,NA,267285,213803,1599,194201,NA,268404,1611,186117,NA,268517,268970,268393,268516,FlankerTaskKBowman,119,58917,125,yes,1024
95.23809524,95.23809524,471.0238095,471.0238095,black,no,legacy,legacy,legacy,0,incongruent,uniform,1,undefined,1,s,0,0,0,125,125,0,125,0,125,0,0,0,125,125,125,125,Tue Sep 24 12:50:53 2019,600,The main experiment item,yes,FlankerTaskKBowman.osexp,/Users/KrisBow/Dropbox/GradSchoolTarleton/Fall2019/AdvQuant/Lab2,no,mono,no,18,no,white,no,yes,768,legacy,45,79,/Users/KrisBow/Dropbox/GradSchoolTarleton/Fall2019/AdvQuant/Lab2/KB-subject-4-F23.csv,legacy,Kafkaesque Koffka,3.2.6,0,s,NA,s,s,NA,s,432,NA,44876,7250,NA,432,2,legacy,1024,2,48000,-16,experiment,HHSHH,4,even,46490,193369,NA,268985,213803,1599,194201,NA,270085,1611,186117,NA,270195,270631,270074,270195,FlankerTaskKBowman,120,59349,126,yes,1024
95.27559055,95.27559055,470.7480315,470.7480315,black,no,legacy,legacy,legacy,0,congruent,uniform,1,undefined,1,h,0,0,0,126,126,0,126,0,126,0,0,0,126,126,126,126,Tue Sep 24 12:50:53 2019,600,The main experiment item,yes,FlankerTaskKBowman.osexp,/Users/KrisBow/Dropbox/GradSchoolTarleton/Fall2019/AdvQuant/Lab2,no,mono,no,18,no,white,no,yes,768,legacy,46,79,/Users/KrisBow/Dropbox/GradSchoolTarleton/Fall2019/AdvQuant/Lab2/KB-subject-4-F23.csv,legacy,Kafkaesque Koffka,3.2.6,0,h,NA,s,s,NA,h,436,NA,44876,7250,NA,436,2,legacy,1024,2,48000,-16,experiment,HHHHH,4,even,46490,193369,NA,270644,213803,1599,194201,NA,271746,1611,186117,NA,271856,272295,271734,271856,FlankerTaskKBowman,121,59785,127,yes,1024
95.3125,95.3125,469.8671875,469.8671875,black,no,legacy,legacy,legacy,0,congruent,uniform,1,undefined,1,s,0,0,0,127,127,0,127,0,127,0,0,0,127,127,127,127,Tue Sep 24 12:50:53 2019,600,The main experiment item,yes,FlankerTaskKBowman.osexp,/Users/KrisBow/Dropbox/GradSchoolTarleton/Fall2019/AdvQuant/Lab2,no,mono,no,18,no,white,no,yes,768,legacy,47,79,/Users/KrisBow/Dropbox/GradSchoolTarleton/Fall2019/AdvQuant/Lab2/KB-subject-4-F23.csv,legacy,Kafkaesque Koffka,3.2.6,0,s,NA,s,s,NA,s,358,NA,44876,7250,NA,358,2,legacy,1024,2,48000,-16,experiment,SSSSS,4,even,46490,193369,NA,272308,213803,1599,194201,NA,273409,1611,186117,NA,273520,273882,273398,273520,FlankerTaskKBowman,122,60143,128,yes,1024
95.34883721,95.34883721,470.0697674,470.0697674,black,no,legacy,legacy,legacy,0,congruent,uniform,1,undefined,1,h,0,0,0,128,128,0,128,0,128,0,0,0,128,128,128,128,Tue Sep 24 12:50:53 2019,600,The main experiment item,yes,FlankerTaskKBowman.osexp,/Users/KrisBow/Dropbox/GradSchoolTarleton/Fall2019/AdvQuant/Lab2,no,mono,no,18,no,white,no,yes,768,legacy,48,79,/Users/KrisBow/Dropbox/GradSchoolTarleton/Fall2019/AdvQuant/Lab2/KB-subject-4-F23.csv,legacy,Kafkaesque Koffka,3.2.6,0,h,NA,s,s,NA,h,496,NA,44876,7250,NA,496,2,legacy,1024,2,48000,-16,experiment,HHHHH,4,even,46490,193369,NA,273895,213803,1599,194201,NA,274997,1611,186117,NA,275108,275608,274987,275108,FlankerTaskKBowman,123,60639,129,yes,1024
94.61538462,94.61538462,469.4461538,469.4461538,black,no,legacy,legacy,legacy,0,incongruent,uniform,0,undefined,0,h,0,0,0,129,129,0,129,0,129,0,0,0,129,129,129,129,Tue Sep 24 12:50:53 2019,600,The main experiment item,yes,FlankerTaskKBowman.osexp,/Users/KrisBow/Dropbox/GradSchoolTarleton/Fall2019/AdvQuant/Lab2,no,mono,no,18,no,white,no,yes,768,legacy,49,79,/Users/KrisBow/Dropbox/GradSchoolTarleton/Fall2019/AdvQuant/Lab2/KB-subject-4-F23.csv,legacy,Kafkaesque Koffka,3.2.6,0,s,NA,s,s,NA,s,389,NA,44876,7250,NA,389,2,legacy,1024,2,48000,-16,experiment,SSHSS,4,even,46490,193369,NA,275621,213803,1599,194201,NA,276723,1611,186117,NA,276834,277226,276712,276834,FlankerTaskKBowman,123,61028,130,yes,1024
94.65648855,94.65648855,469.3740458,469.3740458,black,no,legacy,legacy,legacy,0,incongruent,uniform,1,undefined,1,s,0,0,0,130,130,0,130,0,130,0,0,0,130,130,130,130,Tue Sep 24 12:50:53 2019,600,The main experiment item,yes,FlankerTaskKBowman.osexp,/Users/KrisBow/Dropbox/GradSchoolTarleton/Fall2019/AdvQuant/Lab2,no,mono,no,18,no,white,no,yes,768,legacy,50,79,/Users/KrisBow/Dropbox/GradSchoolTarleton/Fall2019/AdvQuant/Lab2/KB-subject-4-F23.csv,legacy,Kafkaesque Koffka,3.2.6,0,s,NA,s,s,NA,s,460,NA,44876,7250,NA,460,2,legacy,1024,2,48000,-16,experiment,HHSHH,4,even,46490,193369,NA,277750,277239,1599,194201,NA,278854,1611,186117,NA,278965,279428,278844,278965,FlankerTaskKBowman,124,61488,131,yes,1024
94.6969697,94.6969697,469.6060606,469.6060606,black,no,legacy,legacy,legacy,0,incongruent,uniform,1,undefined,1,s,0,0,0,131,131,0,131,0,131,0,0,0,131,131,131,131,Tue Sep 24 12:50:53 2019,600,The main experiment item,yes,FlankerTaskKBowman.osexp,/Users/KrisBow/Dropbox/GradSchoolTarleton/Fall2019/AdvQuant/Lab2,no,mono,no,18,no,white,no,yes,768,legacy,51,79,/Users/KrisBow/Dropbox/GradSchoolTarleton/Fall2019/AdvQuant/Lab2/KB-subject-4-F23.csv,legacy,Kafkaesque Koffka,3.2.6,0,s,NA,s,s,NA,s,500,NA,44876,7250,NA,500,2,legacy,1024,2,48000,-16,experiment,HHSHH,4,even,46490,193369,NA,279442,277239,1599,194201,NA,280543,1611,186117,NA,280654,281158,280532,280653,FlankerTaskKBowman,125,61988,132,yes,1024
94.73684211,94.73684211,469.2481203,469.2481203,black,no,legacy,legacy,legacy,0,congruent,uniform,1,undefined,1,h,0,0,0,132,132,0,132,0,132,0,0,0,132,132,132,132,Tue Sep 24 12:50:53 2019,600,The main experiment item,yes,FlankerTaskKBowman.osexp,/Users/KrisBow/Dropbox/GradSchoolTarleton/Fall2019/AdvQuant/Lab2,no,mono,no,18,no,white,no,yes,768,legacy,52,79,/Users/KrisBow/Dropbox/GradSchoolTarleton/Fall2019/AdvQuant/Lab2/KB-subject-4-F23.csv,legacy,Kafkaesque Koffka,3.2.6,0,h,NA,s,s,NA,h,422,NA,44876,7250,NA,422,2,legacy,1024,2,48000,-16,experiment,HHHHH,4,even,46490,193369,NA,281170,277239,1599,194201,NA,282273,1611,186117,NA,282385,282811,282263,282385,FlankerTaskKBowman,126,62410,133,yes,1024
94.7761194,94.7761194,468.9029851,468.9029851,black,no,legacy,legacy,legacy,0,congruent,uniform,1,undefined,1,s,0,0,0,133,133,0,133,0,133,0,0,0,133,133,133,133,Tue Sep 24 12:50:53 2019,600,The main experiment item,yes,FlankerTaskKBowman.osexp,/Users/KrisBow/Dropbox/GradSchoolTarleton/Fall2019/AdvQuant/Lab2,no,mono,no,18,no,white,no,yes,768,legacy,53,79,/Users/KrisBow/Dropbox/GradSchoolTarleton/Fall2019/AdvQuant/Lab2/KB-subject-4-F23.csv,legacy,Kafkaesque Koffka,3.2.6,0,s,NA,s,s,NA,s,423,NA,44876,7250,NA,423,2,legacy,1024,2,48000,-16,experiment,SSSSS,4,even,46490,193369,NA,282825,277239,1599,194201,NA,283928,1611,186117,NA,284040,284466,283918,284040,FlankerTaskKBowman,127,62833,134,yes,1024
94.81481481,94.81481481,468.8592593,468.8592593,black,no,legacy,legacy,legacy,0,incongruent,uniform,1,undefined,1,s,0,0,0,134,134,0,134,0,134,0,0,0,134,134,134,134,Tue Sep 24 12:50:53 2019,600,The main experiment item,yes,FlankerTaskKBowman.osexp,/Users/KrisBow/Dropbox/GradSchoolTarleton/Fall2019/AdvQuant/Lab2,no,mono,no,18,no,white,no,yes,768,legacy,54,79,/Users/KrisBow/Dropbox/GradSchoolTarleton/Fall2019/AdvQuant/Lab2/KB-subject-4-F23.csv,legacy,Kafkaesque Koffka,3.2.6,0,s,NA,s,s,NA,s,463,NA,44876,7250,NA,463,2,legacy,1024,2,48000,-16,experiment,HHSHH,4,even,46490,193369,NA,284479,277239,1599,194201,NA,285581,1611,186117,NA,285692,286158,285571,285692,FlankerTaskKBowman,128,63296,135,yes,1024
94.85294118,94.85294118,469.6691176,469.6691176,black,no,legacy,legacy,legacy,0,congruent,uniform,1,undefined,1,s,0,0,0,135,135,0,135,0,135,0,0,0,135,135,135,135,Tue Sep 24 12:50:53 2019,600,The main experiment item,yes,FlankerTaskKBowman.osexp,/Users/KrisBow/Dropbox/GradSchoolTarleton/Fall2019/AdvQuant/Lab2,no,mono,no,18,no,white,no,yes,768,legacy,55,79,/Users/KrisBow/Dropbox/GradSchoolTarleton/Fall2019/AdvQuant/Lab2/KB-subject-4-F23.csv,legacy,Kafkaesque Koffka,3.2.6,0,s,NA,s,s,NA,s,579,NA,44876,7250,NA,579,2,legacy,1024,2,48000,-16,experiment,SSSSS,4,even,46490,193369,NA,286171,277239,1599,194201,NA,287271,1611,186117,NA,287383,287965,287261,287383,FlankerTaskKBowman,129,63875,136,yes,1024
94.89051095,94.89051095,469.4890511,469.4890511,black,no,legacy,legacy,legacy,0,incongruent,uniform,1,undefined,1,s,0,0,0,136,136,0,136,0,136,0,0,0,136,136,136,136,Tue Sep 24 12:50:53 2019,600,The main experiment item,yes,FlankerTaskKBowman.osexp,/Users/KrisBow/Dropbox/GradSchoolTarleton/Fall2019/AdvQuant/Lab2,no,mono,no,18,no,white,no,yes,768,legacy,56,79,/Users/KrisBow/Dropbox/GradSchoolTarleton/Fall2019/AdvQuant/Lab2/KB-subject-4-F23.csv,legacy,Kafkaesque Koffka,3.2.6,0,s,NA,s,s,NA,s,445,NA,44876,7250,NA,445,2,legacy,1024,2,48000,-16,experiment,HHSHH,4,even,46490,193369,NA,287978,277239,1599,194201,NA,289080,1611,186117,NA,289191,289640,289070,289191,FlankerTaskKBowman,130,64320,137,yes,1024
94.92753623,94.92753623,469.8985507,469.8985507,black,no,legacy,legacy,legacy,0,incongruent,uniform,1,undefined,1,h,0,0,0,137,137,0,137,0,137,0,0,0,137,137,137,137,Tue Sep 24 12:50:53 2019,600,The main experiment item,yes,FlankerTaskKBowman.osexp,/Users/KrisBow/Dropbox/GradSchoolTarleton/Fall2019/AdvQuant/Lab2,no,mono,no,18,no,white,no,yes,768,legacy,57,79,/Users/KrisBow/Dropbox/GradSchoolTarleton/Fall2019/AdvQuant/Lab2/KB-subject-4-F23.csv,legacy,Kafkaesque Koffka,3.2.6,0,h,NA,s,s,NA,h,526,NA,44876,7250,NA,526,2,legacy,1024,2,48000,-16,experiment,SSHSS,4,even,46490,193369,NA,289652,277239,1599,194201,NA,290754,1611,186117,NA,290865,291394,290744,290865,FlankerTaskKBowman,131,64846,138,yes,1024
94.96402878,94.96402878,469.3093525,469.3093525,black,no,legacy,legacy,legacy,0,incongruent,uniform,1,undefined,1,s,0,0,0,138,138,0,138,0,138,0,0,0,138,138,138,138,Tue Sep 24 12:50:53 2019,600,The main experiment item,yes,FlankerTaskKBowman.osexp,/Users/KrisBow/Dropbox/GradSchoolTarleton/Fall2019/AdvQuant/Lab2,no,mono,no,18,no,white,no,yes,768,legacy,58,79,/Users/KrisBow/Dropbox/GradSchoolTarleton/Fall2019/AdvQuant/Lab2/KB-subject-4-F23.csv,legacy,Kafkaesque Koffka,3.2.6,0,s,NA,s,s,NA,s,388,NA,44876,7250,NA,388,2,legacy,1024,2,48000,-16,experiment,HHSHH,4,even,46490,193369,NA,291407,277239,1599,194201,NA,292510,1611,186117,NA,292621,293012,292499,292621,FlankerTaskKBowman,132,65234,139,yes,1024
95,95,469.4928571,469.4928571,black,no,legacy,legacy,legacy,0,incongruent,uniform,1,undefined,1,h,0,0,0,139,139,0,139,0,139,0,0,0,139,139,139,139,Tue Sep 24 12:50:53 2019,600,The main experiment item,yes,FlankerTaskKBowman.osexp,/Users/KrisBow/Dropbox/GradSchoolTarleton/Fall2019/AdvQuant/Lab2,no,mono,no,18,no,white,no,yes,768,legacy,59,79,/Users/KrisBow/Dropbox/GradSchoolTarleton/Fall2019/AdvQuant/Lab2/KB-subject-4-F23.csv,legacy,Kafkaesque Koffka,3.2.6,0,h,NA,s,s,NA,h,495,NA,44876,7250,NA,495,2,legacy,1024,2,48000,-16,experiment,SSHSS,4,even,46490,193369,NA,293026,277239,1599,194201,NA,294128,1611,186117,NA,294239,294738,294118,294239,FlankerTaskKBowman,133,65729,140,yes,1024
95.03546099,95.03546099,468.9787234,468.9787234,black,no,legacy,legacy,legacy,0,congruent,uniform,1,undefined,1,h,0,0,0,140,140,0,140,0,140,0,0,0,140,140,140,140,Tue Sep 24 12:50:53 2019,600,The main experiment item,yes,FlankerTaskKBowman.osexp,/Users/KrisBow/Dropbox/GradSchoolTarleton/Fall2019/AdvQuant/Lab2,no,mono,no,18,no,white,no,yes,768,legacy,60,79,/Users/KrisBow/Dropbox/GradSchoolTarleton/Fall2019/AdvQuant/Lab2/KB-subject-4-F23.csv,legacy,Kafkaesque Koffka,3.2.6,0,h,NA,s,s,NA,h,397,NA,44876,7250,NA,397,2,legacy,1024,2,48000,-16,experiment,HHHHH,4,even,46490,193369,NA,294751,277239,1599,194201,NA,295853,1611,186117,NA,295964,296365,295843,295964,FlankerTaskKBowman,134,66126,141,yes,1024
95.07042254,95.07042254,468.056338,468.056338,black,no,legacy,legacy,legacy,0,congruent,uniform,1,undefined,1,h,0,0,0,141,141,0,141,0,141,0,0,0,141,141,141,141,Tue Sep 24 12:50:53 2019,600,The main experiment item,yes,FlankerTaskKBowman.osexp,/Users/KrisBow/Dropbox/GradSchoolTarleton/Fall2019/AdvQuant/Lab2,no,mono,no,18,no,white,no,yes,768,legacy,61,79,/Users/KrisBow/Dropbox/GradSchoolTarleton/Fall2019/AdvQuant/Lab2/KB-subject-4-F23.csv,legacy,Kafkaesque Koffka,3.2.6,0,h,NA,s,s,NA,h,338,NA,44876,7250,NA,338,2,legacy,1024,2,48000,-16,experiment,HHHHH,4,even,46490,193369,NA,296378,277239,1599,194201,NA,297480,1611,186117,NA,297591,297932,297470,297591,FlankerTaskKBowman,135,66464,142,yes,1024
95.1048951,95.1048951,467.3776224,467.3776224,black,no,legacy,legacy,legacy,0,congruent,uniform,1,undefined,1,s,0,0,0,142,142,0,142,0,142,0,0,0,142,142,142,142,Tue Sep 24 12:50:53 2019,600,The main experiment item,yes,FlankerTaskKBowman.osexp,/Users/KrisBow/Dropbox/GradSchoolTarleton/Fall2019/AdvQuant/Lab2,no,mono,no,18,no,white,no,yes,768,legacy,62,79,/Users/KrisBow/Dropbox/GradSchoolTarleton/Fall2019/AdvQuant/Lab2/KB-subject-4-F23.csv,legacy,Kafkaesque Koffka,3.2.6,0,s,NA,s,s,NA,s,371,NA,44876,7250,NA,371,2,legacy,1024,2,48000,-16,experiment,SSSSS,4,even,46490,193369,NA,297945,277239,1599,194201,NA,299052,1611,186117,NA,299164,299538,299040,299163,FlankerTaskKBowman,136,66835,143,yes,1024
95.13888889,95.13888889,466.7777778,466.7777778,black,no,legacy,legacy,legacy,0,congruent,uniform,1,undefined,1,s,0,0,0,143,143,0,143,0,143,0,0,0,143,143,143,143,Tue Sep 24 12:50:53 2019,600,The main experiment item,yes,FlankerTaskKBowman.osexp,/Users/KrisBow/Dropbox/GradSchoolTarleton/Fall2019/AdvQuant/Lab2,no,mono,no,18,no,white,no,yes,768,legacy,63,79,/Users/KrisBow/Dropbox/GradSchoolTarleton/Fall2019/AdvQuant/Lab2/KB-subject-4-F23.csv,legacy,Kafkaesque Koffka,3.2.6,0,s,NA,s,s,NA,s,381,NA,44876,7250,NA,381,2,legacy,1024,2,48000,-16,experiment,SSSSS,4,even,46490,193369,NA,299552,277239,1599,194201,NA,300653,1611,186117,NA,300764,301148,300642,300764,FlankerTaskKBowman,137,67216,144,yes,1024
95.17241379,95.17241379,466.8275862,466.8275862,black,no,legacy,legacy,legacy,0,congruent,uniform,1,undefined,1,s,0,0,0,144,144,0,144,0,144,0,0,0,144,144,144,144,Tue Sep 24 12:50:53 2019,600,The main experiment item,yes,FlankerTaskKBowman.osexp,/Users/KrisBow/Dropbox/GradSchoolTarleton/Fall2019/AdvQuant/Lab2,no,mono,no,18,no,white,no,yes,768,legacy,64,79,/Users/KrisBow/Dropbox/GradSchoolTarleton/Fall2019/AdvQuant/Lab2/KB-subject-4-F23.csv,legacy,Kafkaesque Koffka,3.2.6,0,s,NA,s,s,NA,s,474,NA,44876,7250,NA,474,2,legacy,1024,2,48000,-16,experiment,SSSSS,4,even,46490,193369,NA,301161,277239,1599,194201,NA,302262,1611,186117,NA,302373,302851,302252,302373,FlankerTaskKBowman,138,67690,145,yes,1024
