acc,accuracy,average_response_time,avg_rt,background,canvas_backend,clock_backend,color_backend,compensation,condition,coordinates,correct,correct_instructions1,correct_new_keyboard_response,correct_response,count_ISI,count_block1,count_block2,count_block3,count_errorFeedback,count_experiment,count_faster,count_finish,count_fixation,count_instructions1,count_instructions2,count_instructions3,count_new_keyboard_response,count_new_logger,count_sequence,count_stimulus,datetime,deadline,description,disable_garbage_collection,experiment_file,experiment_path,font_bold,font_family,font_italic,font_size,font_underline,foreground,form_clicks,fullscreen,height,keyboard_backend,live_row,live_row_block1,logfile,mouse_backend,opensesame_codename,opensesame_version,repeat_cycle,response,response_finish,response_instructions1,response_instructions2,response_instructions3,response_new_keyboard_response,response_time,response_time_finish,response_time_instructions1,response_time_instructions2,response_time_instructions3,response_time_new_keyboard_response,round_decimals,sampler_backend,sound_buf_size,sound_channels,sound_freq,sound_sample_size,start,stimulus,subject_nr,subject_parity,time_ISI,time_block1,time_block2,time_block3,time_errorFeedback,time_experiment,time_faster,time_finish,time_fixation,time_instructions1,time_instructions2,time_instructions3,time_new_keyboard_response,time_new_logger,time_sequence,time_stimulus,title,total_correct,total_response_time,total_responses,uniform_coordinates,width
100,100,828,828,black,legacy,legacy,legacy,0,congruent,uniform,1,undefined,1,s,0,0,0,0,0,0,0,0,0,0,0,0,0,0,0,0,Wed Sep 25 09:40:22 2019,1500,The main experiment item,yes,FlankerTask.osexp,/Users/kaylicolpitts/Desktop/adv quant/lab 2,no,mono,no,18,no,white,no,yes,768,legacy,0,0,/Users/kaylicolpitts/Desktop/adv quant/lab 2/Kc-subject-4.csv,legacy,Kafkaesque Koffka,3.2.8,0,s,NA,h,NA,NA,s,828,NA,150628,NA,NA,828,2,legacy,1024,2,48000,-16,experiment,SSSSS,4,even,NA,154286,NA,NA,NA,3622,NA,NA,154384,3647,NA,NA,154497,155327,154372,154497,FlankerTask,1,828,1,yes,1024
100,100,613.5,613.5,black,legacy,legacy,legacy,0,congruent,uniform,1,undefined,1,s,1,0,0,0,1,0,1,0,1,0,0,0,1,1,1,1,Wed Sep 25 09:40:22 2019,1500,The main experiment item,yes,FlankerTask.osexp,/Users/kaylicolpitts/Desktop/adv quant/lab 2,no,mono,no,18,no,white,no,yes,768,legacy,1,1,/Users/kaylicolpitts/Desktop/adv quant/lab 2/Kc-subject-4.csv,legacy,Kafkaesque Koffka,3.2.8,0,s,NA,h,NA,NA,s,399,NA,150628,NA,NA,399,2,legacy,1024,2,48000,-16,experiment,SSSSS,4,even,155345,154286,NA,NA,NA,3622,NA,NA,156448,3647,NA,NA,156563,156964,156434,156563,FlankerTask,2,1227,2,yes,1024
100,100,542.3333333,542.3333333,black,legacy,legacy,legacy,0,congruent,uniform,1,undefined,1,s,2,0,0,0,2,0,2,0,2,0,0,0,2,2,2,2,Wed Sep 25 09:40:22 2019,1500,The main experiment item,yes,FlankerTask.osexp,/Users/kaylicolpitts/Desktop/adv quant/lab 2,no,mono,no,18,no,white,no,yes,768,legacy,2,2,/Users/kaylicolpitts/Desktop/adv quant/lab 2/Kc-subject-4.csv,legacy,Kafkaesque Koffka,3.2.8,0,s,NA,h,NA,NA,s,400,NA,150628,NA,NA,400,2,legacy,1024,2,48000,-16,experiment,SSSSS,4,even,156978,154286,NA,NA,NA,3622,NA,NA,158072,3647,NA,NA,158185,158587,158058,158185,FlankerTask,3,1627,3,yes,1024
100,100,517.5,517.5,black,legacy,legacy,legacy,0,congruent,uniform,1,undefined,1,h,3,0,0,0,3,0,3,0,3,0,0,0,3,3,3,3,Wed Sep 25 09:40:22 2019,1500,The main experiment item,yes,FlankerTask.osexp,/Users/kaylicolpitts/Desktop/adv quant/lab 2,no,mono,no,18,no,white,no,yes,768,legacy,3,3,/Users/kaylicolpitts/Desktop/adv quant/lab 2/Kc-subject-4.csv,legacy,Kafkaesque Koffka,3.2.8,0,h,NA,h,NA,NA,h,443,NA,150628,NA,NA,443,2,legacy,1024,2,48000,-16,experiment,HHHHH,4,even,158601,154286,NA,NA,NA,3622,NA,NA,159695,3647,NA,NA,159807,160251,159681,159807,FlankerTask,4,2070,4,yes,1024
100,100,513.6,513.6,black,legacy,legacy,legacy,0,incongruent,uniform,1,undefined,1,s,4,0,0,0,4,0,4,0,4,0,0,0,4,4,4,4,Wed Sep 25 09:40:22 2019,1500,The main experiment item,yes,FlankerTask.osexp,/Users/kaylicolpitts/Desktop/adv quant/lab 2,no,mono,no,18,no,white,no,yes,768,legacy,4,4,/Users/kaylicolpitts/Desktop/adv quant/lab 2/Kc-subject-4.csv,legacy,Kafkaesque Koffka,3.2.8,0,s,NA,h,NA,NA,s,498,NA,150628,NA,NA,498,2,legacy,1024,2,48000,-16,experiment,HHSHH,4,even,160267,154286,NA,NA,NA,3622,NA,NA,161360,3647,NA,NA,161474,161973,161348,161473,FlankerTask,5,2568,5,yes,1024
100,100,504.6666667,504.6666667,black,legacy,legacy,legacy,0,congruent,uniform,1,undefined,1,s,5,0,0,0,5,0,5,0,5,0,0,0,5,5,5,5,Wed Sep 25 09:40:22 2019,1500,The main experiment item,yes,FlankerTask.osexp,/Users/kaylicolpitts/Desktop/adv quant/lab 2,no,mono,no,18,no,white,no,yes,768,legacy,5,5,/Users/kaylicolpitts/Desktop/adv quant/lab 2/Kc-subject-4.csv,legacy,Kafkaesque Koffka,3.2.8,0,s,NA,h,NA,NA,s,460,NA,150628,NA,NA,460,2,legacy,1024,2,48000,-16,experiment,SSSSS,4,even,161988,154286,NA,NA,NA,3622,NA,NA,163080,3647,NA,NA,163193,163655,163066,163192,FlankerTask,6,3028,6,yes,1024
100,100,493.8571429,493.8571429,black,legacy,legacy,legacy,0,incongruent,uniform,1,undefined,1,s,6,0,0,0,6,0,6,0,6,0,0,0,6,6,6,6,Wed Sep 25 09:40:22 2019,1500,The main experiment item,yes,FlankerTask.osexp,/Users/kaylicolpitts/Desktop/adv quant/lab 2,no,mono,no,18,no,white,no,yes,768,legacy,6,6,/Users/kaylicolpitts/Desktop/adv quant/lab 2/Kc-subject-4.csv,legacy,Kafkaesque Koffka,3.2.8,0,s,NA,h,NA,NA,s,429,NA,150628,NA,NA,429,2,legacy,1024,2,48000,-16,experiment,HHSHH,4,even,163670,154286,NA,NA,NA,3622,NA,NA,164764,3647,NA,NA,164878,165309,164751,164878,FlankerTask,7,3457,7,yes,1024
100,100,485.75,485.75,black,legacy,legacy,legacy,0,congruent,uniform,1,undefined,1,s,7,0,0,0,7,0,7,0,7,0,0,0,7,7,7,7,Wed Sep 25 09:40:22 2019,1500,The main experiment item,yes,FlankerTask.osexp,/Users/kaylicolpitts/Desktop/adv quant/lab 2,no,mono,no,18,no,white,no,yes,768,legacy,7,7,/Users/kaylicolpitts/Desktop/adv quant/lab 2/Kc-subject-4.csv,legacy,Kafkaesque Koffka,3.2.8,0,s,NA,h,NA,NA,s,429,NA,150628,NA,NA,429,2,legacy,1024,2,48000,-16,experiment,SSSSS,4,even,165323,154286,NA,NA,NA,3622,NA,NA,166417,3647,NA,NA,166530,166961,166402,166530,FlankerTask,8,3886,8,yes,1024
100,100,486.5555556,486.5555556,black,legacy,legacy,legacy,0,incongruent,uniform,1,undefined,1,s,8,0,0,0,8,0,8,0,8,0,0,0,8,8,8,8,Wed Sep 25 09:40:22 2019,1500,The main experiment item,yes,FlankerTask.osexp,/Users/kaylicolpitts/Desktop/adv quant/lab 2,no,mono,no,18,no,white,no,yes,768,legacy,8,8,/Users/kaylicolpitts/Desktop/adv quant/lab 2/Kc-subject-4.csv,legacy,Kafkaesque Koffka,3.2.8,0,s,NA,h,NA,NA,s,493,NA,150628,NA,NA,493,2,legacy,1024,2,48000,-16,experiment,HHSHH,4,even,166978,154286,NA,NA,NA,3622,NA,NA,168070,3647,NA,NA,168184,168678,168058,168183,FlankerTask,9,4379,9,yes,1024
100,100,484,484,black,legacy,legacy,legacy,0,congruent,uniform,1,undefined,1,h,9,0,0,0,9,0,9,0,9,0,0,0,9,9,9,9,Wed Sep 25 09:40:22 2019,1500,The main experiment item,yes,FlankerTask.osexp,/Users/kaylicolpitts/Desktop/adv quant/lab 2,no,mono,no,18,no,white,no,yes,768,legacy,9,9,/Users/kaylicolpitts/Desktop/adv quant/lab 2/Kc-subject-4.csv,legacy,Kafkaesque Koffka,3.2.8,0,h,NA,h,NA,NA,h,461,NA,150628,NA,NA,461,2,legacy,1024,2,48000,-16,experiment,HHHHH,4,even,168693,154286,NA,NA,NA,3622,NA,NA,169786,3647,NA,NA,169900,170362,169774,169900,FlankerTask,10,4840,10,yes,1024
100,100,483.8181818,483.8181818,black,legacy,legacy,legacy,0,congruent,uniform,1,undefined,1,s,10,0,0,0,10,0,10,0,10,0,0,0,10,10,10,10,Wed Sep 25 09:40:22 2019,1500,The main experiment item,yes,FlankerTask.osexp,/Users/kaylicolpitts/Desktop/adv quant/lab 2,no,mono,no,18,no,white,no,yes,768,legacy,10,10,/Users/kaylicolpitts/Desktop/adv quant/lab 2/Kc-subject-4.csv,legacy,Kafkaesque Koffka,3.2.8,0,s,NA,h,NA,NA,s,482,NA,150628,NA,NA,482,2,legacy,1024,2,48000,-16,experiment,SSSSS,4,even,170377,154286,NA,NA,NA,3622,NA,NA,171469,3647,NA,NA,171582,172065,171456,171582,FlankerTask,11,5322,11,yes,1024
100,100,477.9166667,477.9166667,black,legacy,legacy,legacy,0,congruent,uniform,1,undefined,1,h,11,0,0,0,11,0,11,0,11,0,0,0,11,11,11,11,Wed Sep 25 09:40:22 2019,1500,The main experiment item,yes,FlankerTask.osexp,/Users/kaylicolpitts/Desktop/adv quant/lab 2,no,mono,no,18,no,white,no,yes,768,legacy,11,11,/Users/kaylicolpitts/Desktop/adv quant/lab 2/Kc-subject-4.csv,legacy,Kafkaesque Koffka,3.2.8,0,h,NA,h,NA,NA,h,413,NA,150628,NA,NA,413,2,legacy,1024,2,48000,-16,experiment,HHHHH,4,even,172080,154286,NA,NA,NA,3622,NA,NA,173174,3647,NA,NA,173286,173700,173162,173286,FlankerTask,12,5735,12,yes,1024
100,100,474.4615385,474.4615385,black,legacy,legacy,legacy,0,congruent,uniform,1,undefined,1,s,12,0,0,0,12,0,12,0,12,0,0,0,12,12,12,12,Wed Sep 25 09:40:22 2019,1500,The main experiment item,yes,FlankerTask.osexp,/Users/kaylicolpitts/Desktop/adv quant/lab 2,no,mono,no,18,no,white,no,yes,768,legacy,12,12,/Users/kaylicolpitts/Desktop/adv quant/lab 2/Kc-subject-4.csv,legacy,Kafkaesque Koffka,3.2.8,0,s,NA,h,NA,NA,s,433,NA,150628,NA,NA,433,2,legacy,1024,2,48000,-16,experiment,SSSSS,4,even,173717,154286,NA,NA,NA,3622,NA,NA,174809,3647,NA,NA,174923,175357,174797,174923,FlankerTask,13,6168,13,yes,1024
100,100,467.9285714,467.9285714,black,legacy,legacy,legacy,0,congruent,uniform,1,undefined,1,s,13,0,0,0,13,0,13,0,13,0,0,0,13,13,13,13,Wed Sep 25 09:40:22 2019,1500,The main experiment item,yes,FlankerTask.osexp,/Users/kaylicolpitts/Desktop/adv quant/lab 2,no,mono,no,18,no,white,no,yes,768,legacy,13,13,/Users/kaylicolpitts/Desktop/adv quant/lab 2/Kc-subject-4.csv,legacy,Kafkaesque Koffka,3.2.8,0,s,NA,h,NA,NA,s,383,NA,150628,NA,NA,383,2,legacy,1024,2,48000,-16,experiment,SSSSS,4,even,175371,154286,NA,NA,NA,3622,NA,NA,176462,3647,NA,NA,176576,176960,176450,176575,FlankerTask,14,6551,14,yes,1024
100,100,460.1333333,460.1333333,black,legacy,legacy,legacy,0,congruent,uniform,1,undefined,1,s,14,0,0,0,14,0,14,0,14,0,0,0,14,14,14,14,Wed Sep 25 09:40:22 2019,1500,The main experiment item,yes,FlankerTask.osexp,/Users/kaylicolpitts/Desktop/adv quant/lab 2,no,mono,no,18,no,white,no,yes,768,legacy,14,14,/Users/kaylicolpitts/Desktop/adv quant/lab 2/Kc-subject-4.csv,legacy,Kafkaesque Koffka,3.2.8,0,s,NA,h,NA,NA,s,351,NA,150628,NA,NA,351,2,legacy,1024,2,48000,-16,experiment,SSSSS,4,even,176975,154286,NA,NA,NA,3622,NA,NA,178066,3647,NA,NA,178179,178531,178054,178179,FlankerTask,15,6902,15,yes,1024
100,100,452.6875,452.6875,black,legacy,legacy,legacy,0,congruent,uniform,1,undefined,1,s,15,0,0,0,15,0,15,0,15,0,0,0,15,15,15,15,Wed Sep 25 09:40:22 2019,1500,The main experiment item,yes,FlankerTask.osexp,/Users/kaylicolpitts/Desktop/adv quant/lab 2,no,mono,no,18,no,white,no,yes,768,legacy,15,15,/Users/kaylicolpitts/Desktop/adv quant/lab 2/Kc-subject-4.csv,legacy,Kafkaesque Koffka,3.2.8,0,s,NA,h,NA,NA,s,341,NA,150628,NA,NA,341,2,legacy,1024,2,48000,-16,experiment,SSSSS,4,even,178546,154286,NA,NA,NA,3622,NA,NA,179638,3647,NA,NA,179752,180094,179626,179752,FlankerTask,16,7243,16,yes,1024
100,100,448.2352941,448.2352941,black,legacy,legacy,legacy,0,congruent,uniform,1,undefined,1,h,16,0,0,0,16,0,16,0,16,0,0,0,16,16,16,16,Wed Sep 25 09:40:22 2019,1500,The main experiment item,yes,FlankerTask.osexp,/Users/kaylicolpitts/Desktop/adv quant/lab 2,no,mono,no,18,no,white,no,yes,768,legacy,16,16,/Users/kaylicolpitts/Desktop/adv quant/lab 2/Kc-subject-4.csv,legacy,Kafkaesque Koffka,3.2.8,0,h,NA,h,NA,NA,h,377,NA,150628,NA,NA,377,2,legacy,1024,2,48000,-16,experiment,HHHHH,4,even,180109,154286,NA,NA,NA,3622,NA,NA,181205,3647,NA,NA,181317,181695,181191,181317,FlankerTask,17,7620,17,yes,1024
94.44444444,94.44444444,441.7222222,441.7222222,black,legacy,legacy,legacy,0,incongruent,uniform,0,undefined,0,h,17,0,0,0,17,0,17,0,17,0,0,0,17,17,17,17,Wed Sep 25 09:40:22 2019,1500,The main experiment item,yes,FlankerTask.osexp,/Users/kaylicolpitts/Desktop/adv quant/lab 2,no,mono,no,18,no,white,no,yes,768,legacy,17,17,/Users/kaylicolpitts/Desktop/adv quant/lab 2/Kc-subject-4.csv,legacy,Kafkaesque Koffka,3.2.8,0,s,NA,h,NA,NA,s,331,NA,150628,NA,NA,331,2,legacy,1024,2,48000,-16,experiment,SSHSS,4,even,181709,154286,NA,NA,NA,3622,NA,NA,182803,3647,NA,NA,182916,183249,182791,182916,FlankerTask,17,7951,18,yes,1024
94.73684211,94.73684211,441.2105263,441.2105263,black,legacy,legacy,legacy,0,congruent,uniform,1,undefined,1,h,18,0,0,0,18,0,18,0,18,0,0,0,18,18,18,18,Wed Sep 25 09:40:22 2019,1500,The main experiment item,yes,FlankerTask.osexp,/Users/kaylicolpitts/Desktop/adv quant/lab 2,no,mono,no,18,no,white,no,yes,768,legacy,18,18,/Users/kaylicolpitts/Desktop/adv quant/lab 2/Kc-subject-4.csv,legacy,Kafkaesque Koffka,3.2.8,0,h,NA,h,NA,NA,h,432,NA,150628,NA,NA,432,2,legacy,1024,2,48000,-16,experiment,HHHHH,4,even,183776,154286,NA,NA,183264,3622,NA,NA,184870,3647,NA,NA,184983,185417,184858,184982,FlankerTask,18,8383,19,yes,1024
95,95,441.15,441.15,black,legacy,legacy,legacy,0,incongruent,uniform,1,undefined,1,s,19,0,0,0,19,0,19,0,19,0,0,0,19,19,19,19,Wed Sep 25 09:40:22 2019,1500,The main experiment item,yes,FlankerTask.osexp,/Users/kaylicolpitts/Desktop/adv quant/lab 2,no,mono,no,18,no,white,no,yes,768,legacy,19,19,/Users/kaylicolpitts/Desktop/adv quant/lab 2/Kc-subject-4.csv,legacy,Kafkaesque Koffka,3.2.8,0,s,NA,h,NA,NA,s,440,NA,150628,NA,NA,440,2,legacy,1024,2,48000,-16,experiment,HHSHH,4,even,185433,154286,NA,NA,183264,3622,NA,NA,186525,3647,NA,NA,186638,187080,186513,186637,FlankerTask,19,8823,20,yes,1024
95.23809524,95.23809524,443.3809524,443.3809524,black,legacy,legacy,legacy,0,congruent,uniform,1,undefined,1,h,20,0,0,0,20,0,20,0,20,0,0,0,20,20,20,20,Wed Sep 25 09:40:22 2019,1500,The main experiment item,yes,FlankerTask.osexp,/Users/kaylicolpitts/Desktop/adv quant/lab 2,no,mono,no,18,no,white,no,yes,768,legacy,20,20,/Users/kaylicolpitts/Desktop/adv quant/lab 2/Kc-subject-4.csv,legacy,Kafkaesque Koffka,3.2.8,0,h,NA,h,NA,NA,h,488,NA,150628,NA,NA,488,2,legacy,1024,2,48000,-16,experiment,HHHHH,4,even,187095,154286,NA,NA,183264,3622,NA,NA,188189,3647,NA,NA,188301,188791,188176,188301,FlankerTask,20,9311,21,yes,1024
95.45454545,95.45454545,443.9545455,443.9545455,black,legacy,legacy,legacy,0,incongruent,uniform,1,undefined,1,s,21,0,0,0,21,0,21,0,21,0,0,0,21,21,21,21,Wed Sep 25 09:40:22 2019,1500,The main experiment item,yes,FlankerTask.osexp,/Users/kaylicolpitts/Desktop/adv quant/lab 2,no,mono,no,18,no,white,no,yes,768,legacy,21,21,/Users/kaylicolpitts/Desktop/adv quant/lab 2/Kc-subject-4.csv,legacy,Kafkaesque Koffka,3.2.8,0,s,NA,h,NA,NA,s,456,NA,150628,NA,NA,456,2,legacy,1024,2,48000,-16,experiment,HHSHH,4,even,188805,154286,NA,NA,183264,3622,NA,NA,189899,3647,NA,NA,190010,190468,189887,190010,FlankerTask,21,9767,22,yes,1024
95.65217391,95.65217391,443.6521739,443.6521739,black,legacy,legacy,legacy,0,incongruent,uniform,1,undefined,1,s,22,0,0,0,22,0,22,0,22,0,0,0,22,22,22,22,Wed Sep 25 09:40:22 2019,1500,The main experiment item,yes,FlankerTask.osexp,/Users/kaylicolpitts/Desktop/adv quant/lab 2,no,mono,no,18,no,white,no,yes,768,legacy,22,22,/Users/kaylicolpitts/Desktop/adv quant/lab 2/Kc-subject-4.csv,legacy,Kafkaesque Koffka,3.2.8,0,s,NA,h,NA,NA,s,437,NA,150628,NA,NA,437,2,legacy,1024,2,48000,-16,experiment,HHSHH,4,even,190483,154286,NA,NA,183264,3622,NA,NA,191576,3647,NA,NA,191689,192128,191563,191689,FlankerTask,22,10204,23,yes,1024
95.83333333,95.83333333,445.3333333,445.3333333,black,legacy,legacy,legacy,0,incongruent,uniform,1,undefined,1,h,23,0,0,0,23,0,23,0,23,0,0,0,23,23,23,23,Wed Sep 25 09:40:22 2019,1500,The main experiment item,yes,FlankerTask.osexp,/Users/kaylicolpitts/Desktop/adv quant/lab 2,no,mono,no,18,no,white,no,yes,768,legacy,23,23,/Users/kaylicolpitts/Desktop/adv quant/lab 2/Kc-subject-4.csv,legacy,Kafkaesque Koffka,3.2.8,0,h,NA,h,NA,NA,h,484,NA,150628,NA,NA,484,2,legacy,1024,2,48000,-16,experiment,SSHSS,4,even,192143,154286,NA,NA,183264,3622,NA,NA,193237,3647,NA,NA,193350,193836,193225,193350,FlankerTask,23,10688,24,yes,1024
96,96,444.32,444.32,black,legacy,legacy,legacy,0,congruent,uniform,1,undefined,1,s,24,0,0,0,24,0,24,0,24,0,0,0,24,24,24,24,Wed Sep 25 09:40:22 2019,1500,The main experiment item,yes,FlankerTask.osexp,/Users/kaylicolpitts/Desktop/adv quant/lab 2,no,mono,no,18,no,white,no,yes,768,legacy,24,24,/Users/kaylicolpitts/Desktop/adv quant/lab 2/Kc-subject-4.csv,legacy,Kafkaesque Koffka,3.2.8,0,s,NA,h,NA,NA,s,420,NA,150628,NA,NA,420,2,legacy,1024,2,48000,-16,experiment,SSSSS,4,even,193851,154286,NA,NA,183264,3622,NA,NA,194943,3647,NA,NA,195056,195478,194931,195056,FlankerTask,24,11108,25,yes,1024
96.15384615,96.15384615,445.1538462,445.1538462,black,legacy,legacy,legacy,0,congruent,uniform,1,undefined,1,h,25,0,0,0,25,0,25,0,25,0,0,0,25,25,25,25,Wed Sep 25 09:40:22 2019,1500,The main experiment item,yes,FlankerTask.osexp,/Users/kaylicolpitts/Desktop/adv quant/lab 2,no,mono,no,18,no,white,no,yes,768,legacy,25,25,/Users/kaylicolpitts/Desktop/adv quant/lab 2/Kc-subject-4.csv,legacy,Kafkaesque Koffka,3.2.8,0,h,NA,h,NA,NA,h,466,NA,150628,NA,NA,466,2,legacy,1024,2,48000,-16,experiment,HHHHH,4,even,195492,154286,NA,NA,183264,3622,NA,NA,196584,3647,NA,NA,196696,197164,196572,196696,FlankerTask,25,11574,26,yes,1024
96.2962963,96.2962963,441.037037,441.037037,black,legacy,legacy,legacy,0,incongruent,uniform,1,undefined,1,s,26,0,0,0,26,0,26,0,26,0,0,0,26,26,26,26,Wed Sep 25 09:40:22 2019,1500,The main experiment item,yes,FlankerTask.osexp,/Users/kaylicolpitts/Desktop/adv quant/lab 2,no,mono,no,18,no,white,no,yes,768,legacy,26,26,/Users/kaylicolpitts/Desktop/adv quant/lab 2/Kc-subject-4.csv,legacy,Kafkaesque Koffka,3.2.8,0,s,NA,h,NA,NA,s,334,NA,150628,NA,NA,334,2,legacy,1024,2,48000,-16,experiment,HHSHH,4,even,197178,154286,NA,NA,183264,3622,NA,NA,198271,3647,NA,NA,198384,198720,198259,198383,FlankerTask,26,11908,27,yes,1024
96.42857143,96.42857143,441.5714286,441.5714286,black,legacy,legacy,legacy,0,incongruent,uniform,1,undefined,1,s,27,0,0,0,27,0,27,0,27,0,0,0,27,27,27,27,Wed Sep 25 09:40:22 2019,1500,The main experiment item,yes,FlankerTask.osexp,/Users/kaylicolpitts/Desktop/adv quant/lab 2,no,mono,no,18,no,white,no,yes,768,legacy,27,27,/Users/kaylicolpitts/Desktop/adv quant/lab 2/Kc-subject-4.csv,legacy,Kafkaesque Koffka,3.2.8,0,s,NA,h,NA,NA,s,456,NA,150628,NA,NA,456,2,legacy,1024,2,48000,-16,experiment,HHSHH,4,even,198734,154286,NA,NA,183264,3622,NA,NA,199828,3647,NA,NA,199941,200399,199816,199941,FlankerTask,27,12364,28,yes,1024
96.55172414,96.55172414,437.9655172,437.9655172,black,legacy,legacy,legacy,0,congruent,uniform,1,undefined,1,s,28,0,0,0,28,0,28,0,28,0,0,0,28,28,28,28,Wed Sep 25 09:40:22 2019,1500,The main experiment item,yes,FlankerTask.osexp,/Users/kaylicolpitts/Desktop/adv quant/lab 2,no,mono,no,18,no,white,no,yes,768,legacy,28,28,/Users/kaylicolpitts/Desktop/adv quant/lab 2/Kc-subject-4.csv,legacy,Kafkaesque Koffka,3.2.8,0,s,NA,h,NA,NA,s,337,NA,150628,NA,NA,337,2,legacy,1024,2,48000,-16,experiment,SSSSS,4,even,200413,154286,NA,NA,183264,3622,NA,NA,201505,3647,NA,NA,201617,201956,201493,201617,FlankerTask,28,12701,29,yes,1024
96.66666667,96.66666667,436.5,436.5,black,legacy,legacy,legacy,0,incongruent,uniform,1,undefined,1,s,29,0,0,0,29,0,29,0,29,0,0,0,29,29,29,29,Wed Sep 25 09:40:22 2019,1500,The main experiment item,yes,FlankerTask.osexp,/Users/kaylicolpitts/Desktop/adv quant/lab 2,no,mono,no,18,no,white,no,yes,768,legacy,29,29,/Users/kaylicolpitts/Desktop/adv quant/lab 2/Kc-subject-4.csv,legacy,Kafkaesque Koffka,3.2.8,0,s,NA,h,NA,NA,s,394,NA,150628,NA,NA,394,2,legacy,1024,2,48000,-16,experiment,HHSHH,4,even,201970,154286,NA,NA,183264,3622,NA,NA,203062,3647,NA,NA,203175,203571,203049,203174,FlankerTask,29,13095,30,yes,1024
96.77419355,96.77419355,433.9032258,433.9032258,black,legacy,legacy,legacy,0,congruent,uniform,1,undefined,1,s,30,0,0,0,30,0,30,0,30,0,0,0,30,30,30,30,Wed Sep 25 09:40:22 2019,1500,The main experiment item,yes,FlankerTask.osexp,/Users/kaylicolpitts/Desktop/adv quant/lab 2,no,mono,no,18,no,white,no,yes,768,legacy,30,30,/Users/kaylicolpitts/Desktop/adv quant/lab 2/Kc-subject-4.csv,legacy,Kafkaesque Koffka,3.2.8,0,s,NA,h,NA,NA,s,356,NA,150628,NA,NA,356,2,legacy,1024,2,48000,-16,experiment,SSSSS,4,even,203587,154286,NA,NA,183264,3622,NA,NA,204679,3647,NA,NA,204792,205149,204667,204792,FlankerTask,30,13451,31,yes,1024
96.875,96.875,433.40625,433.40625,black,legacy,legacy,legacy,0,incongruent,uniform,1,undefined,1,h,31,0,0,0,31,0,31,0,31,0,0,0,31,31,31,31,Wed Sep 25 09:40:22 2019,1500,The main experiment item,yes,FlankerTask.osexp,/Users/kaylicolpitts/Desktop/adv quant/lab 2,no,mono,no,18,no,white,no,yes,768,legacy,31,31,/Users/kaylicolpitts/Desktop/adv quant/lab 2/Kc-subject-4.csv,legacy,Kafkaesque Koffka,3.2.8,0,h,NA,h,NA,NA,h,418,NA,150628,NA,NA,418,2,legacy,1024,2,48000,-16,experiment,SSHSS,4,even,205165,154286,NA,NA,183264,3622,NA,NA,206260,3647,NA,NA,206374,206793,206247,206374,FlankerTask,31,13869,32,yes,1024
96.96969697,96.96969697,433.0909091,433.0909091,black,legacy,legacy,legacy,0,congruent,uniform,1,undefined,1,s,32,0,0,0,32,0,32,0,32,0,0,0,32,32,32,32,Wed Sep 25 09:40:22 2019,1500,The main experiment item,yes,FlankerTask.osexp,/Users/kaylicolpitts/Desktop/adv quant/lab 2,no,mono,no,18,no,white,no,yes,768,legacy,32,32,/Users/kaylicolpitts/Desktop/adv quant/lab 2/Kc-subject-4.csv,legacy,Kafkaesque Koffka,3.2.8,0,s,NA,h,NA,NA,s,423,NA,150628,NA,NA,423,2,legacy,1024,2,48000,-16,experiment,SSSSS,4,even,206808,154286,NA,NA,183264,3622,NA,NA,207899,3647,NA,NA,208011,208435,207887,208011,FlankerTask,32,14292,33,yes,1024
97.05882353,97.05882353,431.4705882,431.4705882,black,legacy,legacy,legacy,0,incongruent,uniform,1,undefined,1,s,33,0,0,0,33,0,33,0,33,0,0,0,33,33,33,33,Wed Sep 25 09:40:22 2019,1500,The main experiment item,yes,FlankerTask.osexp,/Users/kaylicolpitts/Desktop/adv quant/lab 2,no,mono,no,18,no,white,no,yes,768,legacy,33,33,/Users/kaylicolpitts/Desktop/adv quant/lab 2/Kc-subject-4.csv,legacy,Kafkaesque Koffka,3.2.8,0,s,NA,h,NA,NA,s,378,NA,150628,NA,NA,378,2,legacy,1024,2,48000,-16,experiment,HHSHH,4,even,208450,154286,NA,NA,183264,3622,NA,NA,209543,3647,NA,NA,209656,210035,209531,209655,FlankerTask,33,14670,34,yes,1024
97.14285714,97.14285714,431.1714286,431.1714286,black,legacy,legacy,legacy,0,incongruent,uniform,1,undefined,1,h,34,0,0,0,34,0,34,0,34,0,0,0,34,34,34,34,Wed Sep 25 09:40:22 2019,1500,The main experiment item,yes,FlankerTask.osexp,/Users/kaylicolpitts/Desktop/adv quant/lab 2,no,mono,no,18,no,white,no,yes,768,legacy,34,34,/Users/kaylicolpitts/Desktop/adv quant/lab 2/Kc-subject-4.csv,legacy,Kafkaesque Koffka,3.2.8,0,h,NA,h,NA,NA,h,421,NA,150628,NA,NA,421,2,legacy,1024,2,48000,-16,experiment,SSHSS,4,even,210050,154286,NA,NA,183264,3622,NA,NA,211142,3647,NA,NA,211255,211678,211130,211255,FlankerTask,34,15091,35,yes,1024
97.22222222,97.22222222,430.7777778,430.7777778,black,legacy,legacy,legacy,0,congruent,uniform,1,undefined,1,h,35,0,0,0,35,0,35,0,35,0,0,0,35,35,35,35,Wed Sep 25 09:40:22 2019,1500,The main experiment item,yes,FlankerTask.osexp,/Users/kaylicolpitts/Desktop/adv quant/lab 2,no,mono,no,18,no,white,no,yes,768,legacy,35,35,/Users/kaylicolpitts/Desktop/adv quant/lab 2/Kc-subject-4.csv,legacy,Kafkaesque Koffka,3.2.8,0,h,NA,h,NA,NA,h,417,NA,150628,NA,NA,417,2,legacy,1024,2,48000,-16,experiment,HHHHH,4,even,211693,154286,NA,NA,183264,3622,NA,NA,212787,3647,NA,NA,212899,213318,212774,212899,FlankerTask,35,15508,36,yes,1024
97.2972973,97.2972973,431.027027,431.027027,black,legacy,legacy,legacy,0,congruent,uniform,1,undefined,1,s,36,0,0,0,36,0,36,0,36,0,0,0,36,36,36,36,Wed Sep 25 09:40:22 2019,1500,The main experiment item,yes,FlankerTask.osexp,/Users/kaylicolpitts/Desktop/adv quant/lab 2,no,mono,no,18,no,white,no,yes,768,legacy,36,36,/Users/kaylicolpitts/Desktop/adv quant/lab 2/Kc-subject-4.csv,legacy,Kafkaesque Koffka,3.2.8,0,s,NA,h,NA,NA,s,440,NA,150628,NA,NA,440,2,legacy,1024,2,48000,-16,experiment,SSSSS,4,even,213333,154286,NA,NA,183264,3622,NA,NA,214425,3647,NA,NA,214539,214981,214413,214538,FlankerTask,36,15948,37,yes,1024
97.36842105,97.36842105,428.6842105,428.6842105,black,legacy,legacy,legacy,0,incongruent,uniform,1,undefined,1,s,37,0,0,0,37,0,37,0,37,0,0,0,37,37,37,37,Wed Sep 25 09:40:22 2019,1500,The main experiment item,yes,FlankerTask.osexp,/Users/kaylicolpitts/Desktop/adv quant/lab 2,no,mono,no,18,no,white,no,yes,768,legacy,37,37,/Users/kaylicolpitts/Desktop/adv quant/lab 2/Kc-subject-4.csv,legacy,Kafkaesque Koffka,3.2.8,0,s,NA,h,NA,NA,s,342,NA,150628,NA,NA,342,2,legacy,1024,2,48000,-16,experiment,HHSHH,4,even,214995,154286,NA,NA,183264,3622,NA,NA,216086,3647,NA,NA,216199,216543,216074,216199,FlankerTask,37,16290,38,yes,1024
97.43589744,97.43589744,426.2051282,426.2051282,black,legacy,legacy,legacy,0,incongruent,uniform,1,undefined,1,s,38,0,0,0,38,0,38,0,38,0,0,0,38,38,38,38,Wed Sep 25 09:40:22 2019,1500,The main experiment item,yes,FlankerTask.osexp,/Users/kaylicolpitts/Desktop/adv quant/lab 2,no,mono,no,18,no,white,no,yes,768,legacy,38,38,/Users/kaylicolpitts/Desktop/adv quant/lab 2/Kc-subject-4.csv,legacy,Kafkaesque Koffka,3.2.8,0,s,NA,h,NA,NA,s,332,NA,150628,NA,NA,332,2,legacy,1024,2,48000,-16,experiment,HHSHH,4,even,216558,154286,NA,NA,183264,3622,NA,NA,217651,3647,NA,NA,217765,218099,217639,217765,FlankerTask,38,16622,39,yes,1024
97.5,97.5,428.375,428.375,black,legacy,legacy,legacy,0,incongruent,uniform,1,undefined,1,h,39,0,0,0,39,0,39,0,39,0,0,0,39,39,39,39,Wed Sep 25 09:40:22 2019,1500,The main experiment item,yes,FlankerTask.osexp,/Users/kaylicolpitts/Desktop/adv quant/lab 2,no,mono,no,18,no,white,no,yes,768,legacy,39,39,/Users/kaylicolpitts/Desktop/adv quant/lab 2/Kc-subject-4.csv,legacy,Kafkaesque Koffka,3.2.8,0,h,NA,h,NA,NA,h,513,NA,150628,NA,NA,513,2,legacy,1024,2,48000,-16,experiment,SSHSS,4,even,218113,154286,NA,NA,183264,3622,NA,NA,219208,3647,NA,NA,219321,219836,219195,219321,FlankerTask,39,17135,40,yes,1024
97.56097561,97.56097561,430.5365854,430.5365854,black,legacy,legacy,legacy,0,congruent,uniform,1,undefined,1,h,40,0,0,0,40,0,40,0,40,0,0,0,40,40,40,40,Wed Sep 25 09:40:22 2019,1500,The main experiment item,yes,FlankerTask.osexp,/Users/kaylicolpitts/Desktop/adv quant/lab 2,no,mono,no,18,no,white,no,yes,768,legacy,40,40,/Users/kaylicolpitts/Desktop/adv quant/lab 2/Kc-subject-4.csv,legacy,Kafkaesque Koffka,3.2.8,0,h,NA,h,NA,NA,h,517,NA,150628,NA,NA,517,2,legacy,1024,2,48000,-16,experiment,HHHHH,4,even,219851,154286,NA,NA,183264,3622,NA,NA,220943,3647,NA,NA,221056,221575,220931,221055,FlankerTask,40,17652,41,yes,1024
97.61904762,97.61904762,430.7380952,430.7380952,black,legacy,legacy,legacy,0,incongruent,uniform,1,undefined,1,h,41,0,0,0,41,0,41,0,41,0,0,0,41,41,41,41,Wed Sep 25 09:40:22 2019,1500,The main experiment item,yes,FlankerTask.osexp,/Users/kaylicolpitts/Desktop/adv quant/lab 2,no,mono,no,18,no,white,no,yes,768,legacy,41,41,/Users/kaylicolpitts/Desktop/adv quant/lab 2/Kc-subject-4.csv,legacy,Kafkaesque Koffka,3.2.8,0,h,NA,h,NA,NA,h,439,NA,150628,NA,NA,439,2,legacy,1024,2,48000,-16,experiment,SSHSS,4,even,221589,154286,NA,NA,183264,3622,NA,NA,222682,3647,NA,NA,222795,223236,222670,222795,FlankerTask,41,18091,42,yes,1024
97.6744186,97.6744186,429.7209302,429.7209302,black,legacy,legacy,legacy,0,congruent,uniform,1,undefined,1,s,42,0,0,0,42,0,42,0,42,0,0,0,42,42,42,42,Wed Sep 25 09:40:22 2019,1500,The main experiment item,yes,FlankerTask.osexp,/Users/kaylicolpitts/Desktop/adv quant/lab 2,no,mono,no,18,no,white,no,yes,768,legacy,42,42,/Users/kaylicolpitts/Desktop/adv quant/lab 2/Kc-subject-4.csv,legacy,Kafkaesque Koffka,3.2.8,0,s,NA,h,NA,NA,s,387,NA,150628,NA,NA,387,2,legacy,1024,2,48000,-16,experiment,SSSSS,4,even,223251,154286,NA,NA,183264,3622,NA,NA,224344,3647,NA,NA,224457,224845,224332,224457,FlankerTask,42,18478,43,yes,1024
97.72727273,97.72727273,428.8181818,428.8181818,black,legacy,legacy,legacy,0,incongruent,uniform,1,undefined,1,h,43,0,0,0,43,0,43,0,43,0,0,0,43,43,43,43,Wed Sep 25 09:40:22 2019,1500,The main experiment item,yes,FlankerTask.osexp,/Users/kaylicolpitts/Desktop/adv quant/lab 2,no,mono,no,18,no,white,no,yes,768,legacy,43,43,/Users/kaylicolpitts/Desktop/adv quant/lab 2/Kc-subject-4.csv,legacy,Kafkaesque Koffka,3.2.8,0,h,NA,h,NA,NA,h,390,NA,150628,NA,NA,390,2,legacy,1024,2,48000,-16,experiment,SSHSS,4,even,224860,154286,NA,NA,183264,3622,NA,NA,225952,3647,NA,NA,226065,226457,225939,226065,FlankerTask,43,18868,44,yes,1024
97.77777778,97.77777778,428.2222222,428.2222222,black,legacy,legacy,legacy,0,incongruent,uniform,1,undefined,1,h,44,0,0,0,44,0,44,0,44,0,0,0,44,44,44,44,Wed Sep 25 09:40:22 2019,1500,The main experiment item,yes,FlankerTask.osexp,/Users/kaylicolpitts/Desktop/adv quant/lab 2,no,mono,no,18,no,white,no,yes,768,legacy,44,44,/Users/kaylicolpitts/Desktop/adv quant/lab 2/Kc-subject-4.csv,legacy,Kafkaesque Koffka,3.2.8,0,h,NA,h,NA,NA,h,402,NA,150628,NA,NA,402,2,legacy,1024,2,48000,-16,experiment,SSHSS,4,even,226471,154286,NA,NA,183264,3622,NA,NA,227563,3647,NA,NA,227675,228079,227551,227675,FlankerTask,44,19270,45,yes,1024
97.82608696,97.82608696,427.5869565,427.5869565,black,legacy,legacy,legacy,0,incongruent,uniform,1,undefined,1,h,45,0,0,0,45,0,45,0,45,0,0,0,45,45,45,45,Wed Sep 25 09:40:22 2019,1500,The main experiment item,yes,FlankerTask.osexp,/Users/kaylicolpitts/Desktop/adv quant/lab 2,no,mono,no,18,no,white,no,yes,768,legacy,45,45,/Users/kaylicolpitts/Desktop/adv quant/lab 2/Kc-subject-4.csv,legacy,Kafkaesque Koffka,3.2.8,0,h,NA,h,NA,NA,h,399,NA,150628,NA,NA,399,2,legacy,1024,2,48000,-16,experiment,SSHSS,4,even,228093,154286,NA,NA,183264,3622,NA,NA,229187,3647,NA,NA,229299,229700,229175,229299,FlankerTask,45,19669,46,yes,1024
97.87234043,97.87234043,427.1914894,427.1914894,black,legacy,legacy,legacy,0,incongruent,uniform,1,undefined,1,h,46,0,0,0,46,0,46,0,46,0,0,0,46,46,46,46,Wed Sep 25 09:40:22 2019,1500,The main experiment item,yes,FlankerTask.osexp,/Users/kaylicolpitts/Desktop/adv quant/lab 2,no,mono,no,18,no,white,no,yes,768,legacy,46,46,/Users/kaylicolpitts/Desktop/adv quant/lab 2/Kc-subject-4.csv,legacy,Kafkaesque Koffka,3.2.8,0,h,NA,h,NA,NA,h,409,NA,150628,NA,NA,409,2,legacy,1024,2,48000,-16,experiment,SSHSS,4,even,229715,154286,NA,NA,183264,3622,NA,NA,230809,3647,NA,NA,230923,231333,230796,230923,FlankerTask,46,20078,47,yes,1024
97.91666667,97.91666667,427.125,427.125,black,legacy,legacy,legacy,0,congruent,uniform,1,undefined,1,h,47,0,0,0,47,0,47,0,47,0,0,0,47,47,47,47,Wed Sep 25 09:40:22 2019,1500,The main experiment item,yes,FlankerTask.osexp,/Users/kaylicolpitts/Desktop/adv quant/lab 2,no,mono,no,18,no,white,no,yes,768,legacy,47,47,/Users/kaylicolpitts/Desktop/adv quant/lab 2/Kc-subject-4.csv,legacy,Kafkaesque Koffka,3.2.8,0,h,NA,h,NA,NA,h,424,NA,150628,NA,NA,424,2,legacy,1024,2,48000,-16,experiment,HHHHH,4,even,231348,154286,NA,NA,183264,3622,NA,NA,232441,3647,NA,NA,232554,232979,232428,232554,FlankerTask,47,20502,48,yes,1024
97.95918367,97.95918367,426.244898,426.244898,black,legacy,legacy,legacy,0,incongruent,uniform,1,undefined,1,h,48,0,0,0,48,0,48,0,48,0,0,0,48,48,48,48,Wed Sep 25 09:40:22 2019,1500,The main experiment item,yes,FlankerTask.osexp,/Users/kaylicolpitts/Desktop/adv quant/lab 2,no,mono,no,18,no,white,no,yes,768,legacy,48,48,/Users/kaylicolpitts/Desktop/adv quant/lab 2/Kc-subject-4.csv,legacy,Kafkaesque Koffka,3.2.8,0,h,NA,h,NA,NA,h,384,NA,150628,NA,NA,384,2,legacy,1024,2,48000,-16,experiment,SSHSS,4,even,232995,154286,NA,NA,183264,3622,NA,NA,234087,3647,NA,NA,234201,234587,234075,234201,FlankerTask,48,20886,49,yes,1024
98,98,425.04,425.04,black,legacy,legacy,legacy,0,incongruent,uniform,1,undefined,1,h,49,0,0,0,49,0,49,0,49,0,0,0,49,49,49,49,Wed Sep 25 09:40:22 2019,1500,The main experiment item,yes,FlankerTask.osexp,/Users/kaylicolpitts/Desktop/adv quant/lab 2,no,mono,no,18,no,white,no,yes,768,legacy,49,49,/Users/kaylicolpitts/Desktop/adv quant/lab 2/Kc-subject-4.csv,legacy,Kafkaesque Koffka,3.2.8,0,h,NA,h,NA,NA,h,366,NA,150628,NA,NA,366,2,legacy,1024,2,48000,-16,experiment,SSHSS,4,even,234601,154286,NA,NA,183264,3622,NA,NA,235693,3647,NA,NA,235807,236175,235681,235807,FlankerTask,49,21252,50,yes,1024
98.03921569,98.03921569,425.9411765,425.9411765,black,legacy,legacy,legacy,0,incongruent,uniform,1,undefined,1,s,50,0,0,0,50,0,50,0,50,0,0,0,50,50,50,50,Wed Sep 25 09:40:22 2019,1500,The main experiment item,yes,FlankerTask.osexp,/Users/kaylicolpitts/Desktop/adv quant/lab 2,no,mono,no,18,no,white,no,yes,768,legacy,50,50,/Users/kaylicolpitts/Desktop/adv quant/lab 2/Kc-subject-4.csv,legacy,Kafkaesque Koffka,3.2.8,0,s,NA,h,NA,NA,s,471,NA,150628,NA,NA,471,2,legacy,1024,2,48000,-16,experiment,HHSHH,4,even,236189,154286,NA,NA,183264,3622,NA,NA,237283,3647,NA,NA,237397,237870,237271,237397,FlankerTask,50,21723,51,yes,1024
98.07692308,98.07692308,425.9807692,425.9807692,black,legacy,legacy,legacy,0,congruent,uniform,1,undefined,1,h,51,0,0,0,51,0,51,0,51,0,0,0,51,51,51,51,Wed Sep 25 09:40:22 2019,1500,The main experiment item,yes,FlankerTask.osexp,/Users/kaylicolpitts/Desktop/adv quant/lab 2,no,mono,no,18,no,white,no,yes,768,legacy,51,51,/Users/kaylicolpitts/Desktop/adv quant/lab 2/Kc-subject-4.csv,legacy,Kafkaesque Koffka,3.2.8,0,h,NA,h,NA,NA,h,428,NA,150628,NA,NA,428,2,legacy,1024,2,48000,-16,experiment,HHHHH,4,even,237885,154286,NA,NA,183264,3622,NA,NA,238978,3647,NA,NA,239090,239520,238965,239090,FlankerTask,51,22151,52,yes,1024
98.11320755,98.11320755,425.7924528,425.7924528,black,legacy,legacy,legacy,0,incongruent,uniform,1,undefined,1,h,52,0,0,0,52,0,52,0,52,0,0,0,52,52,52,52,Wed Sep 25 09:40:22 2019,1500,The main experiment item,yes,FlankerTask.osexp,/Users/kaylicolpitts/Desktop/adv quant/lab 2,no,mono,no,18,no,white,no,yes,768,legacy,52,52,/Users/kaylicolpitts/Desktop/adv quant/lab 2/Kc-subject-4.csv,legacy,Kafkaesque Koffka,3.2.8,0,h,NA,h,NA,NA,h,416,NA,150628,NA,NA,416,2,legacy,1024,2,48000,-16,experiment,SSHSS,4,even,239535,154286,NA,NA,183264,3622,NA,NA,240627,3647,NA,NA,240740,241158,240615,240739,FlankerTask,52,22567,53,yes,1024
98.14814815,98.14814815,425.2222222,425.2222222,black,legacy,legacy,legacy,0,congruent,uniform,1,undefined,1,h,53,0,0,0,53,0,53,0,53,0,0,0,53,53,53,53,Wed Sep 25 09:40:22 2019,1500,The main experiment item,yes,FlankerTask.osexp,/Users/kaylicolpitts/Desktop/adv quant/lab 2,no,mono,no,18,no,white,no,yes,768,legacy,53,53,/Users/kaylicolpitts/Desktop/adv quant/lab 2/Kc-subject-4.csv,legacy,Kafkaesque Koffka,3.2.8,0,h,NA,h,NA,NA,h,395,NA,150628,NA,NA,395,2,legacy,1024,2,48000,-16,experiment,HHHHH,4,even,241173,154286,NA,NA,183264,3622,NA,NA,242266,3647,NA,NA,242379,242776,242254,242379,FlankerTask,53,22962,54,yes,1024
98.18181818,98.18181818,425.0363636,425.0363636,black,legacy,legacy,legacy,0,incongruent,uniform,1,undefined,1,h,54,0,0,0,54,0,54,0,54,0,0,0,54,54,54,54,Wed Sep 25 09:40:22 2019,1500,The main experiment item,yes,FlankerTask.osexp,/Users/kaylicolpitts/Desktop/adv quant/lab 2,no,mono,no,18,no,white,no,yes,768,legacy,54,54,/Users/kaylicolpitts/Desktop/adv quant/lab 2/Kc-subject-4.csv,legacy,Kafkaesque Koffka,3.2.8,0,h,NA,h,NA,NA,h,415,NA,150628,NA,NA,415,2,legacy,1024,2,48000,-16,experiment,SSHSS,4,even,242790,154286,NA,NA,183264,3622,NA,NA,243883,3647,NA,NA,243996,244413,243871,243996,FlankerTask,54,23377,55,yes,1024
98.21428571,98.21428571,424.6607143,424.6607143,black,legacy,legacy,legacy,0,congruent,uniform,1,undefined,1,h,55,0,0,0,55,0,55,0,55,0,0,0,55,55,55,55,Wed Sep 25 09:40:22 2019,1500,The main experiment item,yes,FlankerTask.osexp,/Users/kaylicolpitts/Desktop/adv quant/lab 2,no,mono,no,18,no,white,no,yes,768,legacy,55,55,/Users/kaylicolpitts/Desktop/adv quant/lab 2/Kc-subject-4.csv,legacy,Kafkaesque Koffka,3.2.8,0,h,NA,h,NA,NA,h,404,NA,150628,NA,NA,404,2,legacy,1024,2,48000,-16,experiment,HHHHH,4,even,244428,154286,NA,NA,183264,3622,NA,NA,245520,3647,NA,NA,245632,246038,245507,245632,FlankerTask,55,23781,56,yes,1024
98.24561404,98.24561404,425.1578947,425.1578947,black,legacy,legacy,legacy,0,incongruent,uniform,1,undefined,1,s,56,0,0,0,56,0,56,0,56,0,0,0,56,56,56,56,Wed Sep 25 09:40:22 2019,1500,The main experiment item,yes,FlankerTask.osexp,/Users/kaylicolpitts/Desktop/adv quant/lab 2,no,mono,no,18,no,white,no,yes,768,legacy,56,56,/Users/kaylicolpitts/Desktop/adv quant/lab 2/Kc-subject-4.csv,legacy,Kafkaesque Koffka,3.2.8,0,s,NA,h,NA,NA,s,453,NA,150628,NA,NA,453,2,legacy,1024,2,48000,-16,experiment,HHSHH,4,even,246053,154286,NA,NA,183264,3622,NA,NA,247145,3647,NA,NA,247258,247713,247133,247258,FlankerTask,56,24234,57,yes,1024
98.27586207,98.27586207,424.6034483,424.6034483,black,legacy,legacy,legacy,0,congruent,uniform,1,undefined,1,h,57,0,0,0,57,0,57,0,57,0,0,0,57,57,57,57,Wed Sep 25 09:40:22 2019,1500,The main experiment item,yes,FlankerTask.osexp,/Users/kaylicolpitts/Desktop/adv quant/lab 2,no,mono,no,18,no,white,no,yes,768,legacy,57,57,/Users/kaylicolpitts/Desktop/adv quant/lab 2/Kc-subject-4.csv,legacy,Kafkaesque Koffka,3.2.8,0,h,NA,h,NA,NA,h,393,NA,150628,NA,NA,393,2,legacy,1024,2,48000,-16,experiment,HHHHH,4,even,247727,154286,NA,NA,183264,3622,NA,NA,248823,3647,NA,NA,248936,249330,248810,248936,FlankerTask,57,24627,58,yes,1024
98.30508475,98.30508475,424.7288136,424.7288136,black,legacy,legacy,legacy,0,incongruent,uniform,1,undefined,1,h,58,0,0,0,58,0,58,0,58,0,0,0,58,58,58,58,Wed Sep 25 09:40:22 2019,1500,The main experiment item,yes,FlankerTask.osexp,/Users/kaylicolpitts/Desktop/adv quant/lab 2,no,mono,no,18,no,white,no,yes,768,legacy,58,58,/Users/kaylicolpitts/Desktop/adv quant/lab 2/Kc-subject-4.csv,legacy,Kafkaesque Koffka,3.2.8,0,h,NA,h,NA,NA,h,432,NA,150628,NA,NA,432,2,legacy,1024,2,48000,-16,experiment,SSHSS,4,even,249345,154286,NA,NA,183264,3622,NA,NA,250438,3647,NA,NA,250551,250984,250425,250551,FlankerTask,58,25059,59,yes,1024
98.33333333,98.33333333,423.75,423.75,black,legacy,legacy,legacy,0,congruent,uniform,1,undefined,1,h,59,0,0,0,59,0,59,0,59,0,0,0,59,59,59,59,Wed Sep 25 09:40:22 2019,1500,The main experiment item,yes,FlankerTask.osexp,/Users/kaylicolpitts/Desktop/adv quant/lab 2,no,mono,no,18,no,white,no,yes,768,legacy,59,59,/Users/kaylicolpitts/Desktop/adv quant/lab 2/Kc-subject-4.csv,legacy,Kafkaesque Koffka,3.2.8,0,h,NA,h,NA,NA,h,366,NA,150628,NA,NA,366,2,legacy,1024,2,48000,-16,experiment,HHHHH,4,even,250999,154286,NA,NA,183264,3622,NA,NA,252091,3647,NA,NA,252205,252573,252078,252204,FlankerTask,59,25425,60,yes,1024
98.36065574,98.36065574,423.4754098,423.4754098,black,legacy,legacy,legacy,0,incongruent,uniform,1,undefined,1,h,60,0,0,0,60,0,60,0,60,0,0,0,60,60,60,60,Wed Sep 25 09:40:22 2019,1500,The main experiment item,yes,FlankerTask.osexp,/Users/kaylicolpitts/Desktop/adv quant/lab 2,no,mono,no,18,no,white,no,yes,768,legacy,60,60,/Users/kaylicolpitts/Desktop/adv quant/lab 2/Kc-subject-4.csv,legacy,Kafkaesque Koffka,3.2.8,0,h,NA,h,NA,NA,h,407,NA,150628,NA,NA,407,2,legacy,1024,2,48000,-16,experiment,SSHSS,4,even,252588,154286,NA,NA,183264,3622,NA,NA,253680,3647,NA,NA,253793,254201,253668,253793,FlankerTask,60,25832,61,yes,1024
98.38709677,98.38709677,424.2580645,424.2580645,black,legacy,legacy,legacy,0,incongruent,uniform,1,undefined,1,s,61,0,0,0,61,0,61,0,61,0,0,0,61,61,61,61,Wed Sep 25 09:40:22 2019,1500,The main experiment item,yes,FlankerTask.osexp,/Users/kaylicolpitts/Desktop/adv quant/lab 2,no,mono,no,18,no,white,no,yes,768,legacy,61,61,/Users/kaylicolpitts/Desktop/adv quant/lab 2/Kc-subject-4.csv,legacy,Kafkaesque Koffka,3.2.8,0,s,NA,h,NA,NA,s,472,NA,150628,NA,NA,472,2,legacy,1024,2,48000,-16,experiment,HHSHH,4,even,254216,154286,NA,NA,183264,3622,NA,NA,255309,3647,NA,NA,255423,255896,255297,255422,FlankerTask,61,26304,62,yes,1024
98.41269841,98.41269841,424.4126984,424.4126984,black,legacy,legacy,legacy,0,incongruent,uniform,1,undefined,1,h,62,0,0,0,62,0,62,0,62,0,0,0,62,62,62,62,Wed Sep 25 09:40:22 2019,1500,The main experiment item,yes,FlankerTask.osexp,/Users/kaylicolpitts/Desktop/adv quant/lab 2,no,mono,no,18,no,white,no,yes,768,legacy,62,62,/Users/kaylicolpitts/Desktop/adv quant/lab 2/Kc-subject-4.csv,legacy,Kafkaesque Koffka,3.2.8,0,h,NA,h,NA,NA,h,434,NA,150628,NA,NA,434,2,legacy,1024,2,48000,-16,experiment,SSHSS,4,even,255911,154286,NA,NA,183264,3622,NA,NA,257002,3647,NA,NA,257115,257551,256991,257115,FlankerTask,62,26738,63,yes,1024
98.4375,98.4375,424.328125,424.328125,black,legacy,legacy,legacy,0,congruent,uniform,1,undefined,1,h,63,0,0,0,63,0,63,0,63,0,0,0,63,63,63,63,Wed Sep 25 09:40:22 2019,1500,The main experiment item,yes,FlankerTask.osexp,/Users/kaylicolpitts/Desktop/adv quant/lab 2,no,mono,no,18,no,white,no,yes,768,legacy,63,63,/Users/kaylicolpitts/Desktop/adv quant/lab 2/Kc-subject-4.csv,legacy,Kafkaesque Koffka,3.2.8,0,h,NA,h,NA,NA,h,419,NA,150628,NA,NA,419,2,legacy,1024,2,48000,-16,experiment,HHHHH,4,even,257566,154286,NA,NA,183264,3622,NA,NA,258658,3647,NA,NA,258773,259193,258646,258773,FlankerTask,63,27157,64,yes,1024
96.92307692,96.92307692,422.4307692,422.4307692,black,legacy,legacy,legacy,0,incongruent,uniform,0,undefined,0,s,64,0,0,0,64,0,64,0,64,0,0,0,64,64,64,64,Wed Sep 25 09:40:22 2019,1500,The main experiment item,yes,FlankerTask.osexp,/Users/kaylicolpitts/Desktop/adv quant/lab 2,no,mono,no,18,no,white,no,yes,768,legacy,64,64,/Users/kaylicolpitts/Desktop/adv quant/lab 2/Kc-subject-4.csv,legacy,Kafkaesque Koffka,3.2.8,0,h,NA,h,NA,NA,h,301,NA,150628,NA,NA,301,2,legacy,1024,2,48000,-16,experiment,HHSHH,4,even,259208,154286,NA,NA,183264,3622,NA,NA,260302,3647,NA,NA,260415,260718,260289,260415,FlankerTask,63,27458,65,yes,1024
96.96969697,96.96969697,423.0757576,423.0757576,black,legacy,legacy,legacy,0,congruent,uniform,1,undefined,1,h,65,0,0,0,65,0,65,0,65,0,0,0,65,65,65,65,Wed Sep 25 09:40:22 2019,1500,The main experiment item,yes,FlankerTask.osexp,/Users/kaylicolpitts/Desktop/adv quant/lab 2,no,mono,no,18,no,white,no,yes,768,legacy,65,65,/Users/kaylicolpitts/Desktop/adv quant/lab 2/Kc-subject-4.csv,legacy,Kafkaesque Koffka,3.2.8,0,h,NA,h,NA,NA,h,465,NA,150628,NA,NA,465,2,legacy,1024,2,48000,-16,experiment,HHHHH,4,even,261246,154286,NA,NA,260733,3622,NA,NA,262359,3647,NA,NA,262472,262940,262347,262472,FlankerTask,64,27923,66,yes,1024
97.01492537,97.01492537,422.8358209,422.8358209,black,legacy,legacy,legacy,0,incongruent,uniform,1,undefined,1,h,66,0,0,0,66,0,66,0,66,0,0,0,66,66,66,66,Wed Sep 25 09:40:22 2019,1500,The main experiment item,yes,FlankerTask.osexp,/Users/kaylicolpitts/Desktop/adv quant/lab 2,no,mono,no,18,no,white,no,yes,768,legacy,66,66,/Users/kaylicolpitts/Desktop/adv quant/lab 2/Kc-subject-4.csv,legacy,Kafkaesque Koffka,3.2.8,0,h,NA,h,NA,NA,h,407,NA,150628,NA,NA,407,2,legacy,1024,2,48000,-16,experiment,SSHSS,4,even,262956,154286,NA,NA,260733,3622,NA,NA,264048,3647,NA,NA,264162,264571,264035,264162,FlankerTask,65,28330,67,yes,1024
97.05882353,97.05882353,422.5735294,422.5735294,black,legacy,legacy,legacy,0,incongruent,uniform,1,undefined,1,h,67,0,0,0,67,0,67,0,67,0,0,0,67,67,67,67,Wed Sep 25 09:40:22 2019,1500,The main experiment item,yes,FlankerTask.osexp,/Users/kaylicolpitts/Desktop/adv quant/lab 2,no,mono,no,18,no,white,no,yes,768,legacy,67,67,/Users/kaylicolpitts/Desktop/adv quant/lab 2/Kc-subject-4.csv,legacy,Kafkaesque Koffka,3.2.8,0,h,NA,h,NA,NA,h,405,NA,150628,NA,NA,405,2,legacy,1024,2,48000,-16,experiment,SSHSS,4,even,264586,154286,NA,NA,260733,3622,NA,NA,265679,3647,NA,NA,265791,266199,265666,265791,FlankerTask,66,28735,68,yes,1024
97.10144928,97.10144928,421.6376812,421.6376812,black,legacy,legacy,legacy,0,incongruent,uniform,1,undefined,1,h,68,0,0,0,68,0,68,0,68,0,0,0,68,68,68,68,Wed Sep 25 09:40:22 2019,1500,The main experiment item,yes,FlankerTask.osexp,/Users/kaylicolpitts/Desktop/adv quant/lab 2,no,mono,no,18,no,white,no,yes,768,legacy,68,68,/Users/kaylicolpitts/Desktop/adv quant/lab 2/Kc-subject-4.csv,legacy,Kafkaesque Koffka,3.2.8,0,h,NA,h,NA,NA,h,358,NA,150628,NA,NA,358,2,legacy,1024,2,48000,-16,experiment,SSHSS,4,even,266213,154286,NA,NA,260733,3622,NA,NA,267307,3647,NA,NA,267420,267780,267294,267419,FlankerTask,67,29093,69,yes,1024
97.14285714,97.14285714,421.4,421.4,black,legacy,legacy,legacy,0,congruent,uniform,1,undefined,1,s,69,0,0,0,69,0,69,0,69,0,0,0,69,69,69,69,Wed Sep 25 09:40:22 2019,1500,The main experiment item,yes,FlankerTask.osexp,/Users/kaylicolpitts/Desktop/adv quant/lab 2,no,mono,no,18,no,white,no,yes,768,legacy,69,69,/Users/kaylicolpitts/Desktop/adv quant/lab 2/Kc-subject-4.csv,legacy,Kafkaesque Koffka,3.2.8,0,s,NA,h,NA,NA,s,405,NA,150628,NA,NA,405,2,legacy,1024,2,48000,-16,experiment,SSSSS,4,even,267795,154286,NA,NA,260733,3622,NA,NA,268888,3647,NA,NA,269000,269408,268876,269000,FlankerTask,68,29498,70,yes,1024
97.18309859,97.18309859,421.1690141,421.1690141,black,legacy,legacy,legacy,0,incongruent,uniform,1,undefined,1,s,70,0,0,0,70,0,70,0,70,0,0,0,70,70,70,70,Wed Sep 25 09:40:22 2019,1500,The main experiment item,yes,FlankerTask.osexp,/Users/kaylicolpitts/Desktop/adv quant/lab 2,no,mono,no,18,no,white,no,yes,768,legacy,70,70,/Users/kaylicolpitts/Desktop/adv quant/lab 2/Kc-subject-4.csv,legacy,Kafkaesque Koffka,3.2.8,0,s,NA,h,NA,NA,s,405,NA,150628,NA,NA,405,2,legacy,1024,2,48000,-16,experiment,HHSHH,4,even,269422,154286,NA,NA,260733,3622,NA,NA,270515,3647,NA,NA,270628,271035,270503,270627,FlankerTask,69,29903,71,yes,1024
97.22222222,97.22222222,422.6944444,422.6944444,black,legacy,legacy,legacy,0,congruent,uniform,1,undefined,1,h,71,0,0,0,71,0,71,0,71,0,0,0,71,71,71,71,Wed Sep 25 09:40:22 2019,1500,The main experiment item,yes,FlankerTask.osexp,/Users/kaylicolpitts/Desktop/adv quant/lab 2,no,mono,no,18,no,white,no,yes,768,legacy,71,71,/Users/kaylicolpitts/Desktop/adv quant/lab 2/Kc-subject-4.csv,legacy,Kafkaesque Koffka,3.2.8,0,h,NA,h,NA,NA,h,531,NA,150628,NA,NA,531,2,legacy,1024,2,48000,-16,experiment,HHHHH,4,even,271050,154286,NA,NA,260733,3622,NA,NA,272142,3647,NA,NA,272256,272789,272130,272256,FlankerTask,70,30434,72,yes,1024
97.26027397,97.26027397,424.4794521,424.4794521,black,legacy,legacy,legacy,0,incongruent,uniform,1,undefined,1,s,72,0,0,0,72,0,72,0,72,0,0,0,72,72,72,72,Wed Sep 25 09:40:22 2019,1500,The main experiment item,yes,FlankerTask.osexp,/Users/kaylicolpitts/Desktop/adv quant/lab 2,no,mono,no,18,no,white,no,yes,768,legacy,72,72,/Users/kaylicolpitts/Desktop/adv quant/lab 2/Kc-subject-4.csv,legacy,Kafkaesque Koffka,3.2.8,0,s,NA,h,NA,NA,s,553,NA,150628,NA,NA,553,2,legacy,1024,2,48000,-16,experiment,HHSHH,4,even,272804,154286,NA,NA,260733,3622,NA,NA,273897,3647,NA,NA,274009,274564,273885,274009,FlankerTask,71,30987,73,yes,1024
97.2972973,97.2972973,423.8108108,423.8108108,black,legacy,legacy,legacy,0,congruent,uniform,1,undefined,1,s,73,0,0,0,73,0,73,0,73,0,0,0,73,73,73,73,Wed Sep 25 09:40:22 2019,1500,The main experiment item,yes,FlankerTask.osexp,/Users/kaylicolpitts/Desktop/adv quant/lab 2,no,mono,no,18,no,white,no,yes,768,legacy,73,73,/Users/kaylicolpitts/Desktop/adv quant/lab 2/Kc-subject-4.csv,legacy,Kafkaesque Koffka,3.2.8,0,s,NA,h,NA,NA,s,375,NA,150628,NA,NA,375,2,legacy,1024,2,48000,-16,experiment,SSSSS,4,even,274579,154286,NA,NA,260733,3622,NA,NA,275673,3647,NA,NA,275786,276163,275661,275785,FlankerTask,72,31362,74,yes,1024
97.33333333,97.33333333,423.0133333,423.0133333,black,legacy,legacy,legacy,0,incongruent,uniform,1,undefined,1,s,74,0,0,0,74,0,74,0,74,0,0,0,74,74,74,74,Wed Sep 25 09:40:22 2019,1500,The main experiment item,yes,FlankerTask.osexp,/Users/kaylicolpitts/Desktop/adv quant/lab 2,no,mono,no,18,no,white,no,yes,768,legacy,74,74,/Users/kaylicolpitts/Desktop/adv quant/lab 2/Kc-subject-4.csv,legacy,Kafkaesque Koffka,3.2.8,0,s,NA,h,NA,NA,s,364,NA,150628,NA,NA,364,2,legacy,1024,2,48000,-16,experiment,HHSHH,4,even,276178,154286,NA,NA,260733,3622,NA,NA,277271,3647,NA,NA,277385,277751,277258,277385,FlankerTask,73,31726,75,yes,1024
97.36842105,97.36842105,422.6184211,422.6184211,black,legacy,legacy,legacy,0,incongruent,uniform,1,undefined,1,s,75,0,0,0,75,0,75,0,75,0,0,0,75,75,75,75,Wed Sep 25 09:40:22 2019,1500,The main experiment item,yes,FlankerTask.osexp,/Users/kaylicolpitts/Desktop/adv quant/lab 2,no,mono,no,18,no,white,no,yes,768,legacy,75,75,/Users/kaylicolpitts/Desktop/adv quant/lab 2/Kc-subject-4.csv,legacy,Kafkaesque Koffka,3.2.8,0,s,NA,h,NA,NA,s,393,NA,150628,NA,NA,393,2,legacy,1024,2,48000,-16,experiment,HHSHH,4,even,277766,154286,NA,NA,260733,3622,NA,NA,278859,3647,NA,NA,278972,279367,278846,278972,FlankerTask,74,32119,76,yes,1024
97.4025974,97.4025974,423.025974,423.025974,black,legacy,legacy,legacy,0,congruent,uniform,1,undefined,1,h,76,0,0,0,76,0,76,0,76,0,0,0,76,76,76,76,Wed Sep 25 09:40:22 2019,1500,The main experiment item,yes,FlankerTask.osexp,/Users/kaylicolpitts/Desktop/adv quant/lab 2,no,mono,no,18,no,white,no,yes,768,legacy,76,76,/Users/kaylicolpitts/Desktop/adv quant/lab 2/Kc-subject-4.csv,legacy,Kafkaesque Koffka,3.2.8,0,h,NA,h,NA,NA,h,454,NA,150628,NA,NA,454,2,legacy,1024,2,48000,-16,experiment,HHHHH,4,even,279382,154286,NA,NA,260733,3622,NA,NA,280475,3647,NA,NA,280588,281044,280463,280588,FlankerTask,75,32573,77,yes,1024
97.43589744,97.43589744,422.5769231,422.5769231,black,legacy,legacy,legacy,0,congruent,uniform,1,undefined,1,s,77,0,0,0,77,0,77,0,77,0,0,0,77,77,77,77,Wed Sep 25 09:40:22 2019,1500,The main experiment item,yes,FlankerTask.osexp,/Users/kaylicolpitts/Desktop/adv quant/lab 2,no,mono,no,18,no,white,no,yes,768,legacy,77,77,/Users/kaylicolpitts/Desktop/adv quant/lab 2/Kc-subject-4.csv,legacy,Kafkaesque Koffka,3.2.8,0,s,NA,h,NA,NA,s,388,NA,150628,NA,NA,388,2,legacy,1024,2,48000,-16,experiment,SSSSS,4,even,281059,154286,NA,NA,260733,3622,NA,NA,282152,3647,NA,NA,282267,282657,282139,282266,FlankerTask,76,32961,78,yes,1024
97.46835443,97.46835443,422.3670886,422.3670886,black,legacy,legacy,legacy,0,congruent,uniform,1,undefined,1,h,78,0,0,0,78,0,78,0,78,0,0,0,78,78,78,78,Wed Sep 25 09:40:22 2019,1500,The main experiment item,yes,FlankerTask.osexp,/Users/kaylicolpitts/Desktop/adv quant/lab 2,no,mono,no,18,no,white,no,yes,768,legacy,78,78,/Users/kaylicolpitts/Desktop/adv quant/lab 2/Kc-subject-4.csv,legacy,Kafkaesque Koffka,3.2.8,0,h,NA,h,NA,NA,h,406,NA,150628,NA,NA,406,2,legacy,1024,2,48000,-16,experiment,HHHHH,4,even,282671,154286,NA,NA,260733,3622,NA,NA,283765,3647,NA,NA,283878,284286,283752,283878,FlankerTask,77,33367,79,yes,1024
97.5,97.5,422,422,black,legacy,legacy,legacy,0,congruent,uniform,1,undefined,1,s,79,0,0,0,79,0,79,0,79,0,0,0,79,79,79,79,Wed Sep 25 09:40:22 2019,1500,The main experiment item,yes,FlankerTask.osexp,/Users/kaylicolpitts/Desktop/adv quant/lab 2,no,mono,no,18,no,white,no,yes,768,legacy,79,79,/Users/kaylicolpitts/Desktop/adv quant/lab 2/Kc-subject-4.csv,legacy,Kafkaesque Koffka,3.2.8,0,s,NA,h,NA,NA,s,393,NA,150628,NA,NA,393,2,legacy,1024,2,48000,-16,experiment,SSSSS,4,even,284301,154286,NA,NA,260733,3622,NA,NA,285393,3647,NA,NA,285506,285901,285381,285506,FlankerTask,78,33760,80,yes,1024
97.5308642,97.5308642,422.3209877,422.3209877,black,legacy,legacy,legacy,0,congruent,uniform,1,undefined,1,s,80,0,0,0,80,0,80,0,80,0,0,0,80,80,80,80,Wed Sep 25 09:40:22 2019,600,The main experiment item,yes,FlankerTask.osexp,/Users/kaylicolpitts/Desktop/adv quant/lab 2,no,mono,no,18,no,white,no,yes,768,legacy,0,79,/Users/kaylicolpitts/Desktop/adv quant/lab 2/Kc-subject-4.csv,legacy,Kafkaesque Koffka,3.2.8,0,s,NA,h,h,NA,s,448,NA,150628,25634,NA,448,2,legacy,1024,2,48000,-16,experiment,SSSSS,4,even,285916,154286,312585,NA,260733,3622,NA,NA,312669,3647,286949,NA,312781,313231,312656,312781,FlankerTask,79,34208,81,yes,1024
97.56097561,97.56097561,421.4634146,421.4634146,black,legacy,legacy,legacy,0,congruent,uniform,1,undefined,1,s,81,0,0,0,81,0,81,0,81,0,0,0,81,81,81,81,Wed Sep 25 09:40:22 2019,600,The main experiment item,yes,FlankerTask.osexp,/Users/kaylicolpitts/Desktop/adv quant/lab 2,no,mono,no,18,no,white,no,yes,768,legacy,1,79,/Users/kaylicolpitts/Desktop/adv quant/lab 2/Kc-subject-4.csv,legacy,Kafkaesque Koffka,3.2.8,0,s,NA,h,h,NA,s,352,NA,150628,25634,NA,352,2,legacy,1024,2,48000,-16,experiment,SSSSS,4,even,313245,154286,312585,NA,260733,3622,NA,NA,314338,3647,286949,NA,314451,314806,314326,314450,FlankerTask,80,34560,82,yes,1024
97.59036145,97.59036145,420.7108434,420.7108434,black,legacy,legacy,legacy,0,congruent,uniform,1,undefined,1,s,82,0,0,0,82,0,82,0,82,0,0,0,82,82,82,82,Wed Sep 25 09:40:22 2019,600,The main experiment item,yes,FlankerTask.osexp,/Users/kaylicolpitts/Desktop/adv quant/lab 2,no,mono,no,18,no,white,no,yes,768,legacy,2,79,/Users/kaylicolpitts/Desktop/adv quant/lab 2/Kc-subject-4.csv,legacy,Kafkaesque Koffka,3.2.8,0,s,NA,h,h,NA,s,359,NA,150628,25634,NA,359,2,legacy,1024,2,48000,-16,experiment,SSSSS,4,even,314821,154286,312585,NA,260733,3622,NA,NA,315913,3647,286949,NA,316026,316388,315901,316026,FlankerTask,81,34919,83,yes,1024
97.61904762,97.61904762,420.5,420.5,black,legacy,legacy,legacy,0,congruent,uniform,1,undefined,1,s,83,0,0,0,83,0,83,0,83,0,0,0,83,83,83,83,Wed Sep 25 09:40:22 2019,600,The main experiment item,yes,FlankerTask.osexp,/Users/kaylicolpitts/Desktop/adv quant/lab 2,no,mono,no,18,no,white,no,yes,768,legacy,3,79,/Users/kaylicolpitts/Desktop/adv quant/lab 2/Kc-subject-4.csv,legacy,Kafkaesque Koffka,3.2.8,0,s,NA,h,h,NA,s,403,NA,150628,25634,NA,403,2,legacy,1024,2,48000,-16,experiment,SSSSS,4,even,316402,154286,312585,NA,260733,3622,NA,NA,317494,3647,286949,NA,317607,318013,317482,317607,FlankerTask,82,35322,84,yes,1024
97.64705882,97.64705882,421,421,black,legacy,legacy,legacy,0,incongruent,uniform,1,undefined,1,h,84,0,0,0,84,0,84,0,84,0,0,0,84,84,84,84,Wed Sep 25 09:40:22 2019,600,The main experiment item,yes,FlankerTask.osexp,/Users/kaylicolpitts/Desktop/adv quant/lab 2,no,mono,no,18,no,white,no,yes,768,legacy,4,79,/Users/kaylicolpitts/Desktop/adv quant/lab 2/Kc-subject-4.csv,legacy,Kafkaesque Koffka,3.2.8,0,h,NA,h,h,NA,h,463,NA,150628,25634,NA,463,2,legacy,1024,2,48000,-16,experiment,SSHSS,4,even,318027,154286,312585,NA,260733,3622,NA,NA,319119,3647,286949,NA,319232,319697,319107,319232,FlankerTask,83,35785,85,yes,1024
97.6744186,97.6744186,421.3604651,421.3604651,black,legacy,legacy,legacy,0,incongruent,uniform,1,undefined,1,s,85,0,0,0,85,0,85,0,85,0,0,0,85,85,85,85,Wed Sep 25 09:40:22 2019,600,The main experiment item,yes,FlankerTask.osexp,/Users/kaylicolpitts/Desktop/adv quant/lab 2,no,mono,no,18,no,white,no,yes,768,legacy,5,79,/Users/kaylicolpitts/Desktop/adv quant/lab 2/Kc-subject-4.csv,legacy,Kafkaesque Koffka,3.2.8,0,s,NA,h,h,NA,s,452,NA,150628,25634,NA,452,2,legacy,1024,2,48000,-16,experiment,HHSHH,4,even,319712,154286,312585,NA,260733,3622,NA,NA,320807,3647,286949,NA,320920,321374,320794,320920,FlankerTask,84,36237,86,yes,1024
97.70114943,97.70114943,420.5862069,420.5862069,black,legacy,legacy,legacy,0,congruent,uniform,1,undefined,1,s,86,0,0,0,86,0,86,0,86,0,0,0,86,86,86,86,Wed Sep 25 09:40:22 2019,600,The main experiment item,yes,FlankerTask.osexp,/Users/kaylicolpitts/Desktop/adv quant/lab 2,no,mono,no,18,no,white,no,yes,768,legacy,6,79,/Users/kaylicolpitts/Desktop/adv quant/lab 2/Kc-subject-4.csv,legacy,Kafkaesque Koffka,3.2.8,0,s,NA,h,h,NA,s,354,NA,150628,25634,NA,354,2,legacy,1024,2,48000,-16,experiment,SSSSS,4,even,321389,154286,312585,NA,260733,3622,NA,NA,322482,3647,286949,NA,322595,322951,322470,322595,FlankerTask,85,36591,87,yes,1024
97.72727273,97.72727273,421.0568182,421.0568182,black,legacy,legacy,legacy,0,incongruent,uniform,1,undefined,1,h,87,0,0,0,87,0,87,0,87,0,0,0,87,87,87,87,Wed Sep 25 09:40:22 2019,600,The main experiment item,yes,FlankerTask.osexp,/Users/kaylicolpitts/Desktop/adv quant/lab 2,no,mono,no,18,no,white,no,yes,768,legacy,7,79,/Users/kaylicolpitts/Desktop/adv quant/lab 2/Kc-subject-4.csv,legacy,Kafkaesque Koffka,3.2.8,0,h,NA,h,h,NA,h,462,NA,150628,25634,NA,462,2,legacy,1024,2,48000,-16,experiment,SSHSS,4,even,322967,154286,312585,NA,260733,3622,NA,NA,324059,3647,286949,NA,324172,324636,324047,324171,FlankerTask,86,37053,88,yes,1024
97.75280899,97.75280899,421.1685393,421.1685393,black,legacy,legacy,legacy,0,incongruent,uniform,1,undefined,1,h,88,0,0,0,88,0,88,0,88,0,0,0,88,88,88,88,Wed Sep 25 09:40:22 2019,600,The main experiment item,yes,FlankerTask.osexp,/Users/kaylicolpitts/Desktop/adv quant/lab 2,no,mono,no,18,no,white,no,yes,768,legacy,8,79,/Users/kaylicolpitts/Desktop/adv quant/lab 2/Kc-subject-4.csv,legacy,Kafkaesque Koffka,3.2.8,0,h,NA,h,h,NA,h,431,NA,150628,25634,NA,431,2,legacy,1024,2,48000,-16,experiment,SSHSS,4,even,324651,154286,312585,NA,260733,3622,NA,NA,325744,3647,286949,NA,325856,326290,325731,325856,FlankerTask,87,37484,89,yes,1024
97.77777778,97.77777778,421.5333333,421.5333333,black,legacy,legacy,legacy,0,incongruent,uniform,1,undefined,1,s,89,0,0,0,89,0,89,0,89,0,0,0,89,89,89,89,Wed Sep 25 09:40:22 2019,600,The main experiment item,yes,FlankerTask.osexp,/Users/kaylicolpitts/Desktop/adv quant/lab 2,no,mono,no,18,no,white,no,yes,768,legacy,9,79,/Users/kaylicolpitts/Desktop/adv quant/lab 2/Kc-subject-4.csv,legacy,Kafkaesque Koffka,3.2.8,0,s,NA,h,h,NA,s,454,NA,150628,25634,NA,454,2,legacy,1024,2,48000,-16,experiment,HHSHH,4,even,326304,154286,312585,NA,260733,3622,NA,NA,327398,3647,286949,NA,327511,327967,327386,327510,FlankerTask,88,37938,90,yes,1024
97.8021978,97.8021978,421.4945055,421.4945055,black,legacy,legacy,legacy,0,congruent,uniform,1,undefined,1,h,90,0,0,0,90,0,90,0,90,0,0,0,90,90,90,90,Wed Sep 25 09:40:22 2019,600,The main experiment item,yes,FlankerTask.osexp,/Users/kaylicolpitts/Desktop/adv quant/lab 2,no,mono,no,18,no,white,no,yes,768,legacy,10,79,/Users/kaylicolpitts/Desktop/adv quant/lab 2/Kc-subject-4.csv,legacy,Kafkaesque Koffka,3.2.8,0,h,NA,h,h,NA,h,418,NA,150628,25634,NA,418,2,legacy,1024,2,48000,-16,experiment,HHHHH,4,even,327982,154286,312585,NA,260733,3622,NA,NA,329074,3647,286949,NA,329187,329607,329062,329187,FlankerTask,89,38356,91,yes,1024
97.82608696,97.82608696,421.0869565,421.0869565,black,legacy,legacy,legacy,0,congruent,uniform,1,undefined,1,h,91,0,0,0,91,0,91,0,91,0,0,0,91,91,91,91,Wed Sep 25 09:40:22 2019,600,The main experiment item,yes,FlankerTask.osexp,/Users/kaylicolpitts/Desktop/adv quant/lab 2,no,mono,no,18,no,white,no,yes,768,legacy,11,79,/Users/kaylicolpitts/Desktop/adv quant/lab 2/Kc-subject-4.csv,legacy,Kafkaesque Koffka,3.2.8,0,h,NA,h,h,NA,h,384,NA,150628,25634,NA,384,2,legacy,1024,2,48000,-16,experiment,HHHHH,4,even,329622,154286,312585,NA,260733,3622,NA,NA,330715,3647,286949,NA,330828,331214,330703,330828,FlankerTask,90,38740,92,yes,1024
97.84946237,97.84946237,420.2580645,420.2580645,black,legacy,legacy,legacy,0,congruent,uniform,1,undefined,1,h,92,0,0,0,92,0,92,0,92,0,0,0,92,92,92,92,Wed Sep 25 09:40:22 2019,600,The main experiment item,yes,FlankerTask.osexp,/Users/kaylicolpitts/Desktop/adv quant/lab 2,no,mono,no,18,no,white,no,yes,768,legacy,12,79,/Users/kaylicolpitts/Desktop/adv quant/lab 2/Kc-subject-4.csv,legacy,Kafkaesque Koffka,3.2.8,0,h,NA,h,h,NA,h,344,NA,150628,25634,NA,344,2,legacy,1024,2,48000,-16,experiment,HHHHH,4,even,331229,154286,312585,NA,260733,3622,NA,NA,332323,3647,286949,NA,332435,332781,332310,332435,FlankerTask,91,39084,93,yes,1024
97.87234043,97.87234043,420.3297872,420.3297872,black,legacy,legacy,legacy,0,incongruent,uniform,1,undefined,1,s,93,0,0,0,93,0,93,0,93,0,0,0,93,93,93,93,Wed Sep 25 09:40:22 2019,600,The main experiment item,yes,FlankerTask.osexp,/Users/kaylicolpitts/Desktop/adv quant/lab 2,no,mono,no,18,no,white,no,yes,768,legacy,13,79,/Users/kaylicolpitts/Desktop/adv quant/lab 2/Kc-subject-4.csv,legacy,Kafkaesque Koffka,3.2.8,0,s,NA,h,h,NA,s,427,NA,150628,25634,NA,427,2,legacy,1024,2,48000,-16,experiment,HHSHH,4,even,332796,154286,312585,NA,260733,3622,NA,NA,333889,3647,286949,NA,334001,334430,333876,334001,FlankerTask,92,39511,94,yes,1024
97.89473684,97.89473684,420.3894737,420.3894737,black,legacy,legacy,legacy,0,incongruent,uniform,1,undefined,1,h,94,0,0,0,94,0,94,0,94,0,0,0,94,94,94,94,Wed Sep 25 09:40:22 2019,600,The main experiment item,yes,FlankerTask.osexp,/Users/kaylicolpitts/Desktop/adv quant/lab 2,no,mono,no,18,no,white,no,yes,768,legacy,14,79,/Users/kaylicolpitts/Desktop/adv quant/lab 2/Kc-subject-4.csv,legacy,Kafkaesque Koffka,3.2.8,0,h,NA,h,h,NA,h,426,NA,150628,25634,NA,426,2,legacy,1024,2,48000,-16,experiment,SSHSS,4,even,334445,154286,312585,NA,260733,3622,NA,NA,335538,3647,286949,NA,335651,336079,335525,335650,FlankerTask,93,39937,95,yes,1024
97.91666667,97.91666667,420.25,420.25,black,legacy,legacy,legacy,0,incongruent,uniform,1,undefined,1,s,95,0,0,0,95,0,95,0,95,0,0,0,95,95,95,95,Wed Sep 25 09:40:22 2019,600,The main experiment item,yes,FlankerTask.osexp,/Users/kaylicolpitts/Desktop/adv quant/lab 2,no,mono,no,18,no,white,no,yes,768,legacy,15,79,/Users/kaylicolpitts/Desktop/adv quant/lab 2/Kc-subject-4.csv,legacy,Kafkaesque Koffka,3.2.8,0,s,NA,h,h,NA,s,407,NA,150628,25634,NA,407,2,legacy,1024,2,48000,-16,experiment,HHSHH,4,even,336094,154286,312585,NA,260733,3622,NA,NA,337188,3647,286949,NA,337300,337709,337176,337300,FlankerTask,94,40344,96,yes,1024
97.93814433,97.93814433,419.9278351,419.9278351,black,legacy,legacy,legacy,0,incongruent,uniform,1,undefined,1,h,96,0,0,0,96,0,96,0,96,0,0,0,96,96,96,96,Wed Sep 25 09:40:22 2019,600,The main experiment item,yes,FlankerTask.osexp,/Users/kaylicolpitts/Desktop/adv quant/lab 2,no,mono,no,18,no,white,no,yes,768,legacy,16,79,/Users/kaylicolpitts/Desktop/adv quant/lab 2/Kc-subject-4.csv,legacy,Kafkaesque Koffka,3.2.8,0,h,NA,h,h,NA,h,389,NA,150628,25634,NA,389,2,legacy,1024,2,48000,-16,experiment,SSHSS,4,even,337724,154286,312585,NA,260733,3622,NA,NA,338817,3647,286949,NA,338931,339322,338805,338931,FlankerTask,95,40733,97,yes,1024
97.95918367,97.95918367,420.7755102,420.7755102,black,legacy,legacy,legacy,0,incongruent,uniform,1,undefined,1,s,97,0,0,0,97,0,97,0,97,0,0,0,97,97,97,97,Wed Sep 25 09:40:22 2019,600,The main experiment item,yes,FlankerTask.osexp,/Users/kaylicolpitts/Desktop/adv quant/lab 2,no,mono,no,18,no,white,no,yes,768,legacy,17,79,/Users/kaylicolpitts/Desktop/adv quant/lab 2/Kc-subject-4.csv,legacy,Kafkaesque Koffka,3.2.8,0,s,NA,h,h,NA,s,503,NA,150628,25634,NA,503,2,legacy,1024,2,48000,-16,experiment,HHSHH,4,even,339337,154286,312585,NA,260733,3622,NA,NA,340429,3647,286949,NA,340542,341047,340417,340542,FlankerTask,96,41236,98,yes,1024
97.97979798,97.97979798,420.4949495,420.4949495,black,legacy,legacy,legacy,0,incongruent,uniform,1,undefined,1,h,98,0,0,0,98,0,98,0,98,0,0,0,98,98,98,98,Wed Sep 25 09:40:22 2019,600,The main experiment item,yes,FlankerTask.osexp,/Users/kaylicolpitts/Desktop/adv quant/lab 2,no,mono,no,18,no,white,no,yes,768,legacy,18,79,/Users/kaylicolpitts/Desktop/adv quant/lab 2/Kc-subject-4.csv,legacy,Kafkaesque Koffka,3.2.8,0,h,NA,h,h,NA,h,393,NA,150628,25634,NA,393,2,legacy,1024,2,48000,-16,experiment,SSHSS,4,even,341062,154286,312585,NA,260733,3622,NA,NA,342156,3647,286949,NA,342270,342665,342143,342270,FlankerTask,97,41629,99,yes,1024
98,98,420.33,420.33,black,legacy,legacy,legacy,0,incongruent,uniform,1,undefined,1,s,99,0,0,0,99,0,99,0,99,0,0,0,99,99,99,99,Wed Sep 25 09:40:22 2019,600,The main experiment item,yes,FlankerTask.osexp,/Users/kaylicolpitts/Desktop/adv quant/lab 2,no,mono,no,18,no,white,no,yes,768,legacy,19,79,/Users/kaylicolpitts/Desktop/adv quant/lab 2/Kc-subject-4.csv,legacy,Kafkaesque Koffka,3.2.8,0,s,NA,h,h,NA,s,404,NA,150628,25634,NA,404,2,legacy,1024,2,48000,-16,experiment,HHSHH,4,even,342679,154286,312585,NA,260733,3622,NA,NA,343773,3647,286949,NA,343886,344292,343760,343885,FlankerTask,98,42033,100,yes,1024
98.01980198,98.01980198,420.1287129,420.1287129,black,legacy,legacy,legacy,0,congruent,uniform,1,undefined,1,h,100,0,0,0,100,0,100,0,100,0,0,0,100,100,100,100,Wed Sep 25 09:40:22 2019,600,The main experiment item,yes,FlankerTask.osexp,/Users/kaylicolpitts/Desktop/adv quant/lab 2,no,mono,no,18,no,white,no,yes,768,legacy,20,79,/Users/kaylicolpitts/Desktop/adv quant/lab 2/Kc-subject-4.csv,legacy,Kafkaesque Koffka,3.2.8,0,h,NA,h,h,NA,h,400,NA,150628,25634,NA,400,2,legacy,1024,2,48000,-16,experiment,HHHHH,4,even,344307,154286,312585,NA,260733,3622,NA,NA,345401,3647,286949,NA,345514,345916,345388,345513,FlankerTask,99,42433,101,yes,1024
98.03921569,98.03921569,419.7647059,419.7647059,black,legacy,legacy,legacy,0,congruent,uniform,1,undefined,1,h,101,0,0,0,101,0,101,0,101,0,0,0,101,101,101,101,Wed Sep 25 09:40:22 2019,600,The main experiment item,yes,FlankerTask.osexp,/Users/kaylicolpitts/Desktop/adv quant/lab 2,no,mono,no,18,no,white,no,yes,768,legacy,21,79,/Users/kaylicolpitts/Desktop/adv quant/lab 2/Kc-subject-4.csv,legacy,Kafkaesque Koffka,3.2.8,0,h,NA,h,h,NA,h,383,NA,150628,25634,NA,383,2,legacy,1024,2,48000,-16,experiment,HHHHH,4,even,345931,154286,312585,NA,260733,3622,NA,NA,347022,3647,286949,NA,347136,347521,347010,347136,FlankerTask,100,42816,102,yes,1024
98.05825243,98.05825243,419.4563107,419.4563107,black,legacy,legacy,legacy,0,congruent,uniform,1,undefined,1,s,102,0,0,0,102,0,102,0,102,0,0,0,102,102,102,102,Wed Sep 25 09:40:22 2019,600,The main experiment item,yes,FlankerTask.osexp,/Users/kaylicolpitts/Desktop/adv quant/lab 2,no,mono,no,18,no,white,no,yes,768,legacy,22,79,/Users/kaylicolpitts/Desktop/adv quant/lab 2/Kc-subject-4.csv,legacy,Kafkaesque Koffka,3.2.8,0,s,NA,h,h,NA,s,388,NA,150628,25634,NA,388,2,legacy,1024,2,48000,-16,experiment,SSSSS,4,even,347536,154286,312585,NA,260733,3622,NA,NA,348629,3647,286949,NA,348743,349134,348617,348743,FlankerTask,101,43204,103,yes,1024
98.07692308,98.07692308,420.1346154,420.1346154,black,legacy,legacy,legacy,0,incongruent,uniform,1,undefined,1,s,103,0,0,0,103,0,103,0,103,0,0,0,103,103,103,103,Wed Sep 25 09:40:22 2019,600,The main experiment item,yes,FlankerTask.osexp,/Users/kaylicolpitts/Desktop/adv quant/lab 2,no,mono,no,18,no,white,no,yes,768,legacy,23,79,/Users/kaylicolpitts/Desktop/adv quant/lab 2/Kc-subject-4.csv,legacy,Kafkaesque Koffka,3.2.8,0,s,NA,h,h,NA,s,490,NA,150628,25634,NA,490,2,legacy,1024,2,48000,-16,experiment,HHSHH,4,even,349149,154286,312585,NA,260733,3622,NA,NA,350243,3647,286949,NA,350356,350849,350231,350356,FlankerTask,102,43694,104,yes,1024
98.0952381,98.0952381,419.6095238,419.6095238,black,legacy,legacy,legacy,0,incongruent,uniform,1,undefined,1,s,104,0,0,0,104,0,104,0,104,0,0,0,104,104,104,104,Wed Sep 25 09:40:22 2019,600,The main experiment item,yes,FlankerTask.osexp,/Users/kaylicolpitts/Desktop/adv quant/lab 2,no,mono,no,18,no,white,no,yes,768,legacy,24,79,/Users/kaylicolpitts/Desktop/adv quant/lab 2/Kc-subject-4.csv,legacy,Kafkaesque Koffka,3.2.8,0,s,NA,h,h,NA,s,365,NA,150628,25634,NA,365,2,legacy,1024,2,48000,-16,experiment,HHSHH,4,even,350864,154286,312585,NA,260733,3622,NA,NA,351957,3647,286949,NA,352069,352436,351944,352069,FlankerTask,103,44059,105,yes,1024
98.11320755,98.11320755,419.3584906,419.3584906,black,legacy,legacy,legacy,0,incongruent,uniform,1,undefined,1,s,105,0,0,0,105,0,105,0,105,0,0,0,105,105,105,105,Wed Sep 25 09:40:22 2019,600,The main experiment item,yes,FlankerTask.osexp,/Users/kaylicolpitts/Desktop/adv quant/lab 2,no,mono,no,18,no,white,no,yes,768,legacy,25,79,/Users/kaylicolpitts/Desktop/adv quant/lab 2/Kc-subject-4.csv,legacy,Kafkaesque Koffka,3.2.8,0,s,NA,h,h,NA,s,393,NA,150628,25634,NA,393,2,legacy,1024,2,48000,-16,experiment,HHSHH,4,even,352452,154286,312585,NA,260733,3622,NA,NA,353545,3647,286949,NA,353658,354054,353533,353658,FlankerTask,104,44452,106,yes,1024
98.13084112,98.13084112,419.1401869,419.1401869,black,legacy,legacy,legacy,0,incongruent,uniform,1,undefined,1,s,106,0,0,0,106,0,106,0,106,0,0,0,106,106,106,106,Wed Sep 25 09:40:22 2019,600,The main experiment item,yes,FlankerTask.osexp,/Users/kaylicolpitts/Desktop/adv quant/lab 2,no,mono,no,18,no,white,no,yes,768,legacy,26,79,/Users/kaylicolpitts/Desktop/adv quant/lab 2/Kc-subject-4.csv,legacy,Kafkaesque Koffka,3.2.8,0,s,NA,h,h,NA,s,396,NA,150628,25634,NA,396,2,legacy,1024,2,48000,-16,experiment,HHSHH,4,even,354068,154286,312585,NA,260733,3622,NA,NA,355163,3647,286949,NA,355277,355676,355149,355276,FlankerTask,105,44848,107,yes,1024
98.14814815,98.14814815,418.962963,418.962963,black,legacy,legacy,legacy,0,incongruent,uniform,1,undefined,1,h,107,0,0,0,107,0,107,0,107,0,0,0,107,107,107,107,Wed Sep 25 09:40:22 2019,600,The main experiment item,yes,FlankerTask.osexp,/Users/kaylicolpitts/Desktop/adv quant/lab 2,no,mono,no,18,no,white,no,yes,768,legacy,27,79,/Users/kaylicolpitts/Desktop/adv quant/lab 2/Kc-subject-4.csv,legacy,Kafkaesque Koffka,3.2.8,0,h,NA,h,h,NA,h,400,NA,150628,25634,NA,400,2,legacy,1024,2,48000,-16,experiment,SSHSS,4,even,355690,154286,312585,NA,260733,3622,NA,NA,356783,3647,286949,NA,356896,357299,356771,356895,FlankerTask,106,45248,108,yes,1024
98.16513761,98.16513761,418.3853211,418.3853211,black,legacy,legacy,legacy,0,congruent,uniform,1,undefined,1,s,108,0,0,0,108,0,108,0,108,0,0,0,108,108,108,108,Wed Sep 25 09:40:22 2019,600,The main experiment item,yes,FlankerTask.osexp,/Users/kaylicolpitts/Desktop/adv quant/lab 2,no,mono,no,18,no,white,no,yes,768,legacy,28,79,/Users/kaylicolpitts/Desktop/adv quant/lab 2/Kc-subject-4.csv,legacy,Kafkaesque Koffka,3.2.8,0,s,NA,h,h,NA,s,356,NA,150628,25634,NA,356,2,legacy,1024,2,48000,-16,experiment,SSSSS,4,even,357313,154286,312585,NA,260733,3622,NA,NA,358406,3647,286949,NA,358519,358878,358393,358519,FlankerTask,107,45604,109,yes,1024
98.18181818,98.18181818,418.4181818,418.4181818,black,legacy,legacy,legacy,0,congruent,uniform,1,undefined,1,s,109,0,0,0,109,0,109,0,109,0,0,0,109,109,109,109,Wed Sep 25 09:40:22 2019,600,The main experiment item,yes,FlankerTask.osexp,/Users/kaylicolpitts/Desktop/adv quant/lab 2,no,mono,no,18,no,white,no,yes,768,legacy,29,79,/Users/kaylicolpitts/Desktop/adv quant/lab 2/Kc-subject-4.csv,legacy,Kafkaesque Koffka,3.2.8,0,s,NA,h,h,NA,s,422,NA,150628,25634,NA,422,2,legacy,1024,2,48000,-16,experiment,SSSSS,4,even,358892,154286,312585,NA,260733,3622,NA,NA,359984,3647,286949,NA,360097,360522,359972,360096,FlankerTask,108,46026,110,yes,1024
98.1981982,98.1981982,418.8018018,418.8018018,black,legacy,legacy,legacy,0,incongruent,uniform,1,undefined,1,s,110,0,0,0,110,0,110,0,110,0,0,0,110,110,110,110,Wed Sep 25 09:40:22 2019,600,The main experiment item,yes,FlankerTask.osexp,/Users/kaylicolpitts/Desktop/adv quant/lab 2,no,mono,no,18,no,white,no,yes,768,legacy,30,79,/Users/kaylicolpitts/Desktop/adv quant/lab 2/Kc-subject-4.csv,legacy,Kafkaesque Koffka,3.2.8,0,s,NA,h,h,NA,s,461,NA,150628,25634,NA,461,2,legacy,1024,2,48000,-16,experiment,HHSHH,4,even,360536,154286,312585,NA,260733,3622,NA,NA,361629,3647,286949,NA,361743,362207,361616,361743,FlankerTask,109,46487,111,yes,1024
98.21428571,98.21428571,418.5089286,418.5089286,black,legacy,legacy,legacy,0,congruent,uniform,1,undefined,1,h,111,0,0,0,111,0,111,0,111,0,0,0,111,111,111,111,Wed Sep 25 09:40:22 2019,600,The main experiment item,yes,FlankerTask.osexp,/Users/kaylicolpitts/Desktop/adv quant/lab 2,no,mono,no,18,no,white,no,yes,768,legacy,31,79,/Users/kaylicolpitts/Desktop/adv quant/lab 2/Kc-subject-4.csv,legacy,Kafkaesque Koffka,3.2.8,0,h,NA,h,h,NA,h,386,NA,150628,25634,NA,386,2,legacy,1024,2,48000,-16,experiment,HHHHH,4,even,362221,154286,312585,NA,260733,3622,NA,NA,363314,3647,286949,NA,363427,363815,363302,363427,FlankerTask,110,46873,112,yes,1024
98.2300885,98.2300885,419.1327434,419.1327434,black,legacy,legacy,legacy,0,congruent,uniform,1,undefined,1,h,112,0,0,0,112,0,112,0,112,0,0,0,112,112,112,112,Wed Sep 25 09:40:22 2019,600,The main experiment item,yes,FlankerTask.osexp,/Users/kaylicolpitts/Desktop/adv quant/lab 2,no,mono,no,18,no,white,no,yes,768,legacy,32,79,/Users/kaylicolpitts/Desktop/adv quant/lab 2/Kc-subject-4.csv,legacy,Kafkaesque Koffka,3.2.8,0,h,NA,h,h,NA,h,489,NA,150628,25634,NA,489,2,legacy,1024,2,48000,-16,experiment,HHHHH,4,even,363829,154286,312585,NA,260733,3622,NA,NA,364922,3647,286949,NA,365034,365525,364909,365034,FlankerTask,111,47362,113,yes,1024
98.24561404,98.24561404,419.2368421,419.2368421,black,legacy,legacy,legacy,0,congruent,uniform,1,undefined,1,s,113,0,0,0,113,0,113,0,113,0,0,0,113,113,113,113,Wed Sep 25 09:40:22 2019,600,The main experiment item,yes,FlankerTask.osexp,/Users/kaylicolpitts/Desktop/adv quant/lab 2,no,mono,no,18,no,white,no,yes,768,legacy,33,79,/Users/kaylicolpitts/Desktop/adv quant/lab 2/Kc-subject-4.csv,legacy,Kafkaesque Koffka,3.2.8,0,s,NA,h,h,NA,s,431,NA,150628,25634,NA,431,2,legacy,1024,2,48000,-16,experiment,SSSSS,4,even,365540,154286,312585,NA,260733,3622,NA,NA,366632,3647,286949,NA,366744,367177,366619,366744,FlankerTask,112,47793,114,yes,1024
97.39130435,97.39130435,419.3043478,419.3043478,black,legacy,legacy,legacy,0,incongruent,uniform,0,undefined,0,h,114,0,0,0,114,0,114,0,114,0,0,0,114,114,114,114,Wed Sep 25 09:40:22 2019,600,The main experiment item,yes,FlankerTask.osexp,/Users/kaylicolpitts/Desktop/adv quant/lab 2,no,mono,no,18,no,white,no,yes,768,legacy,34,79,/Users/kaylicolpitts/Desktop/adv quant/lab 2/Kc-subject-4.csv,legacy,Kafkaesque Koffka,3.2.8,0,s,NA,h,h,NA,s,427,NA,150628,25634,NA,427,2,legacy,1024,2,48000,-16,experiment,SSHSS,4,even,367192,154286,312585,NA,260733,3622,NA,NA,368286,3647,286949,NA,368399,368828,368273,368399,FlankerTask,112,48220,115,yes,1024
97.4137931,97.4137931,419.0344828,419.0344828,black,legacy,legacy,legacy,0,congruent,uniform,1,undefined,1,h,115,0,0,0,115,0,115,0,115,0,0,0,115,115,115,115,Wed Sep 25 09:40:22 2019,600,The main experiment item,yes,FlankerTask.osexp,/Users/kaylicolpitts/Desktop/adv quant/lab 2,no,mono,no,18,no,white,no,yes,768,legacy,35,79,/Users/kaylicolpitts/Desktop/adv quant/lab 2/Kc-subject-4.csv,legacy,Kafkaesque Koffka,3.2.8,0,h,NA,h,h,NA,h,388,NA,150628,25634,NA,388,2,legacy,1024,2,48000,-16,experiment,HHHHH,4,even,369356,154286,312585,NA,368843,3622,NA,NA,370450,3647,286949,NA,370562,370952,370437,370562,FlankerTask,113,48608,116,yes,1024
97.43589744,97.43589744,418.6068376,418.6068376,black,legacy,legacy,legacy,0,congruent,uniform,1,undefined,1,h,116,0,0,0,116,0,116,0,116,0,0,0,116,116,116,116,Wed Sep 25 09:40:22 2019,600,The main experiment item,yes,FlankerTask.osexp,/Users/kaylicolpitts/Desktop/adv quant/lab 2,no,mono,no,18,no,white,no,yes,768,legacy,36,79,/Users/kaylicolpitts/Desktop/adv quant/lab 2/Kc-subject-4.csv,legacy,Kafkaesque Koffka,3.2.8,0,h,NA,h,h,NA,h,369,NA,150628,25634,NA,369,2,legacy,1024,2,48000,-16,experiment,HHHHH,4,even,370967,154286,312585,NA,368843,3622,NA,NA,372059,3647,286949,NA,372172,372543,372046,372172,FlankerTask,114,48977,117,yes,1024
97.45762712,97.45762712,418.3813559,418.3813559,black,legacy,legacy,legacy,0,incongruent,uniform,1,undefined,1,s,117,0,0,0,117,0,117,0,117,0,0,0,117,117,117,117,Wed Sep 25 09:40:22 2019,600,The main experiment item,yes,FlankerTask.osexp,/Users/kaylicolpitts/Desktop/adv quant/lab 2,no,mono,no,18,no,white,no,yes,768,legacy,37,79,/Users/kaylicolpitts/Desktop/adv quant/lab 2/Kc-subject-4.csv,legacy,Kafkaesque Koffka,3.2.8,0,s,NA,h,h,NA,s,392,NA,150628,25634,NA,392,2,legacy,1024,2,48000,-16,experiment,HHSHH,4,even,372558,154286,312585,NA,368843,3622,NA,NA,373651,3647,286949,NA,373765,374159,373639,373765,FlankerTask,115,49369,118,yes,1024
97.4789916,97.4789916,417.9327731,417.9327731,black,legacy,legacy,legacy,0,incongruent,uniform,1,undefined,1,s,118,0,0,0,118,0,118,0,118,0,0,0,118,118,118,118,Wed Sep 25 09:40:22 2019,600,The main experiment item,yes,FlankerTask.osexp,/Users/kaylicolpitts/Desktop/adv quant/lab 2,no,mono,no,18,no,white,no,yes,768,legacy,38,79,/Users/kaylicolpitts/Desktop/adv quant/lab 2/Kc-subject-4.csv,legacy,Kafkaesque Koffka,3.2.8,0,s,NA,h,h,NA,s,365,NA,150628,25634,NA,365,2,legacy,1024,2,48000,-16,experiment,HHSHH,4,even,374174,154286,312585,NA,368843,3622,NA,NA,375267,3647,286949,NA,375380,375747,375254,375379,FlankerTask,116,49734,119,yes,1024
97.5,97.5,417.275,417.275,black,legacy,legacy,legacy,0,congruent,uniform,1,undefined,1,s,119,0,0,0,119,0,119,0,119,0,0,0,119,119,119,119,Wed Sep 25 09:40:22 2019,600,The main experiment item,yes,FlankerTask.osexp,/Users/kaylicolpitts/Desktop/adv quant/lab 2,no,mono,no,18,no,white,no,yes,768,legacy,39,79,/Users/kaylicolpitts/Desktop/adv quant/lab 2/Kc-subject-4.csv,legacy,Kafkaesque Koffka,3.2.8,0,s,NA,h,h,NA,s,339,NA,150628,25634,NA,339,2,legacy,1024,2,48000,-16,experiment,SSSSS,4,even,375762,154286,312585,NA,368843,3622,NA,NA,376859,3647,286949,NA,376971,377312,376845,376971,FlankerTask,117,50073,120,yes,1024
97.52066116,97.52066116,416.8181818,416.8181818,black,legacy,legacy,legacy,0,congruent,uniform,1,undefined,1,h,120,0,0,0,120,0,120,0,120,0,0,0,120,120,120,120,Wed Sep 25 09:40:22 2019,600,The main experiment item,yes,FlankerTask.osexp,/Users/kaylicolpitts/Desktop/adv quant/lab 2,no,mono,no,18,no,white,no,yes,768,legacy,40,79,/Users/kaylicolpitts/Desktop/adv quant/lab 2/Kc-subject-4.csv,legacy,Kafkaesque Koffka,3.2.8,0,h,NA,h,h,NA,h,362,NA,150628,25634,NA,362,2,legacy,1024,2,48000,-16,experiment,HHHHH,4,even,377327,154286,312585,NA,368843,3622,NA,NA,378420,3647,286949,NA,378533,378897,378407,378532,FlankerTask,118,50435,121,yes,1024
97.54098361,97.54098361,416.0901639,416.0901639,black,legacy,legacy,legacy,0,congruent,uniform,1,undefined,1,s,121,0,0,0,121,0,121,0,121,0,0,0,121,121,121,121,Wed Sep 25 09:40:22 2019,600,The main experiment item,yes,FlankerTask.osexp,/Users/kaylicolpitts/Desktop/adv quant/lab 2,no,mono,no,18,no,white,no,yes,768,legacy,41,79,/Users/kaylicolpitts/Desktop/adv quant/lab 2/Kc-subject-4.csv,legacy,Kafkaesque Koffka,3.2.8,0,s,NA,h,h,NA,s,328,NA,150628,25634,NA,328,2,legacy,1024,2,48000,-16,experiment,SSSSS,4,even,378912,154286,312585,NA,368843,3622,NA,NA,380004,3647,286949,NA,380117,380447,379992,380117,FlankerTask,119,50763,122,yes,1024
97.56097561,97.56097561,415.5203252,415.5203252,black,legacy,legacy,legacy,0,congruent,uniform,1,undefined,1,s,122,0,0,0,122,0,122,0,122,0,0,0,122,122,122,122,Wed Sep 25 09:40:22 2019,600,The main experiment item,yes,FlankerTask.osexp,/Users/kaylicolpitts/Desktop/adv quant/lab 2,no,mono,no,18,no,white,no,yes,768,legacy,42,79,/Users/kaylicolpitts/Desktop/adv quant/lab 2/Kc-subject-4.csv,legacy,Kafkaesque Koffka,3.2.8,0,s,NA,h,h,NA,s,346,NA,150628,25634,NA,346,2,legacy,1024,2,48000,-16,experiment,SSSSS,4,even,380462,154286,312585,NA,368843,3622,NA,NA,381555,3647,286949,NA,381668,382016,381542,381668,FlankerTask,120,51109,123,yes,1024
97.58064516,97.58064516,415.3951613,415.3951613,black,legacy,legacy,legacy,0,incongruent,uniform,1,undefined,1,h,123,0,0,0,123,0,123,0,123,0,0,0,123,123,123,123,Wed Sep 25 09:40:22 2019,600,The main experiment item,yes,FlankerTask.osexp,/Users/kaylicolpitts/Desktop/adv quant/lab 2,no,mono,no,18,no,white,no,yes,768,legacy,43,79,/Users/kaylicolpitts/Desktop/adv quant/lab 2/Kc-subject-4.csv,legacy,Kafkaesque Koffka,3.2.8,0,h,NA,h,h,NA,h,400,NA,150628,25634,NA,400,2,legacy,1024,2,48000,-16,experiment,SSHSS,4,even,382031,154286,312585,NA,368843,3622,NA,NA,383123,3647,286949,NA,383236,383639,383110,383235,FlankerTask,121,51509,124,yes,1024
96.8,96.8,414.328,414.328,black,legacy,legacy,legacy,0,incongruent,uniform,0,undefined,0,h,124,0,0,0,124,0,124,0,124,0,0,0,124,124,124,124,Wed Sep 25 09:40:22 2019,600,The main experiment item,yes,FlankerTask.osexp,/Users/kaylicolpitts/Desktop/adv quant/lab 2,no,mono,no,18,no,white,no,yes,768,legacy,44,79,/Users/kaylicolpitts/Desktop/adv quant/lab 2/Kc-subject-4.csv,legacy,Kafkaesque Koffka,3.2.8,0,s,NA,h,h,NA,s,282,NA,150628,25634,NA,282,2,legacy,1024,2,48000,-16,experiment,SSHSS,4,even,383655,154286,312585,NA,368843,3622,NA,NA,384747,3647,286949,NA,384861,385146,384735,384861,FlankerTask,121,51791,125,yes,1024
96.03174603,96.03174603,414.1111111,414.1111111,black,legacy,legacy,legacy,0,incongruent,uniform,0,undefined,0,s,125,0,0,0,125,0,125,0,125,0,0,0,125,125,125,125,Wed Sep 25 09:40:22 2019,600,The main experiment item,yes,FlankerTask.osexp,/Users/kaylicolpitts/Desktop/adv quant/lab 2,no,mono,no,18,no,white,no,yes,768,legacy,45,79,/Users/kaylicolpitts/Desktop/adv quant/lab 2/Kc-subject-4.csv,legacy,Kafkaesque Koffka,3.2.8,0,h,NA,h,h,NA,h,387,NA,150628,25634,NA,387,2,legacy,1024,2,48000,-16,experiment,HHSHH,4,even,385674,154286,312585,NA,385162,3622,NA,NA,386767,3647,286949,NA,386880,387269,386755,386880,FlankerTask,121,52178,126,yes,1024
96.06299213,96.06299213,414.6850394,414.6850394,black,legacy,legacy,legacy,0,congruent,uniform,1,undefined,1,h,126,0,0,0,126,0,126,0,126,0,0,0,126,126,126,126,Wed Sep 25 09:40:22 2019,600,The main experiment item,yes,FlankerTask.osexp,/Users/kaylicolpitts/Desktop/adv quant/lab 2,no,mono,no,18,no,white,no,yes,768,legacy,46,79,/Users/kaylicolpitts/Desktop/adv quant/lab 2/Kc-subject-4.csv,legacy,Kafkaesque Koffka,3.2.8,0,h,NA,h,h,NA,h,487,NA,150628,25634,NA,487,2,legacy,1024,2,48000,-16,experiment,HHHHH,4,even,387797,154286,312585,NA,387284,3622,NA,NA,388890,3647,286949,NA,389003,389493,388878,389003,FlankerTask,122,52665,127,yes,1024
96.09375,96.09375,414.03125,414.03125,black,legacy,legacy,legacy,0,congruent,uniform,1,undefined,1,h,127,0,0,0,127,0,127,0,127,0,0,0,127,127,127,127,Wed Sep 25 09:40:22 2019,600,The main experiment item,yes,FlankerTask.osexp,/Users/kaylicolpitts/Desktop/adv quant/lab 2,no,mono,no,18,no,white,no,yes,768,legacy,47,79,/Users/kaylicolpitts/Desktop/adv quant/lab 2/Kc-subject-4.csv,legacy,Kafkaesque Koffka,3.2.8,0,h,NA,h,h,NA,h,331,NA,150628,25634,NA,331,2,legacy,1024,2,48000,-16,experiment,HHHHH,4,even,389508,154286,312585,NA,387284,3622,NA,NA,390602,3647,286949,NA,390715,391049,390589,390715,FlankerTask,123,52996,128,yes,1024
96.12403101,96.12403101,413.6899225,413.6899225,black,legacy,legacy,legacy,0,incongruent,uniform,1,undefined,1,h,128,0,0,0,128,0,128,0,128,0,0,0,128,128,128,128,Wed Sep 25 09:40:22 2019,600,The main experiment item,yes,FlankerTask.osexp,/Users/kaylicolpitts/Desktop/adv quant/lab 2,no,mono,no,18,no,white,no,yes,768,legacy,48,79,/Users/kaylicolpitts/Desktop/adv quant/lab 2/Kc-subject-4.csv,legacy,Kafkaesque Koffka,3.2.8,0,h,NA,h,h,NA,h,370,NA,150628,25634,NA,370,2,legacy,1024,2,48000,-16,experiment,SSHSS,4,even,391063,154286,312585,NA,387284,3622,NA,NA,392157,3647,286949,NA,392271,392644,392144,392271,FlankerTask,124,53366,129,yes,1024
96.15384615,96.15384615,413.7461538,413.7461538,black,legacy,legacy,legacy,0,incongruent,uniform,1,undefined,1,h,129,0,0,0,129,0,129,0,129,0,0,0,129,129,129,129,Wed Sep 25 09:40:22 2019,600,The main experiment item,yes,FlankerTask.osexp,/Users/kaylicolpitts/Desktop/adv quant/lab 2,no,mono,no,18,no,white,no,yes,768,legacy,49,79,/Users/kaylicolpitts/Desktop/adv quant/lab 2/Kc-subject-4.csv,legacy,Kafkaesque Koffka,3.2.8,0,h,NA,h,h,NA,h,421,NA,150628,25634,NA,421,2,legacy,1024,2,48000,-16,experiment,SSHSS,4,even,392659,154286,312585,NA,387284,3622,NA,NA,393751,3647,286949,NA,393864,394288,393738,393863,FlankerTask,125,53787,130,yes,1024
96.18320611,96.18320611,413.7709924,413.7709924,black,legacy,legacy,legacy,0,congruent,uniform,1,undefined,1,s,130,0,0,0,130,0,130,0,130,0,0,0,130,130,130,130,Wed Sep 25 09:40:22 2019,600,The main experiment item,yes,FlankerTask.osexp,/Users/kaylicolpitts/Desktop/adv quant/lab 2,no,mono,no,18,no,white,no,yes,768,legacy,50,79,/Users/kaylicolpitts/Desktop/adv quant/lab 2/Kc-subject-4.csv,legacy,Kafkaesque Koffka,3.2.8,0,s,NA,h,h,NA,s,417,NA,150628,25634,NA,417,2,legacy,1024,2,48000,-16,experiment,SSSSS,4,even,394303,154286,312585,NA,387284,3622,NA,NA,395395,3647,286949,NA,395508,395928,395383,395508,FlankerTask,126,54204,131,yes,1024
96.21212121,96.21212121,413.8333333,413.8333333,black,legacy,legacy,legacy,0,congruent,uniform,1,undefined,1,s,131,0,0,0,131,0,131,0,131,0,0,0,131,131,131,131,Wed Sep 25 09:40:22 2019,600,The main experiment item,yes,FlankerTask.osexp,/Users/kaylicolpitts/Desktop/adv quant/lab 2,no,mono,no,18,no,white,no,yes,768,legacy,51,79,/Users/kaylicolpitts/Desktop/adv quant/lab 2/Kc-subject-4.csv,legacy,Kafkaesque Koffka,3.2.8,0,s,NA,h,h,NA,s,422,NA,150628,25634,NA,422,2,legacy,1024,2,48000,-16,experiment,SSSSS,4,even,395943,154286,312585,NA,387284,3622,NA,NA,397034,3647,286949,NA,397148,397573,397022,397148,FlankerTask,127,54626,132,yes,1024
96.2406015,96.2406015,413.6165414,413.6165414,black,legacy,legacy,legacy,0,congruent,uniform,1,undefined,1,s,132,0,0,0,132,0,132,0,132,0,0,0,132,132,132,132,Wed Sep 25 09:40:22 2019,600,The main experiment item,yes,FlankerTask.osexp,/Users/kaylicolpitts/Desktop/adv quant/lab 2,no,mono,no,18,no,white,no,yes,768,legacy,52,79,/Users/kaylicolpitts/Desktop/adv quant/lab 2/Kc-subject-4.csv,legacy,Kafkaesque Koffka,3.2.8,0,s,NA,h,h,NA,s,385,NA,150628,25634,NA,385,2,legacy,1024,2,48000,-16,experiment,SSSSS,4,even,397588,154286,312585,NA,387284,3622,NA,NA,398680,3647,286949,NA,398792,399180,398668,398792,FlankerTask,128,55011,133,yes,1024
96.26865672,96.26865672,413.4104478,413.4104478,black,legacy,legacy,legacy,0,congruent,uniform,1,undefined,1,h,133,0,0,0,133,0,133,0,133,0,0,0,133,133,133,133,Wed Sep 25 09:40:22 2019,600,The main experiment item,yes,FlankerTask.osexp,/Users/kaylicolpitts/Desktop/adv quant/lab 2,no,mono,no,18,no,white,no,yes,768,legacy,53,79,/Users/kaylicolpitts/Desktop/adv quant/lab 2/Kc-subject-4.csv,legacy,Kafkaesque Koffka,3.2.8,0,h,NA,h,h,NA,h,386,NA,150628,25634,NA,386,2,legacy,1024,2,48000,-16,experiment,HHHHH,4,even,399195,154286,312585,NA,387284,3622,NA,NA,400289,3647,286949,NA,400402,400791,400276,400401,FlankerTask,129,55397,134,yes,1024
96.2962963,96.2962963,412.8444444,412.8444444,black,legacy,legacy,legacy,0,incongruent,uniform,1,undefined,1,h,134,0,0,0,134,0,134,0,134,0,0,0,134,134,134,134,Wed Sep 25 09:40:22 2019,600,The main experiment item,yes,FlankerTask.osexp,/Users/kaylicolpitts/Desktop/adv quant/lab 2,no,mono,no,18,no,white,no,yes,768,legacy,54,79,/Users/kaylicolpitts/Desktop/adv quant/lab 2/Kc-subject-4.csv,legacy,Kafkaesque Koffka,3.2.8,0,h,NA,h,h,NA,h,337,NA,150628,25634,NA,337,2,legacy,1024,2,48000,-16,experiment,SSHSS,4,even,400806,154286,312585,NA,387284,3622,NA,NA,401900,3647,286949,NA,402012,402352,401888,402011,FlankerTask,130,55734,135,yes,1024
96.32352941,96.32352941,412.5073529,412.5073529,black,legacy,legacy,legacy,0,congruent,uniform,1,undefined,1,s,135,0,0,0,135,0,135,0,135,0,0,0,135,135,135,135,Wed Sep 25 09:40:22 2019,600,The main experiment item,yes,FlankerTask.osexp,/Users/kaylicolpitts/Desktop/adv quant/lab 2,no,mono,no,18,no,white,no,yes,768,legacy,55,79,/Users/kaylicolpitts/Desktop/adv quant/lab 2/Kc-subject-4.csv,legacy,Kafkaesque Koffka,3.2.8,0,s,NA,h,h,NA,s,367,NA,150628,25634,NA,367,2,legacy,1024,2,48000,-16,experiment,SSSSS,4,even,402366,154286,312585,NA,387284,3622,NA,NA,403458,3647,286949,NA,403571,403941,403446,403570,FlankerTask,131,56101,136,yes,1024
96.35036496,96.35036496,412.3211679,412.3211679,black,legacy,legacy,legacy,0,congruent,uniform,1,undefined,1,s,136,0,0,0,136,0,136,0,136,0,0,0,136,136,136,136,Wed Sep 25 09:40:22 2019,600,The main experiment item,yes,FlankerTask.osexp,/Users/kaylicolpitts/Desktop/adv quant/lab 2,no,mono,no,18,no,white,no,yes,768,legacy,56,79,/Users/kaylicolpitts/Desktop/adv quant/lab 2/Kc-subject-4.csv,legacy,Kafkaesque Koffka,3.2.8,0,s,NA,h,h,NA,s,387,NA,150628,25634,NA,387,2,legacy,1024,2,48000,-16,experiment,SSSSS,4,even,403955,154286,312585,NA,387284,3622,NA,NA,405047,3647,286949,NA,405161,405551,405034,405161,FlankerTask,132,56488,137,yes,1024
96.37681159,96.37681159,412.0434783,412.0434783,black,legacy,legacy,legacy,0,congruent,uniform,1,undefined,1,s,137,0,0,0,137,0,137,0,137,0,0,0,137,137,137,137,Wed Sep 25 09:40:22 2019,600,The main experiment item,yes,FlankerTask.osexp,/Users/kaylicolpitts/Desktop/adv quant/lab 2,no,mono,no,18,no,white,no,yes,768,legacy,57,79,/Users/kaylicolpitts/Desktop/adv quant/lab 2/Kc-subject-4.csv,legacy,Kafkaesque Koffka,3.2.8,0,s,NA,h,h,NA,s,374,NA,150628,25634,NA,374,2,legacy,1024,2,48000,-16,experiment,SSSSS,4,even,405565,154286,312585,NA,387284,3622,NA,NA,406658,3647,286949,NA,406771,407147,406646,406771,FlankerTask,133,56862,138,yes,1024
96.4028777,96.4028777,411.9496403,411.9496403,black,legacy,legacy,legacy,0,incongruent,uniform,1,undefined,1,h,138,0,0,0,138,0,138,0,138,0,0,0,138,138,138,138,Wed Sep 25 09:40:22 2019,600,The main experiment item,yes,FlankerTask.osexp,/Users/kaylicolpitts/Desktop/adv quant/lab 2,no,mono,no,18,no,white,no,yes,768,legacy,58,79,/Users/kaylicolpitts/Desktop/adv quant/lab 2/Kc-subject-4.csv,legacy,Kafkaesque Koffka,3.2.8,0,h,NA,h,h,NA,h,399,NA,150628,25634,NA,399,2,legacy,1024,2,48000,-16,experiment,SSHSS,4,even,407163,154286,312585,NA,387284,3622,NA,NA,408256,3647,286949,NA,408370,408772,408244,408370,FlankerTask,134,57261,139,yes,1024
96.42857143,96.42857143,411.9714286,411.9714286,black,legacy,legacy,legacy,0,incongruent,uniform,1,undefined,1,s,139,0,0,0,139,0,139,0,139,0,0,0,139,139,139,139,Wed Sep 25 09:40:22 2019,600,The main experiment item,yes,FlankerTask.osexp,/Users/kaylicolpitts/Desktop/adv quant/lab 2,no,mono,no,18,no,white,no,yes,768,legacy,59,79,/Users/kaylicolpitts/Desktop/adv quant/lab 2/Kc-subject-4.csv,legacy,Kafkaesque Koffka,3.2.8,0,s,NA,h,h,NA,s,415,NA,150628,25634,NA,415,2,legacy,1024,2,48000,-16,experiment,HHSHH,4,even,408786,154286,312585,NA,387284,3622,NA,NA,409879,3647,286949,NA,409991,410408,409867,409991,FlankerTask,135,57676,140,yes,1024
96.45390071,96.45390071,412.1489362,412.1489362,black,legacy,legacy,legacy,0,incongruent,uniform,1,undefined,1,h,140,0,0,0,140,0,140,0,140,0,0,0,140,140,140,140,Wed Sep 25 09:40:22 2019,600,The main experiment item,yes,FlankerTask.osexp,/Users/kaylicolpitts/Desktop/adv quant/lab 2,no,mono,no,18,no,white,no,yes,768,legacy,60,79,/Users/kaylicolpitts/Desktop/adv quant/lab 2/Kc-subject-4.csv,legacy,Kafkaesque Koffka,3.2.8,0,h,NA,h,h,NA,h,437,NA,150628,25634,NA,437,2,legacy,1024,2,48000,-16,experiment,SSHSS,4,even,410423,154286,312585,NA,387284,3622,NA,NA,411516,3647,286949,NA,411629,412068,411503,411629,FlankerTask,136,58113,141,yes,1024
96.47887324,96.47887324,411.915493,411.915493,black,legacy,legacy,legacy,0,incongruent,uniform,1,undefined,1,h,141,0,0,0,141,0,141,0,141,0,0,0,141,141,141,141,Wed Sep 25 09:40:22 2019,600,The main experiment item,yes,FlankerTask.osexp,/Users/kaylicolpitts/Desktop/adv quant/lab 2,no,mono,no,18,no,white,no,yes,768,legacy,61,79,/Users/kaylicolpitts/Desktop/adv quant/lab 2/Kc-subject-4.csv,legacy,Kafkaesque Koffka,3.2.8,0,h,NA,h,h,NA,h,379,NA,150628,25634,NA,379,2,legacy,1024,2,48000,-16,experiment,SSHSS,4,even,412083,154286,312585,NA,387284,3622,NA,NA,413177,3647,286949,NA,413290,413671,413165,413290,FlankerTask,137,58492,142,yes,1024
96.5034965,96.5034965,412.1188811,412.1188811,black,legacy,legacy,legacy,0,incongruent,uniform,1,undefined,1,h,142,0,0,0,142,0,142,0,142,0,0,0,142,142,142,142,Wed Sep 25 09:40:22 2019,600,The main experiment item,yes,FlankerTask.osexp,/Users/kaylicolpitts/Desktop/adv quant/lab 2,no,mono,no,18,no,white,no,yes,768,legacy,62,79,/Users/kaylicolpitts/Desktop/adv quant/lab 2/Kc-subject-4.csv,legacy,Kafkaesque Koffka,3.2.8,0,h,NA,h,h,NA,h,441,NA,150628,25634,NA,441,2,legacy,1024,2,48000,-16,experiment,SSHSS,4,even,413689,154286,312585,NA,387284,3622,NA,NA,414783,3647,286949,NA,414896,415340,414770,414896,FlankerTask,138,58933,143,yes,1024
96.52777778,96.52777778,411.5763889,411.5763889,black,legacy,legacy,legacy,0,congruent,uniform,1,undefined,1,h,143,0,0,0,143,0,143,0,143,0,0,0,143,143,143,143,Wed Sep 25 09:40:22 2019,600,The main experiment item,yes,FlankerTask.osexp,/Users/kaylicolpitts/Desktop/adv quant/lab 2,no,mono,no,18,no,white,no,yes,768,legacy,63,79,/Users/kaylicolpitts/Desktop/adv quant/lab 2/Kc-subject-4.csv,legacy,Kafkaesque Koffka,3.2.8,0,h,NA,h,h,NA,h,334,NA,150628,25634,NA,334,2,legacy,1024,2,48000,-16,experiment,HHHHH,4,even,415355,154286,312585,NA,387284,3622,NA,NA,416448,3647,286949,NA,416561,416898,416435,416561,FlankerTask,139,59267,144,yes,1024
96.55172414,96.55172414,411.3172414,411.3172414,black,legacy,legacy,legacy,0,congruent,uniform,1,undefined,1,h,144,0,0,0,144,0,144,0,144,0,0,0,144,144,144,144,Wed Sep 25 09:40:22 2019,600,The main experiment item,yes,FlankerTask.osexp,/Users/kaylicolpitts/Desktop/adv quant/lab 2,no,mono,no,18,no,white,no,yes,768,legacy,64,79,/Users/kaylicolpitts/Desktop/adv quant/lab 2/Kc-subject-4.csv,legacy,Kafkaesque Koffka,3.2.8,0,h,NA,h,h,NA,h,374,NA,150628,25634,NA,374,2,legacy,1024,2,48000,-16,experiment,HHHHH,4,even,416913,154286,312585,NA,387284,3622,NA,NA,418005,3647,286949,NA,418117,418494,417994,418117,FlankerTask,140,59641,145,yes,1024
96.57534247,96.57534247,411.0273973,411.0273973,black,legacy,legacy,legacy,0,incongruent,uniform,1,undefined,1,h,145,0,0,0,145,0,145,0,145,0,0,0,145,145,145,145,Wed Sep 25 09:40:22 2019,600,The main experiment item,yes,FlankerTask.osexp,/Users/kaylicolpitts/Desktop/adv quant/lab 2,no,mono,no,18,no,white,no,yes,768,legacy,65,79,/Users/kaylicolpitts/Desktop/adv quant/lab 2/Kc-subject-4.csv,legacy,Kafkaesque Koffka,3.2.8,0,h,NA,h,h,NA,h,369,NA,150628,25634,NA,369,2,legacy,1024,2,48000,-16,experiment,SSHSS,4,even,418509,154286,312585,NA,387284,3622,NA,NA,419607,3647,286949,NA,419719,420091,419594,419719,FlankerTask,141,60010,146,yes,1024
96.59863946,96.59863946,411.2857143,411.2857143,black,legacy,legacy,legacy,0,incongruent,uniform,1,undefined,1,s,146,0,0,0,146,0,146,0,146,0,0,0,146,146,146,146,Wed Sep 25 09:40:22 2019,600,The main experiment item,yes,FlankerTask.osexp,/Users/kaylicolpitts/Desktop/adv quant/lab 2,no,mono,no,18,no,white,no,yes,768,legacy,66,79,/Users/kaylicolpitts/Desktop/adv quant/lab 2/Kc-subject-4.csv,legacy,Kafkaesque Koffka,3.2.8,0,s,NA,h,h,NA,s,449,NA,150628,25634,NA,449,2,legacy,1024,2,48000,-16,experiment,HHSHH,4,even,420106,154286,312585,NA,387284,3622,NA,NA,421201,3647,286949,NA,421313,421765,421188,421313,FlankerTask,142,60459,147,yes,1024
96.62162162,96.62162162,411.6148649,411.6148649,black,legacy,legacy,legacy,0,congruent,uniform,1,undefined,1,h,147,0,0,0,147,0,147,0,147,0,0,0,147,147,147,147,Wed Sep 25 09:40:22 2019,600,The main experiment item,yes,FlankerTask.osexp,/Users/kaylicolpitts/Desktop/adv quant/lab 2,no,mono,no,18,no,white,no,yes,768,legacy,67,79,/Users/kaylicolpitts/Desktop/adv quant/lab 2/Kc-subject-4.csv,legacy,Kafkaesque Koffka,3.2.8,0,h,NA,h,h,NA,h,460,NA,150628,25634,NA,460,2,legacy,1024,2,48000,-16,experiment,HHHHH,4,even,421781,154286,312585,NA,387284,3622,NA,NA,422873,3647,286949,NA,422986,423449,422860,422986,FlankerTask,143,60919,148,yes,1024
96.6442953,96.6442953,412.2818792,412.2818792,black,legacy,legacy,legacy,0,incongruent,uniform,1,undefined,1,s,148,0,0,0,148,0,148,0,148,0,0,0,148,148,148,148,Wed Sep 25 09:40:22 2019,600,The main experiment item,yes,FlankerTask.osexp,/Users/kaylicolpitts/Desktop/adv quant/lab 2,no,mono,no,18,no,white,no,yes,768,legacy,68,79,/Users/kaylicolpitts/Desktop/adv quant/lab 2/Kc-subject-4.csv,legacy,Kafkaesque Koffka,3.2.8,0,s,NA,h,h,NA,s,511,NA,150628,25634,NA,511,2,legacy,1024,2,48000,-16,experiment,HHSHH,4,even,423464,154286,312585,NA,387284,3622,NA,NA,424557,3647,286949,NA,424670,425184,424544,424670,FlankerTask,144,61430,149,yes,1024
96.66666667,96.66666667,411.8333333,411.8333333,black,legacy,legacy,legacy,0,congruent,uniform,1,undefined,1,h,149,0,0,0,149,0,149,0,149,0,0,0,149,149,149,149,Wed Sep 25 09:40:22 2019,600,The main experiment item,yes,FlankerTask.osexp,/Users/kaylicolpitts/Desktop/adv quant/lab 2,no,mono,no,18,no,white,no,yes,768,legacy,69,79,/Users/kaylicolpitts/Desktop/adv quant/lab 2/Kc-subject-4.csv,legacy,Kafkaesque Koffka,3.2.8,0,h,NA,h,h,NA,h,345,NA,150628,25634,NA,345,2,legacy,1024,2,48000,-16,experiment,HHHHH,4,even,425199,154286,312585,NA,387284,3622,NA,NA,426292,3647,286949,NA,426405,426753,426280,426405,FlankerTask,145,61775,150,yes,1024
96.68874172,96.68874172,411.3509934,411.3509934,black,legacy,legacy,legacy,0,congruent,uniform,1,undefined,1,h,150,0,0,0,150,0,150,0,150,0,0,0,150,150,150,150,Wed Sep 25 09:40:22 2019,600,The main experiment item,yes,FlankerTask.osexp,/Users/kaylicolpitts/Desktop/adv quant/lab 2,no,mono,no,18,no,white,no,yes,768,legacy,70,79,/Users/kaylicolpitts/Desktop/adv quant/lab 2/Kc-subject-4.csv,legacy,Kafkaesque Koffka,3.2.8,0,h,NA,h,h,NA,h,339,NA,150628,25634,NA,339,2,legacy,1024,2,48000,-16,experiment,HHHHH,4,even,426768,154286,312585,NA,387284,3622,NA,NA,427862,3647,286949,NA,427975,428317,427850,427974,FlankerTask,146,62114,151,yes,1024
96.71052632,96.71052632,411.875,411.875,black,legacy,legacy,legacy,0,congruent,uniform,1,undefined,1,s,151,0,0,0,151,0,151,0,151,0,0,0,151,151,151,151,Wed Sep 25 09:40:22 2019,600,The main experiment item,yes,FlankerTask.osexp,/Users/kaylicolpitts/Desktop/adv quant/lab 2,no,mono,no,18,no,white,no,yes,768,legacy,71,79,/Users/kaylicolpitts/Desktop/adv quant/lab 2/Kc-subject-4.csv,legacy,Kafkaesque Koffka,3.2.8,0,s,NA,h,h,NA,s,491,NA,150628,25634,NA,491,2,legacy,1024,2,48000,-16,experiment,SSSSS,4,even,428332,154286,312585,NA,387284,3622,NA,NA,429424,3647,286949,NA,429537,430031,429411,429536,FlankerTask,147,62605,152,yes,1024
96.73202614,96.73202614,411.9215686,411.9215686,black,legacy,legacy,legacy,0,congruent,uniform,1,undefined,1,h,152,0,0,0,152,0,152,0,152,0,0,0,152,152,152,152,Wed Sep 25 09:40:22 2019,600,The main experiment item,yes,FlankerTask.osexp,/Users/kaylicolpitts/Desktop/adv quant/lab 2,no,mono,no,18,no,white,no,yes,768,legacy,72,79,/Users/kaylicolpitts/Desktop/adv quant/lab 2/Kc-subject-4.csv,legacy,Kafkaesque Koffka,3.2.8,0,h,NA,h,h,NA,h,419,NA,150628,25634,NA,419,2,legacy,1024,2,48000,-16,experiment,HHHHH,4,even,430046,154286,312585,NA,387284,3622,NA,NA,431139,3647,286949,NA,431252,431674,431126,431252,FlankerTask,148,63024,153,yes,1024
96.75324675,96.75324675,412.3571429,412.3571429,black,legacy,legacy,legacy,0,incongruent,uniform,1,undefined,1,s,153,0,0,0,153,0,153,0,153,0,0,0,153,153,153,153,Wed Sep 25 09:40:22 2019,600,The main experiment item,yes,FlankerTask.osexp,/Users/kaylicolpitts/Desktop/adv quant/lab 2,no,mono,no,18,no,white,no,yes,768,legacy,73,79,/Users/kaylicolpitts/Desktop/adv quant/lab 2/Kc-subject-4.csv,legacy,Kafkaesque Koffka,3.2.8,0,s,NA,h,h,NA,s,479,NA,150628,25634,NA,479,2,legacy,1024,2,48000,-16,experiment,HHSHH,4,even,431689,154286,312585,NA,387284,3622,NA,NA,432783,3647,286949,NA,432896,433378,432771,432896,FlankerTask,149,63503,154,yes,1024
96.77419355,96.77419355,412.0903226,412.0903226,black,legacy,legacy,legacy,0,congruent,uniform,1,undefined,1,s,154,0,0,0,154,0,154,0,154,0,0,0,154,154,154,154,Wed Sep 25 09:40:22 2019,600,The main experiment item,yes,FlankerTask.osexp,/Users/kaylicolpitts/Desktop/adv quant/lab 2,no,mono,no,18,no,white,no,yes,768,legacy,74,79,/Users/kaylicolpitts/Desktop/adv quant/lab 2/Kc-subject-4.csv,legacy,Kafkaesque Koffka,3.2.8,0,s,NA,h,h,NA,s,371,NA,150628,25634,NA,371,2,legacy,1024,2,48000,-16,experiment,SSSSS,4,even,433393,154286,312585,NA,387284,3622,NA,NA,434486,3647,286949,NA,434599,434973,434474,434599,FlankerTask,150,63874,155,yes,1024
96.79487179,96.79487179,412.0705128,412.0705128,black,legacy,legacy,legacy,0,incongruent,uniform,1,undefined,1,h,155,0,0,0,155,0,155,0,155,0,0,0,155,155,155,155,Wed Sep 25 09:40:22 2019,600,The main experiment item,yes,FlankerTask.osexp,/Users/kaylicolpitts/Desktop/adv quant/lab 2,no,mono,no,18,no,white,no,yes,768,legacy,75,79,/Users/kaylicolpitts/Desktop/adv quant/lab 2/Kc-subject-4.csv,legacy,Kafkaesque Koffka,3.2.8,0,h,NA,h,h,NA,h,409,NA,150628,25634,NA,409,2,legacy,1024,2,48000,-16,experiment,SSHSS,4,even,434987,154286,312585,NA,387284,3622,NA,NA,436079,3647,286949,NA,436192,436604,436066,436192,FlankerTask,151,64283,156,yes,1024
96.81528662,96.81528662,411.6242038,411.6242038,black,legacy,legacy,legacy,0,congruent,uniform,1,undefined,1,h,156,0,0,0,156,0,156,0,156,0,0,0,156,156,156,156,Wed Sep 25 09:40:22 2019,600,The main experiment item,yes,FlankerTask.osexp,/Users/kaylicolpitts/Desktop/adv quant/lab 2,no,mono,no,18,no,white,no,yes,768,legacy,76,79,/Users/kaylicolpitts/Desktop/adv quant/lab 2/Kc-subject-4.csv,legacy,Kafkaesque Koffka,3.2.8,0,h,NA,h,h,NA,h,342,NA,150628,25634,NA,342,2,legacy,1024,2,48000,-16,experiment,HHHHH,4,even,436618,154286,312585,NA,387284,3622,NA,NA,437710,3647,286949,NA,437823,438168,437698,437823,FlankerTask,152,64625,157,yes,1024
