acc,accuracy,average_response_time,avg_rt,background,canvas_backend,clock_backend,color_backend,compensation,condition,coordinates,correct,correct_instructions1,correct_keyboard_response,correct_response,count_Block1,count_Block2,count_Block3,count_ISI,count_errorFeedback,count_experiment,count_faster,count_finish,count_fixation,count_instruction2,count_instructions1,count_instructions3,count_keyboard_response,count_logger,count_sequence,count_stimulus,datetime,deadline,description,disable_garbage_collection,experiment_file,experiment_path,font_bold,font_family,font_italic,font_size,font_underline,foreground,form_clicks,fullscreen,height,keyboard_backend,live_row,live_row_Block1,logfile,mouse_backend,opensesame_codename,opensesame_version,repeat_cycle,response,response_finish,response_instruction2,response_instructions1,response_instructions3,response_keyboard_response,response_time,response_time_finish,response_time_instruction2,response_time_instructions1,response_time_instructions3,response_time_keyboard_response,round_decimals,sampler_backend,sound_buf_size,sound_channels,sound_freq,sound_sample_size,start,stimulus,subject_nr,subject_parity,time_Block1,time_Block2,time_Block3,time_ISI,time_errorFeedback,time_experiment,time_faster,time_finish,time_fixation,time_instruction2,time_instructions1,time_instructions3,time_keyboard_response,time_logger,time_sequence,time_stimulus,title,total_correct,total_response_time,total_responses,uniform_coordinates,width
100,100,1237,1237,black,legacy,legacy,legacy,0,incongruent,uniform,1,undefined,1,h,0,0,0,0,0,0,0,0,0,0,0,0,0,0,0,0,Fri Sep 20 12:06:06 2019,1500,The main experiment item,yes,CB-FlankerTask-Lab1.2.osexp,/Users/cristianbotello/Desktop/Advanced Quant,no,mono,no,18,no,white,no,no,768,legacy,0,0,/Users/cristianbotello/Desktop/Advanced Quant/CB-subject-4.csv,legacy,Kafkaesque Koffka,3.2.8,0,h,NA,NA,h,NA,h,1237,NA,NA,58439,NA,1237,2,legacy,1024,2,48000,-16,experiment,SSHSS,4,even,61661,NA,NA,NA,NA,3176,NA,NA,61783,NA,3211,NA,61899,63137,61771,61899,Flanker Task,1,1237,1,yes,1024
100,100,1185.5,1185.5,black,legacy,legacy,legacy,0,congruent,uniform,1,undefined,1,h,0,0,0,1,1,0,1,0,1,0,0,0,1,1,1,1,Fri Sep 20 12:06:06 2019,1500,The main experiment item,yes,CB-FlankerTask-Lab1.2.osexp,/Users/cristianbotello/Desktop/Advanced Quant,no,mono,no,18,no,white,no,no,768,legacy,1,1,/Users/cristianbotello/Desktop/Advanced Quant/CB-subject-4.csv,legacy,Kafkaesque Koffka,3.2.8,0,h,NA,NA,h,NA,h,1134,NA,NA,58439,NA,1134,2,legacy,1024,2,48000,-16,experiment,HHHHH,4,even,61661,NA,NA,63165,NA,3176,NA,NA,64292,NA,3211,NA,64407,65543,64280,64407,Flanker Task,2,2371,2,yes,1024
100,100,1062.666667,1062.666667,black,legacy,legacy,legacy,0,congruent,uniform,1,undefined,1,h,0,0,0,2,2,0,2,0,2,0,0,0,2,2,2,2,Fri Sep 20 12:06:06 2019,1500,The main experiment item,yes,CB-FlankerTask-Lab1.2.osexp,/Users/cristianbotello/Desktop/Advanced Quant,no,mono,no,18,no,white,no,no,768,legacy,2,2,/Users/cristianbotello/Desktop/Advanced Quant/CB-subject-4.csv,legacy,Kafkaesque Koffka,3.2.8,0,h,NA,NA,h,NA,h,817,NA,NA,58439,NA,817,2,legacy,1024,2,48000,-16,experiment,HHHHH,4,even,61661,NA,NA,65564,NA,3176,NA,NA,66683,NA,3211,NA,66798,67617,66671,66798,Flanker Task,3,3188,3,yes,1024
100,100,986.5,986.5,black,legacy,legacy,legacy,0,congruent,uniform,1,undefined,1,h,0,0,0,3,3,0,3,0,3,0,0,0,3,3,3,3,Fri Sep 20 12:06:06 2019,1500,The main experiment item,yes,CB-FlankerTask-Lab1.2.osexp,/Users/cristianbotello/Desktop/Advanced Quant,no,mono,no,18,no,white,no,no,768,legacy,3,3,/Users/cristianbotello/Desktop/Advanced Quant/CB-subject-4.csv,legacy,Kafkaesque Koffka,3.2.8,0,h,NA,NA,h,NA,h,758,NA,NA,58439,NA,758,2,legacy,1024,2,48000,-16,experiment,HHHHH,4,even,61661,NA,NA,67633,NA,3176,NA,NA,68757,NA,3211,NA,68872,69632,68746,68871,Flanker Task,4,3946,4,yes,1024
100,100,934.2,934.2,black,legacy,legacy,legacy,0,congruent,uniform,1,undefined,1,h,0,0,0,4,4,0,4,0,4,0,0,0,4,4,4,4,Fri Sep 20 12:06:06 2019,1500,The main experiment item,yes,CB-FlankerTask-Lab1.2.osexp,/Users/cristianbotello/Desktop/Advanced Quant,no,mono,no,18,no,white,no,no,768,legacy,4,4,/Users/cristianbotello/Desktop/Advanced Quant/CB-subject-4.csv,legacy,Kafkaesque Koffka,3.2.8,0,h,NA,NA,h,NA,h,725,NA,NA,58439,NA,725,2,legacy,1024,2,48000,-16,experiment,HHHHH,4,even,61661,NA,NA,69646,NA,3176,NA,NA,70750,NA,3211,NA,70865,71592,70738,70865,Flanker Task,5,4671,5,yes,1024
100,100,902.8333333,902.8333333,black,legacy,legacy,legacy,0,incongruent,uniform,1,undefined,1,h,0,0,0,5,5,0,5,0,5,0,0,0,5,5,5,5,Fri Sep 20 12:06:06 2019,1500,The main experiment item,yes,CB-FlankerTask-Lab1.2.osexp,/Users/cristianbotello/Desktop/Advanced Quant,no,mono,no,18,no,white,no,no,768,legacy,5,5,/Users/cristianbotello/Desktop/Advanced Quant/CB-subject-4.csv,legacy,Kafkaesque Koffka,3.2.8,0,h,NA,NA,h,NA,h,746,NA,NA,58439,NA,746,2,legacy,1024,2,48000,-16,experiment,SSHSS,4,even,61661,NA,NA,71607,NA,3176,NA,NA,72707,NA,3211,NA,72819,73566,72695,72818,Flanker Task,6,5417,6,yes,1024
100,100,879.8571429,879.8571429,black,legacy,legacy,legacy,0,incongruent,uniform,1,undefined,1,h,0,0,0,6,6,0,6,0,6,0,0,0,6,6,6,6,Fri Sep 20 12:06:06 2019,1500,The main experiment item,yes,CB-FlankerTask-Lab1.2.osexp,/Users/cristianbotello/Desktop/Advanced Quant,no,mono,no,18,no,white,no,no,768,legacy,6,6,/Users/cristianbotello/Desktop/Advanced Quant/CB-subject-4.csv,legacy,Kafkaesque Koffka,3.2.8,0,h,NA,NA,h,NA,h,742,NA,NA,58439,NA,742,2,legacy,1024,2,48000,-16,experiment,SSHSS,4,even,61661,NA,NA,73581,NA,3176,NA,NA,74681,NA,3211,NA,74797,75540,74669,74797,Flanker Task,7,6159,7,yes,1024
100,100,863.25,863.25,black,legacy,legacy,legacy,0,incongruent,uniform,1,undefined,1,s,0,0,0,7,7,0,7,0,7,0,0,0,7,7,7,7,Fri Sep 20 12:06:06 2019,1500,The main experiment item,yes,CB-FlankerTask-Lab1.2.osexp,/Users/cristianbotello/Desktop/Advanced Quant,no,mono,no,18,no,white,no,no,768,legacy,7,7,/Users/cristianbotello/Desktop/Advanced Quant/CB-subject-4.csv,legacy,Kafkaesque Koffka,3.2.8,0,s,NA,NA,h,NA,s,747,NA,NA,58439,NA,747,2,legacy,1024,2,48000,-16,experiment,HHSHH,4,even,61661,NA,NA,75568,NA,3176,NA,NA,76691,NA,3211,NA,76807,77555,76679,76806,Flanker Task,8,6906,8,yes,1024
100,100,830.3333333,830.3333333,black,legacy,legacy,legacy,0,congruent,uniform,1,undefined,1,s,0,0,0,8,8,0,8,0,8,0,0,0,8,8,8,8,Fri Sep 20 12:06:06 2019,1500,The main experiment item,yes,CB-FlankerTask-Lab1.2.osexp,/Users/cristianbotello/Desktop/Advanced Quant,no,mono,no,18,no,white,no,no,768,legacy,8,8,/Users/cristianbotello/Desktop/Advanced Quant/CB-subject-4.csv,legacy,Kafkaesque Koffka,3.2.8,0,s,NA,NA,h,NA,s,567,NA,NA,58439,NA,567,2,legacy,1024,2,48000,-16,experiment,SSSSS,4,even,61661,NA,NA,77571,NA,3176,NA,NA,78676,NA,3211,NA,78791,79360,78663,78791,Flanker Task,9,7473,9,yes,1024
100,100,825.3,825.3,black,legacy,legacy,legacy,0,incongruent,uniform,1,undefined,1,s,0,0,0,9,9,0,9,0,9,0,0,0,9,9,9,9,Fri Sep 20 12:06:06 2019,1500,The main experiment item,yes,CB-FlankerTask-Lab1.2.osexp,/Users/cristianbotello/Desktop/Advanced Quant,no,mono,no,18,no,white,no,no,768,legacy,9,9,/Users/cristianbotello/Desktop/Advanced Quant/CB-subject-4.csv,legacy,Kafkaesque Koffka,3.2.8,0,s,NA,NA,h,NA,s,780,NA,NA,58439,NA,780,2,legacy,1024,2,48000,-16,experiment,HHSHH,4,even,61661,NA,NA,79374,NA,3176,NA,NA,80475,NA,3211,NA,80590,81372,80463,80590,Flanker Task,10,8253,10,yes,1024
100,100,804.2727273,804.2727273,black,legacy,legacy,legacy,0,incongruent,uniform,1,undefined,1,s,0,0,0,10,10,0,10,0,10,0,0,0,10,10,10,10,Fri Sep 20 12:06:06 2019,1500,The main experiment item,yes,CB-FlankerTask-Lab1.2.osexp,/Users/cristianbotello/Desktop/Advanced Quant,no,mono,no,18,no,white,no,no,768,legacy,10,10,/Users/cristianbotello/Desktop/Advanced Quant/CB-subject-4.csv,legacy,Kafkaesque Koffka,3.2.8,0,s,NA,NA,h,NA,s,594,NA,NA,58439,NA,594,2,legacy,1024,2,48000,-16,experiment,HHSHH,4,even,61661,NA,NA,81390,NA,3176,NA,NA,82507,NA,3211,NA,82623,83219,82495,82623,Flanker Task,11,8847,11,yes,1024
100,100,795.9166667,795.9166667,black,legacy,legacy,legacy,0,incongruent,uniform,1,undefined,1,h,0,0,0,11,11,0,11,0,11,0,0,0,11,11,11,11,Fri Sep 20 12:06:06 2019,1500,The main experiment item,yes,CB-FlankerTask-Lab1.2.osexp,/Users/cristianbotello/Desktop/Advanced Quant,no,mono,no,18,no,white,no,no,768,legacy,11,11,/Users/cristianbotello/Desktop/Advanced Quant/CB-subject-4.csv,legacy,Kafkaesque Koffka,3.2.8,0,h,NA,NA,h,NA,h,704,NA,NA,58439,NA,704,2,legacy,1024,2,48000,-16,experiment,SSHSS,4,even,61661,NA,NA,83234,NA,3176,NA,NA,84335,NA,3211,NA,84450,85156,84323,84450,Flanker Task,12,9551,12,yes,1024
100,100,779.5384615,779.5384615,black,legacy,legacy,legacy,0,incongruent,uniform,1,undefined,1,s,0,0,0,12,12,0,12,0,12,0,0,0,12,12,12,12,Fri Sep 20 12:06:06 2019,1500,The main experiment item,yes,CB-FlankerTask-Lab1.2.osexp,/Users/cristianbotello/Desktop/Advanced Quant,no,mono,no,18,no,white,no,no,768,legacy,12,12,/Users/cristianbotello/Desktop/Advanced Quant/CB-subject-4.csv,legacy,Kafkaesque Koffka,3.2.8,0,s,NA,NA,h,NA,s,583,NA,NA,58439,NA,583,2,legacy,1024,2,48000,-16,experiment,HHSHH,4,even,61661,NA,NA,85172,NA,3176,NA,NA,86287,NA,3211,NA,86402,86987,86274,86401,Flanker Task,13,10134,13,yes,1024
100,100,761.5714286,761.5714286,black,legacy,legacy,legacy,0,incongruent,uniform,1,undefined,1,s,0,0,0,13,13,0,13,0,13,0,0,0,13,13,13,13,Fri Sep 20 12:06:06 2019,1500,The main experiment item,yes,CB-FlankerTask-Lab1.2.osexp,/Users/cristianbotello/Desktop/Advanced Quant,no,mono,no,18,no,white,no,no,768,legacy,13,13,/Users/cristianbotello/Desktop/Advanced Quant/CB-subject-4.csv,legacy,Kafkaesque Koffka,3.2.8,0,s,NA,NA,h,NA,s,528,NA,NA,58439,NA,528,2,legacy,1024,2,48000,-16,experiment,HHSHH,4,even,61661,NA,NA,87001,NA,3176,NA,NA,88103,NA,3211,NA,88218,88748,88091,88218,Flanker Task,14,10662,14,yes,1024
100,100,754.7333333,754.7333333,black,legacy,legacy,legacy,0,incongruent,uniform,1,undefined,1,s,0,0,0,14,14,0,14,0,14,0,0,0,14,14,14,14,Fri Sep 20 12:06:06 2019,1500,The main experiment item,yes,CB-FlankerTask-Lab1.2.osexp,/Users/cristianbotello/Desktop/Advanced Quant,no,mono,no,18,no,white,no,no,768,legacy,14,14,/Users/cristianbotello/Desktop/Advanced Quant/CB-subject-4.csv,legacy,Kafkaesque Koffka,3.2.8,0,s,NA,NA,h,NA,s,659,NA,NA,58439,NA,659,2,legacy,1024,2,48000,-16,experiment,HHSHH,4,even,61661,NA,NA,88770,NA,3176,NA,NA,89893,NA,3211,NA,90008,90668,89881,90007,Flanker Task,15,11321,15,yes,1024
100,100,751.4375,751.4375,black,legacy,legacy,legacy,0,incongruent,uniform,1,undefined,1,s,0,0,0,15,15,0,15,0,15,0,0,0,15,15,15,15,Fri Sep 20 12:06:06 2019,1500,The main experiment item,yes,CB-FlankerTask-Lab1.2.osexp,/Users/cristianbotello/Desktop/Advanced Quant,no,mono,no,18,no,white,no,no,768,legacy,15,15,/Users/cristianbotello/Desktop/Advanced Quant/CB-subject-4.csv,legacy,Kafkaesque Koffka,3.2.8,0,s,NA,NA,h,NA,s,702,NA,NA,58439,NA,702,2,legacy,1024,2,48000,-16,experiment,HHSHH,4,even,61661,NA,NA,90683,NA,3176,NA,NA,91783,NA,3211,NA,91895,92598,91772,91895,Flanker Task,16,12023,16,yes,1024
100,100,737.0588235,737.0588235,black,legacy,legacy,legacy,0,congruent,uniform,1,undefined,1,s,0,0,0,16,16,0,16,0,16,0,0,0,16,16,16,16,Fri Sep 20 12:06:06 2019,1500,The main experiment item,yes,CB-FlankerTask-Lab1.2.osexp,/Users/cristianbotello/Desktop/Advanced Quant,no,mono,no,18,no,white,no,no,768,legacy,16,16,/Users/cristianbotello/Desktop/Advanced Quant/CB-subject-4.csv,legacy,Kafkaesque Koffka,3.2.8,0,s,NA,NA,h,NA,s,507,NA,NA,58439,NA,507,2,legacy,1024,2,48000,-16,experiment,SSSSS,4,even,61661,NA,NA,92613,NA,3176,NA,NA,93714,NA,3211,NA,93830,94338,93702,93830,Flanker Task,17,12530,17,yes,1024
100,100,732.2222222,732.2222222,black,legacy,legacy,legacy,0,incongruent,uniform,1,undefined,1,h,0,0,0,17,17,0,17,0,17,0,0,0,17,17,17,17,Fri Sep 20 12:06:06 2019,1500,The main experiment item,yes,CB-FlankerTask-Lab1.2.osexp,/Users/cristianbotello/Desktop/Advanced Quant,no,mono,no,18,no,white,no,no,768,legacy,17,17,/Users/cristianbotello/Desktop/Advanced Quant/CB-subject-4.csv,legacy,Kafkaesque Koffka,3.2.8,0,h,NA,NA,h,NA,h,650,NA,NA,58439,NA,650,2,legacy,1024,2,48000,-16,experiment,SSHSS,4,even,61661,NA,NA,94357,NA,3176,NA,NA,95480,NA,3211,NA,95596,96247,95468,95596,Flanker Task,18,13180,18,yes,1024
100,100,721.4736842,721.4736842,black,legacy,legacy,legacy,0,congruent,uniform,1,undefined,1,s,0,0,0,18,18,0,18,0,18,0,0,0,18,18,18,18,Fri Sep 20 12:06:06 2019,1500,The main experiment item,yes,CB-FlankerTask-Lab1.2.osexp,/Users/cristianbotello/Desktop/Advanced Quant,no,mono,no,18,no,white,no,no,768,legacy,18,18,/Users/cristianbotello/Desktop/Advanced Quant/CB-subject-4.csv,legacy,Kafkaesque Koffka,3.2.8,0,s,NA,NA,h,NA,s,528,NA,NA,58439,NA,528,2,legacy,1024,2,48000,-16,experiment,SSSSS,4,even,61661,NA,NA,96262,NA,3176,NA,NA,97362,NA,3211,NA,97475,98005,97350,97475,Flanker Task,19,13708,19,yes,1024
100,100,707.95,707.95,black,legacy,legacy,legacy,0,congruent,uniform,1,undefined,1,h,0,0,0,19,19,0,19,0,19,0,0,0,19,19,19,19,Fri Sep 20 12:06:06 2019,1500,The main experiment item,yes,CB-FlankerTask-Lab1.2.osexp,/Users/cristianbotello/Desktop/Advanced Quant,no,mono,no,18,no,white,no,no,768,legacy,19,19,/Users/cristianbotello/Desktop/Advanced Quant/CB-subject-4.csv,legacy,Kafkaesque Koffka,3.2.8,0,h,NA,NA,h,NA,h,451,NA,NA,58439,NA,451,2,legacy,1024,2,48000,-16,experiment,HHHHH,4,even,61661,NA,NA,98020,NA,3176,NA,NA,99122,NA,3211,NA,99237,99690,99110,99237,Flanker Task,20,14159,20,yes,1024
100,100,698.3333333,698.3333333,black,legacy,legacy,legacy,0,congruent,uniform,1,undefined,1,h,0,0,0,20,20,0,20,0,20,0,0,0,20,20,20,20,Fri Sep 20 12:06:06 2019,1500,The main experiment item,yes,CB-FlankerTask-Lab1.2.osexp,/Users/cristianbotello/Desktop/Advanced Quant,no,mono,no,18,no,white,no,no,768,legacy,20,20,/Users/cristianbotello/Desktop/Advanced Quant/CB-subject-4.csv,legacy,Kafkaesque Koffka,3.2.8,0,h,NA,NA,h,NA,h,506,NA,NA,58439,NA,506,2,legacy,1024,2,48000,-16,experiment,HHHHH,4,even,61661,NA,NA,99710,NA,3176,NA,NA,100838,NA,3211,NA,100954,101462,100826,100953,Flanker Task,21,14665,21,yes,1024
100,100,695.4090909,695.4090909,black,legacy,legacy,legacy,0,incongruent,uniform,1,undefined,1,h,0,0,0,21,21,0,21,0,21,0,0,0,21,21,21,21,Fri Sep 20 12:06:06 2019,1500,The main experiment item,yes,CB-FlankerTask-Lab1.2.osexp,/Users/cristianbotello/Desktop/Advanced Quant,no,mono,no,18,no,white,no,no,768,legacy,21,21,/Users/cristianbotello/Desktop/Advanced Quant/CB-subject-4.csv,legacy,Kafkaesque Koffka,3.2.8,0,h,NA,NA,h,NA,h,634,NA,NA,58439,NA,634,2,legacy,1024,2,48000,-16,experiment,SSHSS,4,even,61661,NA,NA,101477,NA,3176,NA,NA,102578,NA,3211,NA,102693,103329,102565,102693,Flanker Task,22,15299,22,yes,1024
95.65217391,95.65217391,683.6956522,683.6956522,black,legacy,legacy,legacy,0,incongruent,uniform,0,undefined,0,s,0,0,0,22,22,0,22,0,22,0,0,0,22,22,22,22,Fri Sep 20 12:06:06 2019,1500,The main experiment item,yes,CB-FlankerTask-Lab1.2.osexp,/Users/cristianbotello/Desktop/Advanced Quant,no,mono,no,18,no,white,no,no,768,legacy,22,22,/Users/cristianbotello/Desktop/Advanced Quant/CB-subject-4.csv,legacy,Kafkaesque Koffka,3.2.8,0,h,NA,NA,h,NA,h,426,NA,NA,58439,NA,426,2,legacy,1024,2,48000,-16,experiment,HHSHH,4,even,61661,NA,NA,103350,NA,3176,NA,NA,104474,NA,3211,NA,104589,105017,104462,104589,Flanker Task,22,15725,23,yes,1024
95.83333333,95.83333333,678.625,678.625,black,legacy,legacy,legacy,0,congruent,uniform,1,undefined,1,h,0,0,0,23,23,0,23,0,23,0,0,0,23,23,23,23,Fri Sep 20 12:06:06 2019,1500,The main experiment item,yes,CB-FlankerTask-Lab1.2.osexp,/Users/cristianbotello/Desktop/Advanced Quant,no,mono,no,18,no,white,no,no,768,legacy,23,23,/Users/cristianbotello/Desktop/Advanced Quant/CB-subject-4.csv,legacy,Kafkaesque Koffka,3.2.8,0,h,NA,NA,h,NA,h,562,NA,NA,58439,NA,562,2,legacy,1024,2,48000,-16,experiment,HHHHH,4,even,61661,NA,NA,105543,105032,3176,NA,NA,106643,NA,3211,NA,106759,107323,106632,106759,Flanker Task,23,16287,24,yes,1024
96,96,672.52,672.52,black,legacy,legacy,legacy,0,incongruent,uniform,1,undefined,1,s,0,0,0,24,24,0,24,0,24,0,0,0,24,24,24,24,Fri Sep 20 12:06:06 2019,1500,The main experiment item,yes,CB-FlankerTask-Lab1.2.osexp,/Users/cristianbotello/Desktop/Advanced Quant,no,mono,no,18,no,white,no,no,768,legacy,24,24,/Users/cristianbotello/Desktop/Advanced Quant/CB-subject-4.csv,legacy,Kafkaesque Koffka,3.2.8,0,s,NA,NA,h,NA,s,526,NA,NA,58439,NA,526,2,legacy,1024,2,48000,-16,experiment,HHSHH,4,even,61661,NA,NA,107339,105032,3176,NA,NA,108440,NA,3211,NA,108552,109079,108428,108552,Flanker Task,24,16813,25,yes,1024
96.15384615,96.15384615,665.8461538,665.8461538,black,legacy,legacy,legacy,0,incongruent,uniform,1,undefined,1,h,0,0,0,25,25,0,25,0,25,0,0,0,25,25,25,25,Fri Sep 20 12:06:06 2019,1500,The main experiment item,yes,CB-FlankerTask-Lab1.2.osexp,/Users/cristianbotello/Desktop/Advanced Quant,no,mono,no,18,no,white,no,no,768,legacy,25,25,/Users/cristianbotello/Desktop/Advanced Quant/CB-subject-4.csv,legacy,Kafkaesque Koffka,3.2.8,0,h,NA,NA,h,NA,h,499,NA,NA,58439,NA,499,2,legacy,1024,2,48000,-16,experiment,SSHSS,4,even,61661,NA,NA,109096,105032,3176,NA,NA,110197,NA,3211,NA,110313,110813,110184,110312,Flanker Task,25,17312,26,yes,1024
96.2962963,96.2962963,660.1851852,660.1851852,black,legacy,legacy,legacy,0,congruent,uniform,1,undefined,1,h,0,0,0,26,26,0,26,0,26,0,0,0,26,26,26,26,Fri Sep 20 12:06:06 2019,1500,The main experiment item,yes,CB-FlankerTask-Lab1.2.osexp,/Users/cristianbotello/Desktop/Advanced Quant,no,mono,no,18,no,white,no,no,768,legacy,26,26,/Users/cristianbotello/Desktop/Advanced Quant/CB-subject-4.csv,legacy,Kafkaesque Koffka,3.2.8,0,h,NA,NA,h,NA,h,513,NA,NA,58439,NA,513,2,legacy,1024,2,48000,-16,experiment,HHHHH,4,even,61661,NA,NA,110837,105032,3176,NA,NA,111962,NA,3211,NA,112076,112591,111950,112076,Flanker Task,26,17825,27,yes,1024
96.42857143,96.42857143,655.1428571,655.1428571,black,legacy,legacy,legacy,0,incongruent,uniform,1,undefined,1,s,0,0,0,27,27,0,27,0,27,0,0,0,27,27,27,27,Fri Sep 20 12:06:06 2019,1500,The main experiment item,yes,CB-FlankerTask-Lab1.2.osexp,/Users/cristianbotello/Desktop/Advanced Quant,no,mono,no,18,no,white,no,no,768,legacy,27,27,/Users/cristianbotello/Desktop/Advanced Quant/CB-subject-4.csv,legacy,Kafkaesque Koffka,3.2.8,0,s,NA,NA,h,NA,s,519,NA,NA,58439,NA,519,2,legacy,1024,2,48000,-16,experiment,HHSHH,4,even,61661,NA,NA,112606,105032,3176,NA,NA,113707,NA,3211,NA,113823,114344,113695,113822,Flanker Task,27,18344,28,yes,1024
96.55172414,96.55172414,647.2758621,647.2758621,black,legacy,legacy,legacy,0,congruent,uniform,1,undefined,1,s,0,0,0,28,28,0,28,0,28,0,0,0,28,28,28,28,Fri Sep 20 12:06:06 2019,1500,The main experiment item,yes,CB-FlankerTask-Lab1.2.osexp,/Users/cristianbotello/Desktop/Advanced Quant,no,mono,no,18,no,white,no,no,768,legacy,28,28,/Users/cristianbotello/Desktop/Advanced Quant/CB-subject-4.csv,legacy,Kafkaesque Koffka,3.2.8,0,s,NA,NA,h,NA,s,427,NA,NA,58439,NA,427,2,legacy,1024,2,48000,-16,experiment,SSSSS,4,even,61661,NA,NA,114361,105032,3176,NA,NA,115485,NA,3211,NA,115597,116026,115473,115597,Flanker Task,28,18771,29,yes,1024
96.66666667,96.66666667,639.8,639.8,black,legacy,legacy,legacy,0,congruent,uniform,1,undefined,1,h,0,0,0,29,29,0,29,0,29,0,0,0,29,29,29,29,Fri Sep 20 12:06:06 2019,1500,The main experiment item,yes,CB-FlankerTask-Lab1.2.osexp,/Users/cristianbotello/Desktop/Advanced Quant,no,mono,no,18,no,white,no,no,768,legacy,29,29,/Users/cristianbotello/Desktop/Advanced Quant/CB-subject-4.csv,legacy,Kafkaesque Koffka,3.2.8,0,h,NA,NA,h,NA,h,423,NA,NA,58439,NA,423,2,legacy,1024,2,48000,-16,experiment,HHHHH,4,even,61661,NA,NA,116041,105032,3176,NA,NA,117141,NA,3211,NA,117257,117682,117129,117257,Flanker Task,29,19194,30,yes,1024
96.77419355,96.77419355,636.4193548,636.4193548,black,legacy,legacy,legacy,0,congruent,uniform,1,undefined,1,s,0,0,0,30,30,0,30,0,30,0,0,0,30,30,30,30,Fri Sep 20 12:06:06 2019,1500,The main experiment item,yes,CB-FlankerTask-Lab1.2.osexp,/Users/cristianbotello/Desktop/Advanced Quant,no,mono,no,18,no,white,no,no,768,legacy,30,30,/Users/cristianbotello/Desktop/Advanced Quant/CB-subject-4.csv,legacy,Kafkaesque Koffka,3.2.8,0,s,NA,NA,h,NA,s,535,NA,NA,58439,NA,535,2,legacy,1024,2,48000,-16,experiment,SSSSS,4,even,61661,NA,NA,117699,105032,3176,NA,NA,118821,NA,3211,NA,118936,119473,118808,118936,Flanker Task,30,19729,31,yes,1024
96.875,96.875,633.0625,633.0625,black,legacy,legacy,legacy,0,congruent,uniform,1,undefined,1,s,0,0,0,31,31,0,31,0,31,0,0,0,31,31,31,31,Fri Sep 20 12:06:06 2019,1500,The main experiment item,yes,CB-FlankerTask-Lab1.2.osexp,/Users/cristianbotello/Desktop/Advanced Quant,no,mono,no,18,no,white,no,no,768,legacy,31,31,/Users/cristianbotello/Desktop/Advanced Quant/CB-subject-4.csv,legacy,Kafkaesque Koffka,3.2.8,0,s,NA,NA,h,NA,s,529,NA,NA,58439,NA,529,2,legacy,1024,2,48000,-16,experiment,SSSSS,4,even,61661,NA,NA,119488,105032,3176,NA,NA,120589,NA,3211,NA,120704,121236,120577,120704,Flanker Task,31,20258,32,yes,1024
96.96969697,96.96969697,636.1818182,636.1818182,black,legacy,legacy,legacy,0,incongruent,uniform,1,undefined,1,s,0,0,0,32,32,0,32,0,32,0,0,0,32,32,32,32,Fri Sep 20 12:06:06 2019,1500,The main experiment item,yes,CB-FlankerTask-Lab1.2.osexp,/Users/cristianbotello/Desktop/Advanced Quant,no,mono,no,18,no,white,no,no,768,legacy,32,32,/Users/cristianbotello/Desktop/Advanced Quant/CB-subject-4.csv,legacy,Kafkaesque Koffka,3.2.8,0,s,NA,NA,h,NA,s,736,NA,NA,58439,NA,736,2,legacy,1024,2,48000,-16,experiment,HHSHH,4,even,61661,NA,NA,121258,105032,3176,NA,NA,122382,NA,3211,NA,122497,123235,122369,122497,Flanker Task,32,20994,33,yes,1024
97.05882353,97.05882353,636.7352941,636.7352941,black,legacy,legacy,legacy,0,congruent,uniform,1,undefined,1,s,0,0,0,33,33,0,33,0,33,0,0,0,33,33,33,33,Fri Sep 20 12:06:06 2019,1500,The main experiment item,yes,CB-FlankerTask-Lab1.2.osexp,/Users/cristianbotello/Desktop/Advanced Quant,no,mono,no,18,no,white,no,no,768,legacy,33,33,/Users/cristianbotello/Desktop/Advanced Quant/CB-subject-4.csv,legacy,Kafkaesque Koffka,3.2.8,0,s,NA,NA,h,NA,s,655,NA,NA,58439,NA,655,2,legacy,1024,2,48000,-16,experiment,SSSSS,4,even,61661,NA,NA,123249,105032,3176,NA,NA,124358,NA,3211,NA,124473,125129,124337,124473,Flanker Task,33,21649,34,yes,1024
97.14285714,97.14285714,631.7142857,631.7142857,black,legacy,legacy,legacy,0,congruent,uniform,1,undefined,1,s,0,0,0,34,34,0,34,0,34,0,0,0,34,34,34,34,Fri Sep 20 12:06:06 2019,1500,The main experiment item,yes,CB-FlankerTask-Lab1.2.osexp,/Users/cristianbotello/Desktop/Advanced Quant,no,mono,no,18,no,white,no,no,768,legacy,34,34,/Users/cristianbotello/Desktop/Advanced Quant/CB-subject-4.csv,legacy,Kafkaesque Koffka,3.2.8,0,s,NA,NA,h,NA,s,461,NA,NA,58439,NA,461,2,legacy,1024,2,48000,-16,experiment,SSSSS,4,even,61661,NA,NA,125144,105032,3176,NA,NA,126245,NA,3211,NA,126360,126824,126232,126360,Flanker Task,34,22110,35,yes,1024
97.22222222,97.22222222,634.9444444,634.9444444,black,legacy,legacy,legacy,0,congruent,uniform,1,undefined,1,h,0,0,0,35,35,0,35,0,35,0,0,0,35,35,35,35,Fri Sep 20 12:06:06 2019,1500,The main experiment item,yes,CB-FlankerTask-Lab1.2.osexp,/Users/cristianbotello/Desktop/Advanced Quant,no,mono,no,18,no,white,no,no,768,legacy,35,35,/Users/cristianbotello/Desktop/Advanced Quant/CB-subject-4.csv,legacy,Kafkaesque Koffka,3.2.8,0,h,NA,NA,h,NA,h,748,NA,NA,58439,NA,748,2,legacy,1024,2,48000,-16,experiment,HHHHH,4,even,61661,NA,NA,126840,105032,3176,NA,NA,127976,NA,3211,NA,128092,128841,127963,128092,Flanker Task,35,22858,36,yes,1024
97.2972973,97.2972973,636.5405405,636.5405405,black,legacy,legacy,legacy,0,incongruent,uniform,1,undefined,1,h,0,0,0,36,36,0,36,0,36,0,0,0,36,36,36,36,Fri Sep 20 12:06:06 2019,1500,The main experiment item,yes,CB-FlankerTask-Lab1.2.osexp,/Users/cristianbotello/Desktop/Advanced Quant,no,mono,no,18,no,white,no,no,768,legacy,36,36,/Users/cristianbotello/Desktop/Advanced Quant/CB-subject-4.csv,legacy,Kafkaesque Koffka,3.2.8,0,h,NA,NA,h,NA,h,694,NA,NA,58439,NA,694,2,legacy,1024,2,48000,-16,experiment,SSHSS,4,even,61661,NA,NA,128856,105032,3176,NA,NA,129964,NA,3211,NA,130079,130775,129951,130079,Flanker Task,36,23552,37,yes,1024
97.36842105,97.36842105,632.4210526,632.4210526,black,legacy,legacy,legacy,0,congruent,uniform,1,undefined,1,s,0,0,0,37,37,0,37,0,37,0,0,0,37,37,37,37,Fri Sep 20 12:06:06 2019,1500,The main experiment item,yes,CB-FlankerTask-Lab1.2.osexp,/Users/cristianbotello/Desktop/Advanced Quant,no,mono,no,18,no,white,no,no,768,legacy,37,37,/Users/cristianbotello/Desktop/Advanced Quant/CB-subject-4.csv,legacy,Kafkaesque Koffka,3.2.8,0,s,NA,NA,h,NA,s,480,NA,NA,58439,NA,480,2,legacy,1024,2,48000,-16,experiment,SSSSS,4,even,61661,NA,NA,130790,105032,3176,NA,NA,131890,NA,3211,NA,132006,132488,131878,132006,Flanker Task,37,24032,38,yes,1024
97.43589744,97.43589744,631.5128205,631.5128205,black,legacy,legacy,legacy,0,incongruent,uniform,1,undefined,1,s,0,0,0,38,38,0,38,0,38,0,0,0,38,38,38,38,Fri Sep 20 12:06:06 2019,1500,The main experiment item,yes,CB-FlankerTask-Lab1.2.osexp,/Users/cristianbotello/Desktop/Advanced Quant,no,mono,no,18,no,white,no,no,768,legacy,38,38,/Users/cristianbotello/Desktop/Advanced Quant/CB-subject-4.csv,legacy,Kafkaesque Koffka,3.2.8,0,s,NA,NA,h,NA,s,597,NA,NA,58439,NA,597,2,legacy,1024,2,48000,-16,experiment,HHSHH,4,even,61661,NA,NA,132503,105032,3176,NA,NA,133604,NA,3211,NA,133720,134319,133592,133720,Flanker Task,38,24629,39,yes,1024
97.5,97.5,628.775,628.775,black,legacy,legacy,legacy,0,congruent,uniform,1,undefined,1,h,0,0,0,39,39,0,39,0,39,0,0,0,39,39,39,39,Fri Sep 20 12:06:06 2019,1500,The main experiment item,yes,CB-FlankerTask-Lab1.2.osexp,/Users/cristianbotello/Desktop/Advanced Quant,no,mono,no,18,no,white,no,no,768,legacy,39,39,/Users/cristianbotello/Desktop/Advanced Quant/CB-subject-4.csv,legacy,Kafkaesque Koffka,3.2.8,0,h,NA,NA,h,NA,h,522,NA,NA,58439,NA,522,2,legacy,1024,2,48000,-16,experiment,HHHHH,4,even,61661,NA,NA,134348,105032,3176,NA,NA,135472,NA,3211,NA,135588,136112,135460,135587,Flanker Task,39,25151,40,yes,1024
97.56097561,97.56097561,629.7560976,629.7560976,black,legacy,legacy,legacy,0,incongruent,uniform,1,undefined,1,h,0,0,0,40,40,0,40,0,40,0,0,0,40,40,40,40,Fri Sep 20 12:06:06 2019,1500,The main experiment item,yes,CB-FlankerTask-Lab1.2.osexp,/Users/cristianbotello/Desktop/Advanced Quant,no,mono,no,18,no,white,no,no,768,legacy,40,40,/Users/cristianbotello/Desktop/Advanced Quant/CB-subject-4.csv,legacy,Kafkaesque Koffka,3.2.8,0,h,NA,NA,h,NA,h,669,NA,NA,58439,NA,669,2,legacy,1024,2,48000,-16,experiment,SSHSS,4,even,61661,NA,NA,136126,105032,3176,NA,NA,137227,NA,3211,NA,137342,138013,137215,137342,Flanker Task,40,25820,41,yes,1024
97.61904762,97.61904762,627.9047619,627.9047619,black,legacy,legacy,legacy,0,congruent,uniform,1,undefined,1,h,0,0,0,41,41,0,41,0,41,0,0,0,41,41,41,41,Fri Sep 20 12:06:06 2019,1500,The main experiment item,yes,CB-FlankerTask-Lab1.2.osexp,/Users/cristianbotello/Desktop/Advanced Quant,no,mono,no,18,no,white,no,no,768,legacy,41,41,/Users/cristianbotello/Desktop/Advanced Quant/CB-subject-4.csv,legacy,Kafkaesque Koffka,3.2.8,0,h,NA,NA,h,NA,h,552,NA,NA,58439,NA,552,2,legacy,1024,2,48000,-16,experiment,HHHHH,4,even,61661,NA,NA,138064,105032,3176,NA,NA,139162,NA,3211,NA,139278,139832,139150,139277,Flanker Task,41,26372,42,yes,1024
97.6744186,97.6744186,625.6976744,625.6976744,black,legacy,legacy,legacy,0,congruent,uniform,1,undefined,1,s,0,0,0,42,42,0,42,0,42,0,0,0,42,42,42,42,Fri Sep 20 12:06:06 2019,1500,The main experiment item,yes,CB-FlankerTask-Lab1.2.osexp,/Users/cristianbotello/Desktop/Advanced Quant,no,mono,no,18,no,white,no,no,768,legacy,42,42,/Users/cristianbotello/Desktop/Advanced Quant/CB-subject-4.csv,legacy,Kafkaesque Koffka,3.2.8,0,s,NA,NA,h,NA,s,533,NA,NA,58439,NA,533,2,legacy,1024,2,48000,-16,experiment,SSSSS,4,even,61661,NA,NA,139846,105032,3176,NA,NA,140946,NA,3211,NA,141061,141597,140934,141061,Flanker Task,42,26905,43,yes,1024
97.72727273,97.72727273,622.0909091,622.0909091,black,legacy,legacy,legacy,0,incongruent,uniform,1,undefined,1,s,0,0,0,43,43,0,43,0,43,0,0,0,43,43,43,43,Fri Sep 20 12:06:06 2019,1500,The main experiment item,yes,CB-FlankerTask-Lab1.2.osexp,/Users/cristianbotello/Desktop/Advanced Quant,no,mono,no,18,no,white,no,no,768,legacy,43,43,/Users/cristianbotello/Desktop/Advanced Quant/CB-subject-4.csv,legacy,Kafkaesque Koffka,3.2.8,0,s,NA,NA,h,NA,s,467,NA,NA,58439,NA,467,2,legacy,1024,2,48000,-16,experiment,HHSHH,4,even,61661,NA,NA,141623,105032,3176,NA,NA,142746,NA,3211,NA,142858,143327,142734,142858,Flanker Task,43,27372,44,yes,1024
97.77777778,97.77777778,619.9333333,619.9333333,black,legacy,legacy,legacy,0,congruent,uniform,1,undefined,1,s,0,0,0,44,44,0,44,0,44,0,0,0,44,44,44,44,Fri Sep 20 12:06:06 2019,1500,The main experiment item,yes,CB-FlankerTask-Lab1.2.osexp,/Users/cristianbotello/Desktop/Advanced Quant,no,mono,no,18,no,white,no,no,768,legacy,44,44,/Users/cristianbotello/Desktop/Advanced Quant/CB-subject-4.csv,legacy,Kafkaesque Koffka,3.2.8,0,s,NA,NA,h,NA,s,525,NA,NA,58439,NA,525,2,legacy,1024,2,48000,-16,experiment,SSSSS,4,even,61661,NA,NA,143342,105032,3176,NA,NA,144442,NA,3211,NA,144556,145084,144430,144556,Flanker Task,44,27897,45,yes,1024
97.82608696,97.82608696,620.2173913,620.2173913,black,legacy,legacy,legacy,0,incongruent,uniform,1,undefined,1,h,0,0,0,45,45,0,45,0,45,0,0,0,45,45,45,45,Fri Sep 20 12:06:06 2019,1500,The main experiment item,yes,CB-FlankerTask-Lab1.2.osexp,/Users/cristianbotello/Desktop/Advanced Quant,no,mono,no,18,no,white,no,no,768,legacy,45,45,/Users/cristianbotello/Desktop/Advanced Quant/CB-subject-4.csv,legacy,Kafkaesque Koffka,3.2.8,0,h,NA,NA,h,NA,h,633,NA,NA,58439,NA,633,2,legacy,1024,2,48000,-16,experiment,SSHSS,4,even,61661,NA,NA,145111,105032,3176,NA,NA,146227,NA,3211,NA,146342,146977,146215,146342,Flanker Task,45,28530,46,yes,1024
97.87234043,97.87234043,618.3191489,618.3191489,black,legacy,legacy,legacy,0,congruent,uniform,1,undefined,1,s,0,0,0,46,46,0,46,0,46,0,0,0,46,46,46,46,Fri Sep 20 12:06:06 2019,1500,The main experiment item,yes,CB-FlankerTask-Lab1.2.osexp,/Users/cristianbotello/Desktop/Advanced Quant,no,mono,no,18,no,white,no,no,768,legacy,46,46,/Users/cristianbotello/Desktop/Advanced Quant/CB-subject-4.csv,legacy,Kafkaesque Koffka,3.2.8,0,s,NA,NA,h,NA,s,531,NA,NA,58439,NA,531,2,legacy,1024,2,48000,-16,experiment,SSSSS,4,even,61661,NA,NA,146992,105032,3176,NA,NA,148094,NA,3211,NA,148214,148748,148081,148214,Flanker Task,46,29061,47,yes,1024
97.91666667,97.91666667,617.8541667,617.8541667,black,legacy,legacy,legacy,0,incongruent,uniform,1,undefined,1,h,0,0,0,47,47,0,47,0,47,0,0,0,47,47,47,47,Fri Sep 20 12:06:06 2019,1500,The main experiment item,yes,CB-FlankerTask-Lab1.2.osexp,/Users/cristianbotello/Desktop/Advanced Quant,no,mono,no,18,no,white,no,no,768,legacy,47,47,/Users/cristianbotello/Desktop/Advanced Quant/CB-subject-4.csv,legacy,Kafkaesque Koffka,3.2.8,0,h,NA,NA,h,NA,h,596,NA,NA,58439,NA,596,2,legacy,1024,2,48000,-16,experiment,SSHSS,4,even,61661,NA,NA,148766,105032,3176,NA,NA,149868,NA,3211,NA,149983,150581,149856,149983,Flanker Task,47,29657,48,yes,1024
97.95918367,97.95918367,615.1632653,615.1632653,black,legacy,legacy,legacy,0,congruent,uniform,1,undefined,1,s,0,0,0,48,48,0,48,0,48,0,0,0,48,48,48,48,Fri Sep 20 12:06:06 2019,1500,The main experiment item,yes,CB-FlankerTask-Lab1.2.osexp,/Users/cristianbotello/Desktop/Advanced Quant,no,mono,no,18,no,white,no,no,768,legacy,48,48,/Users/cristianbotello/Desktop/Advanced Quant/CB-subject-4.csv,legacy,Kafkaesque Koffka,3.2.8,0,s,NA,NA,h,NA,s,486,NA,NA,58439,NA,486,2,legacy,1024,2,48000,-16,experiment,SSSSS,4,even,61661,NA,NA,150608,105032,3176,NA,NA,151727,NA,3211,NA,151841,152330,151715,151841,Flanker Task,48,30143,49,yes,1024
98,98,612.74,612.74,black,legacy,legacy,legacy,0,incongruent,uniform,1,undefined,1,s,0,0,0,49,49,0,49,0,49,0,0,0,49,49,49,49,Fri Sep 20 12:06:06 2019,1500,The main experiment item,yes,CB-FlankerTask-Lab1.2.osexp,/Users/cristianbotello/Desktop/Advanced Quant,no,mono,no,18,no,white,no,no,768,legacy,49,49,/Users/cristianbotello/Desktop/Advanced Quant/CB-subject-4.csv,legacy,Kafkaesque Koffka,3.2.8,0,s,NA,NA,h,NA,s,494,NA,NA,58439,NA,494,2,legacy,1024,2,48000,-16,experiment,HHSHH,4,even,61661,NA,NA,152346,105032,3176,NA,NA,153447,NA,3211,NA,153563,154059,153435,153562,Flanker Task,49,30637,50,yes,1024
98.03921569,98.03921569,611.8627451,611.8627451,black,legacy,legacy,legacy,0,incongruent,uniform,1,undefined,1,s,0,0,0,50,50,0,50,0,50,0,0,0,50,50,50,50,Fri Sep 20 12:06:06 2019,1500,The main experiment item,yes,CB-FlankerTask-Lab1.2.osexp,/Users/cristianbotello/Desktop/Advanced Quant,no,mono,no,18,no,white,no,no,768,legacy,50,50,/Users/cristianbotello/Desktop/Advanced Quant/CB-subject-4.csv,legacy,Kafkaesque Koffka,3.2.8,0,s,NA,NA,h,NA,s,568,NA,NA,58439,NA,568,2,legacy,1024,2,48000,-16,experiment,HHSHH,4,even,61661,NA,NA,154080,105032,3176,NA,NA,155198,NA,3211,NA,155314,155884,155186,155314,Flanker Task,50,31205,51,yes,1024
98.07692308,98.07692308,608.5769231,608.5769231,black,legacy,legacy,legacy,0,congruent,uniform,1,undefined,1,h,0,0,0,51,51,0,51,0,51,0,0,0,51,51,51,51,Fri Sep 20 12:06:06 2019,1500,The main experiment item,yes,CB-FlankerTask-Lab1.2.osexp,/Users/cristianbotello/Desktop/Advanced Quant,no,mono,no,18,no,white,no,no,768,legacy,51,51,/Users/cristianbotello/Desktop/Advanced Quant/CB-subject-4.csv,legacy,Kafkaesque Koffka,3.2.8,0,h,NA,NA,h,NA,h,441,NA,NA,58439,NA,441,2,legacy,1024,2,48000,-16,experiment,HHHHH,4,even,61661,NA,NA,155899,105032,3176,NA,NA,156999,NA,3211,NA,157112,157555,156988,157112,Flanker Task,51,31646,52,yes,1024
98.11320755,98.11320755,610.6415094,610.6415094,black,legacy,legacy,legacy,0,incongruent,uniform,1,undefined,1,s,0,0,0,52,52,0,52,0,52,0,0,0,52,52,52,52,Fri Sep 20 12:06:06 2019,1500,The main experiment item,yes,CB-FlankerTask-Lab1.2.osexp,/Users/cristianbotello/Desktop/Advanced Quant,no,mono,no,18,no,white,no,no,768,legacy,52,52,/Users/cristianbotello/Desktop/Advanced Quant/CB-subject-4.csv,legacy,Kafkaesque Koffka,3.2.8,0,s,NA,NA,h,NA,s,718,NA,NA,58439,NA,718,2,legacy,1024,2,48000,-16,experiment,HHSHH,4,even,61661,NA,NA,157573,105032,3176,NA,NA,158698,NA,3211,NA,158813,159533,158686,158813,Flanker Task,52,32364,53,yes,1024
98.14814815,98.14814815,609.4814815,609.4814815,black,legacy,legacy,legacy,0,incongruent,uniform,1,undefined,1,h,0,0,0,53,53,0,53,0,53,0,0,0,53,53,53,53,Fri Sep 20 12:06:06 2019,1500,The main experiment item,yes,CB-FlankerTask-Lab1.2.osexp,/Users/cristianbotello/Desktop/Advanced Quant,no,mono,no,18,no,white,no,no,768,legacy,53,53,/Users/cristianbotello/Desktop/Advanced Quant/CB-subject-4.csv,legacy,Kafkaesque Koffka,3.2.8,0,h,NA,NA,h,NA,h,548,NA,NA,58439,NA,548,2,legacy,1024,2,48000,-16,experiment,SSHSS,4,even,61661,NA,NA,159548,105032,3176,NA,NA,160647,NA,3211,NA,160762,161312,160635,160762,Flanker Task,53,32912,54,yes,1024
98.18181818,98.18181818,608.3090909,608.3090909,black,legacy,legacy,legacy,0,congruent,uniform,1,undefined,1,s,0,0,0,54,54,0,54,0,54,0,0,0,54,54,54,54,Fri Sep 20 12:06:06 2019,1500,The main experiment item,yes,CB-FlankerTask-Lab1.2.osexp,/Users/cristianbotello/Desktop/Advanced Quant,no,mono,no,18,no,white,no,no,768,legacy,54,54,/Users/cristianbotello/Desktop/Advanced Quant/CB-subject-4.csv,legacy,Kafkaesque Koffka,3.2.8,0,s,NA,NA,h,NA,s,545,NA,NA,58439,NA,545,2,legacy,1024,2,48000,-16,experiment,SSSSS,4,even,61661,NA,NA,161327,105032,3176,NA,NA,162428,NA,3211,NA,162544,163092,162416,162543,Flanker Task,54,33457,55,yes,1024
98.21428571,98.21428571,606.4642857,606.4642857,black,legacy,legacy,legacy,0,congruent,uniform,1,undefined,1,h,0,0,0,55,55,0,55,0,55,0,0,0,55,55,55,55,Fri Sep 20 12:06:06 2019,1500,The main experiment item,yes,CB-FlankerTask-Lab1.2.osexp,/Users/cristianbotello/Desktop/Advanced Quant,no,mono,no,18,no,white,no,no,768,legacy,55,55,/Users/cristianbotello/Desktop/Advanced Quant/CB-subject-4.csv,legacy,Kafkaesque Koffka,3.2.8,0,h,NA,NA,h,NA,h,505,NA,NA,58439,NA,505,2,legacy,1024,2,48000,-16,experiment,HHHHH,4,even,61661,NA,NA,163112,105032,3176,NA,NA,164230,NA,3211,NA,164345,164852,164217,164345,Flanker Task,55,33962,56,yes,1024
98.24561404,98.24561404,604.245614,604.245614,black,legacy,legacy,legacy,0,congruent,uniform,1,undefined,1,s,0,0,0,56,56,0,56,0,56,0,0,0,56,56,56,56,Fri Sep 20 12:06:06 2019,1500,The main experiment item,yes,CB-FlankerTask-Lab1.2.osexp,/Users/cristianbotello/Desktop/Advanced Quant,no,mono,no,18,no,white,no,no,768,legacy,56,56,/Users/cristianbotello/Desktop/Advanced Quant/CB-subject-4.csv,legacy,Kafkaesque Koffka,3.2.8,0,s,NA,NA,h,NA,s,480,NA,NA,58439,NA,480,2,legacy,1024,2,48000,-16,experiment,SSSSS,4,even,61661,NA,NA,164867,105032,3176,NA,NA,165967,NA,3211,NA,166083,166566,165955,166083,Flanker Task,56,34442,57,yes,1024
98.27586207,98.27586207,604.8103448,604.8103448,black,legacy,legacy,legacy,0,incongruent,uniform,1,undefined,1,s,0,0,0,57,57,0,57,0,57,0,0,0,57,57,57,57,Fri Sep 20 12:06:06 2019,1500,The main experiment item,yes,CB-FlankerTask-Lab1.2.osexp,/Users/cristianbotello/Desktop/Advanced Quant,no,mono,no,18,no,white,no,no,768,legacy,57,57,/Users/cristianbotello/Desktop/Advanced Quant/CB-subject-4.csv,legacy,Kafkaesque Koffka,3.2.8,0,s,NA,NA,h,NA,s,637,NA,NA,58439,NA,637,2,legacy,1024,2,48000,-16,experiment,HHSHH,4,even,61661,NA,NA,166585,105032,3176,NA,NA,167701,NA,3211,NA,167816,168455,167689,167816,Flanker Task,57,35079,58,yes,1024
98.30508475,98.30508475,603.7966102,603.7966102,black,legacy,legacy,legacy,0,incongruent,uniform,1,undefined,1,h,0,0,0,58,58,0,58,0,58,0,0,0,58,58,58,58,Fri Sep 20 12:06:06 2019,1500,The main experiment item,yes,CB-FlankerTask-Lab1.2.osexp,/Users/cristianbotello/Desktop/Advanced Quant,no,mono,no,18,no,white,no,no,768,legacy,58,58,/Users/cristianbotello/Desktop/Advanced Quant/CB-subject-4.csv,legacy,Kafkaesque Koffka,3.2.8,0,h,NA,NA,h,NA,h,545,NA,NA,58439,NA,545,2,legacy,1024,2,48000,-16,experiment,SSHSS,4,even,61661,NA,NA,168470,105032,3176,NA,NA,169570,NA,3211,NA,169687,170234,169558,169687,Flanker Task,58,35624,59,yes,1024
98.33333333,98.33333333,602.3166667,602.3166667,black,legacy,legacy,legacy,0,congruent,uniform,1,undefined,1,s,0,0,0,59,59,0,59,0,59,0,0,0,59,59,59,59,Fri Sep 20 12:06:06 2019,1500,The main experiment item,yes,CB-FlankerTask-Lab1.2.osexp,/Users/cristianbotello/Desktop/Advanced Quant,no,mono,no,18,no,white,no,no,768,legacy,59,59,/Users/cristianbotello/Desktop/Advanced Quant/CB-subject-4.csv,legacy,Kafkaesque Koffka,3.2.8,0,s,NA,NA,h,NA,s,515,NA,NA,58439,NA,515,2,legacy,1024,2,48000,-16,experiment,SSSSS,4,even,61661,NA,NA,170252,105032,3176,NA,NA,171371,NA,3211,NA,171486,172003,171359,171486,Flanker Task,59,36139,60,yes,1024
98.36065574,98.36065574,600.5245902,600.5245902,black,legacy,legacy,legacy,0,incongruent,uniform,1,undefined,1,h,0,0,0,60,60,0,60,0,60,0,0,0,60,60,60,60,Fri Sep 20 12:06:06 2019,1500,The main experiment item,yes,CB-FlankerTask-Lab1.2.osexp,/Users/cristianbotello/Desktop/Advanced Quant,no,mono,no,18,no,white,no,no,768,legacy,60,60,/Users/cristianbotello/Desktop/Advanced Quant/CB-subject-4.csv,legacy,Kafkaesque Koffka,3.2.8,0,h,NA,NA,h,NA,h,493,NA,NA,58439,NA,493,2,legacy,1024,2,48000,-16,experiment,SSHSS,4,even,61661,NA,NA,172017,105032,3176,NA,NA,173119,NA,3211,NA,173235,173731,173107,173235,Flanker Task,60,36632,61,yes,1024
98.38709677,98.38709677,600.0483871,600.0483871,black,legacy,legacy,legacy,0,congruent,uniform,1,undefined,1,h,0,0,0,61,61,0,61,0,61,0,0,0,61,61,61,61,Fri Sep 20 12:06:06 2019,1500,The main experiment item,yes,CB-FlankerTask-Lab1.2.osexp,/Users/cristianbotello/Desktop/Advanced Quant,no,mono,no,18,no,white,no,no,768,legacy,61,61,/Users/cristianbotello/Desktop/Advanced Quant/CB-subject-4.csv,legacy,Kafkaesque Koffka,3.2.8,0,h,NA,NA,h,NA,h,571,NA,NA,58439,NA,571,2,legacy,1024,2,48000,-16,experiment,HHHHH,4,even,61661,NA,NA,173749,105032,3176,NA,NA,174867,NA,3211,NA,174983,175556,174854,174983,Flanker Task,61,37203,62,yes,1024
98.41269841,98.41269841,599.5555556,599.5555556,black,legacy,legacy,legacy,0,congruent,uniform,1,undefined,1,s,0,0,0,62,62,0,62,0,62,0,0,0,62,62,62,62,Fri Sep 20 12:06:06 2019,1500,The main experiment item,yes,CB-FlankerTask-Lab1.2.osexp,/Users/cristianbotello/Desktop/Advanced Quant,no,mono,no,18,no,white,no,no,768,legacy,62,62,/Users/cristianbotello/Desktop/Advanced Quant/CB-subject-4.csv,legacy,Kafkaesque Koffka,3.2.8,0,s,NA,NA,h,NA,s,569,NA,NA,58439,NA,569,2,legacy,1024,2,48000,-16,experiment,SSSSS,4,even,61661,NA,NA,175571,105032,3176,NA,NA,176671,NA,3211,NA,176786,177358,176659,176786,Flanker Task,62,37772,63,yes,1024
98.4375,98.4375,597.109375,597.109375,black,legacy,legacy,legacy,0,congruent,uniform,1,undefined,1,h,0,0,0,63,63,0,63,0,63,0,0,0,63,63,63,63,Fri Sep 20 12:06:06 2019,1500,The main experiment item,yes,CB-FlankerTask-Lab1.2.osexp,/Users/cristianbotello/Desktop/Advanced Quant,no,mono,no,18,no,white,no,no,768,legacy,63,63,/Users/cristianbotello/Desktop/Advanced Quant/CB-subject-4.csv,legacy,Kafkaesque Koffka,3.2.8,0,h,NA,NA,h,NA,h,443,NA,NA,58439,NA,443,2,legacy,1024,2,48000,-16,experiment,HHHHH,4,even,61661,NA,NA,177378,105032,3176,NA,NA,178499,NA,3211,NA,178614,179059,178487,178614,Flanker Task,63,38215,64,yes,1024
98.46153846,98.46153846,595.5692308,595.5692308,black,legacy,legacy,legacy,0,congruent,uniform,1,undefined,1,s,0,0,0,64,64,0,64,0,64,0,0,0,64,64,64,64,Fri Sep 20 12:06:06 2019,1500,The main experiment item,yes,CB-FlankerTask-Lab1.2.osexp,/Users/cristianbotello/Desktop/Advanced Quant,no,mono,no,18,no,white,no,no,768,legacy,64,64,/Users/cristianbotello/Desktop/Advanced Quant/CB-subject-4.csv,legacy,Kafkaesque Koffka,3.2.8,0,s,NA,NA,h,NA,s,497,NA,NA,58439,NA,497,2,legacy,1024,2,48000,-16,experiment,SSSSS,4,even,61661,NA,NA,179074,105032,3176,NA,NA,180175,NA,3211,NA,180290,180790,180163,180290,Flanker Task,64,38712,65,yes,1024
98.48484848,98.48484848,594.2272727,594.2272727,black,legacy,legacy,legacy,0,incongruent,uniform,1,undefined,1,h,0,0,0,65,65,0,65,0,65,0,0,0,65,65,65,65,Fri Sep 20 12:06:06 2019,1500,The main experiment item,yes,CB-FlankerTask-Lab1.2.osexp,/Users/cristianbotello/Desktop/Advanced Quant,no,mono,no,18,no,white,no,no,768,legacy,65,65,/Users/cristianbotello/Desktop/Advanced Quant/CB-subject-4.csv,legacy,Kafkaesque Koffka,3.2.8,0,h,NA,NA,h,NA,h,507,NA,NA,58439,NA,507,2,legacy,1024,2,48000,-16,experiment,SSHSS,4,even,61661,NA,NA,180809,105032,3176,NA,NA,181931,NA,3211,NA,182047,182556,181919,182047,Flanker Task,65,39219,66,yes,1024
98.50746269,98.50746269,594.0746269,594.0746269,black,legacy,legacy,legacy,0,incongruent,uniform,1,undefined,1,h,0,0,0,66,66,0,66,0,66,0,0,0,66,66,66,66,Fri Sep 20 12:06:06 2019,1500,The main experiment item,yes,CB-FlankerTask-Lab1.2.osexp,/Users/cristianbotello/Desktop/Advanced Quant,no,mono,no,18,no,white,no,no,768,legacy,66,66,/Users/cristianbotello/Desktop/Advanced Quant/CB-subject-4.csv,legacy,Kafkaesque Koffka,3.2.8,0,h,NA,NA,h,NA,h,584,NA,NA,58439,NA,584,2,legacy,1024,2,48000,-16,experiment,SSHSS,4,even,61661,NA,NA,182571,105032,3176,NA,NA,183672,NA,3211,NA,183787,184373,183660,183787,Flanker Task,66,39803,67,yes,1024
98.52941176,98.52941176,592.8382353,592.8382353,black,legacy,legacy,legacy,0,congruent,uniform,1,undefined,1,h,0,0,0,67,67,0,67,0,67,0,0,0,67,67,67,67,Fri Sep 20 12:06:06 2019,1500,The main experiment item,yes,CB-FlankerTask-Lab1.2.osexp,/Users/cristianbotello/Desktop/Advanced Quant,no,mono,no,18,no,white,no,no,768,legacy,67,67,/Users/cristianbotello/Desktop/Advanced Quant/CB-subject-4.csv,legacy,Kafkaesque Koffka,3.2.8,0,h,NA,NA,h,NA,h,510,NA,NA,58439,NA,510,2,legacy,1024,2,48000,-16,experiment,HHHHH,4,even,61661,NA,NA,184391,105032,3176,NA,NA,185512,NA,3211,NA,185627,186139,185499,185627,Flanker Task,67,40313,68,yes,1024
98.55072464,98.55072464,589.9710145,589.9710145,black,legacy,legacy,legacy,0,congruent,uniform,1,undefined,1,s,0,0,0,68,68,0,68,0,68,0,0,0,68,68,68,68,Fri Sep 20 12:06:06 2019,1500,The main experiment item,yes,CB-FlankerTask-Lab1.2.osexp,/Users/cristianbotello/Desktop/Advanced Quant,no,mono,no,18,no,white,no,no,768,legacy,68,68,/Users/cristianbotello/Desktop/Advanced Quant/CB-subject-4.csv,legacy,Kafkaesque Koffka,3.2.8,0,s,NA,NA,h,NA,s,395,NA,NA,58439,NA,395,2,legacy,1024,2,48000,-16,experiment,SSSSS,4,even,61661,NA,NA,186154,105032,3176,NA,NA,187262,NA,3211,NA,187377,187774,187250,187377,Flanker Task,68,40708,69,yes,1024
98.57142857,98.57142857,589.2,589.2,black,legacy,legacy,legacy,0,incongruent,uniform,1,undefined,1,h,0,0,0,69,69,0,69,0,69,0,0,0,69,69,69,69,Fri Sep 20 12:06:06 2019,1500,The main experiment item,yes,CB-FlankerTask-Lab1.2.osexp,/Users/cristianbotello/Desktop/Advanced Quant,no,mono,no,18,no,white,no,no,768,legacy,69,69,/Users/cristianbotello/Desktop/Advanced Quant/CB-subject-4.csv,legacy,Kafkaesque Koffka,3.2.8,0,h,NA,NA,h,NA,h,536,NA,NA,58439,NA,536,2,legacy,1024,2,48000,-16,experiment,SSHSS,4,even,61661,NA,NA,187795,105032,3176,NA,NA,188918,NA,3211,NA,189034,189573,188906,189034,Flanker Task,69,41244,70,yes,1024
98.5915493,98.5915493,586.8309859,586.8309859,black,legacy,legacy,legacy,0,congruent,uniform,1,undefined,1,s,0,0,0,70,70,0,70,0,70,0,0,0,70,70,70,70,Fri Sep 20 12:06:06 2019,1500,The main experiment item,yes,CB-FlankerTask-Lab1.2.osexp,/Users/cristianbotello/Desktop/Advanced Quant,no,mono,no,18,no,white,no,no,768,legacy,70,70,/Users/cristianbotello/Desktop/Advanced Quant/CB-subject-4.csv,legacy,Kafkaesque Koffka,3.2.8,0,s,NA,NA,h,NA,s,421,NA,NA,58439,NA,421,2,legacy,1024,2,48000,-16,experiment,SSSSS,4,even,61661,NA,NA,189587,105032,3176,NA,NA,190688,NA,3211,NA,190803,191227,190676,190803,Flanker Task,70,41665,71,yes,1024
98.61111111,98.61111111,584.2222222,584.2222222,black,legacy,legacy,legacy,0,congruent,uniform,1,undefined,1,h,0,0,0,71,71,0,71,0,71,0,0,0,71,71,71,71,Fri Sep 20 12:06:06 2019,1500,The main experiment item,yes,CB-FlankerTask-Lab1.2.osexp,/Users/cristianbotello/Desktop/Advanced Quant,no,mono,no,18,no,white,no,no,768,legacy,71,71,/Users/cristianbotello/Desktop/Advanced Quant/CB-subject-4.csv,legacy,Kafkaesque Koffka,3.2.8,0,h,NA,NA,h,NA,h,399,NA,NA,58439,NA,399,2,legacy,1024,2,48000,-16,experiment,HHHHH,4,even,61661,NA,NA,191255,105032,3176,NA,NA,192378,NA,3211,NA,192493,192895,192366,192493,Flanker Task,71,42064,72,yes,1024
98.63013699,98.63013699,585.3013699,585.3013699,black,legacy,legacy,legacy,0,congruent,uniform,1,undefined,1,h,0,0,0,72,72,0,72,0,72,0,0,0,72,72,72,72,Fri Sep 20 12:06:06 2019,1500,The main experiment item,yes,CB-FlankerTask-Lab1.2.osexp,/Users/cristianbotello/Desktop/Advanced Quant,no,mono,no,18,no,white,no,no,768,legacy,72,72,/Users/cristianbotello/Desktop/Advanced Quant/CB-subject-4.csv,legacy,Kafkaesque Koffka,3.2.8,0,h,NA,NA,h,NA,h,663,NA,NA,58439,NA,663,2,legacy,1024,2,48000,-16,experiment,HHHHH,4,even,61661,NA,NA,192910,105032,3176,NA,NA,194010,NA,3211,NA,194126,194792,193999,194126,Flanker Task,72,42727,73,yes,1024
98.64864865,98.64864865,584.7702703,584.7702703,black,legacy,legacy,legacy,0,incongruent,uniform,1,undefined,1,s,0,0,0,73,73,0,73,0,73,0,0,0,73,73,73,73,Fri Sep 20 12:06:06 2019,1500,The main experiment item,yes,CB-FlankerTask-Lab1.2.osexp,/Users/cristianbotello/Desktop/Advanced Quant,no,mono,no,18,no,white,no,no,768,legacy,73,73,/Users/cristianbotello/Desktop/Advanced Quant/CB-subject-4.csv,legacy,Kafkaesque Koffka,3.2.8,0,s,NA,NA,h,NA,s,546,NA,NA,58439,NA,546,2,legacy,1024,2,48000,-16,experiment,HHSHH,4,even,61661,NA,NA,194810,105032,3176,NA,NA,195935,NA,3211,NA,196050,196598,195922,196050,Flanker Task,73,43273,74,yes,1024
98.66666667,98.66666667,585.1466667,585.1466667,black,legacy,legacy,legacy,0,incongruent,uniform,1,undefined,1,s,0,0,0,74,74,0,74,0,74,0,0,0,74,74,74,74,Fri Sep 20 12:06:06 2019,1500,The main experiment item,yes,CB-FlankerTask-Lab1.2.osexp,/Users/cristianbotello/Desktop/Advanced Quant,no,mono,no,18,no,white,no,no,768,legacy,74,74,/Users/cristianbotello/Desktop/Advanced Quant/CB-subject-4.csv,legacy,Kafkaesque Koffka,3.2.8,0,s,NA,NA,h,NA,s,613,NA,NA,58439,NA,613,2,legacy,1024,2,48000,-16,experiment,HHSHH,4,even,61661,NA,NA,196617,105032,3176,NA,NA,197718,NA,3211,NA,197833,198449,197706,197833,Flanker Task,74,43886,75,yes,1024
98.68421053,98.68421053,584.3421053,584.3421053,black,legacy,legacy,legacy,0,incongruent,uniform,1,undefined,1,h,0,0,0,75,75,0,75,0,75,0,0,0,75,75,75,75,Fri Sep 20 12:06:06 2019,1500,The main experiment item,yes,CB-FlankerTask-Lab1.2.osexp,/Users/cristianbotello/Desktop/Advanced Quant,no,mono,no,18,no,white,no,no,768,legacy,75,75,/Users/cristianbotello/Desktop/Advanced Quant/CB-subject-4.csv,legacy,Kafkaesque Koffka,3.2.8,0,h,NA,NA,h,NA,h,524,NA,NA,58439,NA,524,2,legacy,1024,2,48000,-16,experiment,SSHSS,4,even,61661,NA,NA,198473,105032,3176,NA,NA,199596,NA,3211,NA,199708,200234,199584,199708,Flanker Task,75,44410,76,yes,1024
98.7012987,98.7012987,584.2727273,584.2727273,black,legacy,legacy,legacy,0,incongruent,uniform,1,undefined,1,h,0,0,0,76,76,0,76,0,76,0,0,0,76,76,76,76,Fri Sep 20 12:06:06 2019,1500,The main experiment item,yes,CB-FlankerTask-Lab1.2.osexp,/Users/cristianbotello/Desktop/Advanced Quant,no,mono,no,18,no,white,no,no,768,legacy,76,76,/Users/cristianbotello/Desktop/Advanced Quant/CB-subject-4.csv,legacy,Kafkaesque Koffka,3.2.8,0,h,NA,NA,h,NA,h,579,NA,NA,58439,NA,579,2,legacy,1024,2,48000,-16,experiment,SSHSS,4,even,61661,NA,NA,200249,105032,3176,NA,NA,201350,NA,3211,NA,201464,202046,201338,201464,Flanker Task,76,44989,77,yes,1024
98.71794872,98.71794872,583.7051282,583.7051282,black,legacy,legacy,legacy,0,incongruent,uniform,1,undefined,1,h,0,0,0,77,77,0,77,0,77,0,0,0,77,77,77,77,Fri Sep 20 12:06:06 2019,1500,The main experiment item,yes,CB-FlankerTask-Lab1.2.osexp,/Users/cristianbotello/Desktop/Advanced Quant,no,mono,no,18,no,white,no,no,768,legacy,77,77,/Users/cristianbotello/Desktop/Advanced Quant/CB-subject-4.csv,legacy,Kafkaesque Koffka,3.2.8,0,h,NA,NA,h,NA,h,540,NA,NA,58439,NA,540,2,legacy,1024,2,48000,-16,experiment,SSHSS,4,even,61661,NA,NA,202064,105032,3176,NA,NA,203187,NA,3211,NA,203299,203841,203175,203299,Flanker Task,77,45529,78,yes,1024
98.73417722,98.73417722,581.5696203,581.5696203,black,legacy,legacy,legacy,0,congruent,uniform,1,undefined,1,h,0,0,0,78,78,0,78,0,78,0,0,0,78,78,78,78,Fri Sep 20 12:06:06 2019,1500,The main experiment item,yes,CB-FlankerTask-Lab1.2.osexp,/Users/cristianbotello/Desktop/Advanced Quant,no,mono,no,18,no,white,no,no,768,legacy,78,78,/Users/cristianbotello/Desktop/Advanced Quant/CB-subject-4.csv,legacy,Kafkaesque Koffka,3.2.8,0,h,NA,NA,h,NA,h,415,NA,NA,58439,NA,415,2,legacy,1024,2,48000,-16,experiment,HHHHH,4,even,61661,NA,NA,203856,105032,3176,NA,NA,204956,NA,3211,NA,205071,205489,204944,205071,Flanker Task,78,45944,79,yes,1024
98.75,98.75,584.425,584.425,black,legacy,legacy,legacy,0,incongruent,uniform,1,undefined,1,s,0,0,0,79,79,0,79,0,79,0,0,0,79,79,79,79,Fri Sep 20 12:06:06 2019,1500,The main experiment item,yes,CB-FlankerTask-Lab1.2.osexp,/Users/cristianbotello/Desktop/Advanced Quant,no,mono,no,18,no,white,no,no,768,legacy,79,79,/Users/cristianbotello/Desktop/Advanced Quant/CB-subject-4.csv,legacy,Kafkaesque Koffka,3.2.8,0,s,NA,NA,h,NA,s,810,NA,NA,58439,NA,810,2,legacy,1024,2,48000,-16,experiment,HHSHH,4,even,61661,NA,NA,205523,105032,3176,NA,NA,206643,NA,3211,NA,206756,207569,206631,206756,Flanker Task,79,46754,80,yes,1024
98.7654321,98.7654321,592.1728395,592.1728395,black,legacy,legacy,legacy,0,incongruent,uniform,1,undefined,1,h,0,0,0,80,80,0,80,0,80,0,0,0,80,80,80,80,Fri Sep 20 12:06:06 2019,600,The main experiment item,yes,CB-FlankerTask-Lab1.2.osexp,/Users/cristianbotello/Desktop/Advanced Quant,no,mono,no,18,no,white,no,no,768,legacy,0,79,/Users/cristianbotello/Desktop/Advanced Quant/CB-subject-4.csv,legacy,Kafkaesque Koffka,3.2.8,0,h,NA,s,h,NA,h,1212,NA,228700,58439,NA,1212,2,legacy,1024,2,48000,-16,experiment,SSHSS,4,even,61661,437327,NA,207588,105032,3176,NA,NA,437429,208624,3211,NA,437544,438758,437417,437543,Flanker Task,80,47966,81,yes,1024
98.7804878,98.7804878,592.1097561,592.1097561,black,legacy,legacy,legacy,0,incongruent,uniform,1,undefined,1,s,0,0,0,81,81,0,81,0,81,0,0,0,81,81,81,81,Fri Sep 20 12:06:06 2019,600,The main experiment item,yes,CB-FlankerTask-Lab1.2.osexp,/Users/cristianbotello/Desktop/Advanced Quant,no,mono,no,18,no,white,no,no,768,legacy,1,79,/Users/cristianbotello/Desktop/Advanced Quant/CB-subject-4.csv,legacy,Kafkaesque Koffka,3.2.8,0,s,NA,s,h,NA,s,587,NA,228700,58439,NA,587,2,legacy,1024,2,48000,-16,experiment,HHSHH,4,even,61661,437327,NA,439300,105032,3176,438787,NA,440402,208624,3211,NA,440516,441106,440390,440516,Flanker Task,81,48553,82,yes,1024
98.79518072,98.79518072,590.7349398,590.7349398,black,legacy,legacy,legacy,0,congruent,uniform,1,undefined,1,h,0,0,0,82,82,0,82,0,82,0,0,0,82,82,82,82,Fri Sep 20 12:06:06 2019,600,The main experiment item,yes,CB-FlankerTask-Lab1.2.osexp,/Users/cristianbotello/Desktop/Advanced Quant,no,mono,no,18,no,white,no,no,768,legacy,2,79,/Users/cristianbotello/Desktop/Advanced Quant/CB-subject-4.csv,legacy,Kafkaesque Koffka,3.2.8,0,h,NA,s,h,NA,h,478,NA,228700,58439,NA,478,2,legacy,1024,2,48000,-16,experiment,HHHHH,4,even,61661,437327,NA,441128,105032,3176,438787,NA,442249,208624,3211,NA,442364,442845,442237,442364,Flanker Task,82,49031,83,yes,1024
98.80952381,98.80952381,588.6666667,588.6666667,black,legacy,legacy,legacy,0,incongruent,uniform,1,undefined,1,s,0,0,0,83,83,0,83,0,83,0,0,0,83,83,83,83,Fri Sep 20 12:06:06 2019,600,The main experiment item,yes,CB-FlankerTask-Lab1.2.osexp,/Users/cristianbotello/Desktop/Advanced Quant,no,mono,no,18,no,white,no,no,768,legacy,3,79,/Users/cristianbotello/Desktop/Advanced Quant/CB-subject-4.csv,legacy,Kafkaesque Koffka,3.2.8,0,s,NA,s,h,NA,s,417,NA,228700,58439,NA,417,2,legacy,1024,2,48000,-16,experiment,HHSHH,4,even,61661,437327,NA,442859,105032,3176,438787,NA,443960,208624,3211,NA,444075,444495,443949,444075,Flanker Task,83,49448,84,yes,1024
98.82352941,98.82352941,585.6,585.6,black,legacy,legacy,legacy,0,incongruent,uniform,1,undefined,1,h,0,0,0,84,84,0,84,0,84,0,0,0,84,84,84,84,Fri Sep 20 12:06:06 2019,600,The main experiment item,yes,CB-FlankerTask-Lab1.2.osexp,/Users/cristianbotello/Desktop/Advanced Quant,no,mono,no,18,no,white,no,no,768,legacy,4,79,/Users/cristianbotello/Desktop/Advanced Quant/CB-subject-4.csv,legacy,Kafkaesque Koffka,3.2.8,0,h,NA,s,h,NA,h,328,NA,228700,58439,NA,328,2,legacy,1024,2,48000,-16,experiment,SSHSS,4,even,61661,437327,NA,444516,105032,3176,438787,NA,445631,208624,3211,NA,445746,446078,445619,445746,Flanker Task,84,49776,85,yes,1024
98.8372093,98.8372093,584.8488372,584.8488372,black,legacy,legacy,legacy,0,incongruent,uniform,1,undefined,1,s,0,0,0,85,85,0,85,0,85,0,0,0,85,85,85,85,Fri Sep 20 12:06:06 2019,600,The main experiment item,yes,CB-FlankerTask-Lab1.2.osexp,/Users/cristianbotello/Desktop/Advanced Quant,no,mono,no,18,no,white,no,no,768,legacy,5,79,/Users/cristianbotello/Desktop/Advanced Quant/CB-subject-4.csv,legacy,Kafkaesque Koffka,3.2.8,0,s,NA,s,h,NA,s,521,NA,228700,58439,NA,521,2,legacy,1024,2,48000,-16,experiment,HHSHH,4,even,61661,437327,NA,446092,105032,3176,438787,NA,447195,208624,3211,NA,447311,447836,447181,447310,Flanker Task,85,50297,86,yes,1024
98.85057471,98.85057471,583.6206897,583.6206897,black,legacy,legacy,legacy,0,congruent,uniform,1,undefined,1,s,0,0,0,86,86,0,86,0,86,0,0,0,86,86,86,86,Fri Sep 20 12:06:06 2019,600,The main experiment item,yes,CB-FlankerTask-Lab1.2.osexp,/Users/cristianbotello/Desktop/Advanced Quant,no,mono,no,18,no,white,no,no,768,legacy,6,79,/Users/cristianbotello/Desktop/Advanced Quant/CB-subject-4.csv,legacy,Kafkaesque Koffka,3.2.8,0,s,NA,s,h,NA,s,478,NA,228700,58439,NA,478,2,legacy,1024,2,48000,-16,experiment,SSSSS,4,even,61661,437327,NA,447854,105032,3176,438787,NA,448980,208624,3211,NA,449095,449575,448968,449095,Flanker Task,86,50775,87,yes,1024
98.86363636,98.86363636,581.1704545,581.1704545,black,legacy,legacy,legacy,0,congruent,uniform,1,undefined,1,s,0,0,0,87,87,0,87,0,87,0,0,0,87,87,87,87,Fri Sep 20 12:06:06 2019,600,The main experiment item,yes,CB-FlankerTask-Lab1.2.osexp,/Users/cristianbotello/Desktop/Advanced Quant,no,mono,no,18,no,white,no,no,768,legacy,7,79,/Users/cristianbotello/Desktop/Advanced Quant/CB-subject-4.csv,legacy,Kafkaesque Koffka,3.2.8,0,s,NA,s,h,NA,s,368,NA,228700,58439,NA,368,2,legacy,1024,2,48000,-16,experiment,SSSSS,4,even,61661,437327,NA,449589,105032,3176,438787,NA,450690,208624,3211,NA,450805,451176,450678,450805,Flanker Task,87,51143,88,yes,1024
98.87640449,98.87640449,578.5730337,578.5730337,black,legacy,legacy,legacy,0,congruent,uniform,1,undefined,1,h,0,0,0,88,88,0,88,0,88,0,0,0,88,88,88,88,Fri Sep 20 12:06:06 2019,600,The main experiment item,yes,CB-FlankerTask-Lab1.2.osexp,/Users/cristianbotello/Desktop/Advanced Quant,no,mono,no,18,no,white,no,no,768,legacy,8,79,/Users/cristianbotello/Desktop/Advanced Quant/CB-subject-4.csv,legacy,Kafkaesque Koffka,3.2.8,0,h,NA,s,h,NA,h,350,NA,228700,58439,NA,350,2,legacy,1024,2,48000,-16,experiment,HHHHH,4,even,61661,437327,NA,451194,105032,3176,438787,NA,452315,208624,3211,NA,452431,452783,452303,452430,Flanker Task,88,51493,89,yes,1024
98.88888889,98.88888889,576.3555556,576.3555556,black,legacy,legacy,legacy,0,incongruent,uniform,1,undefined,1,s,0,0,0,89,89,0,89,0,89,0,0,0,89,89,89,89,Fri Sep 20 12:06:06 2019,600,The main experiment item,yes,CB-FlankerTask-Lab1.2.osexp,/Users/cristianbotello/Desktop/Advanced Quant,no,mono,no,18,no,white,no,no,768,legacy,9,79,/Users/cristianbotello/Desktop/Advanced Quant/CB-subject-4.csv,legacy,Kafkaesque Koffka,3.2.8,0,s,NA,s,h,NA,s,379,NA,228700,58439,NA,379,2,legacy,1024,2,48000,-16,experiment,HHSHH,4,even,61661,437327,NA,452798,105032,3176,438787,NA,453899,208624,3211,NA,454013,454396,453887,454013,Flanker Task,89,51872,90,yes,1024
98.9010989,98.9010989,575.021978,575.021978,black,legacy,legacy,legacy,0,congruent,uniform,1,undefined,1,h,0,0,0,90,90,0,90,0,90,0,0,0,90,90,90,90,Fri Sep 20 12:06:06 2019,600,The main experiment item,yes,CB-FlankerTask-Lab1.2.osexp,/Users/cristianbotello/Desktop/Advanced Quant,no,mono,no,18,no,white,no,no,768,legacy,10,79,/Users/cristianbotello/Desktop/Advanced Quant/CB-subject-4.csv,legacy,Kafkaesque Koffka,3.2.8,0,h,NA,s,h,NA,h,455,NA,228700,58439,NA,455,2,legacy,1024,2,48000,-16,experiment,HHHHH,4,even,61661,437327,NA,454418,105032,3176,438787,NA,455541,208624,3211,NA,455656,456113,455529,455656,Flanker Task,90,52327,91,yes,1024
98.91304348,98.91304348,573.0108696,573.0108696,black,legacy,legacy,legacy,0,incongruent,uniform,1,undefined,1,h,0,0,0,91,91,0,91,0,91,0,0,0,91,91,91,91,Fri Sep 20 12:06:06 2019,600,The main experiment item,yes,CB-FlankerTask-Lab1.2.osexp,/Users/cristianbotello/Desktop/Advanced Quant,no,mono,no,18,no,white,no,no,768,legacy,11,79,/Users/cristianbotello/Desktop/Advanced Quant/CB-subject-4.csv,legacy,Kafkaesque Koffka,3.2.8,0,h,NA,s,h,NA,h,390,NA,228700,58439,NA,390,2,legacy,1024,2,48000,-16,experiment,SSHSS,4,even,61661,437327,NA,456128,105032,3176,438787,NA,457229,208624,3211,NA,457341,457734,457216,457341,Flanker Task,91,52717,92,yes,1024
98.92473118,98.92473118,572.7419355,572.7419355,black,legacy,legacy,legacy,0,incongruent,uniform,1,undefined,1,s,0,0,0,92,92,0,92,0,92,0,0,0,92,92,92,92,Fri Sep 20 12:06:06 2019,600,The main experiment item,yes,CB-FlankerTask-Lab1.2.osexp,/Users/cristianbotello/Desktop/Advanced Quant,no,mono,no,18,no,white,no,no,768,legacy,12,79,/Users/cristianbotello/Desktop/Advanced Quant/CB-subject-4.csv,legacy,Kafkaesque Koffka,3.2.8,0,s,NA,s,h,NA,s,548,NA,228700,58439,NA,548,2,legacy,1024,2,48000,-16,experiment,HHSHH,4,even,61661,437327,NA,457750,105032,3176,438787,NA,458880,208624,3211,NA,458996,459547,458868,458996,Flanker Task,92,53265,93,yes,1024
98.93617021,98.93617021,570.2446809,570.2446809,black,legacy,legacy,legacy,0,congruent,uniform,1,undefined,1,h,0,0,0,93,93,0,93,0,93,0,0,0,93,93,93,93,Fri Sep 20 12:06:06 2019,600,The main experiment item,yes,CB-FlankerTask-Lab1.2.osexp,/Users/cristianbotello/Desktop/Advanced Quant,no,mono,no,18,no,white,no,no,768,legacy,13,79,/Users/cristianbotello/Desktop/Advanced Quant/CB-subject-4.csv,legacy,Kafkaesque Koffka,3.2.8,0,h,NA,s,h,NA,h,338,NA,228700,58439,NA,338,2,legacy,1024,2,48000,-16,experiment,HHHHH,4,even,61661,437327,NA,459561,105032,3176,438787,NA,460661,208624,3211,NA,460776,461117,460649,460776,Flanker Task,93,53603,94,yes,1024
98.94736842,98.94736842,569.3473684,569.3473684,black,legacy,legacy,legacy,0,incongruent,uniform,1,undefined,1,s,0,0,0,94,94,0,94,0,94,0,0,0,94,94,94,94,Fri Sep 20 12:06:06 2019,600,The main experiment item,yes,CB-FlankerTask-Lab1.2.osexp,/Users/cristianbotello/Desktop/Advanced Quant,no,mono,no,18,no,white,no,no,768,legacy,14,79,/Users/cristianbotello/Desktop/Advanced Quant/CB-subject-4.csv,legacy,Kafkaesque Koffka,3.2.8,0,s,NA,s,h,NA,s,485,NA,228700,58439,NA,485,2,legacy,1024,2,48000,-16,experiment,HHSHH,4,even,61661,437327,NA,461146,105032,3176,438787,NA,462270,208624,3211,NA,462385,462875,462257,462385,Flanker Task,94,54088,95,yes,1024
98.95833333,98.95833333,568.0104167,568.0104167,black,legacy,legacy,legacy,0,congruent,uniform,1,undefined,1,s,0,0,0,95,95,0,95,0,95,0,0,0,95,95,95,95,Fri Sep 20 12:06:06 2019,600,The main experiment item,yes,CB-FlankerTask-Lab1.2.osexp,/Users/cristianbotello/Desktop/Advanced Quant,no,mono,no,18,no,white,no,no,768,legacy,15,79,/Users/cristianbotello/Desktop/Advanced Quant/CB-subject-4.csv,legacy,Kafkaesque Koffka,3.2.8,0,s,NA,s,h,NA,s,441,NA,228700,58439,NA,441,2,legacy,1024,2,48000,-16,experiment,SSSSS,4,even,61661,437327,NA,462890,105032,3176,438787,NA,463991,208624,3211,NA,464103,464547,463979,464103,Flanker Task,95,54529,96,yes,1024
98.96907216,98.96907216,566.3195876,566.3195876,black,legacy,legacy,legacy,0,congruent,uniform,1,undefined,1,h,0,0,0,96,96,0,96,0,96,0,0,0,96,96,96,96,Fri Sep 20 12:06:06 2019,600,The main experiment item,yes,CB-FlankerTask-Lab1.2.osexp,/Users/cristianbotello/Desktop/Advanced Quant,no,mono,no,18,no,white,no,no,768,legacy,16,79,/Users/cristianbotello/Desktop/Advanced Quant/CB-subject-4.csv,legacy,Kafkaesque Koffka,3.2.8,0,h,NA,s,h,NA,h,404,NA,228700,58439,NA,404,2,legacy,1024,2,48000,-16,experiment,HHHHH,4,even,61661,437327,NA,464566,105032,3176,438787,NA,465688,208624,3211,NA,465803,466209,465676,465803,Flanker Task,96,54933,97,yes,1024
98.97959184,98.97959184,565.2857143,565.2857143,black,legacy,legacy,legacy,0,incongruent,uniform,1,undefined,1,s,0,0,0,97,97,0,97,0,97,0,0,0,97,97,97,97,Fri Sep 20 12:06:06 2019,600,The main experiment item,yes,CB-FlankerTask-Lab1.2.osexp,/Users/cristianbotello/Desktop/Advanced Quant,no,mono,no,18,no,white,no,no,768,legacy,17,79,/Users/cristianbotello/Desktop/Advanced Quant/CB-subject-4.csv,legacy,Kafkaesque Koffka,3.2.8,0,s,NA,s,h,NA,s,465,NA,228700,58439,NA,465,2,legacy,1024,2,48000,-16,experiment,HHSHH,4,even,61661,437327,NA,466224,105032,3176,438787,NA,467326,208624,3211,NA,467442,467910,467313,467442,Flanker Task,97,55398,98,yes,1024
98.98989899,98.98989899,564.9292929,564.9292929,black,legacy,legacy,legacy,0,incongruent,uniform,1,undefined,1,s,0,0,0,98,98,0,98,0,98,0,0,0,98,98,98,98,Fri Sep 20 12:06:06 2019,600,The main experiment item,yes,CB-FlankerTask-Lab1.2.osexp,/Users/cristianbotello/Desktop/Advanced Quant,no,mono,no,18,no,white,no,no,768,legacy,18,79,/Users/cristianbotello/Desktop/Advanced Quant/CB-subject-4.csv,legacy,Kafkaesque Koffka,3.2.8,0,s,NA,s,h,NA,s,530,NA,228700,58439,NA,530,2,legacy,1024,2,48000,-16,experiment,HHSHH,4,even,61661,437327,NA,467930,105032,3176,438787,NA,469046,208624,3211,NA,469162,469694,469034,469161,Flanker Task,98,55928,99,yes,1024
99,99,564.53,564.53,black,legacy,legacy,legacy,0,incongruent,uniform,1,undefined,1,h,0,0,0,99,99,0,99,0,99,0,0,0,99,99,99,99,Fri Sep 20 12:06:06 2019,600,The main experiment item,yes,CB-FlankerTask-Lab1.2.osexp,/Users/cristianbotello/Desktop/Advanced Quant,no,mono,no,18,no,white,no,no,768,legacy,19,79,/Users/cristianbotello/Desktop/Advanced Quant/CB-subject-4.csv,legacy,Kafkaesque Koffka,3.2.8,0,h,NA,s,h,NA,h,525,NA,228700,58439,NA,525,2,legacy,1024,2,48000,-16,experiment,SSHSS,4,even,61661,437327,NA,469709,105032,3176,438787,NA,470810,208624,3211,NA,470925,471453,470798,470925,Flanker Task,99,56453,100,yes,1024
99.00990099,99.00990099,563.6930693,563.6930693,black,legacy,legacy,legacy,0,incongruent,uniform,1,undefined,1,s,0,0,0,100,100,0,100,0,100,0,0,0,100,100,100,100,Fri Sep 20 12:06:06 2019,600,The main experiment item,yes,CB-FlankerTask-Lab1.2.osexp,/Users/cristianbotello/Desktop/Advanced Quant,no,mono,no,18,no,white,no,no,768,legacy,20,79,/Users/cristianbotello/Desktop/Advanced Quant/CB-subject-4.csv,legacy,Kafkaesque Koffka,3.2.8,0,s,NA,s,h,NA,s,480,NA,228700,58439,NA,480,2,legacy,1024,2,48000,-16,experiment,HHSHH,4,even,61661,437327,NA,471475,105032,3176,438787,NA,472593,208624,3211,NA,472708,473190,472581,472708,Flanker Task,100,56933,101,yes,1024
99.01960784,99.01960784,561.8921569,561.8921569,black,legacy,legacy,legacy,0,congruent,uniform,1,undefined,1,h,0,0,0,101,101,0,101,0,101,0,0,0,101,101,101,101,Fri Sep 20 12:06:06 2019,600,The main experiment item,yes,CB-FlankerTask-Lab1.2.osexp,/Users/cristianbotello/Desktop/Advanced Quant,no,mono,no,18,no,white,no,no,768,legacy,21,79,/Users/cristianbotello/Desktop/Advanced Quant/CB-subject-4.csv,legacy,Kafkaesque Koffka,3.2.8,0,h,NA,s,h,NA,h,380,NA,228700,58439,NA,380,2,legacy,1024,2,48000,-16,experiment,HHHHH,4,even,61661,437327,NA,473205,105032,3176,438787,NA,474306,208624,3211,NA,474420,474804,474293,474420,Flanker Task,101,57313,102,yes,1024
98.05825243,98.05825243,561.3980583,561.3980583,black,legacy,legacy,legacy,0,incongruent,uniform,0,undefined,0,h,0,0,0,102,102,0,102,0,102,0,0,0,102,102,102,102,Fri Sep 20 12:06:06 2019,600,The main experiment item,yes,CB-FlankerTask-Lab1.2.osexp,/Users/cristianbotello/Desktop/Advanced Quant,no,mono,no,18,no,white,no,no,768,legacy,22,79,/Users/cristianbotello/Desktop/Advanced Quant/CB-subject-4.csv,legacy,Kafkaesque Koffka,3.2.8,0,s,NA,s,h,NA,s,511,NA,228700,58439,NA,511,2,legacy,1024,2,48000,-16,experiment,SSHSS,4,even,61661,437327,NA,474820,105032,3176,438787,NA,475947,208624,3211,NA,476059,476573,475934,476059,Flanker Task,101,57824,103,yes,1024
98.07692308,98.07692308,560.0384615,560.0384615,black,legacy,legacy,legacy,0,congruent,uniform,1,undefined,1,h,0,0,0,103,103,0,103,0,103,0,0,0,103,103,103,103,Fri Sep 20 12:06:06 2019,600,The main experiment item,yes,CB-FlankerTask-Lab1.2.osexp,/Users/cristianbotello/Desktop/Advanced Quant,no,mono,no,18,no,white,no,no,768,legacy,23,79,/Users/cristianbotello/Desktop/Advanced Quant/CB-subject-4.csv,legacy,Kafkaesque Koffka,3.2.8,0,h,NA,s,h,NA,h,420,NA,228700,58439,NA,420,2,legacy,1024,2,48000,-16,experiment,HHHHH,4,even,61661,437327,NA,477101,476588,3176,438787,NA,478202,208624,3211,NA,478317,478740,478190,478317,Flanker Task,102,58244,104,yes,1024
98.0952381,98.0952381,559.4857143,559.4857143,black,legacy,legacy,legacy,0,congruent,uniform,1,undefined,1,h,0,0,0,104,104,0,104,0,104,0,0,0,104,104,104,104,Fri Sep 20 12:06:06 2019,600,The main experiment item,yes,CB-FlankerTask-Lab1.2.osexp,/Users/cristianbotello/Desktop/Advanced Quant,no,mono,no,18,no,white,no,no,768,legacy,24,79,/Users/cristianbotello/Desktop/Advanced Quant/CB-subject-4.csv,legacy,Kafkaesque Koffka,3.2.8,0,h,NA,s,h,NA,h,502,NA,228700,58439,NA,502,2,legacy,1024,2,48000,-16,experiment,HHHHH,4,even,61661,437327,NA,478754,476588,3176,438787,NA,479855,208624,3211,NA,479971,480477,479843,479971,Flanker Task,103,58746,105,yes,1024
98.11320755,98.11320755,559.754717,559.754717,black,legacy,legacy,legacy,0,congruent,uniform,1,undefined,1,s,0,0,0,105,105,0,105,0,105,0,0,0,105,105,105,105,Fri Sep 20 12:06:06 2019,600,The main experiment item,yes,CB-FlankerTask-Lab1.2.osexp,/Users/cristianbotello/Desktop/Advanced Quant,no,mono,no,18,no,white,no,no,768,legacy,25,79,/Users/cristianbotello/Desktop/Advanced Quant/CB-subject-4.csv,legacy,Kafkaesque Koffka,3.2.8,0,s,NA,s,h,NA,s,588,NA,228700,58439,NA,588,2,legacy,1024,2,48000,-16,experiment,SSSSS,4,even,61661,437327,NA,480493,476588,3176,438787,NA,481608,208624,3211,NA,481723,482313,481596,481723,Flanker Task,104,59334,106,yes,1024
98.13084112,98.13084112,558.9813084,558.9813084,black,legacy,legacy,legacy,0,congruent,uniform,1,undefined,1,s,0,0,0,106,106,0,106,0,106,0,0,0,106,106,106,106,Fri Sep 20 12:06:06 2019,600,The main experiment item,yes,CB-FlankerTask-Lab1.2.osexp,/Users/cristianbotello/Desktop/Advanced Quant,no,mono,no,18,no,white,no,no,768,legacy,26,79,/Users/cristianbotello/Desktop/Advanced Quant/CB-subject-4.csv,legacy,Kafkaesque Koffka,3.2.8,0,s,NA,s,h,NA,s,477,NA,228700,58439,NA,477,2,legacy,1024,2,48000,-16,experiment,SSSSS,4,even,61661,437327,NA,482328,476588,3176,438787,NA,483430,208624,3211,NA,483545,484026,483417,483545,Flanker Task,105,59811,107,yes,1024
98.14814815,98.14814815,558.9444444,558.9444444,black,legacy,legacy,legacy,0,incongruent,uniform,1,undefined,1,s,0,0,0,107,107,0,107,0,107,0,0,0,107,107,107,107,Fri Sep 20 12:06:06 2019,600,The main experiment item,yes,CB-FlankerTask-Lab1.2.osexp,/Users/cristianbotello/Desktop/Advanced Quant,no,mono,no,18,no,white,no,no,768,legacy,27,79,/Users/cristianbotello/Desktop/Advanced Quant/CB-subject-4.csv,legacy,Kafkaesque Koffka,3.2.8,0,s,NA,s,h,NA,s,555,NA,228700,58439,NA,555,2,legacy,1024,2,48000,-16,experiment,HHSHH,4,even,61661,437327,NA,484044,476588,3176,438787,NA,485160,208624,3211,NA,485275,485832,485148,485275,Flanker Task,106,60366,108,yes,1024
98.16513761,98.16513761,558.5412844,558.5412844,black,legacy,legacy,legacy,0,incongruent,uniform,1,undefined,1,s,0,0,0,108,108,0,108,0,108,0,0,0,108,108,108,108,Fri Sep 20 12:06:06 2019,600,The main experiment item,yes,CB-FlankerTask-Lab1.2.osexp,/Users/cristianbotello/Desktop/Advanced Quant,no,mono,no,18,no,white,no,no,768,legacy,28,79,/Users/cristianbotello/Desktop/Advanced Quant/CB-subject-4.csv,legacy,Kafkaesque Koffka,3.2.8,0,s,NA,s,h,NA,s,515,NA,228700,58439,NA,515,2,legacy,1024,2,48000,-16,experiment,HHSHH,4,even,61661,437327,NA,485847,476588,3176,438787,NA,486950,208624,3211,NA,487065,487583,486938,487065,Flanker Task,107,60881,109,yes,1024
98.18181818,98.18181818,557.2272727,557.2272727,black,legacy,legacy,legacy,0,congruent,uniform,1,undefined,1,s,0,0,0,109,109,0,109,0,109,0,0,0,109,109,109,109,Fri Sep 20 12:06:06 2019,600,The main experiment item,yes,CB-FlankerTask-Lab1.2.osexp,/Users/cristianbotello/Desktop/Advanced Quant,no,mono,no,18,no,white,no,no,768,legacy,29,79,/Users/cristianbotello/Desktop/Advanced Quant/CB-subject-4.csv,legacy,Kafkaesque Koffka,3.2.8,0,s,NA,s,h,NA,s,414,NA,228700,58439,NA,414,2,legacy,1024,2,48000,-16,experiment,SSSSS,4,even,61661,437327,NA,487613,476588,3176,438787,NA,488731,208624,3211,NA,488846,489263,488718,488846,Flanker Task,108,61295,110,yes,1024
98.1981982,98.1981982,556.009009,556.009009,black,legacy,legacy,legacy,0,incongruent,uniform,1,undefined,1,s,0,0,0,110,110,0,110,0,110,0,0,0,110,110,110,110,Fri Sep 20 12:06:06 2019,600,The main experiment item,yes,CB-FlankerTask-Lab1.2.osexp,/Users/cristianbotello/Desktop/Advanced Quant,no,mono,no,18,no,white,no,no,768,legacy,30,79,/Users/cristianbotello/Desktop/Advanced Quant/CB-subject-4.csv,legacy,Kafkaesque Koffka,3.2.8,0,s,NA,s,h,NA,s,422,NA,228700,58439,NA,422,2,legacy,1024,2,48000,-16,experiment,HHSHH,4,even,61661,437327,NA,489278,476588,3176,438787,NA,490379,208624,3211,NA,490495,490921,490367,490495,Flanker Task,109,61717,111,yes,1024
98.21428571,98.21428571,554.7142857,554.7142857,black,legacy,legacy,legacy,0,congruent,uniform,1,undefined,1,s,0,0,0,111,111,0,111,0,111,0,0,0,111,111,111,111,Fri Sep 20 12:06:06 2019,600,The main experiment item,yes,CB-FlankerTask-Lab1.2.osexp,/Users/cristianbotello/Desktop/Advanced Quant,no,mono,no,18,no,white,no,no,768,legacy,31,79,/Users/cristianbotello/Desktop/Advanced Quant/CB-subject-4.csv,legacy,Kafkaesque Koffka,3.2.8,0,s,NA,s,h,NA,s,411,NA,228700,58439,NA,411,2,legacy,1024,2,48000,-16,experiment,SSSSS,4,even,61661,437327,NA,490948,476588,3176,438787,NA,492072,208624,3211,NA,492187,492601,492060,492187,Flanker Task,110,62128,112,yes,1024
98.2300885,98.2300885,553.4867257,553.4867257,black,legacy,legacy,legacy,0,incongruent,uniform,1,undefined,1,h,0,0,0,112,112,0,112,0,112,0,0,0,112,112,112,112,Fri Sep 20 12:06:06 2019,600,The main experiment item,yes,CB-FlankerTask-Lab1.2.osexp,/Users/cristianbotello/Desktop/Advanced Quant,no,mono,no,18,no,white,no,no,768,legacy,32,79,/Users/cristianbotello/Desktop/Advanced Quant/CB-subject-4.csv,legacy,Kafkaesque Koffka,3.2.8,0,h,NA,s,h,NA,h,416,NA,228700,58439,NA,416,2,legacy,1024,2,48000,-16,experiment,SSHSS,4,even,61661,437327,NA,492615,476588,3176,438787,NA,493717,208624,3211,NA,493832,494251,493705,493832,Flanker Task,111,62544,113,yes,1024
98.24561404,98.24561404,552.6754386,552.6754386,black,legacy,legacy,legacy,0,congruent,uniform,1,undefined,1,s,0,0,0,113,113,0,113,0,113,0,0,0,113,113,113,113,Fri Sep 20 12:06:06 2019,600,The main experiment item,yes,CB-FlankerTask-Lab1.2.osexp,/Users/cristianbotello/Desktop/Advanced Quant,no,mono,no,18,no,white,no,no,768,legacy,33,79,/Users/cristianbotello/Desktop/Advanced Quant/CB-subject-4.csv,legacy,Kafkaesque Koffka,3.2.8,0,s,NA,s,h,NA,s,461,NA,228700,58439,NA,461,2,legacy,1024,2,48000,-16,experiment,SSSSS,4,even,61661,437327,NA,494277,476588,3176,438787,NA,495400,208624,3211,NA,495515,495979,495387,495515,Flanker Task,112,63005,114,yes,1024
98.26086957,98.26086957,552.5826087,552.5826087,black,legacy,legacy,legacy,0,congruent,uniform,1,undefined,1,h,0,0,0,114,114,0,114,0,114,0,0,0,114,114,114,114,Fri Sep 20 12:06:06 2019,600,The main experiment item,yes,CB-FlankerTask-Lab1.2.osexp,/Users/cristianbotello/Desktop/Advanced Quant,no,mono,no,18,no,white,no,no,768,legacy,34,79,/Users/cristianbotello/Desktop/Advanced Quant/CB-subject-4.csv,legacy,Kafkaesque Koffka,3.2.8,0,h,NA,s,h,NA,h,542,NA,228700,58439,NA,542,2,legacy,1024,2,48000,-16,experiment,HHHHH,4,even,61661,437327,NA,495994,476588,3176,438787,NA,497094,208624,3211,NA,497209,497755,497082,497209,Flanker Task,113,63547,115,yes,1024
98.27586207,98.27586207,551.8362069,551.8362069,black,legacy,legacy,legacy,0,incongruent,uniform,1,undefined,1,s,0,0,0,115,115,0,115,0,115,0,0,0,115,115,115,115,Fri Sep 20 12:06:06 2019,600,The main experiment item,yes,CB-FlankerTask-Lab1.2.osexp,/Users/cristianbotello/Desktop/Advanced Quant,no,mono,no,18,no,white,no,no,768,legacy,35,79,/Users/cristianbotello/Desktop/Advanced Quant/CB-subject-4.csv,legacy,Kafkaesque Koffka,3.2.8,0,s,NA,s,h,NA,s,466,NA,228700,58439,NA,466,2,legacy,1024,2,48000,-16,experiment,HHSHH,4,even,61661,437327,NA,497774,476588,3176,438787,NA,498892,208624,3211,NA,499006,499474,498879,499006,Flanker Task,114,64013,116,yes,1024
98.29059829,98.29059829,552.025641,552.025641,black,legacy,legacy,legacy,0,incongruent,uniform,1,undefined,1,h,0,0,0,116,116,0,116,0,116,0,0,0,116,116,116,116,Fri Sep 20 12:06:06 2019,600,The main experiment item,yes,CB-FlankerTask-Lab1.2.osexp,/Users/cristianbotello/Desktop/Advanced Quant,no,mono,no,18,no,white,no,no,768,legacy,36,79,/Users/cristianbotello/Desktop/Advanced Quant/CB-subject-4.csv,legacy,Kafkaesque Koffka,3.2.8,0,h,NA,s,h,NA,h,574,NA,228700,58439,NA,574,2,legacy,1024,2,48000,-16,experiment,SSHSS,4,even,61661,437327,NA,499489,476588,3176,438787,NA,500590,208624,3211,NA,500705,501282,500577,500705,Flanker Task,115,64587,117,yes,1024
98.30508475,98.30508475,551.2711864,551.2711864,black,legacy,legacy,legacy,0,incongruent,uniform,1,undefined,1,h,0,0,0,117,117,0,117,0,117,0,0,0,117,117,117,117,Fri Sep 20 12:06:06 2019,600,The main experiment item,yes,CB-FlankerTask-Lab1.2.osexp,/Users/cristianbotello/Desktop/Advanced Quant,no,mono,no,18,no,white,no,no,768,legacy,37,79,/Users/cristianbotello/Desktop/Advanced Quant/CB-subject-4.csv,legacy,Kafkaesque Koffka,3.2.8,0,h,NA,s,h,NA,h,463,NA,228700,58439,NA,463,2,legacy,1024,2,48000,-16,experiment,SSHSS,4,even,61661,437327,NA,501298,476588,3176,438787,NA,502415,208624,3211,NA,502527,502992,502403,502527,Flanker Task,116,65050,118,yes,1024
98.31932773,98.31932773,551.7058824,551.7058824,black,legacy,legacy,legacy,0,congruent,uniform,1,undefined,1,s,0,0,0,118,118,0,118,0,118,0,0,0,118,118,118,118,Fri Sep 20 12:06:06 2019,600,The main experiment item,yes,CB-FlankerTask-Lab1.2.osexp,/Users/cristianbotello/Desktop/Advanced Quant,no,mono,no,18,no,white,no,no,768,legacy,38,79,/Users/cristianbotello/Desktop/Advanced Quant/CB-subject-4.csv,legacy,Kafkaesque Koffka,3.2.8,0,s,NA,s,h,NA,s,603,NA,228700,58439,NA,603,2,legacy,1024,2,48000,-16,experiment,SSSSS,4,even,61661,437327,NA,503006,476588,3176,438787,NA,504107,208624,3211,NA,504220,504827,504095,504219,Flanker Task,117,65653,119,yes,1024
98.33333333,98.33333333,551.1583333,551.1583333,black,legacy,legacy,legacy,0,congruent,uniform,1,undefined,1,s,0,0,0,119,119,0,119,0,119,0,0,0,119,119,119,119,Fri Sep 20 12:06:06 2019,600,The main experiment item,yes,CB-FlankerTask-Lab1.2.osexp,/Users/cristianbotello/Desktop/Advanced Quant,no,mono,no,18,no,white,no,no,768,legacy,39,79,/Users/cristianbotello/Desktop/Advanced Quant/CB-subject-4.csv,legacy,Kafkaesque Koffka,3.2.8,0,s,NA,s,h,NA,s,486,NA,228700,58439,NA,486,2,legacy,1024,2,48000,-16,experiment,SSSSS,4,even,61661,437327,NA,505363,476588,3176,504850,NA,506463,208624,3211,NA,506579,507070,506451,506579,Flanker Task,118,66139,120,yes,1024
98.34710744,98.34710744,550.4710744,550.4710744,black,legacy,legacy,legacy,0,congruent,uniform,1,undefined,1,s,0,0,0,120,120,0,120,0,120,0,0,0,120,120,120,120,Fri Sep 20 12:06:06 2019,600,The main experiment item,yes,CB-FlankerTask-Lab1.2.osexp,/Users/cristianbotello/Desktop/Advanced Quant,no,mono,no,18,no,white,no,no,768,legacy,40,79,/Users/cristianbotello/Desktop/Advanced Quant/CB-subject-4.csv,legacy,Kafkaesque Koffka,3.2.8,0,s,NA,s,h,NA,s,468,NA,228700,58439,NA,468,2,legacy,1024,2,48000,-16,experiment,SSSSS,4,even,61661,437327,NA,507095,476588,3176,504850,NA,508220,208624,3211,NA,508335,508806,508207,508335,Flanker Task,119,66607,121,yes,1024
98.36065574,98.36065574,549.9180328,549.9180328,black,legacy,legacy,legacy,0,congruent,uniform,1,undefined,1,s,0,0,0,121,121,0,121,0,121,0,0,0,121,121,121,121,Fri Sep 20 12:06:06 2019,600,The main experiment item,yes,CB-FlankerTask-Lab1.2.osexp,/Users/cristianbotello/Desktop/Advanced Quant,no,mono,no,18,no,white,no,no,768,legacy,41,79,/Users/cristianbotello/Desktop/Advanced Quant/CB-subject-4.csv,legacy,Kafkaesque Koffka,3.2.8,0,s,NA,s,h,NA,s,483,NA,228700,58439,NA,483,2,legacy,1024,2,48000,-16,experiment,SSSSS,4,even,61661,437327,NA,508821,476588,3176,504850,NA,509922,208624,3211,NA,510038,510524,509909,510038,Flanker Task,120,67090,122,yes,1024
98.37398374,98.37398374,549.1788618,549.1788618,black,legacy,legacy,legacy,0,congruent,uniform,1,undefined,1,h,0,0,0,122,122,0,122,0,122,0,0,0,122,122,122,122,Fri Sep 20 12:06:06 2019,600,The main experiment item,yes,CB-FlankerTask-Lab1.2.osexp,/Users/cristianbotello/Desktop/Advanced Quant,no,mono,no,18,no,white,no,no,768,legacy,42,79,/Users/cristianbotello/Desktop/Advanced Quant/CB-subject-4.csv,legacy,Kafkaesque Koffka,3.2.8,0,h,NA,s,h,NA,h,459,NA,228700,58439,NA,459,2,legacy,1024,2,48000,-16,experiment,HHHHH,4,even,61661,437327,NA,510542,476588,3176,504850,NA,511668,208624,3211,NA,511784,512246,511656,511783,Flanker Task,121,67549,123,yes,1024
98.38709677,98.38709677,548.7741935,548.7741935,black,legacy,legacy,legacy,0,incongruent,uniform,1,undefined,1,h,0,0,0,123,123,0,123,0,123,0,0,0,123,123,123,123,Fri Sep 20 12:06:06 2019,600,The main experiment item,yes,CB-FlankerTask-Lab1.2.osexp,/Users/cristianbotello/Desktop/Advanced Quant,no,mono,no,18,no,white,no,no,768,legacy,43,79,/Users/cristianbotello/Desktop/Advanced Quant/CB-subject-4.csv,legacy,Kafkaesque Koffka,3.2.8,0,h,NA,s,h,NA,h,499,NA,228700,58439,NA,499,2,legacy,1024,2,48000,-16,experiment,SSHSS,4,even,61661,437327,NA,512260,476588,3176,504850,NA,513361,208624,3211,NA,513473,513975,513349,513473,Flanker Task,122,68048,124,yes,1024
98.4,98.4,547.496,547.496,black,legacy,legacy,legacy,0,congruent,uniform,1,undefined,1,h,0,0,0,124,124,0,124,0,124,0,0,0,124,124,124,124,Fri Sep 20 12:06:06 2019,600,The main experiment item,yes,CB-FlankerTask-Lab1.2.osexp,/Users/cristianbotello/Desktop/Advanced Quant,no,mono,no,18,no,white,no,no,768,legacy,44,79,/Users/cristianbotello/Desktop/Advanced Quant/CB-subject-4.csv,legacy,Kafkaesque Koffka,3.2.8,0,h,NA,s,h,NA,h,389,NA,228700,58439,NA,389,2,legacy,1024,2,48000,-16,experiment,HHHHH,4,even,61661,437327,NA,513994,476588,3176,504850,NA,515115,208624,3211,NA,515230,515622,515103,515230,Flanker Task,123,68437,125,yes,1024
98.41269841,98.41269841,546.6984127,546.6984127,black,legacy,legacy,legacy,0,incongruent,uniform,1,undefined,1,h,0,0,0,125,125,0,125,0,125,0,0,0,125,125,125,125,Fri Sep 20 12:06:06 2019,600,The main experiment item,yes,CB-FlankerTask-Lab1.2.osexp,/Users/cristianbotello/Desktop/Advanced Quant,no,mono,no,18,no,white,no,no,768,legacy,45,79,/Users/cristianbotello/Desktop/Advanced Quant/CB-subject-4.csv,legacy,Kafkaesque Koffka,3.2.8,0,h,NA,s,h,NA,h,447,NA,228700,58439,NA,447,2,legacy,1024,2,48000,-16,experiment,SSHSS,4,even,61661,437327,NA,515637,476588,3176,504850,NA,516738,208624,3211,NA,516851,517302,516726,516851,Flanker Task,124,68884,126,yes,1024
98.42519685,98.42519685,545.8188976,545.8188976,black,legacy,legacy,legacy,0,congruent,uniform,1,undefined,1,h,0,0,0,126,126,0,126,0,126,0,0,0,126,126,126,126,Fri Sep 20 12:06:06 2019,600,The main experiment item,yes,CB-FlankerTask-Lab1.2.osexp,/Users/cristianbotello/Desktop/Advanced Quant,no,mono,no,18,no,white,no,no,768,legacy,46,79,/Users/cristianbotello/Desktop/Advanced Quant/CB-subject-4.csv,legacy,Kafkaesque Koffka,3.2.8,0,h,NA,s,h,NA,h,435,NA,228700,58439,NA,435,2,legacy,1024,2,48000,-16,experiment,HHHHH,4,even,61661,437327,NA,517320,476588,3176,504850,NA,518450,208624,3211,NA,518565,519002,518438,518565,Flanker Task,125,69319,127,yes,1024
98.4375,98.4375,545.546875,545.546875,black,legacy,legacy,legacy,0,incongruent,uniform,1,undefined,1,s,0,0,0,127,127,0,127,0,127,0,0,0,127,127,127,127,Fri Sep 20 12:06:06 2019,600,The main experiment item,yes,CB-FlankerTask-Lab1.2.osexp,/Users/cristianbotello/Desktop/Advanced Quant,no,mono,no,18,no,white,no,no,768,legacy,47,79,/Users/cristianbotello/Desktop/Advanced Quant/CB-subject-4.csv,legacy,Kafkaesque Koffka,3.2.8,0,s,NA,s,h,NA,s,511,NA,228700,58439,NA,511,2,legacy,1024,2,48000,-16,experiment,HHSHH,4,even,61661,437327,NA,519016,476588,3176,504850,NA,520119,208624,3211,NA,520234,520760,520107,520234,Flanker Task,126,69830,128,yes,1024
98.4496124,98.4496124,545.1550388,545.1550388,black,legacy,legacy,legacy,0,congruent,uniform,1,undefined,1,s,0,0,0,128,128,0,128,0,128,0,0,0,128,128,128,128,Fri Sep 20 12:06:06 2019,600,The main experiment item,yes,CB-FlankerTask-Lab1.2.osexp,/Users/cristianbotello/Desktop/Advanced Quant,no,mono,no,18,no,white,no,no,768,legacy,48,79,/Users/cristianbotello/Desktop/Advanced Quant/CB-subject-4.csv,legacy,Kafkaesque Koffka,3.2.8,0,s,NA,s,h,NA,s,495,NA,228700,58439,NA,495,2,legacy,1024,2,48000,-16,experiment,SSSSS,4,even,61661,437327,NA,520776,476588,3176,504850,NA,521893,208624,3211,NA,522007,522505,521881,522007,Flanker Task,127,70325,129,yes,1024
98.46153846,98.46153846,543.7153846,543.7153846,black,legacy,legacy,legacy,0,congruent,uniform,1,undefined,1,h,0,0,0,129,129,0,129,0,129,0,0,0,129,129,129,129,Fri Sep 20 12:06:06 2019,600,The main experiment item,yes,CB-FlankerTask-Lab1.2.osexp,/Users/cristianbotello/Desktop/Advanced Quant,no,mono,no,18,no,white,no,no,768,legacy,49,79,/Users/cristianbotello/Desktop/Advanced Quant/CB-subject-4.csv,legacy,Kafkaesque Koffka,3.2.8,0,h,NA,s,h,NA,h,358,NA,228700,58439,NA,358,2,legacy,1024,2,48000,-16,experiment,HHHHH,4,even,61661,437327,NA,522520,476588,3176,504850,NA,523622,208624,3211,NA,523738,524100,523610,523737,Flanker Task,128,70683,130,yes,1024
97.70992366,97.70992366,542.5648855,542.5648855,black,legacy,legacy,legacy,0,incongruent,uniform,0,undefined,0,h,0,0,0,130,130,0,130,0,130,0,0,0,130,130,130,130,Fri Sep 20 12:06:06 2019,600,The main experiment item,yes,CB-FlankerTask-Lab1.2.osexp,/Users/cristianbotello/Desktop/Advanced Quant,no,mono,no,18,no,white,no,no,768,legacy,50,79,/Users/cristianbotello/Desktop/Advanced Quant/CB-subject-4.csv,legacy,Kafkaesque Koffka,3.2.8,0,s,NA,s,h,NA,s,393,NA,228700,58439,NA,393,2,legacy,1024,2,48000,-16,experiment,SSHSS,4,even,61661,437327,NA,524126,476588,3176,504850,NA,525241,208624,3211,NA,525356,525752,525229,525356,Flanker Task,128,71076,131,yes,1024
97.72727273,97.72727273,541.4166667,541.4166667,black,legacy,legacy,legacy,0,congruent,uniform,1,undefined,1,h,0,0,0,131,131,0,131,0,131,0,0,0,131,131,131,131,Fri Sep 20 12:06:06 2019,600,The main experiment item,yes,CB-FlankerTask-Lab1.2.osexp,/Users/cristianbotello/Desktop/Advanced Quant,no,mono,no,18,no,white,no,no,768,legacy,51,79,/Users/cristianbotello/Desktop/Advanced Quant/CB-subject-4.csv,legacy,Kafkaesque Koffka,3.2.8,0,h,NA,s,h,NA,h,391,NA,228700,58439,NA,391,2,legacy,1024,2,48000,-16,experiment,HHHHH,4,even,61661,437327,NA,526280,525767,3176,504850,NA,527379,208624,3211,NA,527494,527888,527367,527494,Flanker Task,129,71467,132,yes,1024
97.7443609,97.7443609,540.9924812,540.9924812,black,legacy,legacy,legacy,0,congruent,uniform,1,undefined,1,s,0,0,0,132,132,0,132,0,132,0,0,0,132,132,132,132,Fri Sep 20 12:06:06 2019,600,The main experiment item,yes,CB-FlankerTask-Lab1.2.osexp,/Users/cristianbotello/Desktop/Advanced Quant,no,mono,no,18,no,white,no,no,768,legacy,52,79,/Users/cristianbotello/Desktop/Advanced Quant/CB-subject-4.csv,legacy,Kafkaesque Koffka,3.2.8,0,s,NA,s,h,NA,s,485,NA,228700,58439,NA,485,2,legacy,1024,2,48000,-16,experiment,SSSSS,4,even,61661,437327,NA,527905,525767,3176,504850,NA,529004,208624,3211,NA,529120,529609,528993,529120,Flanker Task,130,71952,133,yes,1024
97.76119403,97.76119403,539.7537313,539.7537313,black,legacy,legacy,legacy,0,incongruent,uniform,1,undefined,1,h,0,0,0,133,133,0,133,0,133,0,0,0,133,133,133,133,Fri Sep 20 12:06:06 2019,600,The main experiment item,yes,CB-FlankerTask-Lab1.2.osexp,/Users/cristianbotello/Desktop/Advanced Quant,no,mono,no,18,no,white,no,no,768,legacy,53,79,/Users/cristianbotello/Desktop/Advanced Quant/CB-subject-4.csv,legacy,Kafkaesque Koffka,3.2.8,0,h,NA,s,h,NA,h,375,NA,228700,58439,NA,375,2,legacy,1024,2,48000,-16,experiment,SSHSS,4,even,61661,437327,NA,529641,525767,3176,504850,NA,530759,208624,3211,NA,530874,531252,530746,530874,Flanker Task,131,72327,134,yes,1024
97.77777778,97.77777778,539.1333333,539.1333333,black,legacy,legacy,legacy,0,incongruent,uniform,1,undefined,1,h,0,0,0,134,134,0,134,0,134,0,0,0,134,134,134,134,Fri Sep 20 12:06:06 2019,600,The main experiment item,yes,CB-FlankerTask-Lab1.2.osexp,/Users/cristianbotello/Desktop/Advanced Quant,no,mono,no,18,no,white,no,no,768,legacy,54,79,/Users/cristianbotello/Desktop/Advanced Quant/CB-subject-4.csv,legacy,Kafkaesque Koffka,3.2.8,0,h,NA,s,h,NA,h,456,NA,228700,58439,NA,456,2,legacy,1024,2,48000,-16,experiment,SSHSS,4,even,61661,437327,NA,531266,525767,3176,504850,NA,532367,208624,3211,NA,532479,532938,532355,532479,Flanker Task,132,72783,135,yes,1024
97.79411765,97.79411765,538.8455882,538.8455882,black,legacy,legacy,legacy,0,congruent,uniform,1,undefined,1,s,0,0,0,135,135,0,135,0,135,0,0,0,135,135,135,135,Fri Sep 20 12:06:06 2019,600,The main experiment item,yes,CB-FlankerTask-Lab1.2.osexp,/Users/cristianbotello/Desktop/Advanced Quant,no,mono,no,18,no,white,no,no,768,legacy,55,79,/Users/cristianbotello/Desktop/Advanced Quant/CB-subject-4.csv,legacy,Kafkaesque Koffka,3.2.8,0,s,NA,s,h,NA,s,500,NA,228700,58439,NA,500,2,legacy,1024,2,48000,-16,experiment,SSSSS,4,even,61661,437327,NA,532968,525767,3176,504850,NA,534093,208624,3211,NA,534208,534711,534081,534208,Flanker Task,133,73283,136,yes,1024
97.81021898,97.81021898,537.8394161,537.8394161,black,legacy,legacy,legacy,0,congruent,uniform,1,undefined,1,h,0,0,0,136,136,0,136,0,136,0,0,0,136,136,136,136,Fri Sep 20 12:06:06 2019,600,The main experiment item,yes,CB-FlankerTask-Lab1.2.osexp,/Users/cristianbotello/Desktop/Advanced Quant,no,mono,no,18,no,white,no,no,768,legacy,56,79,/Users/cristianbotello/Desktop/Advanced Quant/CB-subject-4.csv,legacy,Kafkaesque Koffka,3.2.8,0,h,NA,s,h,NA,h,401,NA,228700,58439,NA,401,2,legacy,1024,2,48000,-16,experiment,HHHHH,4,even,61661,437327,NA,534726,525767,3176,504850,NA,535827,208624,3211,NA,535942,536347,535815,535942,Flanker Task,134,73684,137,yes,1024
97.82608696,97.82608696,536.6956522,536.6956522,black,legacy,legacy,legacy,0,congruent,uniform,1,undefined,1,s,0,0,0,137,137,0,137,0,137,0,0,0,137,137,137,137,Fri Sep 20 12:06:06 2019,600,The main experiment item,yes,CB-FlankerTask-Lab1.2.osexp,/Users/cristianbotello/Desktop/Advanced Quant,no,mono,no,18,no,white,no,no,768,legacy,57,79,/Users/cristianbotello/Desktop/Advanced Quant/CB-subject-4.csv,legacy,Kafkaesque Koffka,3.2.8,0,s,NA,s,h,NA,s,380,NA,228700,58439,NA,380,2,legacy,1024,2,48000,-16,experiment,SSSSS,4,even,61661,437327,NA,536366,525767,3176,504850,NA,537494,208624,3211,NA,537609,537992,537482,537609,Flanker Task,135,74064,138,yes,1024
97.84172662,97.84172662,535.7122302,535.7122302,black,legacy,legacy,legacy,0,congruent,uniform,1,undefined,1,s,0,0,0,138,138,0,138,0,138,0,0,0,138,138,138,138,Fri Sep 20 12:06:06 2019,600,The main experiment item,yes,CB-FlankerTask-Lab1.2.osexp,/Users/cristianbotello/Desktop/Advanced Quant,no,mono,no,18,no,white,no,no,768,legacy,58,79,/Users/cristianbotello/Desktop/Advanced Quant/CB-subject-4.csv,legacy,Kafkaesque Koffka,3.2.8,0,s,NA,s,h,NA,s,400,NA,228700,58439,NA,400,2,legacy,1024,2,48000,-16,experiment,SSSSS,4,even,61661,437327,NA,538006,525767,3176,504850,NA,539108,208624,3211,NA,539223,539627,539095,539223,Flanker Task,136,74464,139,yes,1024
97.85714286,97.85714286,534.7428571,534.7428571,black,legacy,legacy,legacy,0,congruent,uniform,1,undefined,1,h,0,0,0,139,139,0,139,0,139,0,0,0,139,139,139,139,Fri Sep 20 12:06:06 2019,600,The main experiment item,yes,CB-FlankerTask-Lab1.2.osexp,/Users/cristianbotello/Desktop/Advanced Quant,no,mono,no,18,no,white,no,no,768,legacy,59,79,/Users/cristianbotello/Desktop/Advanced Quant/CB-subject-4.csv,legacy,Kafkaesque Koffka,3.2.8,0,h,NA,s,h,NA,h,400,NA,228700,58439,NA,400,2,legacy,1024,2,48000,-16,experiment,HHHHH,4,even,61661,437327,NA,539649,525767,3176,504850,NA,540773,208624,3211,NA,540888,541291,540761,540888,Flanker Task,137,74864,140,yes,1024
97.16312057,97.16312057,533.6595745,533.6595745,black,legacy,legacy,legacy,0,incongruent,uniform,0,undefined,0,s,0,0,0,140,140,0,140,0,140,0,0,0,140,140,140,140,Fri Sep 20 12:06:06 2019,600,The main experiment item,yes,CB-FlankerTask-Lab1.2.osexp,/Users/cristianbotello/Desktop/Advanced Quant,no,mono,no,18,no,white,no,no,768,legacy,60,79,/Users/cristianbotello/Desktop/Advanced Quant/CB-subject-4.csv,legacy,Kafkaesque Koffka,3.2.8,0,h,NA,s,h,NA,h,382,NA,228700,58439,NA,382,2,legacy,1024,2,48000,-16,experiment,HHSHH,4,even,61661,437327,NA,541306,525767,3176,504850,NA,542407,208624,3211,NA,542522,542907,542395,542522,Flanker Task,137,75246,141,yes,1024
97.18309859,97.18309859,534.3450704,534.3450704,black,legacy,legacy,legacy,0,incongruent,uniform,1,undefined,1,h,0,0,0,141,141,0,141,0,141,0,0,0,141,141,141,141,Fri Sep 20 12:06:06 2019,600,The main experiment item,yes,CB-FlankerTask-Lab1.2.osexp,/Users/cristianbotello/Desktop/Advanced Quant,no,mono,no,18,no,white,no,no,768,legacy,61,79,/Users/cristianbotello/Desktop/Advanced Quant/CB-subject-4.csv,legacy,Kafkaesque Koffka,3.2.8,0,h,NA,s,h,NA,h,631,NA,228700,58439,NA,631,2,legacy,1024,2,48000,-16,experiment,SSHSS,4,even,61661,437327,NA,543448,542935,3176,504850,NA,544549,208624,3211,NA,544661,545296,544537,544661,Flanker Task,138,75877,142,yes,1024
97.2027972,97.2027972,534.5664336,534.5664336,black,legacy,legacy,legacy,0,incongruent,uniform,1,undefined,1,h,0,0,0,142,142,0,142,0,142,0,0,0,142,142,142,142,Fri Sep 20 12:06:06 2019,600,The main experiment item,yes,CB-FlankerTask-Lab1.2.osexp,/Users/cristianbotello/Desktop/Advanced Quant,no,mono,no,18,no,white,no,no,768,legacy,62,79,/Users/cristianbotello/Desktop/Advanced Quant/CB-subject-4.csv,legacy,Kafkaesque Koffka,3.2.8,0,h,NA,s,h,NA,h,566,NA,228700,58439,NA,566,2,legacy,1024,2,48000,-16,experiment,SSHSS,4,even,61661,437327,NA,545837,542935,3176,545324,NA,546939,208624,3211,NA,547055,547625,546926,547054,Flanker Task,139,76443,143,yes,1024
97.22222222,97.22222222,534.3819444,534.3819444,black,legacy,legacy,legacy,0,incongruent,uniform,1,undefined,1,s,0,0,0,143,143,0,143,0,143,0,0,0,143,143,143,143,Fri Sep 20 12:06:06 2019,600,The main experiment item,yes,CB-FlankerTask-Lab1.2.osexp,/Users/cristianbotello/Desktop/Advanced Quant,no,mono,no,18,no,white,no,no,768,legacy,63,79,/Users/cristianbotello/Desktop/Advanced Quant/CB-subject-4.csv,legacy,Kafkaesque Koffka,3.2.8,0,s,NA,s,h,NA,s,508,NA,228700,58439,NA,508,2,legacy,1024,2,48000,-16,experiment,HHSHH,4,even,61661,437327,NA,547653,542935,3176,545324,NA,548775,208624,3211,NA,548890,549402,548762,548890,Flanker Task,140,76951,144,yes,1024
97.24137931,97.24137931,533.2896552,533.2896552,black,legacy,legacy,legacy,0,incongruent,uniform,1,undefined,1,h,0,0,0,144,144,0,144,0,144,0,0,0,144,144,144,144,Fri Sep 20 12:06:06 2019,600,The main experiment item,yes,CB-FlankerTask-Lab1.2.osexp,/Users/cristianbotello/Desktop/Advanced Quant,no,mono,no,18,no,white,no,no,768,legacy,64,79,/Users/cristianbotello/Desktop/Advanced Quant/CB-subject-4.csv,legacy,Kafkaesque Koffka,3.2.8,0,h,NA,s,h,NA,h,376,NA,228700,58439,NA,376,2,legacy,1024,2,48000,-16,experiment,SSHSS,4,even,61661,437327,NA,549417,542935,3176,545324,NA,550518,208624,3211,NA,550634,551014,550506,550633,Flanker Task,141,77327,145,yes,1024
97.26027397,97.26027397,532.4315068,532.4315068,black,legacy,legacy,legacy,0,congruent,uniform,1,undefined,1,h,0,0,0,145,145,0,145,0,145,0,0,0,145,145,145,145,Fri Sep 20 12:06:06 2019,600,The main experiment item,yes,CB-FlankerTask-Lab1.2.osexp,/Users/cristianbotello/Desktop/Advanced Quant,no,mono,no,18,no,white,no,no,768,legacy,65,79,/Users/cristianbotello/Desktop/Advanced Quant/CB-subject-4.csv,legacy,Kafkaesque Koffka,3.2.8,0,h,NA,s,h,NA,h,408,NA,228700,58439,NA,408,2,legacy,1024,2,48000,-16,experiment,HHHHH,4,even,61661,437327,NA,551041,542935,3176,545324,NA,552166,208624,3211,NA,552281,552692,552153,552281,Flanker Task,142,77735,146,yes,1024
97.27891156,97.27891156,531.7619048,531.7619048,black,legacy,legacy,legacy,0,congruent,uniform,1,undefined,1,h,0,0,0,146,146,0,146,0,146,0,0,0,146,146,146,146,Fri Sep 20 12:06:06 2019,600,The main experiment item,yes,CB-FlankerTask-Lab1.2.osexp,/Users/cristianbotello/Desktop/Advanced Quant,no,mono,no,18,no,white,no,no,768,legacy,66,79,/Users/cristianbotello/Desktop/Advanced Quant/CB-subject-4.csv,legacy,Kafkaesque Koffka,3.2.8,0,h,NA,s,h,NA,h,434,NA,228700,58439,NA,434,2,legacy,1024,2,48000,-16,experiment,HHHHH,4,even,61661,437327,NA,552707,542935,3176,545324,NA,553808,208624,3211,NA,553924,554362,553797,553924,Flanker Task,143,78169,147,yes,1024
97.2972973,97.2972973,530.7972973,530.7972973,black,legacy,legacy,legacy,0,congruent,uniform,1,undefined,1,h,0,0,0,147,147,0,147,0,147,0,0,0,147,147,147,147,Fri Sep 20 12:06:06 2019,600,The main experiment item,yes,CB-FlankerTask-Lab1.2.osexp,/Users/cristianbotello/Desktop/Advanced Quant,no,mono,no,18,no,white,no,no,768,legacy,67,79,/Users/cristianbotello/Desktop/Advanced Quant/CB-subject-4.csv,legacy,Kafkaesque Koffka,3.2.8,0,h,NA,s,h,NA,h,389,NA,228700,58439,NA,389,2,legacy,1024,2,48000,-16,experiment,HHHHH,4,even,61661,437327,NA,554379,542935,3176,545324,NA,555502,208624,3211,NA,555614,556006,555490,555613,Flanker Task,144,78558,148,yes,1024
97.31543624,97.31543624,529.7919463,529.7919463,black,legacy,legacy,legacy,0,congruent,uniform,1,undefined,1,s,0,0,0,148,148,0,148,0,148,0,0,0,148,148,148,148,Fri Sep 20 12:06:06 2019,600,The main experiment item,yes,CB-FlankerTask-Lab1.2.osexp,/Users/cristianbotello/Desktop/Advanced Quant,no,mono,no,18,no,white,no,no,768,legacy,68,79,/Users/cristianbotello/Desktop/Advanced Quant/CB-subject-4.csv,legacy,Kafkaesque Koffka,3.2.8,0,s,NA,s,h,NA,s,381,NA,228700,58439,NA,381,2,legacy,1024,2,48000,-16,experiment,SSSSS,4,even,61661,437327,NA,556021,542935,3176,545324,NA,557123,208624,3211,NA,557238,557623,557110,557238,Flanker Task,145,78939,149,yes,1024
97.33333333,97.33333333,529.3133333,529.3133333,black,legacy,legacy,legacy,0,congruent,uniform,1,undefined,1,s,0,0,0,149,149,0,149,0,149,0,0,0,149,149,149,149,Fri Sep 20 12:06:06 2019,600,The main experiment item,yes,CB-FlankerTask-Lab1.2.osexp,/Users/cristianbotello/Desktop/Advanced Quant,no,mono,no,18,no,white,no,no,768,legacy,69,79,/Users/cristianbotello/Desktop/Advanced Quant/CB-subject-4.csv,legacy,Kafkaesque Koffka,3.2.8,0,s,NA,s,h,NA,s,458,NA,228700,58439,NA,458,2,legacy,1024,2,48000,-16,experiment,SSSSS,4,even,61661,437327,NA,557644,542935,3176,545324,NA,558768,208624,3211,NA,558883,559344,558755,558883,Flanker Task,146,79397,150,yes,1024
97.35099338,97.35099338,528.602649,528.602649,black,legacy,legacy,legacy,0,incongruent,uniform,1,undefined,1,s,0,0,0,150,150,0,150,0,150,0,0,0,150,150,150,150,Fri Sep 20 12:06:06 2019,600,The main experiment item,yes,CB-FlankerTask-Lab1.2.osexp,/Users/cristianbotello/Desktop/Advanced Quant,no,mono,no,18,no,white,no,no,768,legacy,70,79,/Users/cristianbotello/Desktop/Advanced Quant/CB-subject-4.csv,legacy,Kafkaesque Koffka,3.2.8,0,s,NA,s,h,NA,s,422,NA,228700,58439,NA,422,2,legacy,1024,2,48000,-16,experiment,HHSHH,4,even,61661,437327,NA,559359,542935,3176,545324,NA,560461,208624,3211,NA,560576,561001,560448,560576,Flanker Task,147,79819,151,yes,1024
97.36842105,97.36842105,527.7302632,527.7302632,black,legacy,legacy,legacy,0,congruent,uniform,1,undefined,1,s,0,0,0,151,151,0,151,0,151,0,0,0,151,151,151,151,Fri Sep 20 12:06:06 2019,600,The main experiment item,yes,CB-FlankerTask-Lab1.2.osexp,/Users/cristianbotello/Desktop/Advanced Quant,no,mono,no,18,no,white,no,no,768,legacy,71,79,/Users/cristianbotello/Desktop/Advanced Quant/CB-subject-4.csv,legacy,Kafkaesque Koffka,3.2.8,0,s,NA,s,h,NA,s,396,NA,228700,58439,NA,396,2,legacy,1024,2,48000,-16,experiment,SSSSS,4,even,61661,437327,NA,561022,542935,3176,545324,NA,562146,208624,3211,NA,562262,562661,562134,562262,Flanker Task,148,80215,152,yes,1024
96.73202614,96.73202614,526.8366013,526.8366013,black,legacy,legacy,legacy,0,incongruent,uniform,0,undefined,0,h,0,0,0,152,152,0,152,0,152,0,0,0,152,152,152,152,Fri Sep 20 12:06:06 2019,600,The main experiment item,yes,CB-FlankerTask-Lab1.2.osexp,/Users/cristianbotello/Desktop/Advanced Quant,no,mono,no,18,no,white,no,no,768,legacy,72,79,/Users/cristianbotello/Desktop/Advanced Quant/CB-subject-4.csv,legacy,Kafkaesque Koffka,3.2.8,0,s,NA,s,h,NA,s,391,NA,228700,58439,NA,391,2,legacy,1024,2,48000,-16,experiment,SSHSS,4,even,61661,437327,NA,562676,542935,3176,545324,NA,563778,208624,3211,NA,563893,564288,563765,563893,Flanker Task,148,80606,153,yes,1024
96.75324675,96.75324675,526.9285714,526.9285714,black,legacy,legacy,legacy,0,incongruent,uniform,1,undefined,1,s,0,0,0,153,153,0,153,0,153,0,0,0,153,153,153,153,Fri Sep 20 12:06:06 2019,600,The main experiment item,yes,CB-FlankerTask-Lab1.2.osexp,/Users/cristianbotello/Desktop/Advanced Quant,no,mono,no,18,no,white,no,no,768,legacy,73,79,/Users/cristianbotello/Desktop/Advanced Quant/CB-subject-4.csv,legacy,Kafkaesque Koffka,3.2.8,0,s,NA,s,h,NA,s,541,NA,228700,58439,NA,541,2,legacy,1024,2,48000,-16,experiment,HHSHH,4,even,61661,437327,NA,564819,564306,3176,545324,NA,565921,208624,3211,NA,566036,566583,565909,566036,Flanker Task,149,81147,154,yes,1024
