acc,accuracy,average_response_time,avg_rt,background,canvas_backend,clock_backend,color_backend,compensation,condition,coordinates,correct,correct_instructions1,correct_keyboard_response,correct_response,count_Block1,count_Block2,count_Block3,count_ISI,count_errorFeedback,count_experiment,count_faster,count_finish,count_fixation,count_instructions1,count_instructions2,count_instructions3,count_keyboard_response,count_logger,count_sequence,count_stimulus,datetime,deadline,description,disable_garbage_collection,experiment_file,experiment_path,font_bold,font_family,font_italic,font_size,font_underline,foreground,form_clicks,fullscreen,height,keyboard_backend,live_row,live_row_Block1,logfile,mouse_backend,opensesame_codename,opensesame_version,repeat_cycle,response,response_finish,response_instructions1,response_instructions2,response_instructions3,response_keyboard_response,response_time,response_time_finish,response_time_instructions1,response_time_instructions2,response_time_instructions3,response_time_keyboard_response,round_decimals,sampler_backend,sound_buf_size,sound_channels,sound_freq,sound_sample_size,start,stimulus,subject_nr,subject_parity,time_Block1,time_Block2,time_Block3,time_ISI,time_errorFeedback,time_experiment,time_faster,time_finish,time_fixation,time_instructions1,time_instructions2,time_instructions3,time_keyboard_response,time_logger,time_sequence,time_stimulus,title,total_correct,total_response_time,total_responses,uniform_coordinates,width
100,100,1350,1350,black,legacy,legacy,legacy,0,congruent,uniform,1,undefined,1,s,0,0,0,0,0,0,0,0,0,0,0,0,0,0,0,0,9/22/19 11:06,1500,The main experiment item,yes,FlankerExperiment.osexp,E:\Classwork\AQMAED,no,mono,no,18,no,white,no,yes,768,legacy,0,0,E:/Classwork/AQMAED/subject-1.csv,legacy,Kafkaesque Koffka,3.2.8,0,s,NA,s,NA,NA,s,1350,NA,14087,NA,NA,1350,2,legacy,1024,2,48000,-16,experiment,SSSSS,1,odd,16904,NA,NA,NA,NA,2814,NA,NA,17036,2816,NA,NA,17137,18487,17034,17137,Flanker Experiment,1,1350,1,yes,1024
100,100,1086,1086,black,legacy,legacy,legacy,0,incongruent,uniform,1,undefined,1,s,0,0,0,1,1,0,1,0,1,0,0,0,1,1,1,1,9/22/19 11:06,1500,The main experiment item,yes,FlankerExperiment.osexp,E:\Classwork\AQMAED,no,mono,no,18,no,white,no,yes,768,legacy,1,1,E:/Classwork/AQMAED/subject-1.csv,legacy,Kafkaesque Koffka,3.2.8,0,s,NA,s,NA,NA,s,822,NA,14087,NA,NA,822,2,legacy,1024,2,48000,-16,experiment,HHSHH,1,odd,16904,NA,NA,18521,NA,2814,NA,NA,19582,2816,NA,NA,19683,20506,19580,19683,Flanker Experiment,2,2172,2,yes,1024
100,100,1068,1068,black,legacy,legacy,legacy,0,incongruent,uniform,1,undefined,1,h,0,0,0,2,2,0,2,0,2,0,0,0,2,2,2,2,9/22/19 11:06,1500,The main experiment item,yes,FlankerExperiment.osexp,E:\Classwork\AQMAED,no,mono,no,18,no,white,no,yes,768,legacy,2,2,E:/Classwork/AQMAED/subject-1.csv,legacy,Kafkaesque Koffka,3.2.8,0,h,NA,s,NA,NA,h,1032,NA,14087,NA,NA,1032,2,legacy,1024,2,48000,-16,experiment,SSHSS,1,odd,16904,NA,NA,20518,NA,2814,NA,NA,21582,2816,NA,NA,21683,22715,21580,21683,Flanker Experiment,3,3204,3,yes,1024
100,100,969.25,969.25,black,legacy,legacy,legacy,0,incongruent,uniform,1,undefined,1,h,0,0,0,3,3,0,3,0,3,0,0,0,3,3,3,3,9/22/19 11:06,1500,The main experiment item,yes,FlankerExperiment.osexp,E:\Classwork\AQMAED,no,mono,no,18,no,white,no,yes,768,legacy,3,3,E:/Classwork/AQMAED/subject-1.csv,legacy,Kafkaesque Koffka,3.2.8,0,h,NA,s,NA,NA,h,673,NA,14087,NA,NA,673,2,legacy,1024,2,48000,-16,experiment,SSHSS,1,odd,16904,NA,NA,22720,NA,2814,NA,NA,23779,2816,NA,NA,23880,24554,23777,23880,Flanker Experiment,4,3877,4,yes,1024
100,100,878.6,878.6,black,legacy,legacy,legacy,0,incongruent,uniform,1,undefined,1,h,0,0,0,4,4,0,4,0,4,0,0,0,4,4,4,4,9/22/19 11:06,1500,The main experiment item,yes,FlankerExperiment.osexp,E:\Classwork\AQMAED,no,mono,no,18,no,white,no,yes,768,legacy,4,4,E:/Classwork/AQMAED/subject-1.csv,legacy,Kafkaesque Koffka,3.2.8,0,h,NA,s,NA,NA,h,516,NA,14087,NA,NA,516,2,legacy,1024,2,48000,-16,experiment,SSHSS,1,odd,16904,NA,NA,24563,NA,2814,NA,NA,25629,2816,NA,NA,25730,26247,25627,25730,Flanker Experiment,5,4393,5,yes,1024
100,100,828.1666667,828.1666667,black,legacy,legacy,legacy,0,congruent,uniform,1,undefined,1,s,0,0,0,5,5,0,5,0,5,0,0,0,5,5,5,5,9/22/19 11:06,1500,The main experiment item,yes,FlankerExperiment.osexp,E:\Classwork\AQMAED,no,mono,no,18,no,white,no,yes,768,legacy,5,5,E:/Classwork/AQMAED/subject-1.csv,legacy,Kafkaesque Koffka,3.2.8,0,s,NA,s,NA,NA,s,576,NA,14087,NA,NA,576,2,legacy,1024,2,48000,-16,experiment,SSSSS,1,odd,16904,NA,NA,26256,NA,2814,NA,NA,27318,2816,NA,NA,27419,27996,27315,27419,Flanker Experiment,6,4969,6,yes,1024
100,100,779.2857143,779.2857143,black,legacy,legacy,legacy,0,congruent,uniform,1,undefined,1,s,0,0,0,6,6,0,6,0,6,0,0,0,6,6,6,6,9/22/19 11:06,1500,The main experiment item,yes,FlankerExperiment.osexp,E:\Classwork\AQMAED,no,mono,no,18,no,white,no,yes,768,legacy,6,6,E:/Classwork/AQMAED/subject-1.csv,legacy,Kafkaesque Koffka,3.2.8,0,s,NA,s,NA,NA,s,486,NA,14087,NA,NA,486,2,legacy,1024,2,48000,-16,experiment,SSSSS,1,odd,16904,NA,NA,28005,NA,2814,NA,NA,29065,2816,NA,NA,29166,29653,29062,29166,Flanker Experiment,7,5455,7,yes,1024
100,100,760.375,760.375,black,legacy,legacy,legacy,0,incongruent,uniform,1,undefined,1,h,0,0,0,7,7,0,7,0,7,0,0,0,7,7,7,7,9/22/19 11:06,1500,The main experiment item,yes,FlankerExperiment.osexp,E:\Classwork\AQMAED,no,mono,no,18,no,white,no,yes,768,legacy,7,7,E:/Classwork/AQMAED/subject-1.csv,legacy,Kafkaesque Koffka,3.2.8,0,h,NA,s,NA,NA,h,628,NA,14087,NA,NA,628,2,legacy,1024,2,48000,-16,experiment,SSHSS,1,odd,16904,NA,NA,29662,NA,2814,NA,NA,30731,2816,NA,NA,30832,31461,30728,30832,Flanker Experiment,8,6083,8,yes,1024
100,100,751.8888889,751.8888889,black,legacy,legacy,legacy,0,incongruent,uniform,1,undefined,1,h,0,0,0,8,8,0,8,0,8,0,0,0,8,8,8,8,9/22/19 11:06,1500,The main experiment item,yes,FlankerExperiment.osexp,E:\Classwork\AQMAED,no,mono,no,18,no,white,no,yes,768,legacy,8,8,E:/Classwork/AQMAED/subject-1.csv,legacy,Kafkaesque Koffka,3.2.8,0,h,NA,s,NA,NA,h,684,NA,14087,NA,NA,684,2,legacy,1024,2,48000,-16,experiment,SSHSS,1,odd,16904,NA,NA,31470,NA,2814,NA,NA,32529,2816,NA,NA,32630,33314,32526,32630,Flanker Experiment,9,6767,9,yes,1024
100,100,754.6,754.6,black,legacy,legacy,legacy,0,incongruent,uniform,1,undefined,1,h,0,0,0,9,9,0,9,0,9,0,0,0,9,9,9,9,9/22/19 11:06,1500,The main experiment item,yes,FlankerExperiment.osexp,E:\Classwork\AQMAED,no,mono,no,18,no,white,no,yes,768,legacy,9,9,E:/Classwork/AQMAED/subject-1.csv,legacy,Kafkaesque Koffka,3.2.8,0,h,NA,s,NA,NA,h,779,NA,14087,NA,NA,779,2,legacy,1024,2,48000,-16,experiment,SSHSS,1,odd,16904,NA,NA,33323,NA,2814,NA,NA,34382,2816,NA,NA,34483,35263,34380,34483,Flanker Experiment,10,7546,10,yes,1024
100,100,740,740,black,legacy,legacy,legacy,0,congruent,uniform,1,undefined,1,s,0,0,0,10,10,0,10,0,10,0,0,0,10,10,10,10,9/22/19 11:06,1500,The main experiment item,yes,FlankerExperiment.osexp,E:\Classwork\AQMAED,no,mono,no,18,no,white,no,yes,768,legacy,10,10,E:/Classwork/AQMAED/subject-1.csv,legacy,Kafkaesque Koffka,3.2.8,0,s,NA,s,NA,NA,s,594,NA,14087,NA,NA,594,2,legacy,1024,2,48000,-16,experiment,SSSSS,1,odd,16904,NA,NA,35272,NA,2814,NA,NA,36335,2816,NA,NA,36436,37031,36333,36436,Flanker Experiment,11,8140,11,yes,1024
100,100,729.6666667,729.6666667,black,legacy,legacy,legacy,0,congruent,uniform,1,undefined,1,h,0,0,0,11,11,0,11,0,11,0,0,0,11,11,11,11,9/22/19 11:06,1500,The main experiment item,yes,FlankerExperiment.osexp,E:\Classwork\AQMAED,no,mono,no,18,no,white,no,yes,768,legacy,11,11,E:/Classwork/AQMAED/subject-1.csv,legacy,Kafkaesque Koffka,3.2.8,0,h,NA,s,NA,NA,h,616,NA,14087,NA,NA,616,2,legacy,1024,2,48000,-16,experiment,HHHHH,1,odd,16904,NA,NA,37042,NA,2814,NA,NA,38119,2816,NA,NA,38223,38839,38116,38222,Flanker Experiment,12,8756,12,yes,1024
100,100,727,727,black,legacy,legacy,legacy,0,congruent,uniform,1,undefined,1,s,0,0,0,12,12,0,12,0,12,0,0,0,12,12,12,12,9/22/19 11:06,1500,The main experiment item,yes,FlankerExperiment.osexp,E:\Classwork\AQMAED,no,mono,no,18,no,white,no,yes,768,legacy,12,12,E:/Classwork/AQMAED/subject-1.csv,legacy,Kafkaesque Koffka,3.2.8,0,s,NA,s,NA,NA,s,695,NA,14087,NA,NA,695,2,legacy,1024,2,48000,-16,experiment,SSSSS,1,odd,16904,NA,NA,38848,NA,2814,NA,NA,39916,2816,NA,NA,40017,40712,39913,40017,Flanker Experiment,13,9451,13,yes,1024
100,100,710.6428571,710.6428571,black,legacy,legacy,legacy,0,congruent,uniform,1,undefined,1,s,0,0,0,13,13,0,13,0,13,0,0,0,13,13,13,13,9/22/19 11:06,1500,The main experiment item,yes,FlankerExperiment.osexp,E:\Classwork\AQMAED,no,mono,no,18,no,white,no,yes,768,legacy,13,13,E:/Classwork/AQMAED/subject-1.csv,legacy,Kafkaesque Koffka,3.2.8,0,s,NA,s,NA,NA,s,498,NA,14087,NA,NA,498,2,legacy,1024,2,48000,-16,experiment,SSSSS,1,odd,16904,NA,NA,40721,NA,2814,NA,NA,41786,2816,NA,NA,41887,42385,41784,41887,Flanker Experiment,14,9949,14,yes,1024
100,100,692.2,692.2,black,legacy,legacy,legacy,0,congruent,uniform,1,undefined,1,h,0,0,0,14,14,0,14,0,14,0,0,0,14,14,14,14,9/22/19 11:06,1500,The main experiment item,yes,FlankerExperiment.osexp,E:\Classwork\AQMAED,no,mono,no,18,no,white,no,yes,768,legacy,14,14,E:/Classwork/AQMAED/subject-1.csv,legacy,Kafkaesque Koffka,3.2.8,0,h,NA,s,NA,NA,h,434,NA,14087,NA,NA,434,2,legacy,1024,2,48000,-16,experiment,HHHHH,1,odd,16904,NA,NA,42390,NA,2814,NA,NA,43473,2816,NA,NA,43574,44009,43470,43574,Flanker Experiment,15,10383,15,yes,1024
100,100,683,683,black,legacy,legacy,legacy,0,incongruent,uniform,1,undefined,1,h,0,0,0,15,15,0,15,0,15,0,0,0,15,15,15,15,9/22/19 11:06,1500,The main experiment item,yes,FlankerExperiment.osexp,E:\Classwork\AQMAED,no,mono,no,18,no,white,no,yes,768,legacy,15,15,E:/Classwork/AQMAED/subject-1.csv,legacy,Kafkaesque Koffka,3.2.8,0,h,NA,s,NA,NA,h,545,NA,14087,NA,NA,545,2,legacy,1024,2,48000,-16,experiment,SSHSS,1,odd,16904,NA,NA,44019,NA,2814,NA,NA,45095,2816,NA,NA,45197,45742,45093,45197,Flanker Experiment,16,10928,16,yes,1024
94.11764706,94.11764706,666.7647059,666.7647059,black,legacy,legacy,legacy,0,congruent,uniform,0,undefined,0,s,0,0,0,16,16,0,16,0,16,0,0,0,16,16,16,16,9/22/19 11:06,1500,The main experiment item,yes,FlankerExperiment.osexp,E:\Classwork\AQMAED,no,mono,no,18,no,white,no,yes,768,legacy,16,16,E:/Classwork/AQMAED/subject-1.csv,legacy,Kafkaesque Koffka,3.2.8,0,h,NA,s,NA,NA,h,407,NA,14087,NA,NA,407,2,legacy,1024,2,48000,-16,experiment,SSSSS,1,odd,16904,NA,NA,45756,NA,2814,NA,NA,46850,2816,NA,NA,46952,47359,46848,46952,Flanker Experiment,16,11335,17,yes,1024
94.44444444,94.44444444,672.7777778,672.7777778,black,legacy,legacy,legacy,0,incongruent,uniform,1,undefined,1,s,0,0,0,17,17,0,17,0,17,0,0,0,17,17,17,17,9/22/19 11:06,1500,The main experiment item,yes,FlankerExperiment.osexp,E:\Classwork\AQMAED,no,mono,no,18,no,white,no,yes,768,legacy,17,17,E:/Classwork/AQMAED/subject-1.csv,legacy,Kafkaesque Koffka,3.2.8,0,s,NA,s,NA,NA,s,775,NA,14087,NA,NA,775,2,legacy,1024,2,48000,-16,experiment,HHSHH,1,odd,16904,NA,NA,47870,47367,2814,NA,NA,48938,2816,NA,NA,49039,49815,48935,49039,Flanker Experiment,17,12110,18,yes,1024
94.73684211,94.73684211,667.9473684,667.9473684,black,legacy,legacy,legacy,0,congruent,uniform,1,undefined,1,h,0,0,0,18,18,0,18,0,18,0,0,0,18,18,18,18,9/22/19 11:06,1500,The main experiment item,yes,FlankerExperiment.osexp,E:\Classwork\AQMAED,no,mono,no,18,no,white,no,yes,768,legacy,18,18,E:/Classwork/AQMAED/subject-1.csv,legacy,Kafkaesque Koffka,3.2.8,0,h,NA,s,NA,NA,h,581,NA,14087,NA,NA,581,2,legacy,1024,2,48000,-16,experiment,HHHHH,1,odd,16904,NA,NA,49824,47367,2814,NA,NA,50895,2816,NA,NA,50996,51577,50892,50996,Flanker Experiment,18,12691,19,yes,1024
95,95,662.3,662.3,black,legacy,legacy,legacy,0,congruent,uniform,1,undefined,1,s,0,0,0,19,19,0,19,0,19,0,0,0,19,19,19,19,9/22/19 11:06,1500,The main experiment item,yes,FlankerExperiment.osexp,E:\Classwork\AQMAED,no,mono,no,18,no,white,no,yes,768,legacy,19,19,E:/Classwork/AQMAED/subject-1.csv,legacy,Kafkaesque Koffka,3.2.8,0,s,NA,s,NA,NA,s,555,NA,14087,NA,NA,555,2,legacy,1024,2,48000,-16,experiment,SSSSS,1,odd,16904,NA,NA,51585,47367,2814,NA,NA,52657,2816,NA,NA,52760,53315,52654,52760,Flanker Experiment,19,13246,20,yes,1024
95.23809524,95.23809524,658.2857143,658.2857143,black,legacy,legacy,legacy,0,congruent,uniform,1,undefined,1,h,0,0,0,20,20,0,20,0,20,0,0,0,20,20,20,20,9/22/19 11:06,1500,The main experiment item,yes,FlankerExperiment.osexp,E:\Classwork\AQMAED,no,mono,no,18,no,white,no,yes,768,legacy,20,20,E:/Classwork/AQMAED/subject-1.csv,legacy,Kafkaesque Koffka,3.2.8,0,h,NA,s,NA,NA,h,578,NA,14087,NA,NA,578,2,legacy,1024,2,48000,-16,experiment,HHHHH,1,odd,16904,NA,NA,53323,47367,2814,NA,NA,54397,2816,NA,NA,54499,55077,54394,54499,Flanker Experiment,20,13824,21,yes,1024
95.45454545,95.45454545,663.8181818,663.8181818,black,legacy,legacy,legacy,0,incongruent,uniform,1,undefined,1,h,0,0,0,21,21,0,21,0,21,0,0,0,21,21,21,21,9/22/19 11:06,1500,The main experiment item,yes,FlankerExperiment.osexp,E:\Classwork\AQMAED,no,mono,no,18,no,white,no,yes,768,legacy,21,21,E:/Classwork/AQMAED/subject-1.csv,legacy,Kafkaesque Koffka,3.2.8,0,h,NA,s,NA,NA,h,780,NA,14087,NA,NA,780,2,legacy,1024,2,48000,-16,experiment,SSHSS,1,odd,16904,NA,NA,55100,47367,2814,NA,NA,56172,2816,NA,NA,56276,57056,56170,56276,Flanker Experiment,21,14604,22,yes,1024
95.65217391,95.65217391,659.1304348,659.1304348,black,legacy,legacy,legacy,0,congruent,uniform,1,undefined,1,s,0,0,0,22,22,0,22,0,22,0,0,0,22,22,22,22,9/22/19 11:06,1500,The main experiment item,yes,FlankerExperiment.osexp,E:\Classwork\AQMAED,no,mono,no,18,no,white,no,yes,768,legacy,22,22,E:/Classwork/AQMAED/subject-1.csv,legacy,Kafkaesque Koffka,3.2.8,0,s,NA,s,NA,NA,s,556,NA,14087,NA,NA,556,2,legacy,1024,2,48000,-16,experiment,SSSSS,1,odd,16904,NA,NA,57069,47367,2814,NA,NA,58146,2816,NA,NA,58247,58804,58144,58247,Flanker Experiment,22,15160,23,yes,1024
95.83333333,95.83333333,659.4166667,659.4166667,black,legacy,legacy,legacy,0,congruent,uniform,1,undefined,1,s,0,0,0,23,23,0,23,0,23,0,0,0,23,23,23,23,9/22/19 11:06,1500,The main experiment item,yes,FlankerExperiment.osexp,E:\Classwork\AQMAED,no,mono,no,18,no,white,no,yes,768,legacy,23,23,E:/Classwork/AQMAED/subject-1.csv,legacy,Kafkaesque Koffka,3.2.8,0,s,NA,s,NA,NA,s,666,NA,14087,NA,NA,666,2,legacy,1024,2,48000,-16,experiment,SSSSS,1,odd,16904,NA,NA,58812,47367,2814,NA,NA,59886,2816,NA,NA,59990,60656,59884,59990,Flanker Experiment,23,15826,24,yes,1024
96,96,651.44,651.44,black,legacy,legacy,legacy,0,congruent,uniform,1,undefined,1,s,0,0,0,24,24,0,24,0,24,0,0,0,24,24,24,24,9/22/19 11:06,1500,The main experiment item,yes,FlankerExperiment.osexp,E:\Classwork\AQMAED,no,mono,no,18,no,white,no,yes,768,legacy,24,24,E:/Classwork/AQMAED/subject-1.csv,legacy,Kafkaesque Koffka,3.2.8,0,s,NA,s,NA,NA,s,460,NA,14087,NA,NA,460,2,legacy,1024,2,48000,-16,experiment,SSSSS,1,odd,16904,NA,NA,60667,47367,2814,NA,NA,61726,2816,NA,NA,61830,62291,61724,61830,Flanker Experiment,24,16286,25,yes,1024
96.15384615,96.15384615,647.7307692,647.7307692,black,legacy,legacy,legacy,0,congruent,uniform,1,undefined,1,h,0,0,0,25,25,0,25,0,25,0,0,0,25,25,25,25,9/22/19 11:06,1500,The main experiment item,yes,FlankerExperiment.osexp,E:\Classwork\AQMAED,no,mono,no,18,no,white,no,yes,768,legacy,25,25,E:/Classwork/AQMAED/subject-1.csv,legacy,Kafkaesque Koffka,3.2.8,0,h,NA,s,NA,NA,h,555,NA,14087,NA,NA,555,2,legacy,1024,2,48000,-16,experiment,HHHHH,1,odd,16904,NA,NA,62301,47367,2814,NA,NA,63378,2816,NA,NA,63482,64037,63375,63482,Flanker Experiment,25,16841,26,yes,1024
96.2962963,96.2962963,644.5555556,644.5555556,black,legacy,legacy,legacy,0,congruent,uniform,1,undefined,1,h,0,0,0,26,26,0,26,0,26,0,0,0,26,26,26,26,9/22/19 11:06,1500,The main experiment item,yes,FlankerExperiment.osexp,E:\Classwork\AQMAED,no,mono,no,18,no,white,no,yes,768,legacy,26,26,E:/Classwork/AQMAED/subject-1.csv,legacy,Kafkaesque Koffka,3.2.8,0,h,NA,s,NA,NA,h,562,NA,14087,NA,NA,562,2,legacy,1024,2,48000,-16,experiment,HHHHH,1,odd,16904,NA,NA,64048,47367,2814,NA,NA,65122,2816,NA,NA,65224,65786,65119,65224,Flanker Experiment,26,17403,27,yes,1024
96.42857143,96.42857143,639.75,639.75,black,legacy,legacy,legacy,0,incongruent,uniform,1,undefined,1,s,0,0,0,27,27,0,27,0,27,0,0,0,27,27,27,27,9/22/19 11:06,1500,The main experiment item,yes,FlankerExperiment.osexp,E:\Classwork\AQMAED,no,mono,no,18,no,white,no,yes,768,legacy,27,27,E:/Classwork/AQMAED/subject-1.csv,legacy,Kafkaesque Koffka,3.2.8,0,s,NA,s,NA,NA,s,510,NA,14087,NA,NA,510,2,legacy,1024,2,48000,-16,experiment,HHSHH,1,odd,16904,NA,NA,65795,47367,2814,NA,NA,66860,2816,NA,NA,66963,67473,66857,66963,Flanker Experiment,27,17913,28,yes,1024
96.55172414,96.55172414,637.6206897,637.6206897,black,legacy,legacy,legacy,0,incongruent,uniform,1,undefined,1,s,0,0,0,28,28,0,28,0,28,0,0,0,28,28,28,28,9/22/19 11:06,1500,The main experiment item,yes,FlankerExperiment.osexp,E:\Classwork\AQMAED,no,mono,no,18,no,white,no,yes,768,legacy,28,28,E:/Classwork/AQMAED/subject-1.csv,legacy,Kafkaesque Koffka,3.2.8,0,s,NA,s,NA,NA,s,578,NA,14087,NA,NA,578,2,legacy,1024,2,48000,-16,experiment,HHSHH,1,odd,16904,NA,NA,67482,47367,2814,NA,NA,68556,2816,NA,NA,68657,69236,68554,68657,Flanker Experiment,28,18491,29,yes,1024
96.66666667,96.66666667,641.7,641.7,black,legacy,legacy,legacy,0,incongruent,uniform,1,undefined,1,h,0,0,0,29,29,0,29,0,29,0,0,0,29,29,29,29,9/22/19 11:06,1500,The main experiment item,yes,FlankerExperiment.osexp,E:\Classwork\AQMAED,no,mono,no,18,no,white,no,yes,768,legacy,29,29,E:/Classwork/AQMAED/subject-1.csv,legacy,Kafkaesque Koffka,3.2.8,0,h,NA,s,NA,NA,h,760,NA,14087,NA,NA,760,2,legacy,1024,2,48000,-16,experiment,SSHSS,1,odd,16904,NA,NA,69246,47367,2814,NA,NA,70320,2816,NA,NA,70424,71184,70318,70423,Flanker Experiment,29,19251,30,yes,1024
96.77419355,96.77419355,643.7419355,643.7419355,black,legacy,legacy,legacy,0,incongruent,uniform,1,undefined,1,s,0,0,0,30,30,0,30,0,30,0,0,0,30,30,30,30,9/22/19 11:06,1500,The main experiment item,yes,FlankerExperiment.osexp,E:\Classwork\AQMAED,no,mono,no,18,no,white,no,yes,768,legacy,30,30,E:/Classwork/AQMAED/subject-1.csv,legacy,Kafkaesque Koffka,3.2.8,0,s,NA,s,NA,NA,s,705,NA,14087,NA,NA,705,2,legacy,1024,2,48000,-16,experiment,HHSHH,1,odd,16904,NA,NA,71193,47367,2814,NA,NA,72263,2816,NA,NA,72367,73072,72260,72367,Flanker Experiment,30,19956,31,yes,1024
96.875,96.875,638.4375,638.4375,black,legacy,legacy,legacy,0,congruent,uniform,1,undefined,1,h,0,0,0,31,31,0,31,0,31,0,0,0,31,31,31,31,9/22/19 11:06,1500,The main experiment item,yes,FlankerExperiment.osexp,E:\Classwork\AQMAED,no,mono,no,18,no,white,no,yes,768,legacy,31,31,E:/Classwork/AQMAED/subject-1.csv,legacy,Kafkaesque Koffka,3.2.8,0,h,NA,s,NA,NA,h,474,NA,14087,NA,NA,474,2,legacy,1024,2,48000,-16,experiment,HHHHH,1,odd,16904,NA,NA,73083,47367,2814,NA,NA,74151,2816,NA,NA,74255,74730,74148,74255,Flanker Experiment,31,20430,32,yes,1024
96.96969697,96.96969697,635.6363636,635.6363636,black,legacy,legacy,legacy,0,congruent,uniform,1,undefined,1,s,0,0,0,32,32,0,32,0,32,0,0,0,32,32,32,32,9/22/19 11:06,1500,The main experiment item,yes,FlankerExperiment.osexp,E:\Classwork\AQMAED,no,mono,no,18,no,white,no,yes,768,legacy,32,32,E:/Classwork/AQMAED/subject-1.csv,legacy,Kafkaesque Koffka,3.2.8,0,s,NA,s,NA,NA,s,546,NA,14087,NA,NA,546,2,legacy,1024,2,48000,-16,experiment,SSSSS,1,odd,16904,NA,NA,74738,47367,2814,NA,NA,75812,2816,NA,NA,75916,76462,75810,75916,Flanker Experiment,32,20976,33,yes,1024
97.05882353,97.05882353,633.2352941,633.2352941,black,legacy,legacy,legacy,0,congruent,uniform,1,undefined,1,h,0,0,0,33,33,0,33,0,33,0,0,0,33,33,33,33,9/22/19 11:06,1500,The main experiment item,yes,FlankerExperiment.osexp,E:\Classwork\AQMAED,no,mono,no,18,no,white,no,yes,768,legacy,33,33,E:/Classwork/AQMAED/subject-1.csv,legacy,Kafkaesque Koffka,3.2.8,0,h,NA,s,NA,NA,h,554,NA,14087,NA,NA,554,2,legacy,1024,2,48000,-16,experiment,HHHHH,1,odd,16904,NA,NA,76471,47367,2814,NA,NA,77550,2816,NA,NA,77652,78206,77547,77652,Flanker Experiment,33,21530,34,yes,1024
97.14285714,97.14285714,633.9142857,633.9142857,black,legacy,legacy,legacy,0,incongruent,uniform,1,undefined,1,s,0,0,0,34,34,0,34,0,34,0,0,0,34,34,34,34,9/22/19 11:06,1500,The main experiment item,yes,FlankerExperiment.osexp,E:\Classwork\AQMAED,no,mono,no,18,no,white,no,yes,768,legacy,34,34,E:/Classwork/AQMAED/subject-1.csv,legacy,Kafkaesque Koffka,3.2.8,0,s,NA,s,NA,NA,s,657,NA,14087,NA,NA,657,2,legacy,1024,2,48000,-16,experiment,HHSHH,1,odd,16904,NA,NA,78215,47367,2814,NA,NA,79279,2816,NA,NA,79381,80038,79277,79381,Flanker Experiment,34,22187,35,yes,1024
94.44444444,94.44444444,633.2222222,633.2222222,black,legacy,legacy,legacy,0,incongruent,uniform,0,undefined,0,s,0,0,0,35,35,0,35,0,35,0,0,0,35,35,35,35,9/22/19 11:06,1500,The main experiment item,yes,FlankerExperiment.osexp,E:\Classwork\AQMAED,no,mono,no,18,no,white,no,yes,768,legacy,35,35,E:/Classwork/AQMAED/subject-1.csv,legacy,Kafkaesque Koffka,3.2.8,0,h,NA,s,NA,NA,h,609,NA,14087,NA,NA,609,2,legacy,1024,2,48000,-16,experiment,HHSHH,1,odd,16904,NA,NA,80048,47367,2814,NA,NA,81127,2816,NA,NA,81231,81841,81125,81231,Flanker Experiment,34,22796,36,yes,1024
94.59459459,94.59459459,646.6216216,646.6216216,black,legacy,legacy,legacy,0,incongruent,uniform,1,undefined,1,s,0,0,0,36,36,0,36,0,36,0,0,0,36,36,36,36,9/22/19 11:06,1500,The main experiment item,yes,FlankerExperiment.osexp,E:\Classwork\AQMAED,no,mono,no,18,no,white,no,yes,768,legacy,36,36,E:/Classwork/AQMAED/subject-1.csv,legacy,Kafkaesque Koffka,3.2.8,0,s,NA,s,NA,NA,s,1129,NA,14087,NA,NA,1129,2,legacy,1024,2,48000,-16,experiment,HHSHH,1,odd,16904,NA,NA,82350,81846,2814,NA,NA,83426,2816,NA,NA,83528,84658,83424,83528,Flanker Experiment,35,23925,37,yes,1024
94.73684211,94.73684211,644.7368421,644.7368421,black,legacy,legacy,legacy,0,incongruent,uniform,1,undefined,1,s,0,0,0,37,37,0,37,0,37,0,0,0,37,37,37,37,9/22/19 11:06,1500,The main experiment item,yes,FlankerExperiment.osexp,E:\Classwork\AQMAED,no,mono,no,18,no,white,no,yes,768,legacy,37,37,E:/Classwork/AQMAED/subject-1.csv,legacy,Kafkaesque Koffka,3.2.8,0,s,NA,s,NA,NA,s,575,NA,14087,NA,NA,575,2,legacy,1024,2,48000,-16,experiment,HHSHH,1,odd,16904,NA,NA,84668,81846,2814,NA,NA,85732,2816,NA,NA,85833,86408,85729,85833,Flanker Experiment,36,24500,38,yes,1024
94.87179487,94.87179487,655.1794872,655.1794872,black,legacy,legacy,legacy,0,congruent,uniform,1,undefined,1,h,0,0,0,38,38,0,38,0,38,0,0,0,38,38,38,38,9/22/19 11:06,1500,The main experiment item,yes,FlankerExperiment.osexp,E:\Classwork\AQMAED,no,mono,no,18,no,white,no,yes,768,legacy,38,38,E:/Classwork/AQMAED/subject-1.csv,legacy,Kafkaesque Koffka,3.2.8,0,h,NA,s,NA,NA,h,1052,NA,14087,NA,NA,1052,2,legacy,1024,2,48000,-16,experiment,HHHHH,1,odd,16904,NA,NA,86428,81846,2814,NA,NA,87504,2816,NA,NA,87609,88661,87501,87609,Flanker Experiment,37,25552,39,yes,1024
95,95,656.2,656.2,black,legacy,legacy,legacy,0,congruent,uniform,1,undefined,1,s,0,0,0,39,39,0,39,0,39,0,0,0,39,39,39,39,9/22/19 11:06,1500,The main experiment item,yes,FlankerExperiment.osexp,E:\Classwork\AQMAED,no,mono,no,18,no,white,no,yes,768,legacy,39,39,E:/Classwork/AQMAED/subject-1.csv,legacy,Kafkaesque Koffka,3.2.8,0,s,NA,s,NA,NA,s,696,NA,14087,NA,NA,696,2,legacy,1024,2,48000,-16,experiment,SSSSS,1,odd,16904,NA,NA,88673,81846,2814,NA,NA,89745,2816,NA,NA,89849,90546,89743,89849,Flanker Experiment,38,26248,40,yes,1024
95.12195122,95.12195122,651.5609756,651.5609756,black,legacy,legacy,legacy,0,congruent,uniform,1,undefined,1,s,0,0,0,40,40,0,40,0,40,0,0,0,40,40,40,40,9/22/19 11:06,1500,The main experiment item,yes,FlankerExperiment.osexp,E:\Classwork\AQMAED,no,mono,no,18,no,white,no,yes,768,legacy,40,40,E:/Classwork/AQMAED/subject-1.csv,legacy,Kafkaesque Koffka,3.2.8,0,s,NA,s,NA,NA,s,466,NA,14087,NA,NA,466,2,legacy,1024,2,48000,-16,experiment,SSSSS,1,odd,16904,NA,NA,90556,81846,2814,NA,NA,91632,2816,NA,NA,91736,92203,91630,91735,Flanker Experiment,39,26714,41,yes,1024
95.23809524,95.23809524,649.6666667,649.6666667,black,legacy,legacy,legacy,0,incongruent,uniform,1,undefined,1,h,0,0,0,41,41,0,41,0,41,0,0,0,41,41,41,41,9/22/19 11:06,1500,The main experiment item,yes,FlankerExperiment.osexp,E:\Classwork\AQMAED,no,mono,no,18,no,white,no,yes,768,legacy,41,41,E:/Classwork/AQMAED/subject-1.csv,legacy,Kafkaesque Koffka,3.2.8,0,h,NA,s,NA,NA,h,572,NA,14087,NA,NA,572,2,legacy,1024,2,48000,-16,experiment,SSHSS,1,odd,16904,NA,NA,92208,81846,2814,NA,NA,93295,2816,NA,NA,93397,93970,93292,93397,Flanker Experiment,40,27286,42,yes,1024
95.34883721,95.34883721,656.1860465,656.1860465,black,legacy,legacy,legacy,0,congruent,uniform,1,undefined,1,h,0,0,0,42,42,0,42,0,42,0,0,0,42,42,42,42,9/22/19 11:06,1500,The main experiment item,yes,FlankerExperiment.osexp,E:\Classwork\AQMAED,no,mono,no,18,no,white,no,yes,768,legacy,42,42,E:/Classwork/AQMAED/subject-1.csv,legacy,Kafkaesque Koffka,3.2.8,0,h,NA,s,NA,NA,h,930,NA,14087,NA,NA,930,2,legacy,1024,2,48000,-16,experiment,HHHHH,1,odd,16904,NA,NA,93981,81846,2814,NA,NA,95056,2816,NA,NA,95159,96090,95054,95159,Flanker Experiment,41,28216,43,yes,1024
95.45454545,95.45454545,655.1818182,655.1818182,black,legacy,legacy,legacy,0,congruent,uniform,1,undefined,1,s,0,0,0,43,43,0,43,0,43,0,0,0,43,43,43,43,9/22/19 11:06,1500,The main experiment item,yes,FlankerExperiment.osexp,E:\Classwork\AQMAED,no,mono,no,18,no,white,no,yes,768,legacy,43,43,E:/Classwork/AQMAED/subject-1.csv,legacy,Kafkaesque Koffka,3.2.8,0,s,NA,s,NA,NA,s,612,NA,14087,NA,NA,612,2,legacy,1024,2,48000,-16,experiment,SSSSS,1,odd,16904,NA,NA,96100,81846,2814,NA,NA,97172,2816,NA,NA,97274,97887,97170,97274,Flanker Experiment,42,28828,44,yes,1024
95.55555556,95.55555556,654.6666667,654.6666667,black,legacy,legacy,legacy,0,congruent,uniform,1,undefined,1,s,0,0,0,44,44,0,44,0,44,0,0,0,44,44,44,44,9/22/19 11:06,1500,The main experiment item,yes,FlankerExperiment.osexp,E:\Classwork\AQMAED,no,mono,no,18,no,white,no,yes,768,legacy,44,44,E:/Classwork/AQMAED/subject-1.csv,legacy,Kafkaesque Koffka,3.2.8,0,s,NA,s,NA,NA,s,632,NA,14087,NA,NA,632,2,legacy,1024,2,48000,-16,experiment,SSSSS,1,odd,16904,NA,NA,97897,81846,2814,NA,NA,98967,2816,NA,NA,99072,99705,98965,99072,Flanker Experiment,43,29460,45,yes,1024
95.65217391,95.65217391,652.6956522,652.6956522,black,legacy,legacy,legacy,0,incongruent,uniform,1,undefined,1,s,0,0,0,45,45,0,45,0,45,0,0,0,45,45,45,45,9/22/19 11:06,1500,The main experiment item,yes,FlankerExperiment.osexp,E:\Classwork\AQMAED,no,mono,no,18,no,white,no,yes,768,legacy,45,45,E:/Classwork/AQMAED/subject-1.csv,legacy,Kafkaesque Koffka,3.2.8,0,s,NA,s,NA,NA,s,564,NA,14087,NA,NA,564,2,legacy,1024,2,48000,-16,experiment,HHSHH,1,odd,16904,NA,NA,99715,81846,2814,NA,NA,100793,2816,NA,NA,100897,101462,100791,100897,Flanker Experiment,44,30024,46,yes,1024
95.74468085,95.74468085,651.1489362,651.1489362,black,legacy,legacy,legacy,0,incongruent,uniform,1,undefined,1,h,0,0,0,46,46,0,46,0,46,0,0,0,46,46,46,46,9/22/19 11:06,1500,The main experiment item,yes,FlankerExperiment.osexp,E:\Classwork\AQMAED,no,mono,no,18,no,white,no,yes,768,legacy,46,46,E:/Classwork/AQMAED/subject-1.csv,legacy,Kafkaesque Koffka,3.2.8,0,h,NA,s,NA,NA,h,580,NA,14087,NA,NA,580,2,legacy,1024,2,48000,-16,experiment,SSHSS,1,odd,16904,NA,NA,101472,81846,2814,NA,NA,102545,2816,NA,NA,102648,103229,102542,102648,Flanker Experiment,45,30604,47,yes,1024
95.83333333,95.83333333,649.375,649.375,black,legacy,legacy,legacy,0,congruent,uniform,1,undefined,1,s,0,0,0,47,47,0,47,0,47,0,0,0,47,47,47,47,9/22/19 11:06,1500,The main experiment item,yes,FlankerExperiment.osexp,E:\Classwork\AQMAED,no,mono,no,18,no,white,no,yes,768,legacy,47,47,E:/Classwork/AQMAED/subject-1.csv,legacy,Kafkaesque Koffka,3.2.8,0,s,NA,s,NA,NA,s,566,NA,14087,NA,NA,566,2,legacy,1024,2,48000,-16,experiment,SSSSS,1,odd,16904,NA,NA,103239,81846,2814,NA,NA,104316,2816,NA,NA,104420,104986,104313,104420,Flanker Experiment,46,31170,48,yes,1024
95.91836735,95.91836735,647.9387755,647.9387755,black,legacy,legacy,legacy,0,congruent,uniform,1,undefined,1,h,0,0,0,48,48,0,48,0,48,0,0,0,48,48,48,48,9/22/19 11:06,1500,The main experiment item,yes,FlankerExperiment.osexp,E:\Classwork\AQMAED,no,mono,no,18,no,white,no,yes,768,legacy,48,48,E:/Classwork/AQMAED/subject-1.csv,legacy,Kafkaesque Koffka,3.2.8,0,h,NA,s,NA,NA,h,579,NA,14087,NA,NA,579,2,legacy,1024,2,48000,-16,experiment,HHHHH,1,odd,16904,NA,NA,104996,81846,2814,NA,NA,106057,2816,NA,NA,106159,106739,106054,106159,Flanker Experiment,47,31749,49,yes,1024
96,96,651.74,651.74,black,legacy,legacy,legacy,0,congruent,uniform,1,undefined,1,h,0,0,0,49,49,0,49,0,49,0,0,0,49,49,49,49,9/22/19 11:06,1500,The main experiment item,yes,FlankerExperiment.osexp,E:\Classwork\AQMAED,no,mono,no,18,no,white,no,yes,768,legacy,49,49,E:/Classwork/AQMAED/subject-1.csv,legacy,Kafkaesque Koffka,3.2.8,0,h,NA,s,NA,NA,h,838,NA,14087,NA,NA,838,2,legacy,1024,2,48000,-16,experiment,HHHHH,1,odd,16904,NA,NA,106748,81846,2814,NA,NA,107809,2816,NA,NA,107913,108751,107807,107912,Flanker Experiment,48,32587,50,yes,1024
96.07843137,96.07843137,650.5882353,650.5882353,black,legacy,legacy,legacy,0,incongruent,uniform,1,undefined,1,h,0,0,0,50,50,0,50,0,50,0,0,0,50,50,50,50,9/22/19 11:06,1500,The main experiment item,yes,FlankerExperiment.osexp,E:\Classwork\AQMAED,no,mono,no,18,no,white,no,yes,768,legacy,50,50,E:/Classwork/AQMAED/subject-1.csv,legacy,Kafkaesque Koffka,3.2.8,0,h,NA,s,NA,NA,h,593,NA,14087,NA,NA,593,2,legacy,1024,2,48000,-16,experiment,SSHSS,1,odd,16904,NA,NA,108762,81846,2814,NA,NA,109842,2816,NA,NA,109946,110540,109839,109945,Flanker Experiment,49,33180,51,yes,1024
96.15384615,96.15384615,650.5769231,650.5769231,black,legacy,legacy,legacy,0,incongruent,uniform,1,undefined,1,s,0,0,0,51,51,0,51,0,51,0,0,0,51,51,51,51,9/22/19 11:06,1500,The main experiment item,yes,FlankerExperiment.osexp,E:\Classwork\AQMAED,no,mono,no,18,no,white,no,yes,768,legacy,51,51,E:/Classwork/AQMAED/subject-1.csv,legacy,Kafkaesque Koffka,3.2.8,0,s,NA,s,NA,NA,s,650,NA,14087,NA,NA,650,2,legacy,1024,2,48000,-16,experiment,HHSHH,1,odd,16904,NA,NA,110550,81846,2814,NA,NA,111627,2816,NA,NA,111731,112382,111624,111731,Flanker Experiment,50,33830,52,yes,1024
96.22641509,96.22641509,652.0754717,652.0754717,black,legacy,legacy,legacy,0,incongruent,uniform,1,undefined,1,s,0,0,0,52,52,0,52,0,52,0,0,0,52,52,52,52,9/22/19 11:06,1500,The main experiment item,yes,FlankerExperiment.osexp,E:\Classwork\AQMAED,no,mono,no,18,no,white,no,yes,768,legacy,52,52,E:/Classwork/AQMAED/subject-1.csv,legacy,Kafkaesque Koffka,3.2.8,0,s,NA,s,NA,NA,s,730,NA,14087,NA,NA,730,2,legacy,1024,2,48000,-16,experiment,HHSHH,1,odd,16904,NA,NA,112386,81846,2814,NA,NA,113445,2816,NA,NA,113549,114280,113443,113549,Flanker Experiment,51,34560,53,yes,1024
96.2962963,96.2962963,655.7037037,655.7037037,black,legacy,legacy,legacy,0,congruent,uniform,1,undefined,1,s,0,0,0,53,53,0,53,0,53,0,0,0,53,53,53,53,9/22/19 11:06,1500,The main experiment item,yes,FlankerExperiment.osexp,E:\Classwork\AQMAED,no,mono,no,18,no,white,no,yes,768,legacy,53,53,E:/Classwork/AQMAED/subject-1.csv,legacy,Kafkaesque Koffka,3.2.8,0,s,NA,s,NA,NA,s,848,NA,14087,NA,NA,848,2,legacy,1024,2,48000,-16,experiment,SSSSS,1,odd,16904,NA,NA,114290,81846,2814,NA,NA,115364,2816,NA,NA,115465,116313,115362,115465,Flanker Experiment,52,35408,54,yes,1024
96.36363636,96.36363636,667.6363636,667.6363636,black,legacy,legacy,legacy,0,congruent,uniform,1,undefined,1,h,0,0,0,54,54,0,54,0,54,0,0,0,54,54,54,54,9/22/19 11:06,1500,The main experiment item,yes,FlankerExperiment.osexp,E:\Classwork\AQMAED,no,mono,no,18,no,white,no,yes,768,legacy,54,54,E:/Classwork/AQMAED/subject-1.csv,legacy,Kafkaesque Koffka,3.2.8,0,h,NA,s,NA,NA,h,1312,NA,14087,NA,NA,1312,2,legacy,1024,2,48000,-16,experiment,HHHHH,1,odd,16904,NA,NA,116323,81846,2814,NA,NA,117396,2816,NA,NA,117498,118811,117393,117498,Flanker Experiment,53,36720,55,yes,1024
96.42857143,96.42857143,666.6428571,666.6428571,black,legacy,legacy,legacy,0,congruent,uniform,1,undefined,1,h,0,0,0,55,55,0,55,0,55,0,0,0,55,55,55,55,9/22/19 11:06,1500,The main experiment item,yes,FlankerExperiment.osexp,E:\Classwork\AQMAED,no,mono,no,18,no,white,no,yes,768,legacy,55,55,E:/Classwork/AQMAED/subject-1.csv,legacy,Kafkaesque Koffka,3.2.8,0,h,NA,s,NA,NA,h,612,NA,14087,NA,NA,612,2,legacy,1024,2,48000,-16,experiment,HHHHH,1,odd,16904,NA,NA,118820,81846,2814,NA,NA,119889,2816,NA,NA,119991,120603,119887,119991,Flanker Experiment,54,37332,56,yes,1024
96.49122807,96.49122807,670.5438596,670.5438596,black,legacy,legacy,legacy,0,incongruent,uniform,1,undefined,1,h,0,0,0,56,56,0,56,0,56,0,0,0,56,56,56,56,9/22/19 11:06,1500,The main experiment item,yes,FlankerExperiment.osexp,E:\Classwork\AQMAED,no,mono,no,18,no,white,no,yes,768,legacy,56,56,E:/Classwork/AQMAED/subject-1.csv,legacy,Kafkaesque Koffka,3.2.8,0,h,NA,s,NA,NA,h,889,NA,14087,NA,NA,889,2,legacy,1024,2,48000,-16,experiment,SSHSS,1,odd,16904,NA,NA,120613,81846,2814,NA,NA,121686,2816,NA,NA,121787,122677,121684,121787,Flanker Experiment,55,38221,57,yes,1024
96.55172414,96.55172414,672.1206897,672.1206897,black,legacy,legacy,legacy,0,congruent,uniform,1,undefined,1,h,0,0,0,57,57,0,57,0,57,0,0,0,57,57,57,57,9/22/19 11:06,1500,The main experiment item,yes,FlankerExperiment.osexp,E:\Classwork\AQMAED,no,mono,no,18,no,white,no,yes,768,legacy,57,57,E:/Classwork/AQMAED/subject-1.csv,legacy,Kafkaesque Koffka,3.2.8,0,h,NA,s,NA,NA,h,762,NA,14087,NA,NA,762,2,legacy,1024,2,48000,-16,experiment,HHHHH,1,odd,16904,NA,NA,122692,81846,2814,NA,NA,123762,2816,NA,NA,123863,124626,123760,123863,Flanker Experiment,56,38983,58,yes,1024
96.61016949,96.61016949,670.7966102,670.7966102,black,legacy,legacy,legacy,0,incongruent,uniform,1,undefined,1,s,0,0,0,58,58,0,58,0,58,0,0,0,58,58,58,58,9/22/19 11:06,1500,The main experiment item,yes,FlankerExperiment.osexp,E:\Classwork\AQMAED,no,mono,no,18,no,white,no,yes,768,legacy,58,58,E:/Classwork/AQMAED/subject-1.csv,legacy,Kafkaesque Koffka,3.2.8,0,s,NA,s,NA,NA,s,594,NA,14087,NA,NA,594,2,legacy,1024,2,48000,-16,experiment,HHSHH,1,odd,16904,NA,NA,124635,81846,2814,NA,NA,125698,2816,NA,NA,125802,126397,125696,125802,Flanker Experiment,57,39577,59,yes,1024
96.66666667,96.66666667,670.0833333,670.0833333,black,legacy,legacy,legacy,0,incongruent,uniform,1,undefined,1,s,0,0,0,59,59,0,59,0,59,0,0,0,59,59,59,59,9/22/19 11:06,1500,The main experiment item,yes,FlankerExperiment.osexp,E:\Classwork\AQMAED,no,mono,no,18,no,white,no,yes,768,legacy,59,59,E:/Classwork/AQMAED/subject-1.csv,legacy,Kafkaesque Koffka,3.2.8,0,s,NA,s,NA,NA,s,628,NA,14087,NA,NA,628,2,legacy,1024,2,48000,-16,experiment,HHSHH,1,odd,16904,NA,NA,126407,81846,2814,NA,NA,127468,2816,NA,NA,127571,128200,127465,127571,Flanker Experiment,58,40205,60,yes,1024
96.72131148,96.72131148,668.8032787,668.8032787,black,legacy,legacy,legacy,0,congruent,uniform,1,undefined,1,h,0,0,0,60,60,0,60,0,60,0,0,0,60,60,60,60,9/22/19 11:06,1500,The main experiment item,yes,FlankerExperiment.osexp,E:\Classwork\AQMAED,no,mono,no,18,no,white,no,yes,768,legacy,60,60,E:/Classwork/AQMAED/subject-1.csv,legacy,Kafkaesque Koffka,3.2.8,0,h,NA,s,NA,NA,h,592,NA,14087,NA,NA,592,2,legacy,1024,2,48000,-16,experiment,HHHHH,1,odd,16904,NA,NA,128210,81846,2814,NA,NA,129272,2816,NA,NA,129375,129968,129270,129375,Flanker Experiment,59,40797,61,yes,1024
96.77419355,96.77419355,669.9516129,669.9516129,black,legacy,legacy,legacy,0,congruent,uniform,1,undefined,1,h,0,0,0,61,61,0,61,0,61,0,0,0,61,61,61,61,9/22/19 11:06,1500,The main experiment item,yes,FlankerExperiment.osexp,E:\Classwork\AQMAED,no,mono,no,18,no,white,no,yes,768,legacy,61,61,E:/Classwork/AQMAED/subject-1.csv,legacy,Kafkaesque Koffka,3.2.8,0,h,NA,s,NA,NA,h,740,NA,14087,NA,NA,740,2,legacy,1024,2,48000,-16,experiment,HHHHH,1,odd,16904,NA,NA,129980,81846,2814,NA,NA,131050,2816,NA,NA,131154,131894,131048,131154,Flanker Experiment,60,41537,62,yes,1024
96.82539683,96.82539683,669.984127,669.984127,black,legacy,legacy,legacy,0,incongruent,uniform,1,undefined,1,s,0,0,0,62,62,0,62,0,62,0,0,0,62,62,62,62,9/22/19 11:06,1500,The main experiment item,yes,FlankerExperiment.osexp,E:\Classwork\AQMAED,no,mono,no,18,no,white,no,yes,768,legacy,62,62,E:/Classwork/AQMAED/subject-1.csv,legacy,Kafkaesque Koffka,3.2.8,0,s,NA,s,NA,NA,s,672,NA,14087,NA,NA,672,2,legacy,1024,2,48000,-16,experiment,HHSHH,1,odd,16904,NA,NA,131904,81846,2814,NA,NA,132980,2816,NA,NA,133084,133757,132977,133084,Flanker Experiment,61,42209,63,yes,1024
96.875,96.875,682.5625,682.5625,black,legacy,legacy,legacy,0,incongruent,uniform,1,undefined,1,h,0,0,0,63,63,0,63,0,63,0,0,0,63,63,63,63,9/22/19 11:06,1500,The main experiment item,yes,FlankerExperiment.osexp,E:\Classwork\AQMAED,no,mono,no,18,no,white,no,yes,768,legacy,63,63,E:/Classwork/AQMAED/subject-1.csv,legacy,Kafkaesque Koffka,3.2.8,0,h,NA,s,NA,NA,h,1475,NA,14087,NA,NA,1475,2,legacy,1024,2,48000,-16,experiment,SSHSS,1,odd,16904,NA,NA,133768,81846,2814,NA,NA,134838,2816,NA,NA,134940,136416,134836,134940,Flanker Experiment,62,43684,64,yes,1024
96.92307692,96.92307692,694.6153846,694.6153846,black,legacy,legacy,legacy,0,congruent,uniform,1,undefined,1,h,0,0,0,64,64,0,64,0,64,0,0,0,64,64,64,64,9/22/19 11:06,1500,The main experiment item,yes,FlankerExperiment.osexp,E:\Classwork\AQMAED,no,mono,no,18,no,white,no,yes,768,legacy,64,64,E:/Classwork/AQMAED/subject-1.csv,legacy,Kafkaesque Koffka,3.2.8,0,h,NA,s,NA,NA,h,1466,NA,14087,NA,NA,1466,2,legacy,1024,2,48000,-16,experiment,HHHHH,1,odd,16904,NA,NA,136433,81846,2814,NA,NA,137506,2816,NA,NA,137608,139075,137504,137608,Flanker Experiment,63,45150,65,yes,1024
96.96969697,96.96969697,697.030303,697.030303,black,legacy,legacy,legacy,0,incongruent,uniform,1,undefined,1,h,0,0,0,65,65,0,65,0,65,0,0,0,65,65,65,65,9/22/19 11:06,1500,The main experiment item,yes,FlankerExperiment.osexp,E:\Classwork\AQMAED,no,mono,no,18,no,white,no,yes,768,legacy,65,65,E:/Classwork/AQMAED/subject-1.csv,legacy,Kafkaesque Koffka,3.2.8,0,h,NA,s,NA,NA,h,854,NA,14087,NA,NA,854,2,legacy,1024,2,48000,-16,experiment,SSHSS,1,odd,16904,NA,NA,139085,81846,2814,NA,NA,140171,2816,NA,NA,140273,141128,140168,140273,Flanker Experiment,64,46004,66,yes,1024
97.01492537,97.01492537,695.3731343,695.3731343,black,legacy,legacy,legacy,0,congruent,uniform,1,undefined,1,s,0,0,0,66,66,0,66,0,66,0,0,0,66,66,66,66,9/22/19 11:06,1500,The main experiment item,yes,FlankerExperiment.osexp,E:\Classwork\AQMAED,no,mono,no,18,no,white,no,yes,768,legacy,66,66,E:/Classwork/AQMAED/subject-1.csv,legacy,Kafkaesque Koffka,3.2.8,0,s,NA,s,NA,NA,s,586,NA,14087,NA,NA,586,2,legacy,1024,2,48000,-16,experiment,SSSSS,1,odd,16904,NA,NA,141139,81846,2814,NA,NA,142205,2816,NA,NA,142309,142896,142203,142309,Flanker Experiment,65,46590,67,yes,1024
97.05882353,97.05882353,700.5,700.5,black,legacy,legacy,legacy,0,incongruent,uniform,1,undefined,1,h,0,0,0,67,67,0,67,0,67,0,0,0,67,67,67,67,9/22/19 11:06,1500,The main experiment item,yes,FlankerExperiment.osexp,E:\Classwork\AQMAED,no,mono,no,18,no,white,no,yes,768,legacy,67,67,E:/Classwork/AQMAED/subject-1.csv,legacy,Kafkaesque Koffka,3.2.8,0,h,NA,s,NA,NA,h,1044,NA,14087,NA,NA,1044,2,legacy,1024,2,48000,-16,experiment,SSHSS,1,odd,16904,NA,NA,142905,81846,2814,NA,NA,143978,2816,NA,NA,144079,145123,143975,144079,Flanker Experiment,66,47634,68,yes,1024
97.10144928,97.10144928,701.6956522,701.6956522,black,legacy,legacy,legacy,0,incongruent,uniform,1,undefined,1,h,0,0,0,68,68,0,68,0,68,0,0,0,68,68,68,68,9/22/19 11:06,1500,The main experiment item,yes,FlankerExperiment.osexp,E:\Classwork\AQMAED,no,mono,no,18,no,white,no,yes,768,legacy,68,68,E:/Classwork/AQMAED/subject-1.csv,legacy,Kafkaesque Koffka,3.2.8,0,h,NA,s,NA,NA,h,783,NA,14087,NA,NA,783,2,legacy,1024,2,48000,-16,experiment,SSHSS,1,odd,16904,NA,NA,145128,81846,2814,NA,NA,146190,2816,NA,NA,146292,147076,146188,146292,Flanker Experiment,67,48417,69,yes,1024
97.14285714,97.14285714,704.2857143,704.2857143,black,legacy,legacy,legacy,0,incongruent,uniform,1,undefined,1,s,0,0,0,69,69,0,69,0,69,0,0,0,69,69,69,69,9/22/19 11:06,1500,The main experiment item,yes,FlankerExperiment.osexp,E:\Classwork\AQMAED,no,mono,no,18,no,white,no,yes,768,legacy,69,69,E:/Classwork/AQMAED/subject-1.csv,legacy,Kafkaesque Koffka,3.2.8,0,s,NA,s,NA,NA,s,883,NA,14087,NA,NA,883,2,legacy,1024,2,48000,-16,experiment,HHSHH,1,odd,16904,NA,NA,147086,81846,2814,NA,NA,148154,2816,NA,NA,148255,149139,148151,148255,Flanker Experiment,68,49300,70,yes,1024
97.18309859,97.18309859,702.6901408,702.6901408,black,legacy,legacy,legacy,0,congruent,uniform,1,undefined,1,h,0,0,0,70,70,0,70,0,70,0,0,0,70,70,70,70,9/22/19 11:06,1500,The main experiment item,yes,FlankerExperiment.osexp,E:\Classwork\AQMAED,no,mono,no,18,no,white,no,yes,768,legacy,70,70,E:/Classwork/AQMAED/subject-1.csv,legacy,Kafkaesque Koffka,3.2.8,0,h,NA,s,NA,NA,h,591,NA,14087,NA,NA,591,2,legacy,1024,2,48000,-16,experiment,HHHHH,1,odd,16904,NA,NA,149147,81846,2814,NA,NA,150226,2816,NA,NA,150328,150920,150224,150327,Flanker Experiment,69,49891,71,yes,1024
97.22222222,97.22222222,706.0555556,706.0555556,black,legacy,legacy,legacy,0,incongruent,uniform,1,undefined,1,s,0,0,0,71,71,0,71,0,71,0,0,0,71,71,71,71,9/22/19 11:06,1500,The main experiment item,yes,FlankerExperiment.osexp,E:\Classwork\AQMAED,no,mono,no,18,no,white,no,yes,768,legacy,71,71,E:/Classwork/AQMAED/subject-1.csv,legacy,Kafkaesque Koffka,3.2.8,0,s,NA,s,NA,NA,s,945,NA,14087,NA,NA,945,2,legacy,1024,2,48000,-16,experiment,HHSHH,1,odd,16904,NA,NA,150930,81846,2814,NA,NA,152004,2816,NA,NA,152108,153053,152002,152108,Flanker Experiment,70,50836,72,yes,1024
97.26027397,97.26027397,702.2465753,702.2465753,black,legacy,legacy,legacy,0,congruent,uniform,1,undefined,1,h,0,0,0,72,72,0,72,0,72,0,0,0,72,72,72,72,9/22/19 11:06,1500,The main experiment item,yes,FlankerExperiment.osexp,E:\Classwork\AQMAED,no,mono,no,18,no,white,no,yes,768,legacy,72,72,E:/Classwork/AQMAED/subject-1.csv,legacy,Kafkaesque Koffka,3.2.8,0,h,NA,s,NA,NA,h,428,NA,14087,NA,NA,428,2,legacy,1024,2,48000,-16,experiment,HHHHH,1,odd,16904,NA,NA,153062,81846,2814,NA,NA,154155,2816,NA,NA,154256,154685,154152,154256,Flanker Experiment,71,51264,73,yes,1024
97.2972973,97.2972973,709.2162162,709.2162162,black,legacy,legacy,legacy,0,incongruent,uniform,1,undefined,1,s,0,0,0,73,73,0,73,0,73,0,0,0,73,73,73,73,9/22/19 11:06,1500,The main experiment item,yes,FlankerExperiment.osexp,E:\Classwork\AQMAED,no,mono,no,18,no,white,no,yes,768,legacy,73,73,E:/Classwork/AQMAED/subject-1.csv,legacy,Kafkaesque Koffka,3.2.8,0,s,NA,s,NA,NA,s,1218,NA,14087,NA,NA,1218,2,legacy,1024,2,48000,-16,experiment,HHSHH,1,odd,16904,NA,NA,154691,81846,2814,NA,NA,155754,2816,NA,NA,155855,157074,155752,155855,Flanker Experiment,72,52482,74,yes,1024
96,96,719.76,719.76,black,legacy,legacy,legacy,0,incongruent,uniform,0,undefined,0,s,0,0,0,74,74,0,74,0,74,0,0,0,74,74,74,74,9/22/19 11:06,1500,The main experiment item,yes,FlankerExperiment.osexp,E:\Classwork\AQMAED,no,mono,no,18,no,white,no,yes,768,legacy,74,74,E:/Classwork/AQMAED/subject-1.csv,legacy,Kafkaesque Koffka,3.2.8,0,None,NA,s,NA,NA,None,1500,NA,14087,NA,NA,1500,2,legacy,1024,2,48000,-16,experiment,HHSHH,1,odd,16904,NA,NA,157082,81846,2814,NA,NA,158153,2816,NA,NA,158255,159755,158150,158255,Flanker Experiment,72,53982,75,yes,1024
94.73684211,94.73684211,729.4078947,729.4078947,black,legacy,legacy,legacy,0,congruent,uniform,0,undefined,0,s,0,0,0,75,75,0,75,0,75,0,0,0,75,75,75,75,9/22/19 11:06,1500,The main experiment item,yes,FlankerExperiment.osexp,E:\Classwork\AQMAED,no,mono,no,18,no,white,no,yes,768,legacy,75,75,E:/Classwork/AQMAED/subject-1.csv,legacy,Kafkaesque Koffka,3.2.8,0,h,NA,s,NA,NA,h,1453,NA,14087,NA,NA,1453,2,legacy,1024,2,48000,-16,experiment,SSSSS,1,odd,16904,NA,NA,160266,159765,2814,NA,NA,161338,2816,NA,NA,161442,162896,161336,161442,Flanker Experiment,72,55435,76,yes,1024
94.80519481,94.80519481,732.8311688,732.8311688,black,legacy,legacy,legacy,0,incongruent,uniform,1,undefined,1,s,0,0,0,76,76,0,76,0,76,0,0,0,76,76,76,76,9/22/19 11:06,1500,The main experiment item,yes,FlankerExperiment.osexp,E:\Classwork\AQMAED,no,mono,no,18,no,white,no,yes,768,legacy,76,76,E:/Classwork/AQMAED/subject-1.csv,legacy,Kafkaesque Koffka,3.2.8,0,s,NA,s,NA,NA,s,993,NA,14087,NA,NA,993,2,legacy,1024,2,48000,-16,experiment,HHSHH,1,odd,16904,NA,NA,163409,162905,2814,NA,NA,164484,2816,NA,NA,164586,165580,164481,164586,Flanker Experiment,73,56428,77,yes,1024
94.87179487,94.87179487,731.4358974,731.4358974,black,legacy,legacy,legacy,0,incongruent,uniform,1,undefined,1,h,0,0,0,77,77,0,77,0,77,0,0,0,77,77,77,77,9/22/19 11:06,1500,The main experiment item,yes,FlankerExperiment.osexp,E:\Classwork\AQMAED,no,mono,no,18,no,white,no,yes,768,legacy,77,77,E:/Classwork/AQMAED/subject-1.csv,legacy,Kafkaesque Koffka,3.2.8,0,h,NA,s,NA,NA,h,624,NA,14087,NA,NA,624,2,legacy,1024,2,48000,-16,experiment,SSHSS,1,odd,16904,NA,NA,165591,162905,2814,NA,NA,166664,2816,NA,NA,166767,167392,166659,166766,Flanker Experiment,74,57052,78,yes,1024
94.93670886,94.93670886,730.4810127,730.4810127,black,legacy,legacy,legacy,0,incongruent,uniform,1,undefined,1,h,0,0,0,78,78,0,78,0,78,0,0,0,78,78,78,78,9/22/19 11:06,1500,The main experiment item,yes,FlankerExperiment.osexp,E:\Classwork\AQMAED,no,mono,no,18,no,white,no,yes,768,legacy,78,78,E:/Classwork/AQMAED/subject-1.csv,legacy,Kafkaesque Koffka,3.2.8,0,h,NA,s,NA,NA,h,656,NA,14087,NA,NA,656,2,legacy,1024,2,48000,-16,experiment,SSHSS,1,odd,16904,NA,NA,167398,162905,2814,NA,NA,168470,2816,NA,NA,168572,169229,168468,168572,Flanker Experiment,75,57708,79,yes,1024
95,95,730.8,730.8,black,legacy,legacy,legacy,0,incongruent,uniform,1,undefined,1,h,0,0,0,79,79,0,79,0,79,0,0,0,79,79,79,79,9/22/19 11:06,1500,The main experiment item,yes,FlankerExperiment.osexp,E:\Classwork\AQMAED,no,mono,no,18,no,white,no,yes,768,legacy,79,79,E:/Classwork/AQMAED/subject-1.csv,legacy,Kafkaesque Koffka,3.2.8,0,h,NA,s,NA,NA,h,756,NA,14087,NA,NA,756,2,legacy,1024,2,48000,-16,experiment,SSHSS,1,odd,16904,NA,NA,169236,162905,2814,NA,NA,170298,2816,NA,NA,170400,171157,170296,170400,Flanker Experiment,76,58464,80,yes,1024
95.0617284,95.0617284,729.9876543,729.9876543,black,legacy,legacy,legacy,0,congruent,uniform,1,undefined,1,s,0,0,0,80,80,0,80,0,80,0,0,0,80,80,80,80,9/22/19 11:06,600,The main experiment item,yes,FlankerExperiment.osexp,E:\Classwork\AQMAED,no,mono,no,18,no,white,no,yes,768,legacy,0,79,E:/Classwork/AQMAED/subject-1.csv,legacy,Kafkaesque Koffka,3.2.8,0,s,NA,s,h,NA,s,665,NA,14087,15837,NA,665,2,legacy,1024,2,48000,-16,experiment,SSSSS,1,odd,16904,188023,NA,171168,162905,2814,NA,NA,188082,2816,172185,NA,188184,188850,188080,188183,Flanker Experiment,77,59129,81,yes,1024
95.12195122,95.12195122,727.0731707,727.0731707,black,legacy,legacy,legacy,0,congruent,uniform,1,undefined,1,s,0,0,0,81,81,0,81,0,81,0,0,0,81,81,81,81,9/22/19 11:06,600,The main experiment item,yes,FlankerExperiment.osexp,E:\Classwork\AQMAED,no,mono,no,18,no,white,no,yes,768,legacy,1,79,E:/Classwork/AQMAED/subject-1.csv,legacy,Kafkaesque Koffka,3.2.8,0,s,NA,s,h,NA,s,491,NA,14087,15837,NA,491,2,legacy,1024,2,48000,-16,experiment,SSSSS,1,odd,16904,188023,NA,189366,162905,2814,188864,NA,190448,2816,172185,NA,190550,191042,190445,190550,Flanker Experiment,78,59620,82,yes,1024
95.18072289,95.18072289,724.3493976,724.3493976,black,legacy,legacy,legacy,0,congruent,uniform,1,undefined,1,h,0,0,0,82,82,0,82,0,82,0,0,0,82,82,82,82,9/22/19 11:06,600,The main experiment item,yes,FlankerExperiment.osexp,E:\Classwork\AQMAED,no,mono,no,18,no,white,no,yes,768,legacy,2,79,E:/Classwork/AQMAED/subject-1.csv,legacy,Kafkaesque Koffka,3.2.8,0,h,NA,s,h,NA,h,501,NA,14087,15837,NA,501,2,legacy,1024,2,48000,-16,experiment,HHHHH,1,odd,16904,188023,NA,191051,162905,2814,188864,NA,192122,2816,172185,NA,192227,192729,192120,192226,Flanker Experiment,79,60121,83,yes,1024
94.04761905,94.04761905,721.5833333,721.5833333,black,legacy,legacy,legacy,0,incongruent,uniform,0,undefined,0,h,0,0,0,83,83,0,83,0,83,0,0,0,83,83,83,83,9/22/19 11:06,600,The main experiment item,yes,FlankerExperiment.osexp,E:\Classwork\AQMAED,no,mono,no,18,no,white,no,yes,768,legacy,3,79,E:/Classwork/AQMAED/subject-1.csv,legacy,Kafkaesque Koffka,3.2.8,0,s,NA,s,h,NA,s,492,NA,14087,15837,NA,492,2,legacy,1024,2,48000,-16,experiment,SSHSS,1,odd,16904,188023,NA,192740,162905,2814,188864,NA,193817,2816,172185,NA,193919,194412,193815,193918,Flanker Experiment,79,60613,84,yes,1024
94.11764706,94.11764706,719.3647059,719.3647059,black,legacy,legacy,legacy,0,incongruent,uniform,1,undefined,1,h,0,0,0,84,84,0,84,0,84,0,0,0,84,84,84,84,9/22/19 11:06,600,The main experiment item,yes,FlankerExperiment.osexp,E:\Classwork\AQMAED,no,mono,no,18,no,white,no,yes,768,legacy,4,79,E:/Classwork/AQMAED/subject-1.csv,legacy,Kafkaesque Koffka,3.2.8,0,h,NA,s,h,NA,h,533,NA,14087,15837,NA,533,2,legacy,1024,2,48000,-16,experiment,SSHSS,1,odd,16904,188023,NA,194925,194422,2814,188864,NA,195987,2816,172185,NA,196090,196624,195985,196090,Flanker Experiment,80,61146,85,yes,1024
94.18604651,94.18604651,716.5465116,716.5465116,black,legacy,legacy,legacy,0,congruent,uniform,1,undefined,1,h,0,0,0,85,85,0,85,0,85,0,0,0,85,85,85,85,9/22/19 11:06,600,The main experiment item,yes,FlankerExperiment.osexp,E:\Classwork\AQMAED,no,mono,no,18,no,white,no,yes,768,legacy,5,79,E:/Classwork/AQMAED/subject-1.csv,legacy,Kafkaesque Koffka,3.2.8,0,h,NA,s,h,NA,h,477,NA,14087,15837,NA,477,2,legacy,1024,2,48000,-16,experiment,HHHHH,1,odd,16904,188023,NA,196635,194422,2814,188864,NA,197702,2816,172185,NA,197803,198281,197699,197803,Flanker Experiment,81,61623,86,yes,1024
94.25287356,94.25287356,713.3793103,713.3793103,black,legacy,legacy,legacy,0,congruent,uniform,1,undefined,1,h,0,0,0,86,86,0,86,0,86,0,0,0,86,86,86,86,9/22/19 11:06,600,The main experiment item,yes,FlankerExperiment.osexp,E:\Classwork\AQMAED,no,mono,no,18,no,white,no,yes,768,legacy,6,79,E:/Classwork/AQMAED/subject-1.csv,legacy,Kafkaesque Koffka,3.2.8,0,h,NA,s,h,NA,h,441,NA,14087,15837,NA,441,2,legacy,1024,2,48000,-16,experiment,HHHHH,1,odd,16904,188023,NA,198292,194422,2814,188864,NA,199366,2816,172185,NA,199471,199913,199364,199471,Flanker Experiment,82,62064,87,yes,1024
94.31818182,94.31818182,709.7386364,709.7386364,black,legacy,legacy,legacy,0,incongruent,uniform,1,undefined,1,h,0,0,0,87,87,0,87,0,87,0,0,0,87,87,87,87,9/22/19 11:06,600,The main experiment item,yes,FlankerExperiment.osexp,E:\Classwork\AQMAED,no,mono,no,18,no,white,no,yes,768,legacy,7,79,E:/Classwork/AQMAED/subject-1.csv,legacy,Kafkaesque Koffka,3.2.8,0,h,NA,s,h,NA,h,393,NA,14087,15837,NA,393,2,legacy,1024,2,48000,-16,experiment,SSHSS,1,odd,16904,188023,NA,199923,194422,2814,188864,NA,201009,2816,172185,NA,201112,201506,201007,201112,Flanker Experiment,83,62457,88,yes,1024
93.25842697,93.25842697,706.0786517,706.0786517,black,legacy,legacy,legacy,0,congruent,uniform,0,undefined,0,s,0,0,0,88,88,0,88,0,88,0,0,0,88,88,88,88,9/22/19 11:06,600,The main experiment item,yes,FlankerExperiment.osexp,E:\Classwork\AQMAED,no,mono,no,18,no,white,no,yes,768,legacy,8,79,E:/Classwork/AQMAED/subject-1.csv,legacy,Kafkaesque Koffka,3.2.8,0,h,NA,s,h,NA,h,384,NA,14087,15837,NA,384,2,legacy,1024,2,48000,-16,experiment,SSSSS,1,odd,16904,188023,NA,201515,194422,2814,188864,NA,202588,2816,172185,NA,202691,203076,202585,202691,Flanker Experiment,83,62841,89,yes,1024
93.33333333,93.33333333,704.7888889,704.7888889,black,legacy,legacy,legacy,0,incongruent,uniform,1,undefined,1,s,0,0,0,89,89,0,89,0,89,0,0,0,89,89,89,89,9/22/19 11:06,600,The main experiment item,yes,FlankerExperiment.osexp,E:\Classwork\AQMAED,no,mono,no,18,no,white,no,yes,768,legacy,9,79,E:/Classwork/AQMAED/subject-1.csv,legacy,Kafkaesque Koffka,3.2.8,0,s,NA,s,h,NA,s,590,NA,14087,15837,NA,590,2,legacy,1024,2,48000,-16,experiment,HHSHH,1,odd,16904,188023,NA,203585,203082,2814,188864,NA,204664,2816,172185,NA,204768,205359,204662,204768,Flanker Experiment,84,63431,90,yes,1024
93.40659341,93.40659341,702.6483516,702.6483516,black,legacy,legacy,legacy,0,incongruent,uniform,1,undefined,1,s,0,0,0,90,90,0,90,0,90,0,0,0,90,90,90,90,9/22/19 11:06,600,The main experiment item,yes,FlankerExperiment.osexp,E:\Classwork\AQMAED,no,mono,no,18,no,white,no,yes,768,legacy,10,79,E:/Classwork/AQMAED/subject-1.csv,legacy,Kafkaesque Koffka,3.2.8,0,s,NA,s,h,NA,s,510,NA,14087,15837,NA,510,2,legacy,1024,2,48000,-16,experiment,HHSHH,1,odd,16904,188023,NA,205369,203082,2814,188864,NA,206448,2816,172185,NA,206550,207061,206446,206550,Flanker Experiment,85,63941,91,yes,1024
92.39130435,92.39130435,700.5978261,700.5978261,black,legacy,legacy,legacy,0,incongruent,uniform,0,undefined,0,h,0,0,0,91,91,0,91,0,91,0,0,0,91,91,91,91,9/22/19 11:06,600,The main experiment item,yes,FlankerExperiment.osexp,E:\Classwork\AQMAED,no,mono,no,18,no,white,no,yes,768,legacy,11,79,E:/Classwork/AQMAED/subject-1.csv,legacy,Kafkaesque Koffka,3.2.8,0,s,NA,s,h,NA,s,514,NA,14087,15837,NA,514,2,legacy,1024,2,48000,-16,experiment,SSHSS,1,odd,16904,188023,NA,207070,203082,2814,188864,NA,208141,2816,172185,NA,208243,208757,208139,208243,Flanker Experiment,85,64455,92,yes,1024
92.47311828,92.47311828,700.4408602,700.4408602,black,legacy,legacy,legacy,0,congruent,uniform,1,undefined,1,h,0,0,0,92,92,0,92,0,92,0,0,0,92,92,92,92,9/22/19 11:06,600,The main experiment item,yes,FlankerExperiment.osexp,E:\Classwork\AQMAED,no,mono,no,18,no,white,no,yes,768,legacy,12,79,E:/Classwork/AQMAED/subject-1.csv,legacy,Kafkaesque Koffka,3.2.8,0,h,NA,s,h,NA,h,686,NA,14087,15837,NA,686,2,legacy,1024,2,48000,-16,experiment,HHHHH,1,odd,16904,188023,NA,209275,208772,2814,188864,NA,210337,2816,172185,NA,210439,211126,210335,210439,Flanker Experiment,86,65141,93,yes,1024
92.55319149,92.55319149,699.4361702,699.4361702,black,legacy,legacy,legacy,0,congruent,uniform,1,undefined,1,s,0,0,0,93,93,0,93,0,93,0,0,0,93,93,93,93,9/22/19 11:06,600,The main experiment item,yes,FlankerExperiment.osexp,E:\Classwork\AQMAED,no,mono,no,18,no,white,no,yes,768,legacy,13,79,E:/Classwork/AQMAED/subject-1.csv,legacy,Kafkaesque Koffka,3.2.8,0,s,NA,s,h,NA,s,606,NA,14087,15837,NA,606,2,legacy,1024,2,48000,-16,experiment,SSSSS,1,odd,16904,188023,NA,211638,208772,2814,211136,NA,212697,2816,172185,NA,212801,213408,212694,212801,Flanker Experiment,87,65747,94,yes,1024
92.63157895,92.63157895,698.8736842,698.8736842,black,legacy,legacy,legacy,0,congruent,uniform,1,undefined,1,h,0,0,0,94,94,0,94,0,94,0,0,0,94,94,94,94,9/22/19 11:06,600,The main experiment item,yes,FlankerExperiment.osexp,E:\Classwork\AQMAED,no,mono,no,18,no,white,no,yes,768,legacy,14,79,E:/Classwork/AQMAED/subject-1.csv,legacy,Kafkaesque Koffka,3.2.8,0,h,NA,s,h,NA,h,646,NA,14087,15837,NA,646,2,legacy,1024,2,48000,-16,experiment,HHHHH,1,odd,16904,188023,NA,213915,208772,2814,213412,NA,214987,2816,172185,NA,215089,215736,214985,215088,Flanker Experiment,88,66393,95,yes,1024
92.70833333,92.70833333,697.0833333,697.0833333,black,legacy,legacy,legacy,0,incongruent,uniform,1,undefined,1,s,0,0,0,95,95,0,95,0,95,0,0,0,95,95,95,95,9/22/19 11:06,600,The main experiment item,yes,FlankerExperiment.osexp,E:\Classwork\AQMAED,no,mono,no,18,no,white,no,yes,768,legacy,15,79,E:/Classwork/AQMAED/subject-1.csv,legacy,Kafkaesque Koffka,3.2.8,0,s,NA,s,h,NA,s,527,NA,14087,15837,NA,527,2,legacy,1024,2,48000,-16,experiment,HHSHH,1,odd,16904,188023,NA,216249,208772,2814,215747,NA,217324,2816,172185,NA,217426,217954,217322,217426,Flanker Experiment,89,66920,96,yes,1024
92.78350515,92.78350515,695.1649485,695.1649485,black,legacy,legacy,legacy,0,congruent,uniform,1,undefined,1,h,0,0,0,96,96,0,96,0,96,0,0,0,96,96,96,96,9/22/19 11:06,600,The main experiment item,yes,FlankerExperiment.osexp,E:\Classwork\AQMAED,no,mono,no,18,no,white,no,yes,768,legacy,16,79,E:/Classwork/AQMAED/subject-1.csv,legacy,Kafkaesque Koffka,3.2.8,0,h,NA,s,h,NA,h,511,NA,14087,15837,NA,511,2,legacy,1024,2,48000,-16,experiment,HHHHH,1,odd,16904,188023,NA,217964,208772,2814,215747,NA,219026,2816,172185,NA,219129,219641,219024,219129,Flanker Experiment,90,67431,97,yes,1024
92.85714286,92.85714286,691.7346939,691.7346939,black,legacy,legacy,legacy,0,congruent,uniform,1,undefined,1,s,0,0,0,97,97,0,97,0,97,0,0,0,97,97,97,97,9/22/19 11:06,600,The main experiment item,yes,FlankerExperiment.osexp,E:\Classwork\AQMAED,no,mono,no,18,no,white,no,yes,768,legacy,17,79,E:/Classwork/AQMAED/subject-1.csv,legacy,Kafkaesque Koffka,3.2.8,0,s,NA,s,h,NA,s,359,NA,14087,15837,NA,359,2,legacy,1024,2,48000,-16,experiment,SSSSS,1,odd,16904,188023,NA,219651,208772,2814,215747,NA,220722,2816,172185,NA,220824,221183,220719,220824,Flanker Experiment,91,67790,98,yes,1024
91.91919192,91.91919192,687.8282828,687.8282828,black,legacy,legacy,legacy,0,incongruent,uniform,0,undefined,0,s,0,0,0,98,98,0,98,0,98,0,0,0,98,98,98,98,9/22/19 11:06,600,The main experiment item,yes,FlankerExperiment.osexp,E:\Classwork\AQMAED,no,mono,no,18,no,white,no,yes,768,legacy,18,79,E:/Classwork/AQMAED/subject-1.csv,legacy,Kafkaesque Koffka,3.2.8,0,h,NA,s,h,NA,h,305,NA,14087,15837,NA,305,2,legacy,1024,2,48000,-16,experiment,HHSHH,1,odd,16904,188023,NA,221193,208772,2814,215747,NA,222254,2816,172185,NA,222358,222664,222251,222357,Flanker Experiment,91,68095,99,yes,1024
92,92,685.97,685.97,black,legacy,legacy,legacy,0,congruent,uniform,1,undefined,1,s,0,0,0,99,99,0,99,0,99,0,0,0,99,99,99,99,9/22/19 11:06,600,The main experiment item,yes,FlankerExperiment.osexp,E:\Classwork\AQMAED,no,mono,no,18,no,white,no,yes,768,legacy,19,79,E:/Classwork/AQMAED/subject-1.csv,legacy,Kafkaesque Koffka,3.2.8,0,s,NA,s,h,NA,s,502,NA,14087,15837,NA,502,2,legacy,1024,2,48000,-16,experiment,SSSSS,1,odd,16904,188023,NA,223171,222669,2814,215747,NA,224253,2816,172185,NA,224355,224858,224250,224355,Flanker Experiment,92,68597,100,yes,1024
92.07920792,92.07920792,684.1287129,684.1287129,black,legacy,legacy,legacy,0,congruent,uniform,1,undefined,1,h,0,0,0,100,100,0,100,0,100,0,0,0,100,100,100,100,9/22/19 11:06,600,The main experiment item,yes,FlankerExperiment.osexp,E:\Classwork\AQMAED,no,mono,no,18,no,white,no,yes,768,legacy,20,79,E:/Classwork/AQMAED/subject-1.csv,legacy,Kafkaesque Koffka,3.2.8,0,h,NA,s,h,NA,h,500,NA,14087,15837,NA,500,2,legacy,1024,2,48000,-16,experiment,HHHHH,1,odd,16904,188023,NA,224908,222669,2814,215747,NA,225979,2816,172185,NA,226082,226584,225977,226081,Flanker Experiment,93,69097,101,yes,1024
92.15686275,92.15686275,682.9313725,682.9313725,black,legacy,legacy,legacy,0,incongruent,uniform,1,undefined,1,s,0,0,0,101,101,0,101,0,101,0,0,0,101,101,101,101,9/22/19 11:06,600,The main experiment item,yes,FlankerExperiment.osexp,E:\Classwork\AQMAED,no,mono,no,18,no,white,no,yes,768,legacy,21,79,E:/Classwork/AQMAED/subject-1.csv,legacy,Kafkaesque Koffka,3.2.8,0,s,NA,s,h,NA,s,562,NA,14087,15837,NA,562,2,legacy,1024,2,48000,-16,experiment,HHSHH,1,odd,16904,188023,NA,226607,222669,2814,215747,NA,227680,2816,172185,NA,227783,228346,227678,227782,Flanker Experiment,94,69659,102,yes,1024
92.23300971,92.23300971,681.407767,681.407767,black,legacy,legacy,legacy,0,congruent,uniform,1,undefined,1,s,0,0,0,102,102,0,102,0,102,0,0,0,102,102,102,102,9/22/19 11:06,600,The main experiment item,yes,FlankerExperiment.osexp,E:\Classwork\AQMAED,no,mono,no,18,no,white,no,yes,768,legacy,22,79,E:/Classwork/AQMAED/subject-1.csv,legacy,Kafkaesque Koffka,3.2.8,0,s,NA,s,h,NA,s,526,NA,14087,15837,NA,526,2,legacy,1024,2,48000,-16,experiment,SSSSS,1,odd,16904,188023,NA,228370,222669,2814,215747,NA,229434,2816,172185,NA,229536,230063,229432,229535,Flanker Experiment,95,70185,103,yes,1024
92.30769231,92.30769231,679.5192308,679.5192308,black,legacy,legacy,legacy,0,incongruent,uniform,1,undefined,1,h,0,0,0,103,103,0,103,0,103,0,0,0,103,103,103,103,9/22/19 11:06,600,The main experiment item,yes,FlankerExperiment.osexp,E:\Classwork\AQMAED,no,mono,no,18,no,white,no,yes,768,legacy,23,79,E:/Classwork/AQMAED/subject-1.csv,legacy,Kafkaesque Koffka,3.2.8,0,h,NA,s,h,NA,h,485,NA,14087,15837,NA,485,2,legacy,1024,2,48000,-16,experiment,SSHSS,1,odd,16904,188023,NA,230087,222669,2814,215747,NA,231157,2816,172185,NA,231259,231745,231155,231259,Flanker Experiment,96,70670,104,yes,1024
92.38095238,92.38095238,677.1904762,677.1904762,black,legacy,legacy,legacy,0,congruent,uniform,1,undefined,1,h,0,0,0,104,104,0,104,0,104,0,0,0,104,104,104,104,9/22/19 11:06,600,The main experiment item,yes,FlankerExperiment.osexp,E:\Classwork\AQMAED,no,mono,no,18,no,white,no,yes,768,legacy,24,79,E:/Classwork/AQMAED/subject-1.csv,legacy,Kafkaesque Koffka,3.2.8,0,h,NA,s,h,NA,h,435,NA,14087,15837,NA,435,2,legacy,1024,2,48000,-16,experiment,HHHHH,1,odd,16904,188023,NA,231767,222669,2814,215747,NA,232828,2816,172185,NA,232930,233366,232826,232930,Flanker Experiment,97,71105,105,yes,1024
91.50943396,91.50943396,674.6226415,674.6226415,black,legacy,legacy,legacy,0,congruent,uniform,0,undefined,0,h,0,0,0,105,105,0,105,0,105,0,0,0,105,105,105,105,9/22/19 11:06,600,The main experiment item,yes,FlankerExperiment.osexp,E:\Classwork\AQMAED,no,mono,no,18,no,white,no,yes,768,legacy,25,79,E:/Classwork/AQMAED/subject-1.csv,legacy,Kafkaesque Koffka,3.2.8,0,s,NA,s,h,NA,s,405,NA,14087,15837,NA,405,2,legacy,1024,2,48000,-16,experiment,HHHHH,1,odd,16904,188023,NA,233389,222669,2814,215747,NA,234459,2816,172185,NA,234561,234968,234456,234561,Flanker Experiment,97,71510,106,yes,1024
91.58878505,91.58878505,673.2056075,673.2056075,black,legacy,legacy,legacy,0,incongruent,uniform,1,undefined,1,s,0,0,0,106,106,0,106,0,106,0,0,0,106,106,106,106,9/22/19 11:06,600,The main experiment item,yes,FlankerExperiment.osexp,E:\Classwork\AQMAED,no,mono,no,18,no,white,no,yes,768,legacy,26,79,E:/Classwork/AQMAED/subject-1.csv,legacy,Kafkaesque Koffka,3.2.8,0,s,NA,s,h,NA,s,523,NA,14087,15837,NA,523,2,legacy,1024,2,48000,-16,experiment,HHSHH,1,odd,16904,188023,NA,235496,234992,2814,215747,NA,236560,2816,172185,NA,236662,237186,236557,236662,Flanker Experiment,98,72033,107,yes,1024
91.66666667,91.66666667,671.7222222,671.7222222,black,legacy,legacy,legacy,0,incongruent,uniform,1,undefined,1,s,0,0,0,107,107,0,107,0,107,0,0,0,107,107,107,107,9/22/19 11:06,600,The main experiment item,yes,FlankerExperiment.osexp,E:\Classwork\AQMAED,no,mono,no,18,no,white,no,yes,768,legacy,27,79,E:/Classwork/AQMAED/subject-1.csv,legacy,Kafkaesque Koffka,3.2.8,0,s,NA,s,h,NA,s,513,NA,14087,15837,NA,513,2,legacy,1024,2,48000,-16,experiment,HHSHH,1,odd,16904,188023,NA,237209,234992,2814,215747,NA,238272,2816,172185,NA,238374,238888,238270,238374,Flanker Experiment,99,72546,108,yes,1024
91.74311927,91.74311927,669.7981651,669.7981651,black,legacy,legacy,legacy,0,incongruent,uniform,1,undefined,1,s,0,0,0,108,108,0,108,0,108,0,0,0,108,108,108,108,9/22/19 11:06,600,The main experiment item,yes,FlankerExperiment.osexp,E:\Classwork\AQMAED,no,mono,no,18,no,white,no,yes,768,legacy,28,79,E:/Classwork/AQMAED/subject-1.csv,legacy,Kafkaesque Koffka,3.2.8,0,s,NA,s,h,NA,s,462,NA,14087,15837,NA,462,2,legacy,1024,2,48000,-16,experiment,HHSHH,1,odd,16904,188023,NA,238911,234992,2814,215747,NA,239983,2816,172185,NA,240085,240548,239981,240085,Flanker Experiment,100,73008,109,yes,1024
91.81818182,91.81818182,668.7272727,668.7272727,black,legacy,legacy,legacy,0,congruent,uniform,1,undefined,1,h,0,0,0,109,109,0,109,0,109,0,0,0,109,109,109,109,9/22/19 11:06,600,The main experiment item,yes,FlankerExperiment.osexp,E:\Classwork\AQMAED,no,mono,no,18,no,white,no,yes,768,legacy,29,79,E:/Classwork/AQMAED/subject-1.csv,legacy,Kafkaesque Koffka,3.2.8,0,h,NA,s,h,NA,h,552,NA,14087,15837,NA,552,2,legacy,1024,2,48000,-16,experiment,HHHHH,1,odd,16904,188023,NA,240556,234992,2814,215747,NA,241625,2816,172185,NA,241727,242281,241623,241726,Flanker Experiment,101,73560,110,yes,1024
91.89189189,91.89189189,666.3423423,666.3423423,black,legacy,legacy,legacy,0,incongruent,uniform,1,undefined,1,s,0,0,0,110,110,0,110,0,110,0,0,0,110,110,110,110,9/22/19 11:06,600,The main experiment item,yes,FlankerExperiment.osexp,E:\Classwork\AQMAED,no,mono,no,18,no,white,no,yes,768,legacy,30,79,E:/Classwork/AQMAED/subject-1.csv,legacy,Kafkaesque Koffka,3.2.8,0,s,NA,s,h,NA,s,404,NA,14087,15837,NA,404,2,legacy,1024,2,48000,-16,experiment,HHSHH,1,odd,16904,188023,NA,242285,234992,2814,215747,NA,243350,2816,172185,NA,243454,243859,243347,243454,Flanker Experiment,102,73964,111,yes,1024
91.96428571,91.96428571,665.8482143,665.8482143,black,legacy,legacy,legacy,0,incongruent,uniform,1,undefined,1,h,0,0,0,111,111,0,111,0,111,0,0,0,111,111,111,111,9/22/19 11:06,600,The main experiment item,yes,FlankerExperiment.osexp,E:\Classwork\AQMAED,no,mono,no,18,no,white,no,yes,768,legacy,31,79,E:/Classwork/AQMAED/subject-1.csv,legacy,Kafkaesque Koffka,3.2.8,0,h,NA,s,h,NA,h,611,NA,14087,15837,NA,611,2,legacy,1024,2,48000,-16,experiment,SSHSS,1,odd,16904,188023,NA,243864,234992,2814,215747,NA,244936,2816,172185,NA,245038,245650,244933,245038,Flanker Experiment,103,74575,112,yes,1024
92.03539823,92.03539823,664.5221239,664.5221239,black,legacy,legacy,legacy,0,congruent,uniform,1,undefined,1,s,0,0,0,112,112,0,112,0,112,0,0,0,112,112,112,112,9/22/19 11:06,600,The main experiment item,yes,FlankerExperiment.osexp,E:\Classwork\AQMAED,no,mono,no,18,no,white,no,yes,768,legacy,32,79,E:/Classwork/AQMAED/subject-1.csv,legacy,Kafkaesque Koffka,3.2.8,0,s,NA,s,h,NA,s,516,NA,14087,15837,NA,516,2,legacy,1024,2,48000,-16,experiment,SSSSS,1,odd,16904,188023,NA,246160,234992,2814,245657,NA,247238,2816,172185,NA,247340,247858,247235,247339,Flanker Experiment,104,75091,113,yes,1024
92.10526316,92.10526316,661.5614035,661.5614035,black,legacy,legacy,legacy,0,incongruent,uniform,1,undefined,1,h,0,0,0,113,113,0,113,0,113,0,0,0,113,113,113,113,9/22/19 11:06,600,The main experiment item,yes,FlankerExperiment.osexp,E:\Classwork\AQMAED,no,mono,no,18,no,white,no,yes,768,legacy,33,79,E:/Classwork/AQMAED/subject-1.csv,legacy,Kafkaesque Koffka,3.2.8,0,h,NA,s,h,NA,h,327,NA,14087,15837,NA,327,2,legacy,1024,2,48000,-16,experiment,SSHSS,1,odd,16904,188023,NA,247866,234992,2814,245657,NA,248930,2816,172185,NA,249031,249359,248928,249031,Flanker Experiment,105,75418,114,yes,1024
92.17391304,92.17391304,658.5652174,658.5652174,black,legacy,legacy,legacy,0,congruent,uniform,1,undefined,1,s,0,0,0,114,114,0,114,0,114,0,0,0,114,114,114,114,9/22/19 11:06,600,The main experiment item,yes,FlankerExperiment.osexp,E:\Classwork\AQMAED,no,mono,no,18,no,white,no,yes,768,legacy,34,79,E:/Classwork/AQMAED/subject-1.csv,legacy,Kafkaesque Koffka,3.2.8,0,s,NA,s,h,NA,s,317,NA,14087,15837,NA,317,2,legacy,1024,2,48000,-16,experiment,SSSSS,1,odd,16904,188023,NA,249363,234992,2814,245657,NA,250432,2816,172185,NA,250533,250852,250430,250533,Flanker Experiment,106,75735,115,yes,1024
92.24137931,92.24137931,656.4051724,656.4051724,black,legacy,legacy,legacy,0,incongruent,uniform,1,undefined,1,h,0,0,0,115,115,0,115,0,115,0,0,0,115,115,115,115,9/22/19 11:06,600,The main experiment item,yes,FlankerExperiment.osexp,E:\Classwork\AQMAED,no,mono,no,18,no,white,no,yes,768,legacy,35,79,E:/Classwork/AQMAED/subject-1.csv,legacy,Kafkaesque Koffka,3.2.8,0,h,NA,s,h,NA,h,408,NA,14087,15837,NA,408,2,legacy,1024,2,48000,-16,experiment,SSHSS,1,odd,16904,188023,NA,250861,234992,2814,245657,NA,251926,2816,172185,NA,252028,252438,251924,252027,Flanker Experiment,107,76143,116,yes,1024
92.30769231,92.30769231,655.4529915,655.4529915,black,legacy,legacy,legacy,0,congruent,uniform,1,undefined,1,s,0,0,0,116,116,0,116,0,116,0,0,0,116,116,116,116,9/22/19 11:06,600,The main experiment item,yes,FlankerExperiment.osexp,E:\Classwork\AQMAED,no,mono,no,18,no,white,no,yes,768,legacy,36,79,E:/Classwork/AQMAED/subject-1.csv,legacy,Kafkaesque Koffka,3.2.8,0,s,NA,s,h,NA,s,545,NA,14087,15837,NA,545,2,legacy,1024,2,48000,-16,experiment,SSSSS,1,odd,16904,188023,NA,252451,234992,2814,245657,NA,253521,2816,172185,NA,253623,254169,253518,253623,Flanker Experiment,108,76688,117,yes,1024
92.37288136,92.37288136,653.2542373,653.2542373,black,legacy,legacy,legacy,0,congruent,uniform,1,undefined,1,s,0,0,0,117,117,0,117,0,117,0,0,0,117,117,117,117,9/22/19 11:06,600,The main experiment item,yes,FlankerExperiment.osexp,E:\Classwork\AQMAED,no,mono,no,18,no,white,no,yes,768,legacy,37,79,E:/Classwork/AQMAED/subject-1.csv,legacy,Kafkaesque Koffka,3.2.8,0,s,NA,s,h,NA,s,396,NA,14087,15837,NA,396,2,legacy,1024,2,48000,-16,experiment,SSSSS,1,odd,16904,188023,NA,254177,234992,2814,245657,NA,255252,2816,172185,NA,255354,255752,255249,255353,Flanker Experiment,109,77084,118,yes,1024
92.43697479,92.43697479,650.6470588,650.6470588,black,legacy,legacy,legacy,0,incongruent,uniform,1,undefined,1,s,0,0,0,118,118,0,118,0,118,0,0,0,118,118,118,118,9/22/19 11:06,600,The main experiment item,yes,FlankerExperiment.osexp,E:\Classwork\AQMAED,no,mono,no,18,no,white,no,yes,768,legacy,38,79,E:/Classwork/AQMAED/subject-1.csv,legacy,Kafkaesque Koffka,3.2.8,0,s,NA,s,h,NA,s,343,NA,14087,15837,NA,343,2,legacy,1024,2,48000,-16,experiment,HHSHH,1,odd,16904,188023,NA,255756,234992,2814,245657,NA,256831,2816,172185,NA,256933,257278,256829,256933,Flanker Experiment,110,77427,119,yes,1024
92.5,92.5,648.95,648.95,black,legacy,legacy,legacy,0,congruent,uniform,1,undefined,1,s,0,0,0,119,119,0,119,0,119,0,0,0,119,119,119,119,9/22/19 11:06,600,The main experiment item,yes,FlankerExperiment.osexp,E:\Classwork\AQMAED,no,mono,no,18,no,white,no,yes,768,legacy,39,79,E:/Classwork/AQMAED/subject-1.csv,legacy,Kafkaesque Koffka,3.2.8,0,s,NA,s,h,NA,s,447,NA,14087,15837,NA,447,2,legacy,1024,2,48000,-16,experiment,SSSSS,1,odd,16904,188023,NA,257282,234992,2814,245657,NA,258343,2816,172185,NA,258446,258895,258340,258446,Flanker Experiment,111,77874,120,yes,1024
91.73553719,91.73553719,646.6942149,646.6942149,black,legacy,legacy,legacy,0,incongruent,uniform,0,undefined,0,h,0,0,0,120,120,0,120,0,120,0,0,0,120,120,120,120,9/22/19 11:06,600,The main experiment item,yes,FlankerExperiment.osexp,E:\Classwork\AQMAED,no,mono,no,18,no,white,no,yes,768,legacy,40,79,E:/Classwork/AQMAED/subject-1.csv,legacy,Kafkaesque Koffka,3.2.8,0,s,NA,s,h,NA,s,376,NA,14087,15837,NA,376,2,legacy,1024,2,48000,-16,experiment,SSHSS,1,odd,16904,188023,NA,258899,234992,2814,245657,NA,259968,2816,172185,NA,260069,260446,259965,260069,Flanker Experiment,111,78250,121,yes,1024
91.80327869,91.80327869,646.2459016,646.2459016,black,legacy,legacy,legacy,0,incongruent,uniform,1,undefined,1,h,0,0,0,121,121,0,121,0,121,0,0,0,121,121,121,121,9/22/19 11:06,600,The main experiment item,yes,FlankerExperiment.osexp,E:\Classwork\AQMAED,no,mono,no,18,no,white,no,yes,768,legacy,41,79,E:/Classwork/AQMAED/subject-1.csv,legacy,Kafkaesque Koffka,3.2.8,0,h,NA,s,h,NA,h,592,NA,14087,15837,NA,592,2,legacy,1024,2,48000,-16,experiment,SSHSS,1,odd,16904,188023,NA,260957,260454,2814,245657,NA,262028,2816,172185,NA,262130,262723,262026,262130,Flanker Experiment,112,78842,122,yes,1024
91.8699187,91.8699187,645.9268293,645.9268293,black,legacy,legacy,legacy,0,incongruent,uniform,1,undefined,1,s,0,0,0,122,122,0,122,0,122,0,0,0,122,122,122,122,9/22/19 11:06,600,The main experiment item,yes,FlankerExperiment.osexp,E:\Classwork\AQMAED,no,mono,no,18,no,white,no,yes,768,legacy,42,79,E:/Classwork/AQMAED/subject-1.csv,legacy,Kafkaesque Koffka,3.2.8,0,s,NA,s,h,NA,s,607,NA,14087,15837,NA,607,2,legacy,1024,2,48000,-16,experiment,HHSHH,1,odd,16904,188023,NA,262733,260454,2814,245657,NA,263805,2816,172185,NA,263907,264515,263802,263907,Flanker Experiment,113,79449,123,yes,1024
91.93548387,91.93548387,646.9758065,646.9758065,black,legacy,legacy,legacy,0,congruent,uniform,1,undefined,1,h,0,0,0,123,123,0,123,0,123,0,0,0,123,123,123,123,9/22/19 11:06,600,The main experiment item,yes,FlankerExperiment.osexp,E:\Classwork\AQMAED,no,mono,no,18,no,white,no,yes,768,legacy,43,79,E:/Classwork/AQMAED/subject-1.csv,legacy,Kafkaesque Koffka,3.2.8,0,h,NA,s,h,NA,h,776,NA,14087,15837,NA,776,2,legacy,1024,2,48000,-16,experiment,HHHHH,1,odd,16904,188023,NA,265023,260454,2814,264520,NA,266089,2816,172185,NA,266191,266968,266086,266191,Flanker Experiment,114,80225,124,yes,1024
92,92,645.904,645.904,black,legacy,legacy,legacy,0,incongruent,uniform,1,undefined,1,s,0,0,0,124,124,0,124,0,124,0,0,0,124,124,124,124,9/22/19 11:06,600,The main experiment item,yes,FlankerExperiment.osexp,E:\Classwork\AQMAED,no,mono,no,18,no,white,no,yes,768,legacy,44,79,E:/Classwork/AQMAED/subject-1.csv,legacy,Kafkaesque Koffka,3.2.8,0,s,NA,s,h,NA,s,513,NA,14087,15837,NA,513,2,legacy,1024,2,48000,-16,experiment,HHSHH,1,odd,16904,188023,NA,267475,260454,2814,266973,NA,268546,2816,172185,NA,268647,269161,268544,268647,Flanker Experiment,115,80738,125,yes,1024
92.06349206,92.06349206,645.3253968,645.3253968,black,legacy,legacy,legacy,0,incongruent,uniform,1,undefined,1,s,0,0,0,125,125,0,125,0,125,0,0,0,125,125,125,125,9/22/19 11:06,600,The main experiment item,yes,FlankerExperiment.osexp,E:\Classwork\AQMAED,no,mono,no,18,no,white,no,yes,768,legacy,45,79,E:/Classwork/AQMAED/subject-1.csv,legacy,Kafkaesque Koffka,3.2.8,0,s,NA,s,h,NA,s,573,NA,14087,15837,NA,573,2,legacy,1024,2,48000,-16,experiment,HHSHH,1,odd,16904,188023,NA,269165,260454,2814,266973,NA,270250,2816,172185,NA,270353,270928,270247,270353,Flanker Experiment,116,81311,126,yes,1024
92.12598425,92.12598425,644.6141732,644.6141732,black,legacy,legacy,legacy,0,congruent,uniform,1,undefined,1,h,0,0,0,126,126,0,126,0,126,0,0,0,126,126,126,126,9/22/19 11:06,600,The main experiment item,yes,FlankerExperiment.osexp,E:\Classwork\AQMAED,no,mono,no,18,no,white,no,yes,768,legacy,46,79,E:/Classwork/AQMAED/subject-1.csv,legacy,Kafkaesque Koffka,3.2.8,0,h,NA,s,h,NA,h,555,NA,14087,15837,NA,555,2,legacy,1024,2,48000,-16,experiment,HHHHH,1,odd,16904,188023,NA,270933,260454,2814,266973,NA,272005,2816,172185,NA,272108,272664,272003,272107,Flanker Experiment,117,81866,127,yes,1024
92.1875,92.1875,642.9765625,642.9765625,black,legacy,legacy,legacy,0,congruent,uniform,1,undefined,1,s,0,0,0,127,127,0,127,0,127,0,0,0,127,127,127,127,9/22/19 11:06,600,The main experiment item,yes,FlankerExperiment.osexp,E:\Classwork\AQMAED,no,mono,no,18,no,white,no,yes,768,legacy,47,79,E:/Classwork/AQMAED/subject-1.csv,legacy,Kafkaesque Koffka,3.2.8,0,s,NA,s,h,NA,s,435,NA,14087,15837,NA,435,2,legacy,1024,2,48000,-16,experiment,SSSSS,1,odd,16904,188023,NA,272669,260454,2814,266973,NA,273738,2816,172185,NA,273840,274276,273735,273840,Flanker Experiment,118,82301,128,yes,1024
92.24806202,92.24806202,641.9379845,641.9379845,black,legacy,legacy,legacy,0,congruent,uniform,1,undefined,1,h,0,0,0,128,128,0,128,0,128,0,0,0,128,128,128,128,9/22/19 11:06,600,The main experiment item,yes,FlankerExperiment.osexp,E:\Classwork\AQMAED,no,mono,no,18,no,white,no,yes,768,legacy,48,79,E:/Classwork/AQMAED/subject-1.csv,legacy,Kafkaesque Koffka,3.2.8,0,h,NA,s,h,NA,h,509,NA,14087,15837,NA,509,2,legacy,1024,2,48000,-16,experiment,HHHHH,1,odd,16904,188023,NA,274281,260454,2814,266973,NA,275346,2816,172185,NA,275448,275958,275343,275448,Flanker Experiment,119,82810,129,yes,1024
91.53846154,91.53846154,641.4923077,641.4923077,black,legacy,legacy,legacy,0,incongruent,uniform,0,undefined,0,h,0,0,0,129,129,0,129,0,129,0,0,0,129,129,129,129,9/22/19 11:06,600,The main experiment item,yes,FlankerExperiment.osexp,E:\Classwork\AQMAED,no,mono,no,18,no,white,no,yes,768,legacy,49,79,E:/Classwork/AQMAED/subject-1.csv,legacy,Kafkaesque Koffka,3.2.8,0,s,NA,s,h,NA,s,584,NA,14087,15837,NA,584,2,legacy,1024,2,48000,-16,experiment,SSHSS,1,odd,16904,188023,NA,275972,260454,2814,266973,NA,277049,2816,172185,NA,277150,277736,277046,277150,Flanker Experiment,119,83394,130,yes,1024
91.60305344,91.60305344,640.9847328,640.9847328,black,legacy,legacy,legacy,0,incongruent,uniform,1,undefined,1,s,0,0,0,130,130,0,130,0,130,0,0,0,130,130,130,130,9/22/19 11:06,600,The main experiment item,yes,FlankerExperiment.osexp,E:\Classwork\AQMAED,no,mono,no,18,no,white,no,yes,768,legacy,50,79,E:/Classwork/AQMAED/subject-1.csv,legacy,Kafkaesque Koffka,3.2.8,0,s,NA,s,h,NA,s,575,NA,14087,15837,NA,575,2,legacy,1024,2,48000,-16,experiment,HHSHH,1,odd,16904,188023,NA,278243,277740,2814,266973,NA,279305,2816,172185,NA,279406,279982,279303,279406,Flanker Experiment,120,83969,131,yes,1024
91.66666667,91.66666667,639.7727273,639.7727273,black,legacy,legacy,legacy,0,congruent,uniform,1,undefined,1,h,0,0,0,131,131,0,131,0,131,0,0,0,131,131,131,131,9/22/19 11:06,600,The main experiment item,yes,FlankerExperiment.osexp,E:\Classwork\AQMAED,no,mono,no,18,no,white,no,yes,768,legacy,51,79,E:/Classwork/AQMAED/subject-1.csv,legacy,Kafkaesque Koffka,3.2.8,0,h,NA,s,h,NA,h,481,NA,14087,15837,NA,481,2,legacy,1024,2,48000,-16,experiment,HHHHH,1,odd,16904,188023,NA,279987,277740,2814,266973,NA,281059,2816,172185,NA,281161,281644,281056,281161,Flanker Experiment,121,84450,132,yes,1024
91.72932331,91.72932331,639.7067669,639.7067669,black,legacy,legacy,legacy,0,incongruent,uniform,1,undefined,1,h,0,0,0,132,132,0,132,0,132,0,0,0,132,132,132,132,9/22/19 11:06,600,The main experiment item,yes,FlankerExperiment.osexp,E:\Classwork\AQMAED,no,mono,no,18,no,white,no,yes,768,legacy,52,79,E:/Classwork/AQMAED/subject-1.csv,legacy,Kafkaesque Koffka,3.2.8,0,h,NA,s,h,NA,h,631,NA,14087,15837,NA,631,2,legacy,1024,2,48000,-16,experiment,SSHSS,1,odd,16904,188023,NA,281648,277740,2814,266973,NA,282716,2816,172185,NA,282818,283451,282714,282818,Flanker Experiment,122,85081,133,yes,1024
91.79104478,91.79104478,638.7014925,638.7014925,black,legacy,legacy,legacy,0,incongruent,uniform,1,undefined,1,h,0,0,0,133,133,0,133,0,133,0,0,0,133,133,133,133,9/22/19 11:06,600,The main experiment item,yes,FlankerExperiment.osexp,E:\Classwork\AQMAED,no,mono,no,18,no,white,no,yes,768,legacy,53,79,E:/Classwork/AQMAED/subject-1.csv,legacy,Kafkaesque Koffka,3.2.8,0,h,NA,s,h,NA,h,505,NA,14087,15837,NA,505,2,legacy,1024,2,48000,-16,experiment,SSHSS,1,odd,16904,188023,NA,283958,277740,2814,283455,NA,285029,2816,172185,NA,285131,285638,285026,285131,Flanker Experiment,123,85586,134,yes,1024
91.85185185,91.85185185,636.5111111,636.5111111,black,legacy,legacy,legacy,0,incongruent,uniform,1,undefined,1,h,0,0,0,134,134,0,134,0,134,0,0,0,134,134,134,134,9/22/19 11:06,600,The main experiment item,yes,FlankerExperiment.osexp,E:\Classwork\AQMAED,no,mono,no,18,no,white,no,yes,768,legacy,54,79,E:/Classwork/AQMAED/subject-1.csv,legacy,Kafkaesque Koffka,3.2.8,0,h,NA,s,h,NA,h,343,NA,14087,15837,NA,343,2,legacy,1024,2,48000,-16,experiment,SSHSS,1,odd,16904,188023,NA,285643,277740,2814,283455,NA,286704,2816,172185,NA,286805,287149,286701,286805,Flanker Experiment,124,85929,135,yes,1024
91.91176471,91.91176471,634.3897059,634.3897059,black,legacy,legacy,legacy,0,incongruent,uniform,1,undefined,1,h,0,0,0,135,135,0,135,0,135,0,0,0,135,135,135,135,9/22/19 11:06,600,The main experiment item,yes,FlankerExperiment.osexp,E:\Classwork\AQMAED,no,mono,no,18,no,white,no,yes,768,legacy,55,79,E:/Classwork/AQMAED/subject-1.csv,legacy,Kafkaesque Koffka,3.2.8,0,h,NA,s,h,NA,h,348,NA,14087,15837,NA,348,2,legacy,1024,2,48000,-16,experiment,SSHSS,1,odd,16904,188023,NA,287154,277740,2814,283455,NA,288225,2816,172185,NA,288326,288677,288223,288326,Flanker Experiment,125,86277,136,yes,1024
91.97080292,91.97080292,632.2627737,632.2627737,black,legacy,legacy,legacy,0,congruent,uniform,1,undefined,1,h,0,0,0,136,136,0,136,0,136,0,0,0,136,136,136,136,9/22/19 11:06,600,The main experiment item,yes,FlankerExperiment.osexp,E:\Classwork\AQMAED,no,mono,no,18,no,white,no,yes,768,legacy,56,79,E:/Classwork/AQMAED/subject-1.csv,legacy,Kafkaesque Koffka,3.2.8,0,h,NA,s,h,NA,h,343,NA,14087,15837,NA,343,2,legacy,1024,2,48000,-16,experiment,HHHHH,1,odd,16904,188023,NA,288682,277740,2814,283455,NA,289762,2816,172185,NA,289864,290209,289759,289864,Flanker Experiment,126,86620,137,yes,1024
91.30434783,91.30434783,630.115942,630.115942,black,legacy,legacy,legacy,0,congruent,uniform,0,undefined,0,s,0,0,0,137,137,0,137,0,137,0,0,0,137,137,137,137,9/22/19 11:06,600,The main experiment item,yes,FlankerExperiment.osexp,E:\Classwork\AQMAED,no,mono,no,18,no,white,no,yes,768,legacy,57,79,E:/Classwork/AQMAED/subject-1.csv,legacy,Kafkaesque Koffka,3.2.8,0,h,NA,s,h,NA,h,336,NA,14087,15837,NA,336,2,legacy,1024,2,48000,-16,experiment,SSSSS,1,odd,16904,188023,NA,290213,277740,2814,283455,NA,291273,2816,172185,NA,291376,291714,291271,291376,Flanker Experiment,126,86956,138,yes,1024
91.36690647,91.36690647,629.6258993,629.6258993,black,legacy,legacy,legacy,0,congruent,uniform,1,undefined,1,h,0,0,0,138,138,0,138,0,138,0,0,0,138,138,138,138,9/22/19 11:06,600,The main experiment item,yes,FlankerExperiment.osexp,E:\Classwork\AQMAED,no,mono,no,18,no,white,no,yes,768,legacy,58,79,E:/Classwork/AQMAED/subject-1.csv,legacy,Kafkaesque Koffka,3.2.8,0,h,NA,s,h,NA,h,562,NA,14087,15837,NA,562,2,legacy,1024,2,48000,-16,experiment,HHHHH,1,odd,16904,188023,NA,292222,291718,2814,283455,NA,293291,2816,172185,NA,293393,293956,293288,293393,Flanker Experiment,127,87518,139,yes,1024
90.71428571,90.71428571,627.3285714,627.3285714,black,legacy,legacy,legacy,0,incongruent,uniform,0,undefined,0,s,0,0,0,139,139,0,139,0,139,0,0,0,139,139,139,139,9/22/19 11:06,600,The main experiment item,yes,FlankerExperiment.osexp,E:\Classwork\AQMAED,no,mono,no,18,no,white,no,yes,768,legacy,59,79,E:/Classwork/AQMAED/subject-1.csv,legacy,Kafkaesque Koffka,3.2.8,0,h,NA,s,h,NA,h,308,NA,14087,15837,NA,308,2,legacy,1024,2,48000,-16,experiment,HHSHH,1,odd,16904,188023,NA,293969,291718,2814,283455,NA,295051,2816,172185,NA,295153,295462,295049,295152,Flanker Experiment,127,87826,140,yes,1024
90.78014184,90.78014184,626.7021277,626.7021277,black,legacy,legacy,legacy,0,incongruent,uniform,1,undefined,1,h,0,0,0,140,140,0,140,0,140,0,0,0,140,140,140,140,9/22/19 11:06,600,The main experiment item,yes,FlankerExperiment.osexp,E:\Classwork\AQMAED,no,mono,no,18,no,white,no,yes,768,legacy,60,79,E:/Classwork/AQMAED/subject-1.csv,legacy,Kafkaesque Koffka,3.2.8,0,h,NA,s,h,NA,h,539,NA,14087,15837,NA,539,2,legacy,1024,2,48000,-16,experiment,SSHSS,1,odd,16904,188023,NA,295971,295467,2814,283455,NA,297045,2816,172185,NA,297146,297686,297043,297146,Flanker Experiment,128,88365,141,yes,1024
90.84507042,90.84507042,625.3450704,625.3450704,black,legacy,legacy,legacy,0,congruent,uniform,1,undefined,1,h,0,0,0,141,141,0,141,0,141,0,0,0,141,141,141,141,9/22/19 11:06,600,The main experiment item,yes,FlankerExperiment.osexp,E:\Classwork\AQMAED,no,mono,no,18,no,white,no,yes,768,legacy,61,79,E:/Classwork/AQMAED/subject-1.csv,legacy,Kafkaesque Koffka,3.2.8,0,h,NA,s,h,NA,h,434,NA,14087,15837,NA,434,2,legacy,1024,2,48000,-16,experiment,HHHHH,1,odd,16904,188023,NA,297694,295467,2814,283455,NA,298754,2816,172185,NA,298856,299291,298751,298856,Flanker Experiment,129,88799,142,yes,1024
90.90909091,90.90909091,624.6643357,624.6643357,black,legacy,legacy,legacy,0,incongruent,uniform,1,undefined,1,h,0,0,0,142,142,0,142,0,142,0,0,0,142,142,142,142,9/22/19 11:06,600,The main experiment item,yes,FlankerExperiment.osexp,E:\Classwork\AQMAED,no,mono,no,18,no,white,no,yes,768,legacy,62,79,E:/Classwork/AQMAED/subject-1.csv,legacy,Kafkaesque Koffka,3.2.8,0,h,NA,s,h,NA,h,528,NA,14087,15837,NA,528,2,legacy,1024,2,48000,-16,experiment,SSHSS,1,odd,16904,188023,NA,299296,295467,2814,283455,NA,300358,2816,172185,NA,300459,300988,300356,300459,Flanker Experiment,130,89327,143,yes,1024
90.97222222,90.97222222,624.2638889,624.2638889,black,legacy,legacy,legacy,0,congruent,uniform,1,undefined,1,s,0,0,0,143,143,0,143,0,143,0,0,0,143,143,143,143,9/22/19 11:06,600,The main experiment item,yes,FlankerExperiment.osexp,E:\Classwork\AQMAED,no,mono,no,18,no,white,no,yes,768,legacy,63,79,E:/Classwork/AQMAED/subject-1.csv,legacy,Kafkaesque Koffka,3.2.8,0,s,NA,s,h,NA,s,567,NA,14087,15837,NA,567,2,legacy,1024,2,48000,-16,experiment,SSSSS,1,odd,16904,188023,NA,300993,295467,2814,283455,NA,302067,2816,172185,NA,302172,302740,302065,302172,Flanker Experiment,131,89894,144,yes,1024
91.03448276,91.03448276,624.2068966,624.2068966,black,legacy,legacy,legacy,0,incongruent,uniform,1,undefined,1,s,0,0,0,144,144,0,144,0,144,0,0,0,144,144,144,144,9/22/19 11:06,600,The main experiment item,yes,FlankerExperiment.osexp,E:\Classwork\AQMAED,no,mono,no,18,no,white,no,yes,768,legacy,64,79,E:/Classwork/AQMAED/subject-1.csv,legacy,Kafkaesque Koffka,3.2.8,0,s,NA,s,h,NA,s,616,NA,14087,15837,NA,616,2,legacy,1024,2,48000,-16,experiment,HHSHH,1,odd,16904,188023,NA,302745,295467,2814,283455,NA,303823,2816,172185,NA,303925,304542,303821,303925,Flanker Experiment,132,90510,145,yes,1024
90.4109589,90.4109589,622.1575342,622.1575342,black,legacy,legacy,legacy,0,congruent,uniform,0,undefined,0,h,0,0,0,145,145,0,145,0,145,0,0,0,145,145,145,145,9/22/19 11:06,600,The main experiment item,yes,FlankerExperiment.osexp,E:\Classwork\AQMAED,no,mono,no,18,no,white,no,yes,768,legacy,65,79,E:/Classwork/AQMAED/subject-1.csv,legacy,Kafkaesque Koffka,3.2.8,0,s,NA,s,h,NA,s,325,NA,14087,15837,NA,325,2,legacy,1024,2,48000,-16,experiment,HHHHH,1,odd,16904,188023,NA,305050,295467,2814,304547,NA,306115,2816,172185,NA,306217,306544,306113,306217,Flanker Experiment,132,90835,146,yes,1024
90.47619048,90.47619048,621.2244898,621.2244898,black,legacy,legacy,legacy,0,congruent,uniform,1,undefined,1,s,0,0,0,146,146,0,146,0,146,0,0,0,146,146,146,146,9/22/19 11:06,600,The main experiment item,yes,FlankerExperiment.osexp,E:\Classwork\AQMAED,no,mono,no,18,no,white,no,yes,768,legacy,66,79,E:/Classwork/AQMAED/subject-1.csv,legacy,Kafkaesque Koffka,3.2.8,0,s,NA,s,h,NA,s,485,NA,14087,15837,NA,485,2,legacy,1024,2,48000,-16,experiment,SSSSS,1,odd,16904,188023,NA,307051,306549,2814,304547,NA,308123,2816,172185,NA,308225,308711,308121,308224,Flanker Experiment,133,91320,147,yes,1024
90.54054054,90.54054054,620.4527027,620.4527027,black,legacy,legacy,legacy,0,congruent,uniform,1,undefined,1,s,0,0,0,147,147,0,147,0,147,0,0,0,147,147,147,147,9/22/19 11:06,600,The main experiment item,yes,FlankerExperiment.osexp,E:\Classwork\AQMAED,no,mono,no,18,no,white,no,yes,768,legacy,67,79,E:/Classwork/AQMAED/subject-1.csv,legacy,Kafkaesque Koffka,3.2.8,0,s,NA,s,h,NA,s,507,NA,14087,15837,NA,507,2,legacy,1024,2,48000,-16,experiment,SSSSS,1,odd,16904,188023,NA,308715,306549,2814,304547,NA,309787,2816,172185,NA,309889,310398,309785,309889,Flanker Experiment,134,91827,148,yes,1024
89.93288591,89.93288591,619.3288591,619.3288591,black,legacy,legacy,legacy,0,incongruent,uniform,0,undefined,0,h,0,0,0,148,148,0,148,0,148,0,0,0,148,148,148,148,9/22/19 11:06,600,The main experiment item,yes,FlankerExperiment.osexp,E:\Classwork\AQMAED,no,mono,no,18,no,white,no,yes,768,legacy,68,79,E:/Classwork/AQMAED/subject-1.csv,legacy,Kafkaesque Koffka,3.2.8,0,s,NA,s,h,NA,s,453,NA,14087,15837,NA,453,2,legacy,1024,2,48000,-16,experiment,SSHSS,1,odd,16904,188023,NA,310403,306549,2814,304547,NA,311473,2816,172185,NA,311574,312029,311471,311574,Flanker Experiment,134,92280,149,yes,1024
90,90,618.2333333,618.2333333,black,legacy,legacy,legacy,0,incongruent,uniform,1,undefined,1,s,0,0,0,149,149,0,149,0,149,0,0,0,149,149,149,149,9/22/19 11:06,600,The main experiment item,yes,FlankerExperiment.osexp,E:\Classwork\AQMAED,no,mono,no,18,no,white,no,yes,768,legacy,69,79,E:/Classwork/AQMAED/subject-1.csv,legacy,Kafkaesque Koffka,3.2.8,0,s,NA,s,h,NA,s,455,NA,14087,15837,NA,455,2,legacy,1024,2,48000,-16,experiment,HHSHH,1,odd,16904,188023,NA,312535,312033,2814,304547,NA,313608,2816,172185,NA,313709,314166,313606,313709,Flanker Experiment,135,92735,150,yes,1024
90.06622517,90.06622517,616.2913907,616.2913907,black,legacy,legacy,legacy,0,congruent,uniform,1,undefined,1,s,0,0,0,150,150,0,150,0,150,0,0,0,150,150,150,150,9/22/19 11:06,600,The main experiment item,yes,FlankerExperiment.osexp,E:\Classwork\AQMAED,no,mono,no,18,no,white,no,yes,768,legacy,70,79,E:/Classwork/AQMAED/subject-1.csv,legacy,Kafkaesque Koffka,3.2.8,0,s,NA,s,h,NA,s,325,NA,14087,15837,NA,325,2,legacy,1024,2,48000,-16,experiment,SSSSS,1,odd,16904,188023,NA,314171,312033,2814,304547,NA,315245,2816,172185,NA,315347,315673,315243,315347,Flanker Experiment,136,93060,151,yes,1024
89.47368421,89.47368421,615.5131579,615.5131579,black,legacy,legacy,legacy,0,incongruent,uniform,0,undefined,0,s,0,0,0,151,151,0,151,0,151,0,0,0,151,151,151,151,9/22/19 11:06,600,The main experiment item,yes,FlankerExperiment.osexp,E:\Classwork\AQMAED,no,mono,no,18,no,white,no,yes,768,legacy,71,79,E:/Classwork/AQMAED/subject-1.csv,legacy,Kafkaesque Koffka,3.2.8,0,h,NA,s,h,NA,h,498,NA,14087,15837,NA,498,2,legacy,1024,2,48000,-16,experiment,HHSHH,1,odd,16904,188023,NA,315678,312033,2814,304547,NA,316748,2816,172185,NA,316850,317350,316745,316850,Flanker Experiment,136,93558,152,yes,1024
89.54248366,89.54248366,614.2745098,614.2745098,black,legacy,legacy,legacy,0,congruent,uniform,1,undefined,1,s,0,0,0,152,152,0,152,0,152,0,0,0,152,152,152,152,9/22/19 11:06,600,The main experiment item,yes,FlankerExperiment.osexp,E:\Classwork\AQMAED,no,mono,no,18,no,white,no,yes,768,legacy,72,79,E:/Classwork/AQMAED/subject-1.csv,legacy,Kafkaesque Koffka,3.2.8,0,s,NA,s,h,NA,s,426,NA,14087,15837,NA,426,2,legacy,1024,2,48000,-16,experiment,SSSSS,1,odd,16904,188023,NA,317856,317354,2814,304547,NA,318928,2816,172185,NA,319029,319457,318926,319029,Flanker Experiment,137,93984,153,yes,1024
89.61038961,89.61038961,612.5324675,612.5324675,black,legacy,legacy,legacy,0,incongruent,uniform,1,undefined,1,s,0,0,0,153,153,0,153,0,153,0,0,0,153,153,153,153,9/22/19 11:06,600,The main experiment item,yes,FlankerExperiment.osexp,E:\Classwork\AQMAED,no,mono,no,18,no,white,no,yes,768,legacy,73,79,E:/Classwork/AQMAED/subject-1.csv,legacy,Kafkaesque Koffka,3.2.8,0,s,NA,s,h,NA,s,346,NA,14087,15837,NA,346,2,legacy,1024,2,48000,-16,experiment,HHSHH,1,odd,16904,188023,NA,319462,317354,2814,304547,NA,320528,2816,172185,NA,320631,320979,320526,320630,Flanker Experiment,138,94330,154,yes,1024
89.03225806,89.03225806,611.1870968,611.1870968,black,legacy,legacy,legacy,0,congruent,uniform,0,undefined,0,h,0,0,0,154,154,0,154,0,154,0,0,0,154,154,154,154,9/22/19 11:06,600,The main experiment item,yes,FlankerExperiment.osexp,E:\Classwork\AQMAED,no,mono,no,18,no,white,no,yes,768,legacy,74,79,E:/Classwork/AQMAED/subject-1.csv,legacy,Kafkaesque Koffka,3.2.8,0,s,NA,s,h,NA,s,404,NA,14087,15837,NA,404,2,legacy,1024,2,48000,-16,experiment,HHHHH,1,odd,16904,188023,NA,320983,317354,2814,304547,NA,322057,2816,172185,NA,322159,322565,322055,322158,Flanker Experiment,138,94734,155,yes,1024
89.1025641,89.1025641,611.3269231,611.3269231,black,legacy,legacy,legacy,0,congruent,uniform,1,undefined,1,s,0,0,0,155,155,0,155,0,155,0,0,0,155,155,155,155,9/22/19 11:06,600,The main experiment item,yes,FlankerExperiment.osexp,E:\Classwork\AQMAED,no,mono,no,18,no,white,no,yes,768,legacy,75,79,E:/Classwork/AQMAED/subject-1.csv,legacy,Kafkaesque Koffka,3.2.8,0,s,NA,s,h,NA,s,633,NA,14087,15837,NA,633,2,legacy,1024,2,48000,-16,experiment,SSSSS,1,odd,16904,188023,NA,323076,322572,2814,304547,NA,324148,2816,172185,NA,324250,324884,324145,324250,Flanker Experiment,139,95367,156,yes,1024
89.17197452,89.17197452,611.1719745,611.1719745,black,legacy,legacy,legacy,0,incongruent,uniform,1,undefined,1,h,0,0,0,156,156,0,156,0,156,0,0,0,156,156,156,156,9/22/19 11:06,600,The main experiment item,yes,FlankerExperiment.osexp,E:\Classwork\AQMAED,no,mono,no,18,no,white,no,yes,768,legacy,76,79,E:/Classwork/AQMAED/subject-1.csv,legacy,Kafkaesque Koffka,3.2.8,0,h,NA,s,h,NA,h,587,NA,14087,15837,NA,587,2,legacy,1024,2,48000,-16,experiment,SSHSS,1,odd,16904,188023,NA,325392,322572,2814,324889,NA,326461,2816,172185,NA,326563,327151,326459,326562,Flanker Experiment,140,95954,157,yes,1024
88.60759494,88.60759494,609.4620253,609.4620253,black,legacy,legacy,legacy,0,incongruent,uniform,0,undefined,0,h,0,0,0,157,157,0,157,0,157,0,0,0,157,157,157,157,9/22/19 11:06,600,The main experiment item,yes,FlankerExperiment.osexp,E:\Classwork\AQMAED,no,mono,no,18,no,white,no,yes,768,legacy,77,79,E:/Classwork/AQMAED/subject-1.csv,legacy,Kafkaesque Koffka,3.2.8,0,s,NA,s,h,NA,s,341,NA,14087,15837,NA,341,2,legacy,1024,2,48000,-16,experiment,SSHSS,1,odd,16904,188023,NA,327166,322572,2814,324889,NA,328229,2816,172185,NA,328331,328673,328226,328330,Flanker Experiment,140,96295,158,yes,1024
88.67924528,88.67924528,609.163522,609.163522,black,legacy,legacy,legacy,0,incongruent,uniform,1,undefined,1,s,0,0,0,158,158,0,158,0,158,0,0,0,158,158,158,158,9/22/19 11:06,600,The main experiment item,yes,FlankerExperiment.osexp,E:\Classwork\AQMAED,no,mono,no,18,no,white,no,yes,768,legacy,78,79,E:/Classwork/AQMAED/subject-1.csv,legacy,Kafkaesque Koffka,3.2.8,0,s,NA,s,h,NA,s,562,NA,14087,15837,NA,562,2,legacy,1024,2,48000,-16,experiment,HHSHH,1,odd,16904,188023,NA,329182,328678,2814,324889,NA,330260,2816,172185,NA,330362,330925,330258,330362,Flanker Experiment,141,96857,159,yes,1024
88.75,88.75,609.025,609.025,black,legacy,legacy,legacy,0,congruent,uniform,1,undefined,1,h,0,0,0,159,159,0,159,0,159,0,0,0,159,159,159,159,9/22/19 11:06,600,The main experiment item,yes,FlankerExperiment.osexp,E:\Classwork\AQMAED,no,mono,no,18,no,white,no,yes,768,legacy,79,79,E:/Classwork/AQMAED/subject-1.csv,legacy,Kafkaesque Koffka,3.2.8,0,h,NA,s,h,NA,h,587,NA,14087,15837,NA,587,2,legacy,1024,2,48000,-16,experiment,HHHHH,1,odd,16904,188023,NA,330930,328678,2814,324889,NA,331990,2816,172185,NA,332093,332681,331988,332093,Flanker Experiment,142,97444,160,yes,1024
88.19875776,88.19875776,608.5714286,608.5714286,black,legacy,legacy,legacy,0,incongruent,uniform,0,undefined,0,h,0,0,0,160,160,0,160,0,160,0,0,0,160,160,160,160,9/22/19 11:06,300,The main experiment item,yes,FlankerExperiment.osexp,E:\Classwork\AQMAED,no,mono,no,18,no,white,no,yes,768,legacy,0,79,E:/Classwork/AQMAED/subject-1.csv,legacy,Kafkaesque Koffka,3.2.8,0,s,NA,s,h,h,s,536,NA,14087,15837,2663,536,2,legacy,1024,2,48000,-16,experiment,SSHSS,1,odd,16904,188023,336375,332688,328678,2814,324889,NA,336434,2816,172185,333711,336538,337076,336432,336537,Flanker Experiment,142,97980,161,yes,1024
88.27160494,88.27160494,608.6851852,608.6851852,black,legacy,legacy,legacy,0,incongruent,uniform,1,undefined,1,h,0,0,0,161,161,0,161,0,161,0,0,0,161,161,161,161,9/22/19 11:06,300,The main experiment item,yes,FlankerExperiment.osexp,E:\Classwork\AQMAED,no,mono,no,18,no,white,no,yes,768,legacy,1,79,E:/Classwork/AQMAED/subject-1.csv,legacy,Kafkaesque Koffka,3.2.8,0,h,NA,s,h,h,h,627,NA,14087,15837,2663,627,2,legacy,1024,2,48000,-16,experiment,SSHSS,1,odd,16904,188023,336375,338087,337080,2814,337584,NA,339149,2816,172185,333711,339250,339879,339147,339250,Flanker Experiment,143,98607,162,yes,1024
88.34355828,88.34355828,607.7791411,607.7791411,black,legacy,legacy,legacy,0,congruent,uniform,1,undefined,1,s,0,0,0,162,162,0,162,0,162,0,0,0,162,162,162,162,9/22/19 11:06,300,The main experiment item,yes,FlankerExperiment.osexp,E:\Classwork\AQMAED,no,mono,no,18,no,white,no,yes,768,legacy,2,79,E:/Classwork/AQMAED/subject-1.csv,legacy,Kafkaesque Koffka,3.2.8,0,s,NA,s,h,h,s,461,NA,14087,15837,2663,461,2,legacy,1024,2,48000,-16,experiment,SSSSS,1,odd,16904,188023,336375,340385,337080,2814,339883,NA,341455,2816,172185,333711,341557,342020,341453,341557,Flanker Experiment,144,99068,163,yes,1024
88.41463415,88.41463415,605.9146341,605.9146341,black,legacy,legacy,legacy,0,congruent,uniform,1,undefined,1,h,0,0,0,163,163,0,163,0,163,0,0,0,163,163,163,163,9/22/19 11:06,300,The main experiment item,yes,FlankerExperiment.osexp,E:\Classwork\AQMAED,no,mono,no,18,no,white,no,yes,768,legacy,3,79,E:/Classwork/AQMAED/subject-1.csv,legacy,Kafkaesque Koffka,3.2.8,0,h,NA,s,h,h,h,302,NA,14087,15837,2663,302,2,legacy,1024,2,48000,-16,experiment,HHHHH,1,odd,16904,188023,336375,342528,337080,2814,342025,NA,343591,2816,172185,333711,343694,343998,343588,343694,Flanker Experiment,145,99370,164,yes,1024
87.87878788,87.87878788,604.0060606,604.0060606,black,legacy,legacy,legacy,0,congruent,uniform,0,undefined,0,s,0,0,0,164,164,0,164,0,164,0,0,0,164,164,164,164,9/22/19 11:06,300,The main experiment item,yes,FlankerExperiment.osexp,E:\Classwork\AQMAED,no,mono,no,18,no,white,no,yes,768,legacy,4,79,E:/Classwork/AQMAED/subject-1.csv,legacy,Kafkaesque Koffka,3.2.8,0,h,NA,s,h,h,h,291,NA,14087,15837,2663,291,2,legacy,1024,2,48000,-16,experiment,SSSSS,1,odd,16904,188023,336375,344505,337080,2814,344003,NA,345585,2816,172185,333711,345687,345980,345583,345687,Flanker Experiment,145,99661,165,yes,1024
87.95180723,87.95180723,602.2228916,602.2228916,black,legacy,legacy,legacy,0,incongruent,uniform,1,undefined,1,s,0,0,0,165,165,0,165,0,165,0,0,0,165,165,165,165,9/22/19 11:06,300,The main experiment item,yes,FlankerExperiment.osexp,E:\Classwork\AQMAED,no,mono,no,18,no,white,no,yes,768,legacy,5,79,E:/Classwork/AQMAED/subject-1.csv,legacy,Kafkaesque Koffka,3.2.8,0,s,NA,s,h,h,s,308,NA,14087,15837,2663,308,2,legacy,1024,2,48000,-16,experiment,HHSHH,1,odd,16904,188023,336375,346487,345984,2814,344003,NA,347559,2816,172185,333711,347661,347971,347556,347661,Flanker Experiment,146,99969,166,yes,1024
88.0239521,88.0239521,600.8143713,600.8143713,black,legacy,legacy,legacy,0,congruent,uniform,1,undefined,1,s,0,0,0,166,166,0,166,0,166,0,0,0,166,166,166,166,9/22/19 11:06,300,The main experiment item,yes,FlankerExperiment.osexp,E:\Classwork\AQMAED,no,mono,no,18,no,white,no,yes,768,legacy,6,79,E:/Classwork/AQMAED/subject-1.csv,legacy,Kafkaesque Koffka,3.2.8,0,s,NA,s,h,h,s,367,NA,14087,15837,2663,367,2,legacy,1024,2,48000,-16,experiment,SSSSS,1,odd,16904,188023,336375,348479,345984,2814,347976,NA,349547,2816,172185,333711,349649,350017,349544,349649,Flanker Experiment,147,100336,167,yes,1024
87.5,87.5,599.0535714,599.0535714,black,legacy,legacy,legacy,0,incongruent,uniform,0,undefined,0,h,0,0,0,167,167,0,167,0,167,0,0,0,167,167,167,167,9/22/19 11:06,300,The main experiment item,yes,FlankerExperiment.osexp,E:\Classwork\AQMAED,no,mono,no,18,no,white,no,yes,768,legacy,7,79,E:/Classwork/AQMAED/subject-1.csv,legacy,Kafkaesque Koffka,3.2.8,0,s,NA,s,h,h,s,305,NA,14087,15837,2663,305,2,legacy,1024,2,48000,-16,experiment,SSHSS,1,odd,16904,188023,336375,350524,345984,2814,350022,NA,351589,2816,172185,333711,351693,352000,351586,351693,Flanker Experiment,147,100641,168,yes,1024
86.98224852,86.98224852,597.5029586,597.5029586,black,legacy,legacy,legacy,0,incongruent,uniform,0,undefined,0,s,0,0,0,168,168,0,168,0,168,0,0,0,168,168,168,168,9/22/19 11:06,300,The main experiment item,yes,FlankerExperiment.osexp,E:\Classwork\AQMAED,no,mono,no,18,no,white,no,yes,768,legacy,8,79,E:/Classwork/AQMAED/subject-1.csv,legacy,Kafkaesque Koffka,3.2.8,0,h,NA,s,h,h,h,337,NA,14087,15837,2663,337,2,legacy,1024,2,48000,-16,experiment,HHSHH,1,odd,16904,188023,336375,353009,352005,2814,352508,NA,354070,2816,172185,333711,354173,354512,354068,354173,Flanker Experiment,147,100978,169,yes,1024
86.47058824,86.47058824,595.8882353,595.8882353,black,legacy,legacy,legacy,0,congruent,uniform,0,undefined,0,h,0,0,0,169,169,0,169,0,169,0,0,0,169,169,169,169,9/22/19 11:06,300,The main experiment item,yes,FlankerExperiment.osexp,E:\Classwork\AQMAED,no,mono,no,18,no,white,no,yes,768,legacy,9,79,E:/Classwork/AQMAED/subject-1.csv,legacy,Kafkaesque Koffka,3.2.8,0,s,NA,s,h,h,s,323,NA,14087,15837,2663,323,2,legacy,1024,2,48000,-16,experiment,HHHHH,1,odd,16904,188023,336375,355528,354525,2814,355026,NA,356597,2816,172185,333711,356700,357024,356594,356700,Flanker Experiment,147,101301,170,yes,1024
86.5497076,86.5497076,594.3567251,594.3567251,black,legacy,legacy,legacy,0,congruent,uniform,1,undefined,1,h,0,0,0,170,170,0,170,0,170,0,0,0,170,170,170,170,9/22/19 11:06,300,The main experiment item,yes,FlankerExperiment.osexp,E:\Classwork\AQMAED,no,mono,no,18,no,white,no,yes,768,legacy,10,79,E:/Classwork/AQMAED/subject-1.csv,legacy,Kafkaesque Koffka,3.2.8,0,h,NA,s,h,h,h,334,NA,14087,15837,2663,334,2,legacy,1024,2,48000,-16,experiment,HHHHH,1,odd,16904,188023,336375,358039,357033,2814,357536,NA,359112,2816,172185,333711,359215,359551,359109,359215,Flanker Experiment,148,101635,171,yes,1024
