acc,accuracy,average_response_time,avg_rt,background,canvas_backend,clock_backend,color_backend,compensation,condition,coordinates,correct,correct_instructions1,correct_new_keyboard_response,correct_response,count_ISI,count_block1,count_block2,count_block3,count_errorFeedback,count_experiment,count_faster,count_finish,count_fixation,count_instructions1,count_instructions2,count_instructions3,count_new_keyboard_response,count_new_logger,count_sequence,count_stimulus,datetime,deadline,description,disable_garbage_collection,experiment_file,experiment_path,font_bold,font_family,font_italic,font_size,font_underline,foreground,form_clicks,fullscreen,height,keyboard_backend,live_row,live_row_block1,logfile,mouse_backend,opensesame_codename,opensesame_version,repeat_cycle,response,response_finish,response_instructions1,response_instructions2,response_instructions3,response_new_keyboard_response,response_time,response_time_finish,response_time_instructions1,response_time_instructions2,response_time_instructions3,response_time_new_keyboard_response,round_decimals,sampler_backend,sound_buf_size,sound_channels,sound_freq,sound_sample_size,start,stimulus,subject_nr,subject_parity,time_ISI,time_block1,time_block2,time_block3,time_errorFeedback,time_experiment,time_faster,time_finish,time_fixation,time_instructions1,time_instructions2,time_instructions3,time_new_keyboard_response,time_new_logger,time_sequence,time_stimulus,title,total_correct,total_response_time,total_responses,uniform_coordinates,width
100,100,664,664,black,legacy,legacy,legacy,0,congruent,uniform,1,undefined,1,h,0,0,0,0,0,0,0,0,0,0,0,0,0,0,0,0,Fri Sep 20 13:46:07 2019,1500,The main experiment item,yes,FlankerTask.osexp,/Users/kaylicolpitts/Desktop/adv quant/lab 2,no,mono,no,18,no,white,no,no,768,legacy,0,0,/Users/kaylicolpitts/Desktop/adv quant/lab 2/KC-subject-1.csv,legacy,Kafkaesque Koffka,3.2.8,0,h,NA,h,NA,NA,h,664,NA,5163,NA,NA,664,2,legacy,1024,2,48000,-16,experiment,HHHHH,1,odd,NA,8663,NA,NA,NA,3394,NA,NA,8840,3486,NA,NA,8992,9660,8785,8992,FlankerTask,1,664,1,yes,1024
100,100,594.5,594.5,black,legacy,legacy,legacy,0,congruent,uniform,1,undefined,1,s,1,0,0,0,1,0,1,0,1,0,0,0,1,1,1,1,Fri Sep 20 13:46:07 2019,1500,The main experiment item,yes,FlankerTask.osexp,/Users/kaylicolpitts/Desktop/adv quant/lab 2,no,mono,no,18,no,white,no,no,768,legacy,1,1,/Users/kaylicolpitts/Desktop/adv quant/lab 2/KC-subject-1.csv,legacy,Kafkaesque Koffka,3.2.8,0,s,NA,h,NA,NA,s,525,NA,5163,NA,NA,525,2,legacy,1024,2,48000,-16,experiment,SSSSS,1,odd,9722,8663,NA,NA,NA,3394,NA,NA,10895,3486,NA,NA,11047,11574,10842,11046,FlankerTask,2,1189,2,yes,1024
100,100,572.6666667,572.6666667,black,legacy,legacy,legacy,0,congruent,uniform,1,undefined,1,h,2,0,0,0,2,0,2,0,2,0,0,0,2,2,2,2,Fri Sep 20 13:46:07 2019,1500,The main experiment item,yes,FlankerTask.osexp,/Users/kaylicolpitts/Desktop/adv quant/lab 2,no,mono,no,18,no,white,no,no,768,legacy,2,2,/Users/kaylicolpitts/Desktop/adv quant/lab 2/KC-subject-1.csv,legacy,Kafkaesque Koffka,3.2.8,0,h,NA,h,NA,NA,h,529,NA,5163,NA,NA,529,2,legacy,1024,2,48000,-16,experiment,HHHHH,1,odd,11649,8663,NA,NA,NA,3394,NA,NA,12816,3486,NA,NA,12967,13499,12763,12967,FlankerTask,3,1718,3,yes,1024
100,100,581.75,581.75,black,legacy,legacy,legacy,0,incongruent,uniform,1,undefined,1,h,3,0,0,0,3,0,3,0,3,0,0,0,3,3,3,3,Fri Sep 20 13:46:07 2019,1500,The main experiment item,yes,FlankerTask.osexp,/Users/kaylicolpitts/Desktop/adv quant/lab 2,no,mono,no,18,no,white,no,no,768,legacy,3,3,/Users/kaylicolpitts/Desktop/adv quant/lab 2/KC-subject-1.csv,legacy,Kafkaesque Koffka,3.2.8,0,h,NA,h,NA,NA,h,609,NA,5163,NA,NA,609,2,legacy,1024,2,48000,-16,experiment,SSHSS,1,odd,13542,8663,NA,NA,NA,3394,NA,NA,14710,3486,NA,NA,14860,15471,14652,14860,FlankerTask,4,2327,4,yes,1024
100,100,565.8,565.8,black,legacy,legacy,legacy,0,incongruent,uniform,1,undefined,1,h,4,0,0,0,4,0,4,0,4,0,0,0,4,4,4,4,Fri Sep 20 13:46:07 2019,1500,The main experiment item,yes,FlankerTask.osexp,/Users/kaylicolpitts/Desktop/adv quant/lab 2,no,mono,no,18,no,white,no,no,768,legacy,4,4,/Users/kaylicolpitts/Desktop/adv quant/lab 2/KC-subject-1.csv,legacy,Kafkaesque Koffka,3.2.8,0,h,NA,h,NA,NA,h,502,NA,5163,NA,NA,502,2,legacy,1024,2,48000,-16,experiment,SSHSS,1,odd,15522,8663,NA,NA,NA,3394,NA,NA,16680,3486,NA,NA,16818,17322,16633,16818,FlankerTask,5,2829,5,yes,1024
100,100,561.8333333,561.8333333,black,legacy,legacy,legacy,0,incongruent,uniform,1,undefined,1,s,5,0,0,0,5,0,5,0,5,0,0,0,5,5,5,5,Fri Sep 20 13:46:07 2019,1500,The main experiment item,yes,FlankerTask.osexp,/Users/kaylicolpitts/Desktop/adv quant/lab 2,no,mono,no,18,no,white,no,no,768,legacy,5,5,/Users/kaylicolpitts/Desktop/adv quant/lab 2/KC-subject-1.csv,legacy,Kafkaesque Koffka,3.2.8,0,s,NA,h,NA,NA,s,542,NA,5163,NA,NA,542,2,legacy,1024,2,48000,-16,experiment,HHSHH,1,odd,17358,8663,NA,NA,NA,3394,NA,NA,18489,3486,NA,NA,18628,19172,18447,18628,FlankerTask,6,3371,6,yes,1024
100,100,543.2857143,543.2857143,black,legacy,legacy,legacy,0,congruent,uniform,1,undefined,1,h,6,0,0,0,6,0,6,0,6,0,0,0,6,6,6,6,Fri Sep 20 13:46:07 2019,1500,The main experiment item,yes,FlankerTask.osexp,/Users/kaylicolpitts/Desktop/adv quant/lab 2,no,mono,no,18,no,white,no,no,768,legacy,6,6,/Users/kaylicolpitts/Desktop/adv quant/lab 2/KC-subject-1.csv,legacy,Kafkaesque Koffka,3.2.8,0,h,NA,h,NA,NA,h,432,NA,5163,NA,NA,432,2,legacy,1024,2,48000,-16,experiment,HHHHH,1,odd,19211,8663,NA,NA,NA,3394,NA,NA,20356,3486,NA,NA,20497,20931,20318,20496,FlankerTask,7,3803,7,yes,1024
100,100,536.875,536.875,black,legacy,legacy,legacy,0,congruent,uniform,1,undefined,1,h,7,0,0,0,7,0,7,0,7,0,0,0,7,7,7,7,Fri Sep 20 13:46:07 2019,1500,The main experiment item,yes,FlankerTask.osexp,/Users/kaylicolpitts/Desktop/adv quant/lab 2,no,mono,no,18,no,white,no,no,768,legacy,7,7,/Users/kaylicolpitts/Desktop/adv quant/lab 2/KC-subject-1.csv,legacy,Kafkaesque Koffka,3.2.8,0,h,NA,h,NA,NA,h,492,NA,5163,NA,NA,492,2,legacy,1024,2,48000,-16,experiment,HHHHH,1,odd,20966,8663,NA,NA,NA,3394,NA,NA,22098,3486,NA,NA,22236,22729,22059,22236,FlankerTask,8,4295,8,yes,1024
100,100,524.5555556,524.5555556,black,legacy,legacy,legacy,0,congruent,uniform,1,undefined,1,h,8,0,0,0,8,0,8,0,8,0,0,0,8,8,8,8,Fri Sep 20 13:46:07 2019,1500,The main experiment item,yes,FlankerTask.osexp,/Users/kaylicolpitts/Desktop/adv quant/lab 2,no,mono,no,18,no,white,no,no,768,legacy,8,8,/Users/kaylicolpitts/Desktop/adv quant/lab 2/KC-subject-1.csv,legacy,Kafkaesque Koffka,3.2.8,0,h,NA,h,NA,NA,h,426,NA,5163,NA,NA,426,2,legacy,1024,2,48000,-16,experiment,HHHHH,1,odd,22773,8663,NA,NA,NA,3394,NA,NA,23914,3486,NA,NA,24053,24482,23874,24053,FlankerTask,9,4721,9,yes,1024
100,100,526.5,526.5,black,legacy,legacy,legacy,0,incongruent,uniform,1,undefined,1,s,9,0,0,0,9,0,9,0,9,0,0,0,9,9,9,9,Fri Sep 20 13:46:07 2019,1500,The main experiment item,yes,FlankerTask.osexp,/Users/kaylicolpitts/Desktop/adv quant/lab 2,no,mono,no,18,no,white,no,no,768,legacy,9,9,/Users/kaylicolpitts/Desktop/adv quant/lab 2/KC-subject-1.csv,legacy,Kafkaesque Koffka,3.2.8,0,s,NA,h,NA,NA,s,544,NA,5163,NA,NA,544,2,legacy,1024,2,48000,-16,experiment,HHSHH,1,odd,24519,8663,NA,NA,NA,3394,NA,NA,25652,3486,NA,NA,25790,26337,25614,25790,FlankerTask,10,5265,10,yes,1024
100,100,524.7272727,524.7272727,black,legacy,legacy,legacy,0,incongruent,uniform,1,undefined,1,s,10,0,0,0,10,0,10,0,10,0,0,0,10,10,10,10,Fri Sep 20 13:46:07 2019,1500,The main experiment item,yes,FlankerTask.osexp,/Users/kaylicolpitts/Desktop/adv quant/lab 2,no,mono,no,18,no,white,no,no,768,legacy,10,10,/Users/kaylicolpitts/Desktop/adv quant/lab 2/KC-subject-1.csv,legacy,Kafkaesque Koffka,3.2.8,0,s,NA,h,NA,NA,s,507,NA,5163,NA,NA,507,2,legacy,1024,2,48000,-16,experiment,HHSHH,1,odd,26375,8663,NA,NA,NA,3394,NA,NA,27535,3486,NA,NA,27686,28195,27496,27686,FlankerTask,11,5772,11,yes,1024
100,100,521.8333333,521.8333333,black,legacy,legacy,legacy,0,congruent,uniform,1,undefined,1,s,11,0,0,0,11,0,11,0,11,0,0,0,11,11,11,11,Fri Sep 20 13:46:07 2019,1500,The main experiment item,yes,FlankerTask.osexp,/Users/kaylicolpitts/Desktop/adv quant/lab 2,no,mono,no,18,no,white,no,no,768,legacy,11,11,/Users/kaylicolpitts/Desktop/adv quant/lab 2/KC-subject-1.csv,legacy,Kafkaesque Koffka,3.2.8,0,s,NA,h,NA,NA,s,490,NA,5163,NA,NA,490,2,legacy,1024,2,48000,-16,experiment,SSSSS,1,odd,28231,8663,NA,NA,NA,3394,NA,NA,29352,3486,NA,NA,29493,29985,29317,29492,FlankerTask,12,6262,12,yes,1024
92.30769231,92.30769231,522.0769231,522.0769231,black,legacy,legacy,legacy,0,incongruent,uniform,0,undefined,0,h,12,0,0,0,12,0,12,0,12,0,0,0,12,12,12,12,Fri Sep 20 13:46:07 2019,1500,The main experiment item,yes,FlankerTask.osexp,/Users/kaylicolpitts/Desktop/adv quant/lab 2,no,mono,no,18,no,white,no,no,768,legacy,12,12,/Users/kaylicolpitts/Desktop/adv quant/lab 2/KC-subject-1.csv,legacy,Kafkaesque Koffka,3.2.8,0,s,NA,h,NA,NA,s,525,NA,5163,NA,NA,525,2,legacy,1024,2,48000,-16,experiment,SSHSS,1,odd,30032,8663,NA,NA,NA,3394,NA,NA,31173,3486,NA,NA,31326,31852,31125,31326,FlankerTask,12,6787,13,yes,1024
92.85714286,92.85714286,522.3571429,522.3571429,black,legacy,legacy,legacy,0,congruent,uniform,1,undefined,1,h,13,0,0,0,13,0,13,0,13,0,0,0,13,13,13,13,Fri Sep 20 13:46:07 2019,1500,The main experiment item,yes,FlankerTask.osexp,/Users/kaylicolpitts/Desktop/adv quant/lab 2,no,mono,no,18,no,white,no,no,768,legacy,13,13,/Users/kaylicolpitts/Desktop/adv quant/lab 2/KC-subject-1.csv,legacy,Kafkaesque Koffka,3.2.8,0,h,NA,h,NA,NA,h,526,NA,5163,NA,NA,526,2,legacy,1024,2,48000,-16,experiment,HHHHH,1,odd,32446,8663,NA,NA,31890,3394,NA,NA,33626,3486,NA,NA,33782,34311,33570,33782,FlankerTask,13,7313,14,yes,1024
93.33333333,93.33333333,528.8,528.8,black,legacy,legacy,legacy,0,incongruent,uniform,1,undefined,1,h,14,0,0,0,14,0,14,0,14,0,0,0,14,14,14,14,Fri Sep 20 13:46:07 2019,1500,The main experiment item,yes,FlankerTask.osexp,/Users/kaylicolpitts/Desktop/adv quant/lab 2,no,mono,no,18,no,white,no,no,768,legacy,14,14,/Users/kaylicolpitts/Desktop/adv quant/lab 2/KC-subject-1.csv,legacy,Kafkaesque Koffka,3.2.8,0,h,NA,h,NA,NA,h,619,NA,5163,NA,NA,619,2,legacy,1024,2,48000,-16,experiment,SSHSS,1,odd,34371,8663,NA,NA,31890,3394,NA,NA,35563,3486,NA,NA,35718,36340,35506,35718,FlankerTask,14,7932,15,yes,1024
93.75,93.75,528.8125,528.8125,black,legacy,legacy,legacy,0,congruent,uniform,1,undefined,1,s,15,0,0,0,15,0,15,0,15,0,0,0,15,15,15,15,Fri Sep 20 13:46:07 2019,1500,The main experiment item,yes,FlankerTask.osexp,/Users/kaylicolpitts/Desktop/adv quant/lab 2,no,mono,no,18,no,white,no,no,768,legacy,15,15,/Users/kaylicolpitts/Desktop/adv quant/lab 2/KC-subject-1.csv,legacy,Kafkaesque Koffka,3.2.8,0,s,NA,h,NA,NA,s,529,NA,5163,NA,NA,529,2,legacy,1024,2,48000,-16,experiment,SSSSS,1,odd,36404,8663,NA,NA,31890,3394,NA,NA,37587,3486,NA,NA,37734,38265,37534,37734,FlankerTask,15,8461,16,yes,1024
94.11764706,94.11764706,540.7647059,540.7647059,black,legacy,legacy,legacy,0,incongruent,uniform,1,undefined,1,s,16,0,0,0,16,0,16,0,16,0,0,0,16,16,16,16,Fri Sep 20 13:46:07 2019,1500,The main experiment item,yes,FlankerTask.osexp,/Users/kaylicolpitts/Desktop/adv quant/lab 2,no,mono,no,18,no,white,no,no,768,legacy,16,16,/Users/kaylicolpitts/Desktop/adv quant/lab 2/KC-subject-1.csv,legacy,Kafkaesque Koffka,3.2.8,0,s,NA,h,NA,NA,s,732,NA,5163,NA,NA,732,2,legacy,1024,2,48000,-16,experiment,HHSHH,1,odd,38313,8663,NA,NA,31890,3394,NA,NA,39474,3486,NA,NA,39626,40361,39426,39626,FlankerTask,16,9193,17,yes,1024
94.44444444,94.44444444,538.7777778,538.7777778,black,legacy,legacy,legacy,0,incongruent,uniform,1,undefined,1,h,17,0,0,0,17,0,17,0,17,0,0,0,17,17,17,17,Fri Sep 20 13:46:07 2019,1500,The main experiment item,yes,FlankerTask.osexp,/Users/kaylicolpitts/Desktop/adv quant/lab 2,no,mono,no,18,no,white,no,no,768,legacy,17,17,/Users/kaylicolpitts/Desktop/adv quant/lab 2/KC-subject-1.csv,legacy,Kafkaesque Koffka,3.2.8,0,h,NA,h,NA,NA,h,505,NA,5163,NA,NA,505,2,legacy,1024,2,48000,-16,experiment,SSHSS,1,odd,40403,8663,NA,NA,31890,3394,NA,NA,41547,3486,NA,NA,41686,42193,41499,41685,FlankerTask,17,9698,18,yes,1024
94.73684211,94.73684211,548.8421053,548.8421053,black,legacy,legacy,legacy,0,incongruent,uniform,1,undefined,1,s,18,0,0,0,18,0,18,0,18,0,0,0,18,18,18,18,Fri Sep 20 13:46:07 2019,1500,The main experiment item,yes,FlankerTask.osexp,/Users/kaylicolpitts/Desktop/adv quant/lab 2,no,mono,no,18,no,white,no,no,768,legacy,18,18,/Users/kaylicolpitts/Desktop/adv quant/lab 2/KC-subject-1.csv,legacy,Kafkaesque Koffka,3.2.8,0,s,NA,h,NA,NA,s,730,NA,5163,NA,NA,730,2,legacy,1024,2,48000,-16,experiment,HHSHH,1,odd,42236,8663,NA,NA,31890,3394,NA,NA,43389,3486,NA,NA,43525,44259,43335,43525,FlankerTask,18,10428,19,yes,1024
95,95,547.75,547.75,black,legacy,legacy,legacy,0,incongruent,uniform,1,undefined,1,s,19,0,0,0,19,0,19,0,19,0,0,0,19,19,19,19,Fri Sep 20 13:46:07 2019,1500,The main experiment item,yes,FlankerTask.osexp,/Users/kaylicolpitts/Desktop/adv quant/lab 2,no,mono,no,18,no,white,no,no,768,legacy,19,19,/Users/kaylicolpitts/Desktop/adv quant/lab 2/KC-subject-1.csv,legacy,Kafkaesque Koffka,3.2.8,0,s,NA,h,NA,NA,s,527,NA,5163,NA,NA,527,2,legacy,1024,2,48000,-16,experiment,HHSHH,1,odd,44330,8663,NA,NA,31890,3394,NA,NA,45532,3486,NA,NA,45677,46206,45477,45677,FlankerTask,19,10955,20,yes,1024
95.23809524,95.23809524,545.3333333,545.3333333,black,legacy,legacy,legacy,0,incongruent,uniform,1,undefined,1,s,20,0,0,0,20,0,20,0,20,0,0,0,20,20,20,20,Fri Sep 20 13:46:07 2019,1500,The main experiment item,yes,FlankerTask.osexp,/Users/kaylicolpitts/Desktop/adv quant/lab 2,no,mono,no,18,no,white,no,no,768,legacy,20,20,/Users/kaylicolpitts/Desktop/adv quant/lab 2/KC-subject-1.csv,legacy,Kafkaesque Koffka,3.2.8,0,s,NA,h,NA,NA,s,497,NA,5163,NA,NA,497,2,legacy,1024,2,48000,-16,experiment,HHSHH,1,odd,46242,8663,NA,NA,31890,3394,NA,NA,47365,3486,NA,NA,47505,48005,47331,47505,FlankerTask,20,11452,21,yes,1024
95.45454545,95.45454545,548.4545455,548.4545455,black,legacy,legacy,legacy,0,incongruent,uniform,1,undefined,1,h,21,0,0,0,21,0,21,0,21,0,0,0,21,21,21,21,Fri Sep 20 13:46:07 2019,1500,The main experiment item,yes,FlankerTask.osexp,/Users/kaylicolpitts/Desktop/adv quant/lab 2,no,mono,no,18,no,white,no,no,768,legacy,21,21,/Users/kaylicolpitts/Desktop/adv quant/lab 2/KC-subject-1.csv,legacy,Kafkaesque Koffka,3.2.8,0,h,NA,h,NA,NA,h,614,NA,5163,NA,NA,614,2,legacy,1024,2,48000,-16,experiment,SSHSS,1,odd,48042,8663,NA,NA,31890,3394,NA,NA,49160,3486,NA,NA,49294,49910,49125,49294,FlankerTask,21,12066,22,yes,1024
95.65217391,95.65217391,550.9130435,550.9130435,black,legacy,legacy,legacy,0,congruent,uniform,1,undefined,1,h,22,0,0,0,22,0,22,0,22,0,0,0,22,22,22,22,Fri Sep 20 13:46:07 2019,1500,The main experiment item,yes,FlankerTask.osexp,/Users/kaylicolpitts/Desktop/adv quant/lab 2,no,mono,no,18,no,white,no,no,768,legacy,22,22,/Users/kaylicolpitts/Desktop/adv quant/lab 2/KC-subject-1.csv,legacy,Kafkaesque Koffka,3.2.8,0,h,NA,h,NA,NA,h,605,NA,5163,NA,NA,605,2,legacy,1024,2,48000,-16,experiment,HHHHH,1,odd,49948,8663,NA,NA,31890,3394,NA,NA,51077,3486,NA,NA,51211,51818,51042,51211,FlankerTask,22,12671,23,yes,1024
95.83333333,95.83333333,548.125,548.125,black,legacy,legacy,legacy,0,congruent,uniform,1,undefined,1,s,23,0,0,0,23,0,23,0,23,0,0,0,23,23,23,23,Fri Sep 20 13:46:07 2019,1500,The main experiment item,yes,FlankerTask.osexp,/Users/kaylicolpitts/Desktop/adv quant/lab 2,no,mono,no,18,no,white,no,no,768,legacy,23,23,/Users/kaylicolpitts/Desktop/adv quant/lab 2/KC-subject-1.csv,legacy,Kafkaesque Koffka,3.2.8,0,s,NA,h,NA,NA,s,484,NA,5163,NA,NA,484,2,legacy,1024,2,48000,-16,experiment,SSSSS,1,odd,51854,8663,NA,NA,31890,3394,NA,NA,52974,3486,NA,NA,53109,53595,52939,53109,FlankerTask,23,13155,24,yes,1024
96,96,543.16,543.16,black,legacy,legacy,legacy,0,congruent,uniform,1,undefined,1,s,24,0,0,0,24,0,24,0,24,0,0,0,24,24,24,24,Fri Sep 20 13:46:07 2019,1500,The main experiment item,yes,FlankerTask.osexp,/Users/kaylicolpitts/Desktop/adv quant/lab 2,no,mono,no,18,no,white,no,no,768,legacy,24,24,/Users/kaylicolpitts/Desktop/adv quant/lab 2/KC-subject-1.csv,legacy,Kafkaesque Koffka,3.2.8,0,s,NA,h,NA,NA,s,424,NA,5163,NA,NA,424,2,legacy,1024,2,48000,-16,experiment,SSSSS,1,odd,53632,8663,NA,NA,31890,3394,NA,NA,54753,3486,NA,NA,54888,55315,54717,54888,FlankerTask,24,13579,25,yes,1024
96.15384615,96.15384615,544.5,544.5,black,legacy,legacy,legacy,0,congruent,uniform,1,undefined,1,h,25,0,0,0,25,0,25,0,25,0,0,0,25,25,25,25,Fri Sep 20 13:46:07 2019,1500,The main experiment item,yes,FlankerTask.osexp,/Users/kaylicolpitts/Desktop/adv quant/lab 2,no,mono,no,18,no,white,no,no,768,legacy,25,25,/Users/kaylicolpitts/Desktop/adv quant/lab 2/KC-subject-1.csv,legacy,Kafkaesque Koffka,3.2.8,0,h,NA,h,NA,NA,h,578,NA,5163,NA,NA,578,2,legacy,1024,2,48000,-16,experiment,HHHHH,1,odd,55355,8663,NA,NA,31890,3394,NA,NA,56485,3486,NA,NA,56621,57202,56450,56621,FlankerTask,25,14157,26,yes,1024
92.59259259,92.59259259,542.8888889,542.8888889,black,legacy,legacy,legacy,0,incongruent,uniform,0,undefined,0,h,26,0,0,0,26,0,26,0,26,0,0,0,26,26,26,26,Fri Sep 20 13:46:07 2019,1500,The main experiment item,yes,FlankerTask.osexp,/Users/kaylicolpitts/Desktop/adv quant/lab 2,no,mono,no,18,no,white,no,no,768,legacy,26,26,/Users/kaylicolpitts/Desktop/adv quant/lab 2/KC-subject-1.csv,legacy,Kafkaesque Koffka,3.2.8,0,s,NA,h,NA,NA,s,501,NA,5163,NA,NA,501,2,legacy,1024,2,48000,-16,experiment,SSHSS,1,odd,57240,8663,NA,NA,31890,3394,NA,NA,58355,3486,NA,NA,58490,58994,58320,58490,FlankerTask,25,14658,27,yes,1024
92.85714286,92.85714286,543.6785714,543.6785714,black,legacy,legacy,legacy,0,congruent,uniform,1,undefined,1,s,27,0,0,0,27,0,27,0,27,0,0,0,27,27,27,27,Fri Sep 20 13:46:07 2019,1500,The main experiment item,yes,FlankerTask.osexp,/Users/kaylicolpitts/Desktop/adv quant/lab 2,no,mono,no,18,no,white,no,no,768,legacy,27,27,/Users/kaylicolpitts/Desktop/adv quant/lab 2/KC-subject-1.csv,legacy,Kafkaesque Koffka,3.2.8,0,s,NA,h,NA,NA,s,565,NA,5163,NA,NA,565,2,legacy,1024,2,48000,-16,experiment,SSSSS,1,odd,59568,8663,NA,NA,59030,3394,NA,NA,60729,3486,NA,NA,60864,61431,60648,60864,FlankerTask,26,15223,28,yes,1024
93.10344828,93.10344828,548.0689655,548.0689655,black,legacy,legacy,legacy,0,incongruent,uniform,1,undefined,1,h,28,0,0,0,28,0,28,0,28,0,0,0,28,28,28,28,Fri Sep 20 13:46:07 2019,1500,The main experiment item,yes,FlankerTask.osexp,/Users/kaylicolpitts/Desktop/adv quant/lab 2,no,mono,no,18,no,white,no,no,768,legacy,28,28,/Users/kaylicolpitts/Desktop/adv quant/lab 2/KC-subject-1.csv,legacy,Kafkaesque Koffka,3.2.8,0,h,NA,h,NA,NA,h,671,NA,5163,NA,NA,671,2,legacy,1024,2,48000,-16,experiment,SSHSS,1,odd,61468,8663,NA,NA,59030,3394,NA,NA,62617,3486,NA,NA,62753,63426,62581,62753,FlankerTask,27,15894,29,yes,1024
93.33333333,93.33333333,549.7333333,549.7333333,black,legacy,legacy,legacy,0,incongruent,uniform,1,undefined,1,s,29,0,0,0,29,0,29,0,29,0,0,0,29,29,29,29,Fri Sep 20 13:46:07 2019,1500,The main experiment item,yes,FlankerTask.osexp,/Users/kaylicolpitts/Desktop/adv quant/lab 2,no,mono,no,18,no,white,no,no,768,legacy,29,29,/Users/kaylicolpitts/Desktop/adv quant/lab 2/KC-subject-1.csv,legacy,Kafkaesque Koffka,3.2.8,0,s,NA,h,NA,NA,s,598,NA,5163,NA,NA,598,2,legacy,1024,2,48000,-16,experiment,HHSHH,1,odd,63463,8663,NA,NA,59030,3394,NA,NA,64584,3486,NA,NA,64721,65322,64547,64721,FlankerTask,28,16492,30,yes,1024
93.5483871,93.5483871,546.1612903,546.1612903,black,legacy,legacy,legacy,0,congruent,uniform,1,undefined,1,s,30,0,0,0,30,0,30,0,30,0,0,0,30,30,30,30,Fri Sep 20 13:46:07 2019,1500,The main experiment item,yes,FlankerTask.osexp,/Users/kaylicolpitts/Desktop/adv quant/lab 2,no,mono,no,18,no,white,no,no,768,legacy,30,30,/Users/kaylicolpitts/Desktop/adv quant/lab 2/KC-subject-1.csv,legacy,Kafkaesque Koffka,3.2.8,0,s,NA,h,NA,NA,s,439,NA,5163,NA,NA,439,2,legacy,1024,2,48000,-16,experiment,SSSSS,1,odd,65357,8663,NA,NA,59030,3394,NA,NA,66475,3486,NA,NA,66610,67051,66440,66610,FlankerTask,29,16931,31,yes,1024
93.75,93.75,545.1875,545.1875,black,legacy,legacy,legacy,0,incongruent,uniform,1,undefined,1,h,31,0,0,0,31,0,31,0,31,0,0,0,31,31,31,31,Fri Sep 20 13:46:07 2019,1500,The main experiment item,yes,FlankerTask.osexp,/Users/kaylicolpitts/Desktop/adv quant/lab 2,no,mono,no,18,no,white,no,no,768,legacy,31,31,/Users/kaylicolpitts/Desktop/adv quant/lab 2/KC-subject-1.csv,legacy,Kafkaesque Koffka,3.2.8,0,h,NA,h,NA,NA,h,515,NA,5163,NA,NA,515,2,legacy,1024,2,48000,-16,experiment,SSHSS,1,odd,67091,8663,NA,NA,59030,3394,NA,NA,68214,3486,NA,NA,68349,68866,68179,68349,FlankerTask,30,17446,32,yes,1024
93.93939394,93.93939394,545.5757576,545.5757576,black,legacy,legacy,legacy,0,congruent,uniform,1,undefined,1,h,32,0,0,0,32,0,32,0,32,0,0,0,32,32,32,32,Fri Sep 20 13:46:07 2019,1500,The main experiment item,yes,FlankerTask.osexp,/Users/kaylicolpitts/Desktop/adv quant/lab 2,no,mono,no,18,no,white,no,no,768,legacy,32,32,/Users/kaylicolpitts/Desktop/adv quant/lab 2/KC-subject-1.csv,legacy,Kafkaesque Koffka,3.2.8,0,h,NA,h,NA,NA,h,558,NA,5163,NA,NA,558,2,legacy,1024,2,48000,-16,experiment,HHHHH,1,odd,68902,8663,NA,NA,59030,3394,NA,NA,70030,3486,NA,NA,70171,70732,69994,70171,FlankerTask,31,18004,33,yes,1024
94.11764706,94.11764706,545.4117647,545.4117647,black,legacy,legacy,legacy,0,congruent,uniform,1,undefined,1,h,33,0,0,0,33,0,33,0,33,0,0,0,33,33,33,33,Fri Sep 20 13:46:07 2019,1500,The main experiment item,yes,FlankerTask.osexp,/Users/kaylicolpitts/Desktop/adv quant/lab 2,no,mono,no,18,no,white,no,no,768,legacy,33,33,/Users/kaylicolpitts/Desktop/adv quant/lab 2/KC-subject-1.csv,legacy,Kafkaesque Koffka,3.2.8,0,h,NA,h,NA,NA,h,540,NA,5163,NA,NA,540,2,legacy,1024,2,48000,-16,experiment,HHHHH,1,odd,70771,8663,NA,NA,59030,3394,NA,NA,71889,3486,NA,NA,72023,72565,71854,72023,FlankerTask,32,18544,34,yes,1024
94.28571429,94.28571429,542.2,542.2,black,legacy,legacy,legacy,0,congruent,uniform,1,undefined,1,h,34,0,0,0,34,0,34,0,34,0,0,0,34,34,34,34,Fri Sep 20 13:46:07 2019,1500,The main experiment item,yes,FlankerTask.osexp,/Users/kaylicolpitts/Desktop/adv quant/lab 2,no,mono,no,18,no,white,no,no,768,legacy,34,34,/Users/kaylicolpitts/Desktop/adv quant/lab 2/KC-subject-1.csv,legacy,Kafkaesque Koffka,3.2.8,0,h,NA,h,NA,NA,h,433,NA,5163,NA,NA,433,2,legacy,1024,2,48000,-16,experiment,HHHHH,1,odd,72600,8663,NA,NA,59030,3394,NA,NA,73717,3486,NA,NA,73853,74289,73682,73853,FlankerTask,33,18977,35,yes,1024
94.44444444,94.44444444,543.25,543.25,black,legacy,legacy,legacy,0,incongruent,uniform,1,undefined,1,s,35,0,0,0,35,0,35,0,35,0,0,0,35,35,35,35,Fri Sep 20 13:46:07 2019,1500,The main experiment item,yes,FlankerTask.osexp,/Users/kaylicolpitts/Desktop/adv quant/lab 2,no,mono,no,18,no,white,no,no,768,legacy,35,35,/Users/kaylicolpitts/Desktop/adv quant/lab 2/KC-subject-1.csv,legacy,Kafkaesque Koffka,3.2.8,0,s,NA,h,NA,NA,s,580,NA,5163,NA,NA,580,2,legacy,1024,2,48000,-16,experiment,HHSHH,1,odd,74325,8663,NA,NA,59030,3394,NA,NA,75441,3486,NA,NA,75575,76157,75407,75575,FlankerTask,34,19557,36,yes,1024
94.59459459,94.59459459,542.2162162,542.2162162,black,legacy,legacy,legacy,0,incongruent,uniform,1,undefined,1,s,36,0,0,0,36,0,36,0,36,0,0,0,36,36,36,36,Fri Sep 20 13:46:07 2019,1500,The main experiment item,yes,FlankerTask.osexp,/Users/kaylicolpitts/Desktop/adv quant/lab 2,no,mono,no,18,no,white,no,no,768,legacy,36,36,/Users/kaylicolpitts/Desktop/adv quant/lab 2/KC-subject-1.csv,legacy,Kafkaesque Koffka,3.2.8,0,s,NA,h,NA,NA,s,505,NA,5163,NA,NA,505,2,legacy,1024,2,48000,-16,experiment,HHSHH,1,odd,76214,8663,NA,NA,59030,3394,NA,NA,77333,3486,NA,NA,77467,77976,77298,77467,FlankerTask,35,20062,37,yes,1024
92.10526316,92.10526316,540.3157895,540.3157895,black,legacy,legacy,legacy,0,incongruent,uniform,0,undefined,0,s,37,0,0,0,37,0,37,0,37,0,0,0,37,37,37,37,Fri Sep 20 13:46:07 2019,1500,The main experiment item,yes,FlankerTask.osexp,/Users/kaylicolpitts/Desktop/adv quant/lab 2,no,mono,no,18,no,white,no,no,768,legacy,37,37,/Users/kaylicolpitts/Desktop/adv quant/lab 2/KC-subject-1.csv,legacy,Kafkaesque Koffka,3.2.8,0,h,NA,h,NA,NA,h,470,NA,5163,NA,NA,470,2,legacy,1024,2,48000,-16,experiment,HHSHH,1,odd,78011,8663,NA,NA,59030,3394,NA,NA,79126,3486,NA,NA,79261,79733,79092,79261,FlankerTask,35,20532,38,yes,1024
92.30769231,92.30769231,540.8717949,540.8717949,black,legacy,legacy,legacy,0,incongruent,uniform,1,undefined,1,h,38,0,0,0,38,0,38,0,38,0,0,0,38,38,38,38,Fri Sep 20 13:46:07 2019,1500,The main experiment item,yes,FlankerTask.osexp,/Users/kaylicolpitts/Desktop/adv quant/lab 2,no,mono,no,18,no,white,no,no,768,legacy,38,38,/Users/kaylicolpitts/Desktop/adv quant/lab 2/KC-subject-1.csv,legacy,Kafkaesque Koffka,3.2.8,0,h,NA,h,NA,NA,h,562,NA,5163,NA,NA,562,2,legacy,1024,2,48000,-16,experiment,SSHSS,1,odd,80304,8663,NA,NA,79770,3394,NA,NA,81480,3486,NA,NA,81630,82194,81425,81629,FlankerTask,36,21094,39,yes,1024
92.5,92.5,545.7,545.7,black,legacy,legacy,legacy,0,congruent,uniform,1,undefined,1,h,39,0,0,0,39,0,39,0,39,0,0,0,39,39,39,39,Fri Sep 20 13:46:07 2019,1500,The main experiment item,yes,FlankerTask.osexp,/Users/kaylicolpitts/Desktop/adv quant/lab 2,no,mono,no,18,no,white,no,no,768,legacy,39,39,/Users/kaylicolpitts/Desktop/adv quant/lab 2/KC-subject-1.csv,legacy,Kafkaesque Koffka,3.2.8,0,h,NA,h,NA,NA,h,734,NA,5163,NA,NA,734,2,legacy,1024,2,48000,-16,experiment,HHHHH,1,odd,82230,8663,NA,NA,79770,3394,NA,NA,83352,3486,NA,NA,83488,84224,83313,83488,FlankerTask,37,21828,40,yes,1024
92.68292683,92.68292683,544.8292683,544.8292683,black,legacy,legacy,legacy,0,incongruent,uniform,1,undefined,1,s,40,0,0,0,40,0,40,0,40,0,0,0,40,40,40,40,Fri Sep 20 13:46:07 2019,1500,The main experiment item,yes,FlankerTask.osexp,/Users/kaylicolpitts/Desktop/adv quant/lab 2,no,mono,no,18,no,white,no,no,768,legacy,40,40,/Users/kaylicolpitts/Desktop/adv quant/lab 2/KC-subject-1.csv,legacy,Kafkaesque Koffka,3.2.8,0,s,NA,h,NA,NA,s,510,NA,5163,NA,NA,510,2,legacy,1024,2,48000,-16,experiment,HHSHH,1,odd,84261,8663,NA,NA,79770,3394,NA,NA,85376,3486,NA,NA,85510,86023,85342,85510,FlankerTask,38,22338,41,yes,1024
92.85714286,92.85714286,542.3095238,542.3095238,black,legacy,legacy,legacy,0,congruent,uniform,1,undefined,1,s,41,0,0,0,41,0,41,0,41,0,0,0,41,41,41,41,Fri Sep 20 13:46:07 2019,1500,The main experiment item,yes,FlankerTask.osexp,/Users/kaylicolpitts/Desktop/adv quant/lab 2,no,mono,no,18,no,white,no,no,768,legacy,41,41,/Users/kaylicolpitts/Desktop/adv quant/lab 2/KC-subject-1.csv,legacy,Kafkaesque Koffka,3.2.8,0,s,NA,h,NA,NA,s,439,NA,5163,NA,NA,439,2,legacy,1024,2,48000,-16,experiment,SSSSS,1,odd,86059,8663,NA,NA,79770,3394,NA,NA,87173,3486,NA,NA,87308,87750,87139,87308,FlankerTask,39,22777,42,yes,1024
93.02325581,93.02325581,542.0465116,542.0465116,black,legacy,legacy,legacy,0,incongruent,uniform,1,undefined,1,s,42,0,0,0,42,0,42,0,42,0,0,0,42,42,42,42,Fri Sep 20 13:46:07 2019,1500,The main experiment item,yes,FlankerTask.osexp,/Users/kaylicolpitts/Desktop/adv quant/lab 2,no,mono,no,18,no,white,no,no,768,legacy,42,42,/Users/kaylicolpitts/Desktop/adv quant/lab 2/KC-subject-1.csv,legacy,Kafkaesque Koffka,3.2.8,0,s,NA,h,NA,NA,s,531,NA,5163,NA,NA,531,2,legacy,1024,2,48000,-16,experiment,HHSHH,1,odd,87788,8663,NA,NA,79770,3394,NA,NA,88914,3486,NA,NA,89049,89583,88880,89049,FlankerTask,40,23308,43,yes,1024
93.18181818,93.18181818,541.1590909,541.1590909,black,legacy,legacy,legacy,0,congruent,uniform,1,undefined,1,h,43,0,0,0,43,0,43,0,43,0,0,0,43,43,43,43,Fri Sep 20 13:46:07 2019,1500,The main experiment item,yes,FlankerTask.osexp,/Users/kaylicolpitts/Desktop/adv quant/lab 2,no,mono,no,18,no,white,no,no,768,legacy,43,43,/Users/kaylicolpitts/Desktop/adv quant/lab 2/KC-subject-1.csv,legacy,Kafkaesque Koffka,3.2.8,0,h,NA,h,NA,NA,h,503,NA,5163,NA,NA,503,2,legacy,1024,2,48000,-16,experiment,HHHHH,1,odd,89618,8663,NA,NA,79770,3394,NA,NA,90737,3486,NA,NA,90871,91376,90703,90871,FlankerTask,41,23811,44,yes,1024
93.33333333,93.33333333,540.9555556,540.9555556,black,legacy,legacy,legacy,0,incongruent,uniform,1,undefined,1,h,44,0,0,0,44,0,44,0,44,0,0,0,44,44,44,44,Fri Sep 20 13:46:07 2019,1500,The main experiment item,yes,FlankerTask.osexp,/Users/kaylicolpitts/Desktop/adv quant/lab 2,no,mono,no,18,no,white,no,no,768,legacy,44,44,/Users/kaylicolpitts/Desktop/adv quant/lab 2/KC-subject-1.csv,legacy,Kafkaesque Koffka,3.2.8,0,h,NA,h,NA,NA,h,532,NA,5163,NA,NA,532,2,legacy,1024,2,48000,-16,experiment,SSHSS,1,odd,91412,8663,NA,NA,79770,3394,NA,NA,92528,3486,NA,NA,92663,93198,92494,92663,FlankerTask,42,24343,45,yes,1024
93.47826087,93.47826087,538.8043478,538.8043478,black,legacy,legacy,legacy,0,incongruent,uniform,1,undefined,1,h,45,0,0,0,45,0,45,0,45,0,0,0,45,45,45,45,Fri Sep 20 13:46:07 2019,1500,The main experiment item,yes,FlankerTask.osexp,/Users/kaylicolpitts/Desktop/adv quant/lab 2,no,mono,no,18,no,white,no,no,768,legacy,45,45,/Users/kaylicolpitts/Desktop/adv quant/lab 2/KC-subject-1.csv,legacy,Kafkaesque Koffka,3.2.8,0,h,NA,h,NA,NA,h,442,NA,5163,NA,NA,442,2,legacy,1024,2,48000,-16,experiment,SSHSS,1,odd,93243,8663,NA,NA,79770,3394,NA,NA,94364,3486,NA,NA,94499,94943,94330,94498,FlankerTask,43,24785,46,yes,1024
93.61702128,93.61702128,539.1914894,539.1914894,black,legacy,legacy,legacy,0,incongruent,uniform,1,undefined,1,h,46,0,0,0,46,0,46,0,46,0,0,0,46,46,46,46,Fri Sep 20 13:46:07 2019,1500,The main experiment item,yes,FlankerTask.osexp,/Users/kaylicolpitts/Desktop/adv quant/lab 2,no,mono,no,18,no,white,no,no,768,legacy,46,46,/Users/kaylicolpitts/Desktop/adv quant/lab 2/KC-subject-1.csv,legacy,Kafkaesque Koffka,3.2.8,0,h,NA,h,NA,NA,h,557,NA,5163,NA,NA,557,2,legacy,1024,2,48000,-16,experiment,SSHSS,1,odd,94980,8663,NA,NA,79770,3394,NA,NA,96095,3486,NA,NA,96230,96789,96061,96230,FlankerTask,44,25342,47,yes,1024
93.75,93.75,538.6458333,538.6458333,black,legacy,legacy,legacy,0,congruent,uniform,1,undefined,1,s,47,0,0,0,47,0,47,0,47,0,0,0,47,47,47,47,Fri Sep 20 13:46:07 2019,1500,The main experiment item,yes,FlankerTask.osexp,/Users/kaylicolpitts/Desktop/adv quant/lab 2,no,mono,no,18,no,white,no,no,768,legacy,47,47,/Users/kaylicolpitts/Desktop/adv quant/lab 2/KC-subject-1.csv,legacy,Kafkaesque Koffka,3.2.8,0,s,NA,h,NA,NA,s,513,NA,5163,NA,NA,513,2,legacy,1024,2,48000,-16,experiment,SSSSS,1,odd,96838,8663,NA,NA,79770,3394,NA,NA,97954,3486,NA,NA,98088,98603,97920,98088,FlankerTask,45,25855,48,yes,1024
93.87755102,93.87755102,537.8163265,537.8163265,black,legacy,legacy,legacy,0,congruent,uniform,1,undefined,1,s,48,0,0,0,48,0,48,0,48,0,0,0,48,48,48,48,Fri Sep 20 13:46:07 2019,1500,The main experiment item,yes,FlankerTask.osexp,/Users/kaylicolpitts/Desktop/adv quant/lab 2,no,mono,no,18,no,white,no,no,768,legacy,48,48,/Users/kaylicolpitts/Desktop/adv quant/lab 2/KC-subject-1.csv,legacy,Kafkaesque Koffka,3.2.8,0,s,NA,h,NA,NA,s,498,NA,5163,NA,NA,498,2,legacy,1024,2,48000,-16,experiment,SSSSS,1,odd,98640,8663,NA,NA,79770,3394,NA,NA,99757,3486,NA,NA,99892,100393,99723,99892,FlankerTask,46,26353,49,yes,1024
94,94,535.84,535.84,black,legacy,legacy,legacy,0,incongruent,uniform,1,undefined,1,s,49,0,0,0,49,0,49,0,49,0,0,0,49,49,49,49,Fri Sep 20 13:46:07 2019,1500,The main experiment item,yes,FlankerTask.osexp,/Users/kaylicolpitts/Desktop/adv quant/lab 2,no,mono,no,18,no,white,no,no,768,legacy,49,49,/Users/kaylicolpitts/Desktop/adv quant/lab 2/KC-subject-1.csv,legacy,Kafkaesque Koffka,3.2.8,0,s,NA,h,NA,NA,s,439,NA,5163,NA,NA,439,2,legacy,1024,2,48000,-16,experiment,HHSHH,1,odd,100429,8663,NA,NA,79770,3394,NA,NA,101545,3486,NA,NA,101685,102126,101510,101684,FlankerTask,47,26792,50,yes,1024
94.11764706,94.11764706,533.8627451,533.8627451,black,legacy,legacy,legacy,0,congruent,uniform,1,undefined,1,s,50,0,0,0,50,0,50,0,50,0,0,0,50,50,50,50,Fri Sep 20 13:46:07 2019,1500,The main experiment item,yes,FlankerTask.osexp,/Users/kaylicolpitts/Desktop/adv quant/lab 2,no,mono,no,18,no,white,no,no,768,legacy,50,50,/Users/kaylicolpitts/Desktop/adv quant/lab 2/KC-subject-1.csv,legacy,Kafkaesque Koffka,3.2.8,0,s,NA,h,NA,NA,s,435,NA,5163,NA,NA,435,2,legacy,1024,2,48000,-16,experiment,SSSSS,1,odd,102166,8663,NA,NA,79770,3394,NA,NA,103287,3486,NA,NA,103421,103859,103253,103421,FlankerTask,48,27227,51,yes,1024
94.23076923,94.23076923,534.6153846,534.6153846,black,legacy,legacy,legacy,0,incongruent,uniform,1,undefined,1,s,51,0,0,0,51,0,51,0,51,0,0,0,51,51,51,51,Fri Sep 20 13:46:07 2019,1500,The main experiment item,yes,FlankerTask.osexp,/Users/kaylicolpitts/Desktop/adv quant/lab 2,no,mono,no,18,no,white,no,no,768,legacy,51,51,/Users/kaylicolpitts/Desktop/adv quant/lab 2/KC-subject-1.csv,legacy,Kafkaesque Koffka,3.2.8,0,s,NA,h,NA,NA,s,573,NA,5163,NA,NA,573,2,legacy,1024,2,48000,-16,experiment,HHSHH,1,odd,103895,8663,NA,NA,79770,3394,NA,NA,105010,3486,NA,NA,105148,105725,104976,105147,FlankerTask,49,27800,52,yes,1024
94.33962264,94.33962264,534.9433962,534.9433962,black,legacy,legacy,legacy,0,incongruent,uniform,1,undefined,1,h,52,0,0,0,52,0,52,0,52,0,0,0,52,52,52,52,Fri Sep 20 13:46:07 2019,1500,The main experiment item,yes,FlankerTask.osexp,/Users/kaylicolpitts/Desktop/adv quant/lab 2,no,mono,no,18,no,white,no,no,768,legacy,52,52,/Users/kaylicolpitts/Desktop/adv quant/lab 2/KC-subject-1.csv,legacy,Kafkaesque Koffka,3.2.8,0,h,NA,h,NA,NA,h,552,NA,5163,NA,NA,552,2,legacy,1024,2,48000,-16,experiment,SSHSS,1,odd,105764,8663,NA,NA,79770,3394,NA,NA,106891,3486,NA,NA,107025,107580,106856,107025,FlankerTask,50,28352,53,yes,1024
94.44444444,94.44444444,533.2037037,533.2037037,black,legacy,legacy,legacy,0,incongruent,uniform,1,undefined,1,h,53,0,0,0,53,0,53,0,53,0,0,0,53,53,53,53,Fri Sep 20 13:46:07 2019,1500,The main experiment item,yes,FlankerTask.osexp,/Users/kaylicolpitts/Desktop/adv quant/lab 2,no,mono,no,18,no,white,no,no,768,legacy,53,53,/Users/kaylicolpitts/Desktop/adv quant/lab 2/KC-subject-1.csv,legacy,Kafkaesque Koffka,3.2.8,0,h,NA,h,NA,NA,h,441,NA,5163,NA,NA,441,2,legacy,1024,2,48000,-16,experiment,SSHSS,1,odd,107616,8663,NA,NA,79770,3394,NA,NA,108733,3486,NA,NA,108867,109310,108699,108867,FlankerTask,51,28793,54,yes,1024
94.54545455,94.54545455,531.7090909,531.7090909,black,legacy,legacy,legacy,0,congruent,uniform,1,undefined,1,s,54,0,0,0,54,0,54,0,54,0,0,0,54,54,54,54,Fri Sep 20 13:46:07 2019,1500,The main experiment item,yes,FlankerTask.osexp,/Users/kaylicolpitts/Desktop/adv quant/lab 2,no,mono,no,18,no,white,no,no,768,legacy,54,54,/Users/kaylicolpitts/Desktop/adv quant/lab 2/KC-subject-1.csv,legacy,Kafkaesque Koffka,3.2.8,0,s,NA,h,NA,NA,s,451,NA,5163,NA,NA,451,2,legacy,1024,2,48000,-16,experiment,SSSSS,1,odd,109348,8663,NA,NA,79770,3394,NA,NA,110463,3486,NA,NA,110598,111053,110429,110598,FlankerTask,52,29244,55,yes,1024
94.64285714,94.64285714,534.0178571,534.0178571,black,legacy,legacy,legacy,0,incongruent,uniform,1,undefined,1,s,55,0,0,0,55,0,55,0,55,0,0,0,55,55,55,55,Fri Sep 20 13:46:07 2019,1500,The main experiment item,yes,FlankerTask.osexp,/Users/kaylicolpitts/Desktop/adv quant/lab 2,no,mono,no,18,no,white,no,no,768,legacy,55,55,/Users/kaylicolpitts/Desktop/adv quant/lab 2/KC-subject-1.csv,legacy,Kafkaesque Koffka,3.2.8,0,s,NA,h,NA,NA,s,661,NA,5163,NA,NA,661,2,legacy,1024,2,48000,-16,experiment,HHSHH,1,odd,111094,8663,NA,NA,79770,3394,NA,NA,112215,3486,NA,NA,112350,113014,112182,112350,FlankerTask,53,29905,56,yes,1024
94.73684211,94.73684211,532.0701754,532.0701754,black,legacy,legacy,legacy,0,congruent,uniform,1,undefined,1,h,56,0,0,0,56,0,56,0,56,0,0,0,56,56,56,56,Fri Sep 20 13:46:07 2019,1500,The main experiment item,yes,FlankerTask.osexp,/Users/kaylicolpitts/Desktop/adv quant/lab 2,no,mono,no,18,no,white,no,no,768,legacy,56,56,/Users/kaylicolpitts/Desktop/adv quant/lab 2/KC-subject-1.csv,legacy,Kafkaesque Koffka,3.2.8,0,h,NA,h,NA,NA,h,423,NA,5163,NA,NA,423,2,legacy,1024,2,48000,-16,experiment,HHHHH,1,odd,113051,8663,NA,NA,79770,3394,NA,NA,114168,3486,NA,NA,114302,114727,114132,114302,FlankerTask,54,30328,57,yes,1024
93.10344828,93.10344828,530.2586207,530.2586207,black,legacy,legacy,legacy,0,incongruent,uniform,0,undefined,0,h,57,0,0,0,57,0,57,0,57,0,0,0,57,57,57,57,Fri Sep 20 13:46:07 2019,1500,The main experiment item,yes,FlankerTask.osexp,/Users/kaylicolpitts/Desktop/adv quant/lab 2,no,mono,no,18,no,white,no,no,768,legacy,57,57,/Users/kaylicolpitts/Desktop/adv quant/lab 2/KC-subject-1.csv,legacy,Kafkaesque Koffka,3.2.8,0,s,NA,h,NA,NA,s,427,NA,5163,NA,NA,427,2,legacy,1024,2,48000,-16,experiment,SSHSS,1,odd,114763,8663,NA,NA,79770,3394,NA,NA,115879,3486,NA,NA,116012,116441,115845,116011,FlankerTask,54,30755,58,yes,1024
93.22033898,93.22033898,529.6440678,529.6440678,black,legacy,legacy,legacy,0,congruent,uniform,1,undefined,1,s,58,0,0,0,58,0,58,0,58,0,0,0,58,58,58,58,Fri Sep 20 13:46:07 2019,1500,The main experiment item,yes,FlankerTask.osexp,/Users/kaylicolpitts/Desktop/adv quant/lab 2,no,mono,no,18,no,white,no,no,768,legacy,58,58,/Users/kaylicolpitts/Desktop/adv quant/lab 2/KC-subject-1.csv,legacy,Kafkaesque Koffka,3.2.8,0,s,NA,h,NA,NA,s,494,NA,5163,NA,NA,494,2,legacy,1024,2,48000,-16,experiment,SSSSS,1,odd,117014,8663,NA,NA,116480,3394,NA,NA,118129,3486,NA,NA,118263,118760,118096,118263,FlankerTask,55,31249,59,yes,1024
93.33333333,93.33333333,527.5166667,527.5166667,black,legacy,legacy,legacy,0,incongruent,uniform,1,undefined,1,s,59,0,0,0,59,0,59,0,59,0,0,0,59,59,59,59,Fri Sep 20 13:46:07 2019,1500,The main experiment item,yes,FlankerTask.osexp,/Users/kaylicolpitts/Desktop/adv quant/lab 2,no,mono,no,18,no,white,no,no,768,legacy,59,59,/Users/kaylicolpitts/Desktop/adv quant/lab 2/KC-subject-1.csv,legacy,Kafkaesque Koffka,3.2.8,0,s,NA,h,NA,NA,s,402,NA,5163,NA,NA,402,2,legacy,1024,2,48000,-16,experiment,HHSHH,1,odd,118799,8663,NA,NA,116480,3394,NA,NA,119923,3486,NA,NA,120058,120463,119889,120057,FlankerTask,56,31651,60,yes,1024
93.44262295,93.44262295,529.5081967,529.5081967,black,legacy,legacy,legacy,0,incongruent,uniform,1,undefined,1,h,60,0,0,0,60,0,60,0,60,0,0,0,60,60,60,60,Fri Sep 20 13:46:07 2019,1500,The main experiment item,yes,FlankerTask.osexp,/Users/kaylicolpitts/Desktop/adv quant/lab 2,no,mono,no,18,no,white,no,no,768,legacy,60,60,/Users/kaylicolpitts/Desktop/adv quant/lab 2/KC-subject-1.csv,legacy,Kafkaesque Koffka,3.2.8,0,h,NA,h,NA,NA,h,649,NA,5163,NA,NA,649,2,legacy,1024,2,48000,-16,experiment,SSHSS,1,odd,120501,8663,NA,NA,116480,3394,NA,NA,121619,3486,NA,NA,121756,122408,121584,121756,FlankerTask,57,32300,61,yes,1024
93.5483871,93.5483871,530.7903226,530.7903226,black,legacy,legacy,legacy,0,incongruent,uniform,1,undefined,1,s,61,0,0,0,61,0,61,0,61,0,0,0,61,61,61,61,Fri Sep 20 13:46:07 2019,1500,The main experiment item,yes,FlankerTask.osexp,/Users/kaylicolpitts/Desktop/adv quant/lab 2,no,mono,no,18,no,white,no,no,768,legacy,61,61,/Users/kaylicolpitts/Desktop/adv quant/lab 2/KC-subject-1.csv,legacy,Kafkaesque Koffka,3.2.8,0,s,NA,h,NA,NA,s,609,NA,5163,NA,NA,609,2,legacy,1024,2,48000,-16,experiment,HHSHH,1,odd,122450,8663,NA,NA,116480,3394,NA,NA,123566,3486,NA,NA,123701,124312,123531,123701,FlankerTask,58,32909,62,yes,1024
93.65079365,93.65079365,531.6825397,531.6825397,black,legacy,legacy,legacy,0,incongruent,uniform,1,undefined,1,h,62,0,0,0,62,0,62,0,62,0,0,0,62,62,62,62,Fri Sep 20 13:46:07 2019,1500,The main experiment item,yes,FlankerTask.osexp,/Users/kaylicolpitts/Desktop/adv quant/lab 2,no,mono,no,18,no,white,no,no,768,legacy,62,62,/Users/kaylicolpitts/Desktop/adv quant/lab 2/KC-subject-1.csv,legacy,Kafkaesque Koffka,3.2.8,0,h,NA,h,NA,NA,h,587,NA,5163,NA,NA,587,2,legacy,1024,2,48000,-16,experiment,SSHSS,1,odd,124350,8663,NA,NA,116480,3394,NA,NA,125467,3486,NA,NA,125601,126190,125433,125601,FlankerTask,59,33496,63,yes,1024
93.75,93.75,532.453125,532.453125,black,legacy,legacy,legacy,0,congruent,uniform,1,undefined,1,s,63,0,0,0,63,0,63,0,63,0,0,0,63,63,63,63,Fri Sep 20 13:46:07 2019,1500,The main experiment item,yes,FlankerTask.osexp,/Users/kaylicolpitts/Desktop/adv quant/lab 2,no,mono,no,18,no,white,no,no,768,legacy,63,63,/Users/kaylicolpitts/Desktop/adv quant/lab 2/KC-subject-1.csv,legacy,Kafkaesque Koffka,3.2.8,0,s,NA,h,NA,NA,s,581,NA,5163,NA,NA,581,2,legacy,1024,2,48000,-16,experiment,SSSSS,1,odd,126227,8663,NA,NA,116480,3394,NA,NA,127341,3486,NA,NA,127476,128060,127307,127476,FlankerTask,60,34077,64,yes,1024
93.84615385,93.84615385,531.9384615,531.9384615,black,legacy,legacy,legacy,0,incongruent,uniform,1,undefined,1,s,64,0,0,0,64,0,64,0,64,0,0,0,64,64,64,64,Fri Sep 20 13:46:07 2019,1500,The main experiment item,yes,FlankerTask.osexp,/Users/kaylicolpitts/Desktop/adv quant/lab 2,no,mono,no,18,no,white,no,no,768,legacy,64,64,/Users/kaylicolpitts/Desktop/adv quant/lab 2/KC-subject-1.csv,legacy,Kafkaesque Koffka,3.2.8,0,s,NA,h,NA,NA,s,499,NA,5163,NA,NA,499,2,legacy,1024,2,48000,-16,experiment,HHSHH,1,odd,128106,8663,NA,NA,116480,3394,NA,NA,129222,3486,NA,NA,129356,129857,129187,129356,FlankerTask,61,34576,65,yes,1024
93.93939394,93.93939394,531.5606061,531.5606061,black,legacy,legacy,legacy,0,congruent,uniform,1,undefined,1,h,65,0,0,0,65,0,65,0,65,0,0,0,65,65,65,65,Fri Sep 20 13:46:07 2019,1500,The main experiment item,yes,FlankerTask.osexp,/Users/kaylicolpitts/Desktop/adv quant/lab 2,no,mono,no,18,no,white,no,no,768,legacy,65,65,/Users/kaylicolpitts/Desktop/adv quant/lab 2/KC-subject-1.csv,legacy,Kafkaesque Koffka,3.2.8,0,h,NA,h,NA,NA,h,507,NA,5163,NA,NA,507,2,legacy,1024,2,48000,-16,experiment,HHHHH,1,odd,129894,8663,NA,NA,116480,3394,NA,NA,131008,3486,NA,NA,131144,131653,130975,131144,FlankerTask,62,35083,66,yes,1024
94.02985075,94.02985075,531.9402985,531.9402985,black,legacy,legacy,legacy,0,incongruent,uniform,1,undefined,1,s,66,0,0,0,66,0,66,0,66,0,0,0,66,66,66,66,Fri Sep 20 13:46:07 2019,1500,The main experiment item,yes,FlankerTask.osexp,/Users/kaylicolpitts/Desktop/adv quant/lab 2,no,mono,no,18,no,white,no,no,768,legacy,66,66,/Users/kaylicolpitts/Desktop/adv quant/lab 2/KC-subject-1.csv,legacy,Kafkaesque Koffka,3.2.8,0,s,NA,h,NA,NA,s,557,NA,5163,NA,NA,557,2,legacy,1024,2,48000,-16,experiment,HHSHH,1,odd,131733,8663,NA,NA,116480,3394,NA,NA,132849,3486,NA,NA,132983,133543,132815,132983,FlankerTask,63,35640,67,yes,1024
94.11764706,94.11764706,531.6029412,531.6029412,black,legacy,legacy,legacy,0,congruent,uniform,1,undefined,1,h,67,0,0,0,67,0,67,0,67,0,0,0,67,67,67,67,Fri Sep 20 13:46:07 2019,1500,The main experiment item,yes,FlankerTask.osexp,/Users/kaylicolpitts/Desktop/adv quant/lab 2,no,mono,no,18,no,white,no,no,768,legacy,67,67,/Users/kaylicolpitts/Desktop/adv quant/lab 2/KC-subject-1.csv,legacy,Kafkaesque Koffka,3.2.8,0,h,NA,h,NA,NA,h,509,NA,5163,NA,NA,509,2,legacy,1024,2,48000,-16,experiment,HHHHH,1,odd,133583,8663,NA,NA,116480,3394,NA,NA,134704,3486,NA,NA,134841,135353,134671,134840,FlankerTask,64,36149,68,yes,1024
94.20289855,94.20289855,531.115942,531.115942,black,legacy,legacy,legacy,0,congruent,uniform,1,undefined,1,s,68,0,0,0,68,0,68,0,68,0,0,0,68,68,68,68,Fri Sep 20 13:46:07 2019,1500,The main experiment item,yes,FlankerTask.osexp,/Users/kaylicolpitts/Desktop/adv quant/lab 2,no,mono,no,18,no,white,no,no,768,legacy,68,68,/Users/kaylicolpitts/Desktop/adv quant/lab 2/KC-subject-1.csv,legacy,Kafkaesque Koffka,3.2.8,0,s,NA,h,NA,NA,s,498,NA,5163,NA,NA,498,2,legacy,1024,2,48000,-16,experiment,SSSSS,1,odd,135389,8663,NA,NA,116480,3394,NA,NA,136516,3486,NA,NA,136663,137164,136480,136663,FlankerTask,65,36647,69,yes,1024
94.28571429,94.28571429,529.5714286,529.5714286,black,legacy,legacy,legacy,0,congruent,uniform,1,undefined,1,s,69,0,0,0,69,0,69,0,69,0,0,0,69,69,69,69,Fri Sep 20 13:46:07 2019,1500,The main experiment item,yes,FlankerTask.osexp,/Users/kaylicolpitts/Desktop/adv quant/lab 2,no,mono,no,18,no,white,no,no,768,legacy,69,69,/Users/kaylicolpitts/Desktop/adv quant/lab 2/KC-subject-1.csv,legacy,Kafkaesque Koffka,3.2.8,0,s,NA,h,NA,NA,s,423,NA,5163,NA,NA,423,2,legacy,1024,2,48000,-16,experiment,SSSSS,1,odd,137205,8663,NA,NA,116480,3394,NA,NA,138321,3486,NA,NA,138458,138884,138287,138458,FlankerTask,66,37070,70,yes,1024
94.36619718,94.36619718,528.4225352,528.4225352,black,legacy,legacy,legacy,0,congruent,uniform,1,undefined,1,h,70,0,0,0,70,0,70,0,70,0,0,0,70,70,70,70,Fri Sep 20 13:46:07 2019,1500,The main experiment item,yes,FlankerTask.osexp,/Users/kaylicolpitts/Desktop/adv quant/lab 2,no,mono,no,18,no,white,no,no,768,legacy,70,70,/Users/kaylicolpitts/Desktop/adv quant/lab 2/KC-subject-1.csv,legacy,Kafkaesque Koffka,3.2.8,0,h,NA,h,NA,NA,h,448,NA,5163,NA,NA,448,2,legacy,1024,2,48000,-16,experiment,HHHHH,1,odd,138927,8663,NA,NA,116480,3394,NA,NA,140062,3486,NA,NA,140197,140648,140028,140197,FlankerTask,67,37518,71,yes,1024
94.44444444,94.44444444,527.4444444,527.4444444,black,legacy,legacy,legacy,0,congruent,uniform,1,undefined,1,s,71,0,0,0,71,0,71,0,71,0,0,0,71,71,71,71,Fri Sep 20 13:46:07 2019,1500,The main experiment item,yes,FlankerTask.osexp,/Users/kaylicolpitts/Desktop/adv quant/lab 2,no,mono,no,18,no,white,no,no,768,legacy,71,71,/Users/kaylicolpitts/Desktop/adv quant/lab 2/KC-subject-1.csv,legacy,Kafkaesque Koffka,3.2.8,0,s,NA,h,NA,NA,s,458,NA,5163,NA,NA,458,2,legacy,1024,2,48000,-16,experiment,SSSSS,1,odd,140726,8663,NA,NA,116480,3394,NA,NA,141856,3486,NA,NA,141991,142453,141823,141991,FlankerTask,68,37976,72,yes,1024
93.15068493,93.15068493,526.5342466,526.5342466,black,legacy,legacy,legacy,0,congruent,uniform,0,undefined,0,h,72,0,0,0,72,0,72,0,72,0,0,0,72,72,72,72,Fri Sep 20 13:46:07 2019,1500,The main experiment item,yes,FlankerTask.osexp,/Users/kaylicolpitts/Desktop/adv quant/lab 2,no,mono,no,18,no,white,no,no,768,legacy,72,72,/Users/kaylicolpitts/Desktop/adv quant/lab 2/KC-subject-1.csv,legacy,Kafkaesque Koffka,3.2.8,0,s,NA,h,NA,NA,s,461,NA,5163,NA,NA,461,2,legacy,1024,2,48000,-16,experiment,HHHHH,1,odd,142491,8663,NA,NA,116480,3394,NA,NA,143620,3486,NA,NA,143759,144223,143585,143758,FlankerTask,68,38437,73,yes,1024
93.24324324,93.24324324,525.7162162,525.7162162,black,legacy,legacy,legacy,0,congruent,uniform,1,undefined,1,h,73,0,0,0,73,0,73,0,73,0,0,0,73,73,73,73,Fri Sep 20 13:46:07 2019,1500,The main experiment item,yes,FlankerTask.osexp,/Users/kaylicolpitts/Desktop/adv quant/lab 2,no,mono,no,18,no,white,no,no,768,legacy,73,73,/Users/kaylicolpitts/Desktop/adv quant/lab 2/KC-subject-1.csv,legacy,Kafkaesque Koffka,3.2.8,0,h,NA,h,NA,NA,h,466,NA,5163,NA,NA,466,2,legacy,1024,2,48000,-16,experiment,HHHHH,1,odd,144793,8663,NA,NA,144259,3394,NA,NA,145907,3486,NA,NA,146043,146513,145874,146042,FlankerTask,69,38903,74,yes,1024
93.33333333,93.33333333,523.96,523.96,black,legacy,legacy,legacy,0,congruent,uniform,1,undefined,1,h,74,0,0,0,74,0,74,0,74,0,0,0,74,74,74,74,Fri Sep 20 13:46:07 2019,1500,The main experiment item,yes,FlankerTask.osexp,/Users/kaylicolpitts/Desktop/adv quant/lab 2,no,mono,no,18,no,white,no,no,768,legacy,74,74,/Users/kaylicolpitts/Desktop/adv quant/lab 2/KC-subject-1.csv,legacy,Kafkaesque Koffka,3.2.8,0,h,NA,h,NA,NA,h,394,NA,5163,NA,NA,394,2,legacy,1024,2,48000,-16,experiment,HHHHH,1,odd,146549,8663,NA,NA,144259,3394,NA,NA,147692,3486,NA,NA,147827,148224,147657,147826,FlankerTask,70,39297,75,yes,1024
93.42105263,93.42105263,523.6973684,523.6973684,black,legacy,legacy,legacy,0,congruent,uniform,1,undefined,1,s,75,0,0,0,75,0,75,0,75,0,0,0,75,75,75,75,Fri Sep 20 13:46:07 2019,1500,The main experiment item,yes,FlankerTask.osexp,/Users/kaylicolpitts/Desktop/adv quant/lab 2,no,mono,no,18,no,white,no,no,768,legacy,75,75,/Users/kaylicolpitts/Desktop/adv quant/lab 2/KC-subject-1.csv,legacy,Kafkaesque Koffka,3.2.8,0,s,NA,h,NA,NA,s,504,NA,5163,NA,NA,504,2,legacy,1024,2,48000,-16,experiment,SSSSS,1,odd,148260,8663,NA,NA,144259,3394,NA,NA,149375,3486,NA,NA,149509,150018,149340,149509,FlankerTask,71,39801,76,yes,1024
93.50649351,93.50649351,522.2727273,522.2727273,black,legacy,legacy,legacy,0,congruent,uniform,1,undefined,1,s,76,0,0,0,76,0,76,0,76,0,0,0,76,76,76,76,Fri Sep 20 13:46:07 2019,1500,The main experiment item,yes,FlankerTask.osexp,/Users/kaylicolpitts/Desktop/adv quant/lab 2,no,mono,no,18,no,white,no,no,768,legacy,76,76,/Users/kaylicolpitts/Desktop/adv quant/lab 2/KC-subject-1.csv,legacy,Kafkaesque Koffka,3.2.8,0,s,NA,h,NA,NA,s,414,NA,5163,NA,NA,414,2,legacy,1024,2,48000,-16,experiment,SSSSS,1,odd,150056,8663,NA,NA,144259,3394,NA,NA,151179,3486,NA,NA,151314,151730,151146,151314,FlankerTask,72,40215,77,yes,1024
93.58974359,93.58974359,521.5641026,521.5641026,black,legacy,legacy,legacy,0,congruent,uniform,1,undefined,1,s,77,0,0,0,77,0,77,0,77,0,0,0,77,77,77,77,Fri Sep 20 13:46:07 2019,1500,The main experiment item,yes,FlankerTask.osexp,/Users/kaylicolpitts/Desktop/adv quant/lab 2,no,mono,no,18,no,white,no,no,768,legacy,77,77,/Users/kaylicolpitts/Desktop/adv quant/lab 2/KC-subject-1.csv,legacy,Kafkaesque Koffka,3.2.8,0,s,NA,h,NA,NA,s,467,NA,5163,NA,NA,467,2,legacy,1024,2,48000,-16,experiment,SSSSS,1,odd,151766,8663,NA,NA,144259,3394,NA,NA,152881,3486,NA,NA,153015,153486,152847,153015,FlankerTask,73,40682,78,yes,1024
92.40506329,92.40506329,520.0126582,520.0126582,black,legacy,legacy,legacy,0,incongruent,uniform,0,undefined,0,h,78,0,0,0,78,0,78,0,78,0,0,0,78,78,78,78,Fri Sep 20 13:46:07 2019,1500,The main experiment item,yes,FlankerTask.osexp,/Users/kaylicolpitts/Desktop/adv quant/lab 2,no,mono,no,18,no,white,no,no,768,legacy,78,78,/Users/kaylicolpitts/Desktop/adv quant/lab 2/KC-subject-1.csv,legacy,Kafkaesque Koffka,3.2.8,0,s,NA,h,NA,NA,s,399,NA,5163,NA,NA,399,2,legacy,1024,2,48000,-16,experiment,SSHSS,1,odd,153526,8663,NA,NA,144259,3394,NA,NA,154653,3486,NA,NA,154789,155191,154616,154789,FlankerTask,73,41081,79,yes,1024
92.5,92.5,519.9875,519.9875,black,legacy,legacy,legacy,0,incongruent,uniform,1,undefined,1,h,79,0,0,0,79,0,79,0,79,0,0,0,79,79,79,79,Fri Sep 20 13:46:07 2019,1500,The main experiment item,yes,FlankerTask.osexp,/Users/kaylicolpitts/Desktop/adv quant/lab 2,no,mono,no,18,no,white,no,no,768,legacy,79,79,/Users/kaylicolpitts/Desktop/adv quant/lab 2/KC-subject-1.csv,legacy,Kafkaesque Koffka,3.2.8,0,h,NA,h,NA,NA,h,518,NA,5163,NA,NA,518,2,legacy,1024,2,48000,-16,experiment,SSHSS,1,odd,155761,8663,NA,NA,155227,3394,NA,NA,156876,3486,NA,NA,157009,157530,156842,157009,FlankerTask,74,41599,80,yes,1024
92.59259259,92.59259259,521.0864198,521.0864198,black,legacy,legacy,legacy,0,congruent,uniform,1,undefined,1,h,80,0,0,0,80,0,80,0,80,0,0,0,80,80,80,80,Fri Sep 20 13:46:07 2019,600,The main experiment item,yes,FlankerTask.osexp,/Users/kaylicolpitts/Desktop/adv quant/lab 2,no,mono,no,18,no,white,no,no,768,legacy,0,79,/Users/kaylicolpitts/Desktop/adv quant/lab 2/KC-subject-1.csv,legacy,Kafkaesque Koffka,3.2.8,0,h,NA,h,space,NA,h,609,NA,5163,3379,NA,609,2,legacy,1024,2,48000,-16,experiment,HHHHH,1,odd,157566,8663,162002,NA,155227,3394,NA,NA,162133,3486,158620,NA,162267,162879,162098,162267,FlankerTask,75,42208,81,yes,1024
92.68292683,92.68292683,518.9146341,518.9146341,black,legacy,legacy,legacy,0,incongruent,uniform,1,undefined,1,h,81,0,0,0,81,0,81,0,81,0,0,0,81,81,81,81,Fri Sep 20 13:46:07 2019,600,The main experiment item,yes,FlankerTask.osexp,/Users/kaylicolpitts/Desktop/adv quant/lab 2,no,mono,no,18,no,white,no,no,768,legacy,1,79,/Users/kaylicolpitts/Desktop/adv quant/lab 2/KC-subject-1.csv,legacy,Kafkaesque Koffka,3.2.8,0,h,NA,h,space,NA,h,343,NA,5163,3379,NA,343,2,legacy,1024,2,48000,-16,experiment,SSHSS,1,odd,163449,8663,162002,NA,155227,3394,162914,NA,164564,3486,158620,NA,164700,165045,164530,164700,FlankerTask,76,42551,82,yes,1024
92.77108434,92.77108434,518.6746988,518.6746988,black,legacy,legacy,legacy,0,congruent,uniform,1,undefined,1,s,82,0,0,0,82,0,82,0,82,0,0,0,82,82,82,82,Fri Sep 20 13:46:07 2019,600,The main experiment item,yes,FlankerTask.osexp,/Users/kaylicolpitts/Desktop/adv quant/lab 2,no,mono,no,18,no,white,no,no,768,legacy,2,79,/Users/kaylicolpitts/Desktop/adv quant/lab 2/KC-subject-1.csv,legacy,Kafkaesque Koffka,3.2.8,0,s,NA,h,space,NA,s,499,NA,5163,3379,NA,499,2,legacy,1024,2,48000,-16,experiment,SSSSS,1,odd,165082,8663,162002,NA,155227,3394,162914,NA,166215,3486,158620,NA,166351,166853,166181,166350,FlankerTask,77,43050,83,yes,1024
92.85714286,92.85714286,517.0119048,517.0119048,black,legacy,legacy,legacy,0,congruent,uniform,1,undefined,1,s,83,0,0,0,83,0,83,0,83,0,0,0,83,83,83,83,Fri Sep 20 13:46:07 2019,600,The main experiment item,yes,FlankerTask.osexp,/Users/kaylicolpitts/Desktop/adv quant/lab 2,no,mono,no,18,no,white,no,no,768,legacy,3,79,/Users/kaylicolpitts/Desktop/adv quant/lab 2/KC-subject-1.csv,legacy,Kafkaesque Koffka,3.2.8,0,s,NA,h,space,NA,s,379,NA,5163,3379,NA,379,2,legacy,1024,2,48000,-16,experiment,SSSSS,1,odd,166890,8663,162002,NA,155227,3394,162914,NA,168003,3486,158620,NA,168137,168521,167970,168137,FlankerTask,78,43429,84,yes,1024
92.94117647,92.94117647,514.8705882,514.8705882,black,legacy,legacy,legacy,0,congruent,uniform,1,undefined,1,s,84,0,0,0,84,0,84,0,84,0,0,0,84,84,84,84,Fri Sep 20 13:46:07 2019,600,The main experiment item,yes,FlankerTask.osexp,/Users/kaylicolpitts/Desktop/adv quant/lab 2,no,mono,no,18,no,white,no,no,768,legacy,4,79,/Users/kaylicolpitts/Desktop/adv quant/lab 2/KC-subject-1.csv,legacy,Kafkaesque Koffka,3.2.8,0,s,NA,h,space,NA,s,335,NA,5163,3379,NA,335,2,legacy,1024,2,48000,-16,experiment,SSSSS,1,odd,168564,8663,162002,NA,155227,3394,162914,NA,169684,3486,158620,NA,169818,170156,169648,169818,FlankerTask,79,43764,85,yes,1024
93.02325581,93.02325581,513.4186047,513.4186047,black,legacy,legacy,legacy,0,congruent,uniform,1,undefined,1,s,85,0,0,0,85,0,85,0,85,0,0,0,85,85,85,85,Fri Sep 20 13:46:07 2019,600,The main experiment item,yes,FlankerTask.osexp,/Users/kaylicolpitts/Desktop/adv quant/lab 2,no,mono,no,18,no,white,no,no,768,legacy,5,79,/Users/kaylicolpitts/Desktop/adv quant/lab 2/KC-subject-1.csv,legacy,Kafkaesque Koffka,3.2.8,0,s,NA,h,space,NA,s,390,NA,5163,3379,NA,390,2,legacy,1024,2,48000,-16,experiment,SSSSS,1,odd,170191,8663,162002,NA,155227,3394,162914,NA,171304,3486,158620,NA,171438,171831,171271,171438,FlankerTask,80,44154,86,yes,1024
93.10344828,93.10344828,513.2183908,513.2183908,black,legacy,legacy,legacy,0,incongruent,uniform,1,undefined,1,s,86,0,0,0,86,0,86,0,86,0,0,0,86,86,86,86,Fri Sep 20 13:46:07 2019,600,The main experiment item,yes,FlankerTask.osexp,/Users/kaylicolpitts/Desktop/adv quant/lab 2,no,mono,no,18,no,white,no,no,768,legacy,6,79,/Users/kaylicolpitts/Desktop/adv quant/lab 2/KC-subject-1.csv,legacy,Kafkaesque Koffka,3.2.8,0,s,NA,h,space,NA,s,496,NA,5163,3379,NA,496,2,legacy,1024,2,48000,-16,experiment,HHSHH,1,odd,171869,8663,162002,NA,155227,3394,162914,NA,172993,3486,158620,NA,173127,173626,172959,173127,FlankerTask,81,44650,87,yes,1024
93.18181818,93.18181818,512.3181818,512.3181818,black,legacy,legacy,legacy,0,incongruent,uniform,1,undefined,1,h,87,0,0,0,87,0,87,0,87,0,0,0,87,87,87,87,Fri Sep 20 13:46:07 2019,600,The main experiment item,yes,FlankerTask.osexp,/Users/kaylicolpitts/Desktop/adv quant/lab 2,no,mono,no,18,no,white,no,no,768,legacy,7,79,/Users/kaylicolpitts/Desktop/adv quant/lab 2/KC-subject-1.csv,legacy,Kafkaesque Koffka,3.2.8,0,h,NA,h,space,NA,h,434,NA,5163,3379,NA,434,2,legacy,1024,2,48000,-16,experiment,SSHSS,1,odd,173662,8663,162002,NA,155227,3394,162914,NA,174779,3486,158620,NA,174913,175350,174746,174913,FlankerTask,82,45084,88,yes,1024
93.25842697,93.25842697,511.1797753,511.1797753,black,legacy,legacy,legacy,0,congruent,uniform,1,undefined,1,s,88,0,0,0,88,0,88,0,88,0,0,0,88,88,88,88,Fri Sep 20 13:46:07 2019,600,The main experiment item,yes,FlankerTask.osexp,/Users/kaylicolpitts/Desktop/adv quant/lab 2,no,mono,no,18,no,white,no,no,768,legacy,8,79,/Users/kaylicolpitts/Desktop/adv quant/lab 2/KC-subject-1.csv,legacy,Kafkaesque Koffka,3.2.8,0,s,NA,h,space,NA,s,411,NA,5163,3379,NA,411,2,legacy,1024,2,48000,-16,experiment,SSSSS,1,odd,175390,8663,162002,NA,155227,3394,162914,NA,176519,3486,158620,NA,176653,177067,176484,176653,FlankerTask,83,45495,89,yes,1024
93.33333333,93.33333333,509.7888889,509.7888889,black,legacy,legacy,legacy,0,congruent,uniform,1,undefined,1,s,89,0,0,0,89,0,89,0,89,0,0,0,89,89,89,89,Fri Sep 20 13:46:07 2019,600,The main experiment item,yes,FlankerTask.osexp,/Users/kaylicolpitts/Desktop/adv quant/lab 2,no,mono,no,18,no,white,no,no,768,legacy,9,79,/Users/kaylicolpitts/Desktop/adv quant/lab 2/KC-subject-1.csv,legacy,Kafkaesque Koffka,3.2.8,0,s,NA,h,space,NA,s,386,NA,5163,3379,NA,386,2,legacy,1024,2,48000,-16,experiment,SSSSS,1,odd,177103,8663,162002,NA,155227,3394,162914,NA,178219,3486,158620,NA,178353,178742,178185,178352,FlankerTask,84,45881,90,yes,1024
93.40659341,93.40659341,509.4065934,509.4065934,black,legacy,legacy,legacy,0,congruent,uniform,1,undefined,1,h,90,0,0,0,90,0,90,0,90,0,0,0,90,90,90,90,Fri Sep 20 13:46:07 2019,600,The main experiment item,yes,FlankerTask.osexp,/Users/kaylicolpitts/Desktop/adv quant/lab 2,no,mono,no,18,no,white,no,no,768,legacy,10,79,/Users/kaylicolpitts/Desktop/adv quant/lab 2/KC-subject-1.csv,legacy,Kafkaesque Koffka,3.2.8,0,h,NA,h,space,NA,h,475,NA,5163,3379,NA,475,2,legacy,1024,2,48000,-16,experiment,HHHHH,1,odd,178780,8663,162002,NA,155227,3394,162914,NA,179902,3486,158620,NA,180036,180515,179867,180036,FlankerTask,85,46356,91,yes,1024
93.47826087,93.47826087,508.25,508.25,black,legacy,legacy,legacy,0,congruent,uniform,1,undefined,1,h,91,0,0,0,91,0,91,0,91,0,0,0,91,91,91,91,Fri Sep 20 13:46:07 2019,600,The main experiment item,yes,FlankerTask.osexp,/Users/kaylicolpitts/Desktop/adv quant/lab 2,no,mono,no,18,no,white,no,no,768,legacy,11,79,/Users/kaylicolpitts/Desktop/adv quant/lab 2/KC-subject-1.csv,legacy,Kafkaesque Koffka,3.2.8,0,h,NA,h,space,NA,h,403,NA,5163,3379,NA,403,2,legacy,1024,2,48000,-16,experiment,HHHHH,1,odd,180552,8663,162002,NA,155227,3394,162914,NA,181668,3486,158620,NA,181802,182209,181633,181802,FlankerTask,86,46759,92,yes,1024
93.5483871,93.5483871,506.8064516,506.8064516,black,legacy,legacy,legacy,0,incongruent,uniform,1,undefined,1,h,92,0,0,0,92,0,92,0,92,0,0,0,92,92,92,92,Fri Sep 20 13:46:07 2019,600,The main experiment item,yes,FlankerTask.osexp,/Users/kaylicolpitts/Desktop/adv quant/lab 2,no,mono,no,18,no,white,no,no,768,legacy,12,79,/Users/kaylicolpitts/Desktop/adv quant/lab 2/KC-subject-1.csv,legacy,Kafkaesque Koffka,3.2.8,0,h,NA,h,space,NA,h,374,NA,5163,3379,NA,374,2,legacy,1024,2,48000,-16,experiment,SSHSS,1,odd,182252,8663,162002,NA,155227,3394,162914,NA,183374,3486,158620,NA,183508,183885,183340,183508,FlankerTask,87,47133,93,yes,1024
93.61702128,93.61702128,505.4361702,505.4361702,black,legacy,legacy,legacy,0,congruent,uniform,1,undefined,1,h,93,0,0,0,93,0,93,0,93,0,0,0,93,93,93,93,Fri Sep 20 13:46:07 2019,600,The main experiment item,yes,FlankerTask.osexp,/Users/kaylicolpitts/Desktop/adv quant/lab 2,no,mono,no,18,no,white,no,no,768,legacy,13,79,/Users/kaylicolpitts/Desktop/adv quant/lab 2/KC-subject-1.csv,legacy,Kafkaesque Koffka,3.2.8,0,h,NA,h,space,NA,h,378,NA,5163,3379,NA,378,2,legacy,1024,2,48000,-16,experiment,HHHHH,1,odd,183923,8663,162002,NA,155227,3394,162914,NA,185037,3486,158620,NA,185170,185551,185003,185170,FlankerTask,88,47511,94,yes,1024
93.68421053,93.68421053,504.4842105,504.4842105,black,legacy,legacy,legacy,0,incongruent,uniform,1,undefined,1,h,94,0,0,0,94,0,94,0,94,0,0,0,94,94,94,94,Fri Sep 20 13:46:07 2019,600,The main experiment item,yes,FlankerTask.osexp,/Users/kaylicolpitts/Desktop/adv quant/lab 2,no,mono,no,18,no,white,no,no,768,legacy,14,79,/Users/kaylicolpitts/Desktop/adv quant/lab 2/KC-subject-1.csv,legacy,Kafkaesque Koffka,3.2.8,0,h,NA,h,space,NA,h,415,NA,5163,3379,NA,415,2,legacy,1024,2,48000,-16,experiment,SSHSS,1,odd,185590,8663,162002,NA,155227,3394,162914,NA,186717,3486,158620,NA,186850,187268,186682,186850,FlankerTask,89,47926,95,yes,1024
93.75,93.75,503.2395833,503.2395833,black,legacy,legacy,legacy,0,congruent,uniform,1,undefined,1,s,95,0,0,0,95,0,95,0,95,0,0,0,95,95,95,95,Fri Sep 20 13:46:07 2019,600,The main experiment item,yes,FlankerTask.osexp,/Users/kaylicolpitts/Desktop/adv quant/lab 2,no,mono,no,18,no,white,no,no,768,legacy,15,79,/Users/kaylicolpitts/Desktop/adv quant/lab 2/KC-subject-1.csv,legacy,Kafkaesque Koffka,3.2.8,0,s,NA,h,space,NA,s,385,NA,5163,3379,NA,385,2,legacy,1024,2,48000,-16,experiment,SSSSS,1,odd,187304,8663,162002,NA,155227,3394,162914,NA,188419,3486,158620,NA,188554,188942,188385,188553,FlankerTask,90,48311,96,yes,1024
93.81443299,93.81443299,501.9690722,501.9690722,black,legacy,legacy,legacy,0,congruent,uniform,1,undefined,1,s,96,0,0,0,96,0,96,0,96,0,0,0,96,96,96,96,Fri Sep 20 13:46:07 2019,600,The main experiment item,yes,FlankerTask.osexp,/Users/kaylicolpitts/Desktop/adv quant/lab 2,no,mono,no,18,no,white,no,no,768,legacy,16,79,/Users/kaylicolpitts/Desktop/adv quant/lab 2/KC-subject-1.csv,legacy,Kafkaesque Koffka,3.2.8,0,s,NA,h,space,NA,s,380,NA,5163,3379,NA,380,2,legacy,1024,2,48000,-16,experiment,SSSSS,1,odd,188986,8663,162002,NA,155227,3394,162914,NA,190108,3486,158620,NA,190242,190625,190074,190242,FlankerTask,91,48691,97,yes,1024
93.87755102,93.87755102,500.3265306,500.3265306,black,legacy,legacy,legacy,0,congruent,uniform,1,undefined,1,s,97,0,0,0,97,0,97,0,97,0,0,0,97,97,97,97,Fri Sep 20 13:46:07 2019,600,The main experiment item,yes,FlankerTask.osexp,/Users/kaylicolpitts/Desktop/adv quant/lab 2,no,mono,no,18,no,white,no,no,768,legacy,17,79,/Users/kaylicolpitts/Desktop/adv quant/lab 2/KC-subject-1.csv,legacy,Kafkaesque Koffka,3.2.8,0,s,NA,h,space,NA,s,341,NA,5163,3379,NA,341,2,legacy,1024,2,48000,-16,experiment,SSSSS,1,odd,190662,8663,162002,NA,155227,3394,162914,NA,191778,3486,158620,NA,191913,192257,191745,191913,FlankerTask,92,49032,98,yes,1024
93.93939394,93.93939394,500.8080808,500.8080808,black,legacy,legacy,legacy,0,incongruent,uniform,1,undefined,1,s,98,0,0,0,98,0,98,0,98,0,0,0,98,98,98,98,Fri Sep 20 13:46:07 2019,600,The main experiment item,yes,FlankerTask.osexp,/Users/kaylicolpitts/Desktop/adv quant/lab 2,no,mono,no,18,no,white,no,no,768,legacy,18,79,/Users/kaylicolpitts/Desktop/adv quant/lab 2/KC-subject-1.csv,legacy,Kafkaesque Koffka,3.2.8,0,s,NA,h,space,NA,s,548,NA,5163,3379,NA,548,2,legacy,1024,2,48000,-16,experiment,HHSHH,1,odd,192295,8663,162002,NA,155227,3394,162914,NA,193425,3486,158620,NA,193560,194110,193391,193560,FlankerTask,93,49580,99,yes,1024
94,94,500.41,500.41,black,legacy,legacy,legacy,0,congruent,uniform,1,undefined,1,h,99,0,0,0,99,0,99,0,99,0,0,0,99,99,99,99,Fri Sep 20 13:46:07 2019,600,The main experiment item,yes,FlankerTask.osexp,/Users/kaylicolpitts/Desktop/adv quant/lab 2,no,mono,no,18,no,white,no,no,768,legacy,19,79,/Users/kaylicolpitts/Desktop/adv quant/lab 2/KC-subject-1.csv,legacy,Kafkaesque Koffka,3.2.8,0,h,NA,h,space,NA,h,461,NA,5163,3379,NA,461,2,legacy,1024,2,48000,-16,experiment,HHHHH,1,odd,194146,8663,162002,NA,155227,3394,162914,NA,195261,3486,158620,NA,195396,195859,195228,195395,FlankerTask,94,50041,100,yes,1024
94.05940594,94.05940594,500.2871287,500.2871287,black,legacy,legacy,legacy,0,incongruent,uniform,1,undefined,1,s,100,0,0,0,100,0,100,0,100,0,0,0,100,100,100,100,Fri Sep 20 13:46:07 2019,600,The main experiment item,yes,FlankerTask.osexp,/Users/kaylicolpitts/Desktop/adv quant/lab 2,no,mono,no,18,no,white,no,no,768,legacy,20,79,/Users/kaylicolpitts/Desktop/adv quant/lab 2/KC-subject-1.csv,legacy,Kafkaesque Koffka,3.2.8,0,s,NA,h,space,NA,s,488,NA,5163,3379,NA,488,2,legacy,1024,2,48000,-16,experiment,HHSHH,1,odd,195895,8663,162002,NA,155227,3394,162914,NA,197009,3486,158620,NA,197144,197636,196976,197144,FlankerTask,95,50529,101,yes,1024
94.11764706,94.11764706,498.754902,498.754902,black,legacy,legacy,legacy,0,incongruent,uniform,1,undefined,1,s,101,0,0,0,101,0,101,0,101,0,0,0,101,101,101,101,Fri Sep 20 13:46:07 2019,600,The main experiment item,yes,FlankerTask.osexp,/Users/kaylicolpitts/Desktop/adv quant/lab 2,no,mono,no,18,no,white,no,no,768,legacy,21,79,/Users/kaylicolpitts/Desktop/adv quant/lab 2/KC-subject-1.csv,legacy,Kafkaesque Koffka,3.2.8,0,s,NA,h,space,NA,s,344,NA,5163,3379,NA,344,2,legacy,1024,2,48000,-16,experiment,HHSHH,1,odd,197677,8663,162002,NA,155227,3394,162914,NA,198809,3486,158620,NA,198943,199290,198776,198943,FlankerTask,96,50873,102,yes,1024
94.17475728,94.17475728,499.223301,499.223301,black,legacy,legacy,legacy,0,incongruent,uniform,1,undefined,1,s,102,0,0,0,102,0,102,0,102,0,0,0,102,102,102,102,Fri Sep 20 13:46:07 2019,600,The main experiment item,yes,FlankerTask.osexp,/Users/kaylicolpitts/Desktop/adv quant/lab 2,no,mono,no,18,no,white,no,no,768,legacy,22,79,/Users/kaylicolpitts/Desktop/adv quant/lab 2/KC-subject-1.csv,legacy,Kafkaesque Koffka,3.2.8,0,s,NA,h,space,NA,s,547,NA,5163,3379,NA,547,2,legacy,1024,2,48000,-16,experiment,HHSHH,1,odd,199326,8663,162002,NA,155227,3394,162914,NA,200442,3486,158620,NA,200577,201127,200407,200577,FlankerTask,97,51420,103,yes,1024
93.26923077,93.26923077,497.8269231,497.8269231,black,legacy,legacy,legacy,0,incongruent,uniform,0,undefined,0,h,103,0,0,0,103,0,103,0,103,0,0,0,103,103,103,103,Fri Sep 20 13:46:07 2019,600,The main experiment item,yes,FlankerTask.osexp,/Users/kaylicolpitts/Desktop/adv quant/lab 2,no,mono,no,18,no,white,no,no,768,legacy,23,79,/Users/kaylicolpitts/Desktop/adv quant/lab 2/KC-subject-1.csv,legacy,Kafkaesque Koffka,3.2.8,0,s,NA,h,space,NA,s,354,NA,5163,3379,NA,354,2,legacy,1024,2,48000,-16,experiment,SSHSS,1,odd,201165,8663,162002,NA,155227,3394,162914,NA,202298,3486,158620,NA,202432,202789,202264,202432,FlankerTask,97,51774,104,yes,1024
93.33333333,93.33333333,496.7619048,496.7619048,black,legacy,legacy,legacy,0,congruent,uniform,1,undefined,1,h,104,0,0,0,104,0,104,0,104,0,0,0,104,104,104,104,Fri Sep 20 13:46:07 2019,600,The main experiment item,yes,FlankerTask.osexp,/Users/kaylicolpitts/Desktop/adv quant/lab 2,no,mono,no,18,no,white,no,no,768,legacy,24,79,/Users/kaylicolpitts/Desktop/adv quant/lab 2/KC-subject-1.csv,legacy,Kafkaesque Koffka,3.2.8,0,h,NA,h,space,NA,h,386,NA,5163,3379,NA,386,2,legacy,1024,2,48000,-16,experiment,HHHHH,1,odd,203359,8663,162002,NA,202826,3394,162914,NA,204474,3486,158620,NA,204609,204999,204440,204609,FlankerTask,98,52160,105,yes,1024
93.39622642,93.39622642,497.490566,497.490566,black,legacy,legacy,legacy,0,incongruent,uniform,1,undefined,1,s,105,0,0,0,105,0,105,0,105,0,0,0,105,105,105,105,Fri Sep 20 13:46:07 2019,600,The main experiment item,yes,FlankerTask.osexp,/Users/kaylicolpitts/Desktop/adv quant/lab 2,no,mono,no,18,no,white,no,no,768,legacy,25,79,/Users/kaylicolpitts/Desktop/adv quant/lab 2/KC-subject-1.csv,legacy,Kafkaesque Koffka,3.2.8,0,s,NA,h,space,NA,s,574,NA,5163,3379,NA,574,2,legacy,1024,2,48000,-16,experiment,HHSHH,1,odd,205033,8663,162002,NA,202826,3394,162914,NA,206150,3486,158620,NA,206284,206862,206116,206284,FlankerTask,99,52734,106,yes,1024
93.45794393,93.45794393,498.0654206,498.0654206,black,legacy,legacy,legacy,0,incongruent,uniform,1,undefined,1,s,106,0,0,0,106,0,106,0,106,0,0,0,106,106,106,106,Fri Sep 20 13:46:07 2019,600,The main experiment item,yes,FlankerTask.osexp,/Users/kaylicolpitts/Desktop/adv quant/lab 2,no,mono,no,18,no,white,no,no,768,legacy,26,79,/Users/kaylicolpitts/Desktop/adv quant/lab 2/KC-subject-1.csv,legacy,Kafkaesque Koffka,3.2.8,0,s,NA,h,space,NA,s,559,NA,5163,3379,NA,559,2,legacy,1024,2,48000,-16,experiment,HHSHH,1,odd,206903,8663,162002,NA,202826,3394,162914,NA,208020,3486,158620,NA,208154,208716,207987,208154,FlankerTask,100,53293,107,yes,1024
93.51851852,93.51851852,497.0092593,497.0092593,black,legacy,legacy,legacy,0,congruent,uniform,1,undefined,1,h,107,0,0,0,107,0,107,0,107,0,0,0,107,107,107,107,Fri Sep 20 13:46:07 2019,600,The main experiment item,yes,FlankerTask.osexp,/Users/kaylicolpitts/Desktop/adv quant/lab 2,no,mono,no,18,no,white,no,no,768,legacy,27,79,/Users/kaylicolpitts/Desktop/adv quant/lab 2/KC-subject-1.csv,legacy,Kafkaesque Koffka,3.2.8,0,h,NA,h,space,NA,h,384,NA,5163,3379,NA,384,2,legacy,1024,2,48000,-16,experiment,HHHHH,1,odd,208751,8663,162002,NA,202826,3394,162914,NA,209865,3486,158620,NA,209999,210386,209831,209999,FlankerTask,101,53677,108,yes,1024
93.57798165,93.57798165,497.1009174,497.1009174,black,legacy,legacy,legacy,0,congruent,uniform,1,undefined,1,s,108,0,0,0,108,0,108,0,108,0,0,0,108,108,108,108,Fri Sep 20 13:46:07 2019,600,The main experiment item,yes,FlankerTask.osexp,/Users/kaylicolpitts/Desktop/adv quant/lab 2,no,mono,no,18,no,white,no,no,768,legacy,28,79,/Users/kaylicolpitts/Desktop/adv quant/lab 2/KC-subject-1.csv,legacy,Kafkaesque Koffka,3.2.8,0,s,NA,h,space,NA,s,507,NA,5163,3379,NA,507,2,legacy,1024,2,48000,-16,experiment,SSSSS,1,odd,210421,8663,162002,NA,202826,3394,162914,NA,211538,3486,158620,NA,211674,212186,211504,211674,FlankerTask,102,54184,109,yes,1024
93.63636364,93.63636364,495.7727273,495.7727273,black,legacy,legacy,legacy,0,congruent,uniform,1,undefined,1,s,109,0,0,0,109,0,109,0,109,0,0,0,109,109,109,109,Fri Sep 20 13:46:07 2019,600,The main experiment item,yes,FlankerTask.osexp,/Users/kaylicolpitts/Desktop/adv quant/lab 2,no,mono,no,18,no,white,no,no,768,legacy,29,79,/Users/kaylicolpitts/Desktop/adv quant/lab 2/KC-subject-1.csv,legacy,Kafkaesque Koffka,3.2.8,0,s,NA,h,space,NA,s,351,NA,5163,3379,NA,351,2,legacy,1024,2,48000,-16,experiment,SSSSS,1,odd,212235,8663,162002,NA,202826,3394,162914,NA,213349,3486,158620,NA,213484,213838,213316,213483,FlankerTask,103,54535,110,yes,1024
93.69369369,93.69369369,496.7477477,496.7477477,black,legacy,legacy,legacy,0,incongruent,uniform,1,undefined,1,h,110,0,0,0,110,0,110,0,110,0,0,0,110,110,110,110,Fri Sep 20 13:46:07 2019,600,The main experiment item,yes,FlankerTask.osexp,/Users/kaylicolpitts/Desktop/adv quant/lab 2,no,mono,no,18,no,white,no,no,768,legacy,30,79,/Users/kaylicolpitts/Desktop/adv quant/lab 2/KC-subject-1.csv,legacy,Kafkaesque Koffka,3.2.8,0,h,NA,h,space,NA,h,604,NA,5163,3379,NA,604,2,legacy,1024,2,48000,-16,experiment,SSHSS,1,odd,213878,8663,162002,NA,202826,3394,162914,NA,214993,3486,158620,NA,215130,215738,214959,215130,FlankerTask,104,55139,111,yes,1024
92.85714286,92.85714286,495.5625,495.5625,black,legacy,legacy,legacy,0,incongruent,uniform,0,undefined,0,s,111,0,0,0,111,0,111,0,111,0,0,0,111,111,111,111,Fri Sep 20 13:46:07 2019,600,The main experiment item,yes,FlankerTask.osexp,/Users/kaylicolpitts/Desktop/adv quant/lab 2,no,mono,no,18,no,white,no,no,768,legacy,31,79,/Users/kaylicolpitts/Desktop/adv quant/lab 2/KC-subject-1.csv,legacy,Kafkaesque Koffka,3.2.8,0,h,NA,h,space,NA,h,364,NA,5163,3379,NA,364,2,legacy,1024,2,48000,-16,experiment,HHSHH,1,odd,216318,8663,162002,NA,202826,3394,215784,NA,217433,3486,158620,NA,217569,217937,217399,217569,FlankerTask,104,55503,112,yes,1024
92.92035398,92.92035398,495.460177,495.460177,black,legacy,legacy,legacy,0,incongruent,uniform,1,undefined,1,h,112,0,0,0,112,0,112,0,112,0,0,0,112,112,112,112,Fri Sep 20 13:46:07 2019,600,The main experiment item,yes,FlankerTask.osexp,/Users/kaylicolpitts/Desktop/adv quant/lab 2,no,mono,no,18,no,white,no,no,768,legacy,32,79,/Users/kaylicolpitts/Desktop/adv quant/lab 2/KC-subject-1.csv,legacy,Kafkaesque Koffka,3.2.8,0,h,NA,h,space,NA,h,484,NA,5163,3379,NA,484,2,legacy,1024,2,48000,-16,experiment,SSHSS,1,odd,218508,8663,162002,NA,217975,3394,215784,NA,219624,3486,158620,NA,219758,220246,219590,219758,FlankerTask,105,55987,113,yes,1024
92.98245614,92.98245614,495.7280702,495.7280702,black,legacy,legacy,legacy,0,incongruent,uniform,1,undefined,1,h,113,0,0,0,113,0,113,0,113,0,0,0,113,113,113,113,Fri Sep 20 13:46:07 2019,600,The main experiment item,yes,FlankerTask.osexp,/Users/kaylicolpitts/Desktop/adv quant/lab 2,no,mono,no,18,no,white,no,no,768,legacy,33,79,/Users/kaylicolpitts/Desktop/adv quant/lab 2/KC-subject-1.csv,legacy,Kafkaesque Koffka,3.2.8,0,h,NA,h,space,NA,h,526,NA,5163,3379,NA,526,2,legacy,1024,2,48000,-16,experiment,SSHSS,1,odd,220283,8663,162002,NA,217975,3394,215784,NA,221406,3486,158620,NA,221541,222070,221373,221541,FlankerTask,106,56513,114,yes,1024
93.04347826,93.04347826,495.6434783,495.6434783,black,legacy,legacy,legacy,0,incongruent,uniform,1,undefined,1,s,114,0,0,0,114,0,114,0,114,0,0,0,114,114,114,114,Fri Sep 20 13:46:07 2019,600,The main experiment item,yes,FlankerTask.osexp,/Users/kaylicolpitts/Desktop/adv quant/lab 2,no,mono,no,18,no,white,no,no,768,legacy,34,79,/Users/kaylicolpitts/Desktop/adv quant/lab 2/KC-subject-1.csv,legacy,Kafkaesque Koffka,3.2.8,0,s,NA,h,space,NA,s,486,NA,5163,3379,NA,486,2,legacy,1024,2,48000,-16,experiment,HHSHH,1,odd,222106,8663,162002,NA,217975,3394,215784,NA,223221,3486,158620,NA,223356,223845,223187,223355,FlankerTask,107,56999,115,yes,1024
93.10344828,93.10344828,496.4913793,496.4913793,black,legacy,legacy,legacy,0,congruent,uniform,1,undefined,1,h,115,0,0,0,115,0,115,0,115,0,0,0,115,115,115,115,Fri Sep 20 13:46:07 2019,600,The main experiment item,yes,FlankerTask.osexp,/Users/kaylicolpitts/Desktop/adv quant/lab 2,no,mono,no,18,no,white,no,no,768,legacy,35,79,/Users/kaylicolpitts/Desktop/adv quant/lab 2/KC-subject-1.csv,legacy,Kafkaesque Koffka,3.2.8,0,h,NA,h,space,NA,h,594,NA,5163,3379,NA,594,2,legacy,1024,2,48000,-16,experiment,HHHHH,1,odd,223888,8663,162002,NA,217975,3394,215784,NA,225002,3486,158620,NA,225136,225734,224969,225136,FlankerTask,108,57593,116,yes,1024
93.16239316,93.16239316,496.7094017,496.7094017,black,legacy,legacy,legacy,0,incongruent,uniform,1,undefined,1,h,116,0,0,0,116,0,116,0,116,0,0,0,116,116,116,116,Fri Sep 20 13:46:07 2019,600,The main experiment item,yes,FlankerTask.osexp,/Users/kaylicolpitts/Desktop/adv quant/lab 2,no,mono,no,18,no,white,no,no,768,legacy,36,79,/Users/kaylicolpitts/Desktop/adv quant/lab 2/KC-subject-1.csv,legacy,Kafkaesque Koffka,3.2.8,0,h,NA,h,space,NA,h,522,NA,5163,3379,NA,522,2,legacy,1024,2,48000,-16,experiment,SSHSS,1,odd,225779,8663,162002,NA,217975,3394,215784,NA,226898,3486,158620,NA,227031,227557,226864,227031,FlankerTask,109,58115,117,yes,1024
92.37288136,92.37288136,495.940678,495.940678,black,legacy,legacy,legacy,0,incongruent,uniform,0,undefined,0,s,117,0,0,0,117,0,117,0,117,0,0,0,117,117,117,117,Fri Sep 20 13:46:07 2019,600,The main experiment item,yes,FlankerTask.osexp,/Users/kaylicolpitts/Desktop/adv quant/lab 2,no,mono,no,18,no,white,no,no,768,legacy,37,79,/Users/kaylicolpitts/Desktop/adv quant/lab 2/KC-subject-1.csv,legacy,Kafkaesque Koffka,3.2.8,0,h,NA,h,space,NA,h,406,NA,5163,3379,NA,406,2,legacy,1024,2,48000,-16,experiment,HHSHH,1,odd,227592,8663,162002,NA,217975,3394,215784,NA,228709,3486,158620,NA,228843,229253,228675,228843,FlankerTask,109,58521,118,yes,1024
92.43697479,92.43697479,495.6470588,495.6470588,black,legacy,legacy,legacy,0,incongruent,uniform,1,undefined,1,h,118,0,0,0,118,0,118,0,118,0,0,0,118,118,118,118,Fri Sep 20 13:46:07 2019,600,The main experiment item,yes,FlankerTask.osexp,/Users/kaylicolpitts/Desktop/adv quant/lab 2,no,mono,no,18,no,white,no,no,768,legacy,38,79,/Users/kaylicolpitts/Desktop/adv quant/lab 2/KC-subject-1.csv,legacy,Kafkaesque Koffka,3.2.8,0,h,NA,h,space,NA,h,461,NA,5163,3379,NA,461,2,legacy,1024,2,48000,-16,experiment,SSHSS,1,odd,229825,8663,162002,NA,229291,3394,215784,NA,230941,3486,158620,NA,231075,231540,230907,231075,FlankerTask,110,58982,119,yes,1024
92.5,92.5,494.8666667,494.8666667,black,legacy,legacy,legacy,0,congruent,uniform,1,undefined,1,h,119,0,0,0,119,0,119,0,119,0,0,0,119,119,119,119,Fri Sep 20 13:46:07 2019,600,The main experiment item,yes,FlankerTask.osexp,/Users/kaylicolpitts/Desktop/adv quant/lab 2,no,mono,no,18,no,white,no,no,768,legacy,39,79,/Users/kaylicolpitts/Desktop/adv quant/lab 2/KC-subject-1.csv,legacy,Kafkaesque Koffka,3.2.8,0,h,NA,h,space,NA,h,402,NA,5163,3379,NA,402,2,legacy,1024,2,48000,-16,experiment,HHHHH,1,odd,231579,8663,162002,NA,229291,3394,215784,NA,232706,3486,158620,NA,232841,233246,232671,232841,FlankerTask,111,59384,120,yes,1024
92.56198347,92.56198347,494.2479339,494.2479339,black,legacy,legacy,legacy,0,congruent,uniform,1,undefined,1,s,120,0,0,0,120,0,120,0,120,0,0,0,120,120,120,120,Fri Sep 20 13:46:07 2019,600,The main experiment item,yes,FlankerTask.osexp,/Users/kaylicolpitts/Desktop/adv quant/lab 2,no,mono,no,18,no,white,no,no,768,legacy,40,79,/Users/kaylicolpitts/Desktop/adv quant/lab 2/KC-subject-1.csv,legacy,Kafkaesque Koffka,3.2.8,0,s,NA,h,space,NA,s,420,NA,5163,3379,NA,420,2,legacy,1024,2,48000,-16,experiment,SSSSS,1,odd,233283,8663,162002,NA,229291,3394,215784,NA,234397,3486,158620,NA,234531,234964,234363,234531,FlankerTask,112,59804,121,yes,1024
92.62295082,92.62295082,493.9590164,493.9590164,black,legacy,legacy,legacy,0,congruent,uniform,1,undefined,1,s,121,0,0,0,121,0,121,0,121,0,0,0,121,121,121,121,Fri Sep 20 13:46:07 2019,600,The main experiment item,yes,FlankerTask.osexp,/Users/kaylicolpitts/Desktop/adv quant/lab 2,no,mono,no,18,no,white,no,no,768,legacy,41,79,/Users/kaylicolpitts/Desktop/adv quant/lab 2/KC-subject-1.csv,legacy,Kafkaesque Koffka,3.2.8,0,s,NA,h,space,NA,s,459,NA,5163,3379,NA,459,2,legacy,1024,2,48000,-16,experiment,SSSSS,1,odd,235003,8663,162002,NA,229291,3394,215784,NA,236125,3486,158620,NA,236259,236722,236091,236259,FlankerTask,113,60263,122,yes,1024
92.68292683,92.68292683,494.2926829,494.2926829,black,legacy,legacy,legacy,0,incongruent,uniform,1,undefined,1,h,122,0,0,0,122,0,122,0,122,0,0,0,122,122,122,122,Fri Sep 20 13:46:07 2019,600,The main experiment item,yes,FlankerTask.osexp,/Users/kaylicolpitts/Desktop/adv quant/lab 2,no,mono,no,18,no,white,no,no,768,legacy,42,79,/Users/kaylicolpitts/Desktop/adv quant/lab 2/KC-subject-1.csv,legacy,Kafkaesque Koffka,3.2.8,0,h,NA,h,space,NA,h,535,NA,5163,3379,NA,535,2,legacy,1024,2,48000,-16,experiment,SSHSS,1,odd,236759,8663,162002,NA,229291,3394,215784,NA,237873,3486,158620,NA,238006,238544,237839,238006,FlankerTask,114,60798,123,yes,1024
91.93548387,91.93548387,493.3629032,493.3629032,black,legacy,legacy,legacy,0,incongruent,uniform,0,undefined,0,h,123,0,0,0,123,0,123,0,123,0,0,0,123,123,123,123,Fri Sep 20 13:46:07 2019,600,The main experiment item,yes,FlankerTask.osexp,/Users/kaylicolpitts/Desktop/adv quant/lab 2,no,mono,no,18,no,white,no,no,768,legacy,43,79,/Users/kaylicolpitts/Desktop/adv quant/lab 2/KC-subject-1.csv,legacy,Kafkaesque Koffka,3.2.8,0,s,NA,h,space,NA,s,379,NA,5163,3379,NA,379,2,legacy,1024,2,48000,-16,experiment,SSHSS,1,odd,238583,8663,162002,NA,229291,3394,215784,NA,239731,3486,158620,NA,239866,240248,239673,239866,FlankerTask,114,61177,124,yes,1024
92,92,492.704,492.704,black,legacy,legacy,legacy,0,congruent,uniform,1,undefined,1,s,124,0,0,0,124,0,124,0,124,0,0,0,124,124,124,124,Fri Sep 20 13:46:07 2019,600,The main experiment item,yes,FlankerTask.osexp,/Users/kaylicolpitts/Desktop/adv quant/lab 2,no,mono,no,18,no,white,no,no,768,legacy,44,79,/Users/kaylicolpitts/Desktop/adv quant/lab 2/KC-subject-1.csv,legacy,Kafkaesque Koffka,3.2.8,0,s,NA,h,space,NA,s,411,NA,5163,3379,NA,411,2,legacy,1024,2,48000,-16,experiment,SSSSS,1,odd,240818,8663,162002,NA,240284,3394,215784,NA,241935,3486,158620,NA,242070,242486,241900,242070,FlankerTask,115,61588,125,yes,1024
92.06349206,92.06349206,492.7301587,492.7301587,black,legacy,legacy,legacy,0,congruent,uniform,1,undefined,1,h,125,0,0,0,125,0,125,0,125,0,0,0,125,125,125,125,Fri Sep 20 13:46:07 2019,600,The main experiment item,yes,FlankerTask.osexp,/Users/kaylicolpitts/Desktop/adv quant/lab 2,no,mono,no,18,no,white,no,no,768,legacy,45,79,/Users/kaylicolpitts/Desktop/adv quant/lab 2/KC-subject-1.csv,legacy,Kafkaesque Koffka,3.2.8,0,h,NA,h,space,NA,h,496,NA,5163,3379,NA,496,2,legacy,1024,2,48000,-16,experiment,HHHHH,1,odd,242522,8663,162002,NA,240284,3394,215784,NA,243639,3486,158620,NA,243774,244274,243604,243774,FlankerTask,116,62084,126,yes,1024
92.12598425,92.12598425,492.5748032,492.5748032,black,legacy,legacy,legacy,0,incongruent,uniform,1,undefined,1,h,126,0,0,0,126,0,126,0,126,0,0,0,126,126,126,126,Fri Sep 20 13:46:07 2019,600,The main experiment item,yes,FlankerTask.osexp,/Users/kaylicolpitts/Desktop/adv quant/lab 2,no,mono,no,18,no,white,no,no,768,legacy,46,79,/Users/kaylicolpitts/Desktop/adv quant/lab 2/KC-subject-1.csv,legacy,Kafkaesque Koffka,3.2.8,0,h,NA,h,space,NA,h,473,NA,5163,3379,NA,473,2,legacy,1024,2,48000,-16,experiment,SSHSS,1,odd,244312,8663,162002,NA,240284,3394,215784,NA,245427,3486,158620,NA,245561,246039,245393,245561,FlankerTask,117,62557,127,yes,1024
92.1875,92.1875,492.390625,492.390625,black,legacy,legacy,legacy,0,incongruent,uniform,1,undefined,1,h,127,0,0,0,127,0,127,0,127,0,0,0,127,127,127,127,Fri Sep 20 13:46:07 2019,600,The main experiment item,yes,FlankerTask.osexp,/Users/kaylicolpitts/Desktop/adv quant/lab 2,no,mono,no,18,no,white,no,no,768,legacy,47,79,/Users/kaylicolpitts/Desktop/adv quant/lab 2/KC-subject-1.csv,legacy,Kafkaesque Koffka,3.2.8,0,h,NA,h,space,NA,h,469,NA,5163,3379,NA,469,2,legacy,1024,2,48000,-16,experiment,SSHSS,1,odd,246080,8663,162002,NA,240284,3394,215784,NA,247206,3486,158620,NA,247340,247812,247172,247340,FlankerTask,118,63026,128,yes,1024
92.24806202,92.24806202,492.5193798,492.5193798,black,legacy,legacy,legacy,0,incongruent,uniform,1,undefined,1,s,128,0,0,0,128,0,128,0,128,0,0,0,128,128,128,128,Fri Sep 20 13:46:07 2019,600,The main experiment item,yes,FlankerTask.osexp,/Users/kaylicolpitts/Desktop/adv quant/lab 2,no,mono,no,18,no,white,no,no,768,legacy,48,79,/Users/kaylicolpitts/Desktop/adv quant/lab 2/KC-subject-1.csv,legacy,Kafkaesque Koffka,3.2.8,0,s,NA,h,space,NA,s,509,NA,5163,3379,NA,509,2,legacy,1024,2,48000,-16,experiment,HHSHH,1,odd,247849,8663,162002,NA,240284,3394,215784,NA,248964,3486,158620,NA,249100,249613,248930,249099,FlankerTask,119,63535,129,yes,1024
92.30769231,92.30769231,492.2,492.2,black,legacy,legacy,legacy,0,congruent,uniform,1,undefined,1,s,129,0,0,0,129,0,129,0,129,0,0,0,129,129,129,129,Fri Sep 20 13:46:07 2019,600,The main experiment item,yes,FlankerTask.osexp,/Users/kaylicolpitts/Desktop/adv quant/lab 2,no,mono,no,18,no,white,no,no,768,legacy,49,79,/Users/kaylicolpitts/Desktop/adv quant/lab 2/KC-subject-1.csv,legacy,Kafkaesque Koffka,3.2.8,0,s,NA,h,space,NA,s,451,NA,5163,3379,NA,451,2,legacy,1024,2,48000,-16,experiment,SSSSS,1,odd,249651,8663,162002,NA,240284,3394,215784,NA,250781,3486,158620,NA,250916,251370,250746,250916,FlankerTask,120,63986,130,yes,1024
92.36641221,92.36641221,492.480916,492.480916,black,legacy,legacy,legacy,0,incongruent,uniform,1,undefined,1,s,130,0,0,0,130,0,130,0,130,0,0,0,130,130,130,130,Fri Sep 20 13:46:07 2019,600,The main experiment item,yes,FlankerTask.osexp,/Users/kaylicolpitts/Desktop/adv quant/lab 2,no,mono,no,18,no,white,no,no,768,legacy,50,79,/Users/kaylicolpitts/Desktop/adv quant/lab 2/KC-subject-1.csv,legacy,Kafkaesque Koffka,3.2.8,0,s,NA,h,space,NA,s,529,NA,5163,3379,NA,529,2,legacy,1024,2,48000,-16,experiment,HHSHH,1,odd,251406,8663,162002,NA,240284,3394,215784,NA,252521,3486,158620,NA,252655,253188,252487,252655,FlankerTask,121,64515,131,yes,1024
92.42424242,92.42424242,492.6439394,492.6439394,black,legacy,legacy,legacy,0,congruent,uniform,1,undefined,1,h,131,0,0,0,131,0,131,0,131,0,0,0,131,131,131,131,Fri Sep 20 13:46:07 2019,600,The main experiment item,yes,FlankerTask.osexp,/Users/kaylicolpitts/Desktop/adv quant/lab 2,no,mono,no,18,no,white,no,no,768,legacy,51,79,/Users/kaylicolpitts/Desktop/adv quant/lab 2/KC-subject-1.csv,legacy,Kafkaesque Koffka,3.2.8,0,h,NA,h,space,NA,h,514,NA,5163,3379,NA,514,2,legacy,1024,2,48000,-16,experiment,HHHHH,1,odd,253226,8663,162002,NA,240284,3394,215784,NA,254352,3486,158620,NA,254486,255004,254319,254486,FlankerTask,122,65029,132,yes,1024
92.48120301,92.48120301,493.2406015,493.2406015,black,legacy,legacy,legacy,0,congruent,uniform,1,undefined,1,h,132,0,0,0,132,0,132,0,132,0,0,0,132,132,132,132,Fri Sep 20 13:46:07 2019,600,The main experiment item,yes,FlankerTask.osexp,/Users/kaylicolpitts/Desktop/adv quant/lab 2,no,mono,no,18,no,white,no,no,768,legacy,52,79,/Users/kaylicolpitts/Desktop/adv quant/lab 2/KC-subject-1.csv,legacy,Kafkaesque Koffka,3.2.8,0,h,NA,h,space,NA,h,572,NA,5163,3379,NA,572,2,legacy,1024,2,48000,-16,experiment,HHHHH,1,odd,255040,8663,162002,NA,240284,3394,215784,NA,256155,3486,158620,NA,256289,256865,256120,256289,FlankerTask,123,65601,133,yes,1024
92.53731343,92.53731343,493.2985075,493.2985075,black,legacy,legacy,legacy,0,congruent,uniform,1,undefined,1,s,133,0,0,0,133,0,133,0,133,0,0,0,133,133,133,133,Fri Sep 20 13:46:07 2019,600,The main experiment item,yes,FlankerTask.osexp,/Users/kaylicolpitts/Desktop/adv quant/lab 2,no,mono,no,18,no,white,no,no,768,legacy,53,79,/Users/kaylicolpitts/Desktop/adv quant/lab 2/KC-subject-1.csv,legacy,Kafkaesque Koffka,3.2.8,0,s,NA,h,space,NA,s,501,NA,5163,3379,NA,501,2,legacy,1024,2,48000,-16,experiment,SSSSS,1,odd,256906,8663,162002,NA,240284,3394,215784,NA,258025,3486,158620,NA,258161,258665,257993,258161,FlankerTask,124,66102,134,yes,1024
92.59259259,92.59259259,494.037037,494.037037,black,legacy,legacy,legacy,0,incongruent,uniform,1,undefined,1,h,134,0,0,0,134,0,134,0,134,0,0,0,134,134,134,134,Fri Sep 20 13:46:07 2019,600,The main experiment item,yes,FlankerTask.osexp,/Users/kaylicolpitts/Desktop/adv quant/lab 2,no,mono,no,18,no,white,no,no,768,legacy,54,79,/Users/kaylicolpitts/Desktop/adv quant/lab 2/KC-subject-1.csv,legacy,Kafkaesque Koffka,3.2.8,0,h,NA,h,space,NA,h,593,NA,5163,3379,NA,593,2,legacy,1024,2,48000,-16,experiment,SSHSS,1,odd,258726,8663,162002,NA,240284,3394,215784,NA,259842,3486,158620,NA,259977,260574,259808,259977,FlankerTask,125,66695,135,yes,1024
92.64705882,92.64705882,493.8823529,493.8823529,black,legacy,legacy,legacy,0,congruent,uniform,1,undefined,1,h,135,0,0,0,135,0,135,0,135,0,0,0,135,135,135,135,Fri Sep 20 13:46:07 2019,600,The main experiment item,yes,FlankerTask.osexp,/Users/kaylicolpitts/Desktop/adv quant/lab 2,no,mono,no,18,no,white,no,no,768,legacy,55,79,/Users/kaylicolpitts/Desktop/adv quant/lab 2/KC-subject-1.csv,legacy,Kafkaesque Koffka,3.2.8,0,h,NA,h,space,NA,h,473,NA,5163,3379,NA,473,2,legacy,1024,2,48000,-16,experiment,HHHHH,1,odd,260615,8663,162002,NA,240284,3394,215784,NA,261731,3486,158620,NA,261864,262342,261698,261864,FlankerTask,126,67168,136,yes,1024
92.70072993,92.70072993,492.9270073,492.9270073,black,legacy,legacy,legacy,0,congruent,uniform,1,undefined,1,h,136,0,0,0,136,0,136,0,136,0,0,0,136,136,136,136,Fri Sep 20 13:46:07 2019,600,The main experiment item,yes,FlankerTask.osexp,/Users/kaylicolpitts/Desktop/adv quant/lab 2,no,mono,no,18,no,white,no,no,768,legacy,56,79,/Users/kaylicolpitts/Desktop/adv quant/lab 2/KC-subject-1.csv,legacy,Kafkaesque Koffka,3.2.8,0,h,NA,h,space,NA,h,363,NA,5163,3379,NA,363,2,legacy,1024,2,48000,-16,experiment,HHHHH,1,odd,262390,8663,162002,NA,240284,3394,215784,NA,263505,3486,158620,NA,263642,264010,263472,263641,FlankerTask,127,67531,137,yes,1024
92.02898551,92.02898551,492.5652174,492.5652174,black,legacy,legacy,legacy,0,incongruent,uniform,0,undefined,0,h,137,0,0,0,137,0,137,0,137,0,0,0,137,137,137,137,Fri Sep 20 13:46:07 2019,600,The main experiment item,yes,FlankerTask.osexp,/Users/kaylicolpitts/Desktop/adv quant/lab 2,no,mono,no,18,no,white,no,no,768,legacy,57,79,/Users/kaylicolpitts/Desktop/adv quant/lab 2/KC-subject-1.csv,legacy,Kafkaesque Koffka,3.2.8,0,s,NA,h,space,NA,s,443,NA,5163,3379,NA,443,2,legacy,1024,2,48000,-16,experiment,SSHSS,1,odd,264047,8663,162002,NA,240284,3394,215784,NA,265161,3486,158620,NA,265296,265743,265128,265296,FlankerTask,127,67974,138,yes,1024
92.08633094,92.08633094,491.9064748,491.9064748,black,legacy,legacy,legacy,0,congruent,uniform,1,undefined,1,h,138,0,0,0,138,0,138,0,138,0,0,0,138,138,138,138,Fri Sep 20 13:46:07 2019,600,The main experiment item,yes,FlankerTask.osexp,/Users/kaylicolpitts/Desktop/adv quant/lab 2,no,mono,no,18,no,white,no,no,768,legacy,58,79,/Users/kaylicolpitts/Desktop/adv quant/lab 2/KC-subject-1.csv,legacy,Kafkaesque Koffka,3.2.8,0,h,NA,h,space,NA,h,401,NA,5163,3379,NA,401,2,legacy,1024,2,48000,-16,experiment,HHHHH,1,odd,266320,8663,162002,NA,265786,3394,215784,NA,267436,3486,158620,NA,267571,267977,267402,267571,FlankerTask,128,68375,139,yes,1024
92.14285714,92.14285714,492.0357143,492.0357143,black,legacy,legacy,legacy,0,congruent,uniform,1,undefined,1,s,139,0,0,0,139,0,139,0,139,0,0,0,139,139,139,139,Fri Sep 20 13:46:07 2019,600,The main experiment item,yes,FlankerTask.osexp,/Users/kaylicolpitts/Desktop/adv quant/lab 2,no,mono,no,18,no,white,no,no,768,legacy,59,79,/Users/kaylicolpitts/Desktop/adv quant/lab 2/KC-subject-1.csv,legacy,Kafkaesque Koffka,3.2.8,0,s,NA,h,space,NA,s,510,NA,5163,3379,NA,510,2,legacy,1024,2,48000,-16,experiment,SSSSS,1,odd,268014,8663,162002,NA,265786,3394,215784,NA,269133,3486,158620,NA,269267,269780,269100,269267,FlankerTask,129,68885,140,yes,1024
92.19858156,92.19858156,491.3758865,491.3758865,black,legacy,legacy,legacy,0,congruent,uniform,1,undefined,1,s,140,0,0,0,140,0,140,0,140,0,0,0,140,140,140,140,Fri Sep 20 13:46:07 2019,600,The main experiment item,yes,FlankerTask.osexp,/Users/kaylicolpitts/Desktop/adv quant/lab 2,no,mono,no,18,no,white,no,no,768,legacy,60,79,/Users/kaylicolpitts/Desktop/adv quant/lab 2/KC-subject-1.csv,legacy,Kafkaesque Koffka,3.2.8,0,s,NA,h,space,NA,s,399,NA,5163,3379,NA,399,2,legacy,1024,2,48000,-16,experiment,SSSSS,1,odd,269817,8663,162002,NA,265786,3394,215784,NA,270932,3486,158620,NA,271067,271471,270897,271067,FlankerTask,130,69284,141,yes,1024
92.25352113,92.25352113,491.7605634,491.7605634,black,legacy,legacy,legacy,0,incongruent,uniform,1,undefined,1,s,141,0,0,0,141,0,141,0,141,0,0,0,141,141,141,141,Fri Sep 20 13:46:07 2019,600,The main experiment item,yes,FlankerTask.osexp,/Users/kaylicolpitts/Desktop/adv quant/lab 2,no,mono,no,18,no,white,no,no,768,legacy,61,79,/Users/kaylicolpitts/Desktop/adv quant/lab 2/KC-subject-1.csv,legacy,Kafkaesque Koffka,3.2.8,0,s,NA,h,space,NA,s,546,NA,5163,3379,NA,546,2,legacy,1024,2,48000,-16,experiment,HHSHH,1,odd,271509,8663,162002,NA,265786,3394,215784,NA,272637,3486,158620,NA,272771,273322,272604,272771,FlankerTask,131,69830,142,yes,1024
92.30769231,92.30769231,491.965035,491.965035,black,legacy,legacy,legacy,0,incongruent,uniform,1,undefined,1,h,142,0,0,0,142,0,142,0,142,0,0,0,142,142,142,142,Fri Sep 20 13:46:07 2019,600,The main experiment item,yes,FlankerTask.osexp,/Users/kaylicolpitts/Desktop/adv quant/lab 2,no,mono,no,18,no,white,no,no,768,legacy,62,79,/Users/kaylicolpitts/Desktop/adv quant/lab 2/KC-subject-1.csv,legacy,Kafkaesque Koffka,3.2.8,0,h,NA,h,space,NA,h,521,NA,5163,3379,NA,521,2,legacy,1024,2,48000,-16,experiment,SSHSS,1,odd,273359,8663,162002,NA,265786,3394,215784,NA,274475,3486,158620,NA,274610,275135,274441,274610,FlankerTask,132,70351,143,yes,1024
92.36111111,92.36111111,492.5486111,492.5486111,black,legacy,legacy,legacy,0,incongruent,uniform,1,undefined,1,s,143,0,0,0,143,0,143,0,143,0,0,0,143,143,143,143,Fri Sep 20 13:46:07 2019,600,The main experiment item,yes,FlankerTask.osexp,/Users/kaylicolpitts/Desktop/adv quant/lab 2,no,mono,no,18,no,white,no,no,768,legacy,63,79,/Users/kaylicolpitts/Desktop/adv quant/lab 2/KC-subject-1.csv,legacy,Kafkaesque Koffka,3.2.8,0,s,NA,h,space,NA,s,576,NA,5163,3379,NA,576,2,legacy,1024,2,48000,-16,experiment,HHSHH,1,odd,275171,8663,162002,NA,265786,3394,215784,NA,276285,3486,158620,NA,276418,277000,276251,276418,FlankerTask,133,70927,144,yes,1024
92.4137931,92.4137931,492.5862069,492.5862069,black,legacy,legacy,legacy,0,incongruent,uniform,1,undefined,1,s,144,0,0,0,144,0,144,0,144,0,0,0,144,144,144,144,Fri Sep 20 13:46:07 2019,600,The main experiment item,yes,FlankerTask.osexp,/Users/kaylicolpitts/Desktop/adv quant/lab 2,no,mono,no,18,no,white,no,no,768,legacy,64,79,/Users/kaylicolpitts/Desktop/adv quant/lab 2/KC-subject-1.csv,legacy,Kafkaesque Koffka,3.2.8,0,s,NA,h,space,NA,s,498,NA,5163,3379,NA,498,2,legacy,1024,2,48000,-16,experiment,HHSHH,1,odd,277044,8663,162002,NA,265786,3394,215784,NA,278169,3486,158620,NA,278305,278807,278134,278304,FlankerTask,134,71425,145,yes,1024
92.46575342,92.46575342,492.1780822,492.1780822,black,legacy,legacy,legacy,0,incongruent,uniform,1,undefined,1,s,145,0,0,0,145,0,145,0,145,0,0,0,145,145,145,145,Fri Sep 20 13:46:07 2019,600,The main experiment item,yes,FlankerTask.osexp,/Users/kaylicolpitts/Desktop/adv quant/lab 2,no,mono,no,18,no,white,no,no,768,legacy,65,79,/Users/kaylicolpitts/Desktop/adv quant/lab 2/KC-subject-1.csv,legacy,Kafkaesque Koffka,3.2.8,0,s,NA,h,space,NA,s,433,NA,5163,3379,NA,433,2,legacy,1024,2,48000,-16,experiment,HHSHH,1,odd,278843,8663,162002,NA,265786,3394,215784,NA,279958,3486,158620,NA,280092,280530,279924,280092,FlankerTask,135,71858,146,yes,1024
92.5170068,92.5170068,492.9591837,492.9591837,black,legacy,legacy,legacy,0,incongruent,uniform,1,undefined,1,h,146,0,0,0,146,0,146,0,146,0,0,0,146,146,146,146,Fri Sep 20 13:46:07 2019,600,The main experiment item,yes,FlankerTask.osexp,/Users/kaylicolpitts/Desktop/adv quant/lab 2,no,mono,no,18,no,white,no,no,768,legacy,66,79,/Users/kaylicolpitts/Desktop/adv quant/lab 2/KC-subject-1.csv,legacy,Kafkaesque Koffka,3.2.8,0,h,NA,h,space,NA,h,607,NA,5163,3379,NA,607,2,legacy,1024,2,48000,-16,experiment,SSHSS,1,odd,280570,8663,162002,NA,265786,3394,215784,NA,281704,3486,158620,NA,281838,282449,281666,281838,FlankerTask,136,72465,147,yes,1024
92.56756757,92.56756757,492.722973,492.722973,black,legacy,legacy,legacy,0,congruent,uniform,1,undefined,1,h,147,0,0,0,147,0,147,0,147,0,0,0,147,147,147,147,Fri Sep 20 13:46:07 2019,600,The main experiment item,yes,FlankerTask.osexp,/Users/kaylicolpitts/Desktop/adv quant/lab 2,no,mono,no,18,no,white,no,no,768,legacy,67,79,/Users/kaylicolpitts/Desktop/adv quant/lab 2/KC-subject-1.csv,legacy,Kafkaesque Koffka,3.2.8,0,h,NA,h,space,NA,h,458,NA,5163,3379,NA,458,2,legacy,1024,2,48000,-16,experiment,HHHHH,1,odd,283020,8663,162002,NA,265786,3394,282486,NA,284135,3486,158620,NA,284271,284746,284102,284271,FlankerTask,137,72923,148,yes,1024
92.61744966,92.61744966,493.1208054,493.1208054,black,legacy,legacy,legacy,0,incongruent,uniform,1,undefined,1,s,148,0,0,0,148,0,148,0,148,0,0,0,148,148,148,148,Fri Sep 20 13:46:07 2019,600,The main experiment item,yes,FlankerTask.osexp,/Users/kaylicolpitts/Desktop/adv quant/lab 2,no,mono,no,18,no,white,no,no,768,legacy,68,79,/Users/kaylicolpitts/Desktop/adv quant/lab 2/KC-subject-1.csv,legacy,Kafkaesque Koffka,3.2.8,0,s,NA,h,space,NA,s,552,NA,5163,3379,NA,552,2,legacy,1024,2,48000,-16,experiment,HHSHH,1,odd,284786,8663,162002,NA,265786,3394,282486,NA,285901,3486,158620,NA,286035,286591,285867,286035,FlankerTask,138,73475,149,yes,1024
92.66666667,92.66666667,493.1266667,493.1266667,black,legacy,legacy,legacy,0,congruent,uniform,1,undefined,1,h,149,0,0,0,149,0,149,0,149,0,0,0,149,149,149,149,Fri Sep 20 13:46:07 2019,600,The main experiment item,yes,FlankerTask.osexp,/Users/kaylicolpitts/Desktop/adv quant/lab 2,no,mono,no,18,no,white,no,no,768,legacy,69,79,/Users/kaylicolpitts/Desktop/adv quant/lab 2/KC-subject-1.csv,legacy,Kafkaesque Koffka,3.2.8,0,h,NA,h,space,NA,h,494,NA,5163,3379,NA,494,2,legacy,1024,2,48000,-16,experiment,HHHHH,1,odd,286627,8663,162002,NA,265786,3394,282486,NA,287744,3486,158620,NA,287878,288377,287709,287878,FlankerTask,139,73969,150,yes,1024
92.71523179,92.71523179,493.013245,493.013245,black,legacy,legacy,legacy,0,congruent,uniform,1,undefined,1,h,150,0,0,0,150,0,150,0,150,0,0,0,150,150,150,150,Fri Sep 20 13:46:07 2019,600,The main experiment item,yes,FlankerTask.osexp,/Users/kaylicolpitts/Desktop/adv quant/lab 2,no,mono,no,18,no,white,no,no,768,legacy,70,79,/Users/kaylicolpitts/Desktop/adv quant/lab 2/KC-subject-1.csv,legacy,Kafkaesque Koffka,3.2.8,0,h,NA,h,space,NA,h,476,NA,5163,3379,NA,476,2,legacy,1024,2,48000,-16,experiment,HHHHH,1,odd,288412,8663,162002,NA,265786,3394,282486,NA,289526,3486,158620,NA,289661,290141,289492,289661,FlankerTask,140,74445,151,yes,1024
92.76315789,92.76315789,492.75,492.75,black,legacy,legacy,legacy,0,congruent,uniform,1,undefined,1,s,151,0,0,0,151,0,151,0,151,0,0,0,151,151,151,151,Fri Sep 20 13:46:07 2019,600,The main experiment item,yes,FlankerTask.osexp,/Users/kaylicolpitts/Desktop/adv quant/lab 2,no,mono,no,18,no,white,no,no,768,legacy,71,79,/Users/kaylicolpitts/Desktop/adv quant/lab 2/KC-subject-1.csv,legacy,Kafkaesque Koffka,3.2.8,0,s,NA,h,space,NA,s,453,NA,5163,3379,NA,453,2,legacy,1024,2,48000,-16,experiment,SSSSS,1,odd,290181,8663,162002,NA,265786,3394,282486,NA,291309,3486,158620,NA,291443,291900,291275,291443,FlankerTask,141,74898,152,yes,1024
92.81045752,92.81045752,492.248366,492.248366,black,legacy,legacy,legacy,0,incongruent,uniform,1,undefined,1,h,152,0,0,0,152,0,152,0,152,0,0,0,152,152,152,152,Fri Sep 20 13:46:07 2019,600,The main experiment item,yes,FlankerTask.osexp,/Users/kaylicolpitts/Desktop/adv quant/lab 2,no,mono,no,18,no,white,no,no,768,legacy,72,79,/Users/kaylicolpitts/Desktop/adv quant/lab 2/KC-subject-1.csv,legacy,Kafkaesque Koffka,3.2.8,0,h,NA,h,space,NA,h,416,NA,5163,3379,NA,416,2,legacy,1024,2,48000,-16,experiment,SSHSS,1,odd,291937,8663,162002,NA,265786,3394,282486,NA,293052,3486,158620,NA,293189,293610,293017,293188,FlankerTask,142,75314,153,yes,1024
92.85714286,92.85714286,492.4480519,492.4480519,black,legacy,legacy,legacy,0,incongruent,uniform,1,undefined,1,s,153,0,0,0,153,0,153,0,153,0,0,0,153,153,153,153,Fri Sep 20 13:46:07 2019,600,The main experiment item,yes,FlankerTask.osexp,/Users/kaylicolpitts/Desktop/adv quant/lab 2,no,mono,no,18,no,white,no,no,768,legacy,73,79,/Users/kaylicolpitts/Desktop/adv quant/lab 2/KC-subject-1.csv,legacy,Kafkaesque Koffka,3.2.8,0,s,NA,h,space,NA,s,523,NA,5163,3379,NA,523,2,legacy,1024,2,48000,-16,experiment,HHSHH,1,odd,293650,8663,162002,NA,265786,3394,282486,NA,294774,3486,158620,NA,294909,295435,294740,294909,FlankerTask,143,75837,154,yes,1024
92.90322581,92.90322581,492.2903226,492.2903226,black,legacy,legacy,legacy,0,incongruent,uniform,1,undefined,1,s,154,0,0,0,154,0,154,0,154,0,0,0,154,154,154,154,Fri Sep 20 13:46:07 2019,600,The main experiment item,yes,FlankerTask.osexp,/Users/kaylicolpitts/Desktop/adv quant/lab 2,no,mono,no,18,no,white,no,no,768,legacy,74,79,/Users/kaylicolpitts/Desktop/adv quant/lab 2/KC-subject-1.csv,legacy,Kafkaesque Koffka,3.2.8,0,s,NA,h,space,NA,s,468,NA,5163,3379,NA,468,2,legacy,1024,2,48000,-16,experiment,HHSHH,1,odd,295472,8663,162002,NA,265786,3394,282486,NA,296592,3486,158620,NA,296726,297198,296556,296726,FlankerTask,144,76305,155,yes,1024
92.94871795,92.94871795,492.1730769,492.1730769,black,legacy,legacy,legacy,0,congruent,uniform,1,undefined,1,h,155,0,0,0,155,0,155,0,155,0,0,0,155,155,155,155,Fri Sep 20 13:46:07 2019,600,The main experiment item,yes,FlankerTask.osexp,/Users/kaylicolpitts/Desktop/adv quant/lab 2,no,mono,no,18,no,white,no,no,768,legacy,75,79,/Users/kaylicolpitts/Desktop/adv quant/lab 2/KC-subject-1.csv,legacy,Kafkaesque Koffka,3.2.8,0,h,NA,h,space,NA,h,474,NA,5163,3379,NA,474,2,legacy,1024,2,48000,-16,experiment,HHHHH,1,odd,297233,8663,162002,NA,265786,3394,282486,NA,298349,3486,158620,NA,298483,298961,298314,298483,FlankerTask,145,76779,156,yes,1024
92.99363057,92.99363057,492.5796178,492.5796178,black,legacy,legacy,legacy,0,incongruent,uniform,1,undefined,1,h,156,0,0,0,156,0,156,0,156,0,0,0,156,156,156,156,Fri Sep 20 13:46:07 2019,600,The main experiment item,yes,FlankerTask.osexp,/Users/kaylicolpitts/Desktop/adv quant/lab 2,no,mono,no,18,no,white,no,no,768,legacy,76,79,/Users/kaylicolpitts/Desktop/adv quant/lab 2/KC-subject-1.csv,legacy,Kafkaesque Koffka,3.2.8,0,h,NA,h,space,NA,h,556,NA,5163,3379,NA,556,2,legacy,1024,2,48000,-16,experiment,SSHSS,1,odd,299002,8663,162002,NA,265786,3394,282486,NA,300127,3486,158620,NA,300261,300820,300092,300261,FlankerTask,146,77335,157,yes,1024
93.03797468,93.03797468,492.7721519,492.7721519,black,legacy,legacy,legacy,0,congruent,uniform,1,undefined,1,s,157,0,0,0,157,0,157,0,157,0,0,0,157,157,157,157,Fri Sep 20 13:46:07 2019,600,The main experiment item,yes,FlankerTask.osexp,/Users/kaylicolpitts/Desktop/adv quant/lab 2,no,mono,no,18,no,white,no,no,768,legacy,77,79,/Users/kaylicolpitts/Desktop/adv quant/lab 2/KC-subject-1.csv,legacy,Kafkaesque Koffka,3.2.8,0,s,NA,h,space,NA,s,523,NA,5163,3379,NA,523,2,legacy,1024,2,48000,-16,experiment,SSSSS,1,odd,300857,8663,162002,NA,265786,3394,282486,NA,301970,3486,158620,NA,302106,302633,301937,302106,FlankerTask,147,77858,158,yes,1024
