acc,accuracy,average_response_time,avg_rt,background,canvas_backend,clock_backend,color_backend,compensation,condition,coordinates,correct,correct_Instructions1,correct_new_keyboard_response,correct_response,count_Block1,count_Block2,count_Block3,count_ErrorFeedback,count_Faster,count_Finish,count_Fixation,count_ISI,count_Instructions1,count_Instructions2,count_Instructions3,count_Stimulus,count_experiment,count_new_keyboard_response,count_new_logger,count_new_sequence,datetime,deadline,description,disable_garbage_collection,experiment_file,experiment_path,font_bold,font_family,font_italic,font_size,font_underline,foreground,form_clicks,fullscreen,height,keyboard_backend,live_row,live_row_Block1,logfile,mouse_backend,opensesame_codename,opensesame_version,repeat_cycle,response,response_Finish,response_Instructions1,response_Instructions2,response_Instructions3,response_new_keyboard_response,response_time,response_time_Finish,response_time_Instructions1,response_time_Instructions2,response_time_Instructions3,response_time_new_keyboard_response,round_decimals,sampler_backend,sound_buf_size,sound_channels,sound_freq,sound_sample_size,start,stimulus,subject_nr,subject_parity,time_Block1,time_Block2,time_Block3,time_ErrorFeedback,time_Faster,time_Finish,time_Fixation,time_ISI,time_Instructions1,time_Instructions2,time_Instructions3,time_Stimulus,time_experiment,time_new_keyboard_response,time_new_logger,time_new_sequence,title,total_correct,total_response_time,total_responses,uniform_coordinates,width
100,100,935,935,black,xpyriment,legacy,legacy,0,Incongruent,uniform,1,undefined,1,s,0,0,0,0,0,0,0,0,0,0,0,0,0,0,0,0,9/25/19 9:27,1500,The main experiment item,yes,FlankerTask.osexp,C:\Users\hosan\Desktop,no,mono,no,18,no,white,no,yes,768,legacy,0,0,C:/Users/hosan/Desktop/TB_subject-01.csv,xpyriment,Kafkaesque Koffka,3.2.8,0,s,NA,s,NA,NA,s,935,NA,15129,NA,NA,935,2,legacy,1024,2,48000,-16,experiment,HHSHH,1,odd,21851,NA,NA,NA,NA,NA,23029,NA,6721,NA,NA,23136,6687,23136,24072,23003,Flanker Task ,1,935,1,yes,1024
100,100,718.5,718.5,black,xpyriment,legacy,legacy,0,Incongruent,uniform,1,undefined,1,h,0,0,0,1,1,0,1,1,0,0,0,1,0,1,1,1,9/25/19 9:27,1500,The main experiment item,yes,FlankerTask.osexp,C:\Users\hosan\Desktop,no,mono,no,18,no,white,no,yes,768,legacy,1,1,C:/Users/hosan/Desktop/TB_subject-01.csv,xpyriment,Kafkaesque Koffka,3.2.8,0,h,NA,s,NA,NA,h,502,NA,15129,NA,NA,502,2,legacy,1024,2,48000,-16,experiment,SSHSS,1,odd,21851,NA,NA,NA,NA,NA,26039,24203,6721,NA,NA,26147,6687,26147,26650,26015,Flanker Task ,2,1437,2,yes,1024
100,100,603.6666667,603.6666667,black,xpyriment,legacy,legacy,0,Congruent,uniform,1,undefined,1,s,0,0,0,2,2,0,2,2,0,0,0,2,0,2,2,2,9/25/19 9:27,1500,The main experiment item,yes,FlankerTask.osexp,C:\Users\hosan\Desktop,no,mono,no,18,no,white,no,yes,768,legacy,2,2,C:/Users/hosan/Desktop/TB_subject-01.csv,xpyriment,Kafkaesque Koffka,3.2.8,0,s,NA,s,NA,NA,s,374,NA,15129,NA,NA,374,2,legacy,1024,2,48000,-16,experiment,SSSSS,1,odd,21851,NA,NA,NA,NA,NA,28597,26741,6721,NA,NA,28703,6687,28703,29078,28572,Flanker Task ,3,1811,3,yes,1024
100,100,566.25,566.25,black,xpyriment,legacy,legacy,0,Congruent,uniform,1,undefined,1,s,0,0,0,3,3,0,3,3,0,0,0,3,0,3,3,3,9/25/19 9:27,1500,The main experiment item,yes,FlankerTask.osexp,C:\Users\hosan\Desktop,no,mono,no,18,no,white,no,yes,768,legacy,3,3,C:/Users/hosan/Desktop/TB_subject-01.csv,xpyriment,Kafkaesque Koffka,3.2.8,0,s,NA,s,NA,NA,s,454,NA,15129,NA,NA,454,2,legacy,1024,2,48000,-16,experiment,SSSSS,1,odd,21851,NA,NA,NA,NA,NA,31095,29250,6721,NA,NA,31201,6687,31202,31656,31071,Flanker Task ,4,2265,4,yes,1024
100,100,545.4,545.4,black,xpyriment,legacy,legacy,0,Incongruent,uniform,1,undefined,1,h,0,0,0,4,4,0,4,4,0,0,0,4,0,4,4,4,9/25/19 9:27,1500,The main experiment item,yes,FlankerTask.osexp,C:\Users\hosan\Desktop,no,mono,no,18,no,white,no,yes,768,legacy,4,4,C:/Users/hosan/Desktop/TB_subject-01.csv,xpyriment,Kafkaesque Koffka,3.2.8,0,h,NA,s,NA,NA,h,462,NA,15129,NA,NA,462,2,legacy,1024,2,48000,-16,experiment,SSHSS,1,odd,21851,NA,NA,NA,NA,NA,34019,31746,6721,NA,NA,34126,6687,34126,34588,33994,Flanker Task ,5,2727,5,yes,1024
100,100,539.8333333,539.8333333,black,xpyriment,legacy,legacy,0,Incongruent,uniform,1,undefined,1,s,0,0,0,5,5,0,5,5,0,0,0,5,0,5,5,5,9/25/19 9:27,1500,The main experiment item,yes,FlankerTask.osexp,C:\Users\hosan\Desktop,no,mono,no,18,no,white,no,yes,768,legacy,5,5,C:/Users/hosan/Desktop/TB_subject-01.csv,xpyriment,Kafkaesque Koffka,3.2.8,0,s,NA,s,NA,NA,s,512,NA,15129,NA,NA,512,2,legacy,1024,2,48000,-16,experiment,HHSHH,1,odd,21851,NA,NA,NA,NA,NA,36611,34761,6721,NA,NA,36718,6687,36719,37232,36587,Flanker Task ,6,3239,6,yes,1024
85.71428571,85.71428571,525.4285714,525.4285714,black,xpyriment,legacy,legacy,0,Incongruent,uniform,0,undefined,0,h,0,0,0,6,6,0,6,6,0,0,0,6,0,6,6,6,9/25/19 9:27,1500,The main experiment item,yes,FlankerTask.osexp,C:\Users\hosan\Desktop,no,mono,no,18,no,white,no,yes,768,legacy,6,6,C:/Users/hosan/Desktop/TB_subject-01.csv,xpyriment,Kafkaesque Koffka,3.2.8,0,s,NA,s,NA,NA,s,439,NA,15129,NA,NA,439,2,legacy,1024,2,48000,-16,experiment,SSHSS,1,odd,21851,NA,NA,NA,NA,NA,39212,37315,6721,NA,NA,39318,6687,39318,39757,39187,Flanker Task ,6,3678,7,yes,1024
87.5,87.5,514.125,514.125,black,xpyriment,legacy,legacy,0,Incongruent,uniform,1,undefined,1,h,0,0,0,7,7,0,7,7,0,0,0,7,0,7,7,7,9/25/19 9:27,1500,The main experiment item,yes,FlankerTask.osexp,C:\Users\hosan\Desktop,no,mono,no,18,no,white,no,yes,768,legacy,7,7,C:/Users/hosan/Desktop/TB_subject-01.csv,xpyriment,Kafkaesque Koffka,3.2.8,0,h,NA,s,NA,NA,h,435,NA,15129,NA,NA,435,2,legacy,1024,2,48000,-16,experiment,SSHSS,1,odd,21851,NA,NA,39945,NA,NA,42273,40452,6721,NA,NA,42379,6687,42379,42815,42249,Flanker Task ,7,4113,8,yes,1024
77.77777778,77.77777778,540.6666667,540.6666667,black,xpyriment,legacy,legacy,0,Congruent,uniform,0,undefined,0,h,0,0,0,8,8,0,8,8,0,0,0,8,0,8,8,8,9/25/19 9:27,1500,The main experiment item,yes,FlankerTask.osexp,C:\Users\hosan\Desktop,no,mono,no,18,no,white,no,yes,768,legacy,8,8,C:/Users/hosan/Desktop/TB_subject-01.csv,xpyriment,Kafkaesque Koffka,3.2.8,0,s,NA,s,NA,NA,s,753,NA,15129,NA,NA,753,2,legacy,1024,2,48000,-16,experiment,HHHHH,1,odd,21851,NA,NA,39945,NA,NA,44830,42999,6721,NA,NA,44936,6687,44936,45690,44804,Flanker Task ,7,4866,9,yes,1024
80,80,535.2,535.2,black,xpyriment,legacy,legacy,0,Congruent,uniform,1,undefined,1,h,0,0,0,9,9,0,9,9,0,0,0,9,0,9,9,9,9/25/19 9:27,1500,The main experiment item,yes,FlankerTask.osexp,C:\Users\hosan\Desktop,no,mono,no,18,no,white,no,yes,768,legacy,9,9,C:/Users/hosan/Desktop/TB_subject-01.csv,xpyriment,Kafkaesque Koffka,3.2.8,0,h,NA,s,NA,NA,h,486,NA,15129,NA,NA,486,2,legacy,1024,2,48000,-16,experiment,HHHHH,1,odd,21851,NA,NA,45760,NA,NA,48114,46267,6721,NA,NA,48219,6687,48220,48707,48089,Flanker Task ,8,5352,10,yes,1024
81.81818182,81.81818182,524.8181818,524.8181818,black,xpyriment,legacy,legacy,0,Congruent,uniform,1,undefined,1,h,0,0,0,10,10,0,10,10,0,0,0,10,0,10,10,10,9/25/19 9:27,1500,The main experiment item,yes,FlankerTask.osexp,C:\Users\hosan\Desktop,no,mono,no,18,no,white,no,yes,768,legacy,10,10,C:/Users/hosan/Desktop/TB_subject-01.csv,xpyriment,Kafkaesque Koffka,3.2.8,0,h,NA,s,NA,NA,h,421,NA,15129,NA,NA,421,2,legacy,1024,2,48000,-16,experiment,HHHHH,1,odd,21851,NA,NA,45760,NA,NA,50742,48910,6721,NA,NA,50849,6687,50849,51271,50718,Flanker Task ,9,5773,11,yes,1024
83.33333333,83.33333333,521.25,521.25,black,xpyriment,legacy,legacy,0,Incongruent,uniform,1,undefined,1,h,0,0,0,11,11,0,11,11,0,0,0,11,0,11,11,11,9/25/19 9:27,1500,The main experiment item,yes,FlankerTask.osexp,C:\Users\hosan\Desktop,no,mono,no,18,no,white,no,yes,768,legacy,11,11,C:/Users/hosan/Desktop/TB_subject-01.csv,xpyriment,Kafkaesque Koffka,3.2.8,0,h,NA,s,NA,NA,h,482,NA,15129,NA,NA,482,2,legacy,1024,2,48000,-16,experiment,SSHSS,1,odd,21851,NA,NA,45760,NA,NA,53165,51302,6721,NA,NA,53273,6687,53273,53756,53139,Flanker Task ,10,6255,12,yes,1024
84.61538462,84.61538462,516.0769231,516.0769231,black,xpyriment,legacy,legacy,0,Incongruent,uniform,1,undefined,1,s,0,0,0,12,12,0,12,12,0,0,0,12,0,12,12,12,9/25/19 9:27,1500,The main experiment item,yes,FlankerTask.osexp,C:\Users\hosan\Desktop,no,mono,no,18,no,white,no,yes,768,legacy,12,12,C:/Users/hosan/Desktop/TB_subject-01.csv,xpyriment,Kafkaesque Koffka,3.2.8,0,s,NA,s,NA,NA,s,454,NA,15129,NA,NA,454,2,legacy,1024,2,48000,-16,experiment,HHSHH,1,odd,21851,NA,NA,45760,NA,NA,55641,53801,6721,NA,NA,55747,6687,55747,56202,55617,Flanker Task ,11,6709,13,yes,1024
85.71428571,85.71428571,512.3571429,512.3571429,black,xpyriment,legacy,legacy,0,Incongruent,uniform,1,undefined,1,h,0,0,0,13,13,0,13,13,0,0,0,13,0,13,13,13,9/25/19 9:27,1500,The main experiment item,yes,FlankerTask.osexp,C:\Users\hosan\Desktop,no,mono,no,18,no,white,no,yes,768,legacy,13,13,C:/Users/hosan/Desktop/TB_subject-01.csv,xpyriment,Kafkaesque Koffka,3.2.8,0,h,NA,s,NA,NA,h,464,NA,15129,NA,NA,464,2,legacy,1024,2,48000,-16,experiment,SSHSS,1,odd,21851,NA,NA,45760,NA,NA,58414,56366,6721,NA,NA,58521,6687,58521,58986,58388,Flanker Task ,12,7173,14,yes,1024
86.66666667,86.66666667,507.5333333,507.5333333,black,xpyriment,legacy,legacy,0,Congruent,uniform,1,undefined,1,h,0,0,0,14,14,0,14,14,0,0,0,14,0,14,14,14,9/25/19 9:27,1500,The main experiment item,yes,FlankerTask.osexp,C:\Users\hosan\Desktop,no,mono,no,18,no,white,no,yes,768,legacy,14,14,C:/Users/hosan/Desktop/TB_subject-01.csv,xpyriment,Kafkaesque Koffka,3.2.8,0,h,NA,s,NA,NA,h,440,NA,15129,NA,NA,440,2,legacy,1024,2,48000,-16,experiment,HHHHH,1,odd,21851,NA,NA,45760,NA,NA,61081,59151,6721,NA,NA,61187,6687,61187,61628,61055,Flanker Task ,13,7613,15,yes,1024
87.5,87.5,501.4375,501.4375,black,xpyriment,legacy,legacy,0,Congruent,uniform,1,undefined,1,s,0,0,0,15,15,0,15,15,0,0,0,15,0,15,15,15,9/25/19 9:27,1500,The main experiment item,yes,FlankerTask.osexp,C:\Users\hosan\Desktop,no,mono,no,18,no,white,no,yes,768,legacy,15,15,C:/Users/hosan/Desktop/TB_subject-01.csv,xpyriment,Kafkaesque Koffka,3.2.8,0,s,NA,s,NA,NA,s,410,NA,15129,NA,NA,410,2,legacy,1024,2,48000,-16,experiment,SSSSS,1,odd,21851,NA,NA,45760,NA,NA,63681,61812,6721,NA,NA,63788,6687,63788,64199,63655,Flanker Task ,14,8023,16,yes,1024
88.23529412,88.23529412,502.4705882,502.4705882,black,xpyriment,legacy,legacy,0,Congruent,uniform,1,undefined,1,s,0,0,0,16,16,0,16,16,0,0,0,16,0,16,16,16,9/25/19 9:27,1500,The main experiment item,yes,FlankerTask.osexp,C:\Users\hosan\Desktop,no,mono,no,18,no,white,no,yes,768,legacy,16,16,C:/Users/hosan/Desktop/TB_subject-01.csv,xpyriment,Kafkaesque Koffka,3.2.8,0,s,NA,s,NA,NA,s,519,NA,15129,NA,NA,519,2,legacy,1024,2,48000,-16,experiment,SSSSS,1,odd,21851,NA,NA,45760,NA,NA,66481,64409,6721,NA,NA,66586,6687,66587,67106,66457,Flanker Task ,15,8542,17,yes,1024
88.88888889,88.88888889,498.9444444,498.9444444,black,xpyriment,legacy,legacy,0,Congruent,uniform,1,undefined,1,h,0,0,0,17,17,0,17,17,0,0,0,17,0,17,17,17,9/25/19 9:27,1500,The main experiment item,yes,FlankerTask.osexp,C:\Users\hosan\Desktop,no,mono,no,18,no,white,no,yes,768,legacy,17,17,C:/Users/hosan/Desktop/TB_subject-01.csv,xpyriment,Kafkaesque Koffka,3.2.8,0,h,NA,s,NA,NA,h,439,NA,15129,NA,NA,439,2,legacy,1024,2,48000,-16,experiment,HHHHH,1,odd,21851,NA,NA,45760,NA,NA,69027,67143,6721,NA,NA,69133,6687,69134,69574,69003,Flanker Task ,16,8981,18,yes,1024
89.47368421,89.47368421,497,497,black,xpyriment,legacy,legacy,0,Incongruent,uniform,1,undefined,1,h,0,0,0,18,18,0,18,18,0,0,0,18,0,18,18,18,9/25/19 9:27,1500,The main experiment item,yes,FlankerTask.osexp,C:\Users\hosan\Desktop,no,mono,no,18,no,white,no,yes,768,legacy,18,18,C:/Users/hosan/Desktop/TB_subject-01.csv,xpyriment,Kafkaesque Koffka,3.2.8,0,h,NA,s,NA,NA,h,462,NA,15129,NA,NA,462,2,legacy,1024,2,48000,-16,experiment,SSHSS,1,odd,21851,NA,NA,45760,NA,NA,71423,69599,6721,NA,NA,71530,6687,71530,71993,71398,Flanker Task ,17,9443,19,yes,1024
90,90,494.05,494.05,black,xpyriment,legacy,legacy,0,Congruent,uniform,1,undefined,1,s,0,0,0,19,19,0,19,19,0,0,0,19,0,19,19,19,9/25/19 9:27,1500,The main experiment item,yes,FlankerTask.osexp,C:\Users\hosan\Desktop,no,mono,no,18,no,white,no,yes,768,legacy,19,19,C:/Users/hosan/Desktop/TB_subject-01.csv,xpyriment,Kafkaesque Koffka,3.2.8,0,s,NA,s,NA,NA,s,438,NA,15129,NA,NA,438,2,legacy,1024,2,48000,-16,experiment,SSSSS,1,odd,21851,NA,NA,45760,NA,NA,73886,72035,6721,NA,NA,73993,6687,73993,74432,73862,Flanker Task ,18,9881,20,yes,1024
90.47619048,90.47619048,489.4761905,489.4761905,black,xpyriment,legacy,legacy,0,Incongruent,uniform,1,undefined,1,h,0,0,0,20,20,0,20,20,0,0,0,20,0,20,20,20,9/25/19 9:27,1500,The main experiment item,yes,FlankerTask.osexp,C:\Users\hosan\Desktop,no,mono,no,18,no,white,no,yes,768,legacy,20,20,C:/Users/hosan/Desktop/TB_subject-01.csv,xpyriment,Kafkaesque Koffka,3.2.8,0,h,NA,s,NA,NA,h,398,NA,15129,NA,NA,398,2,legacy,1024,2,48000,-16,experiment,SSHSS,1,odd,21851,NA,NA,45760,NA,NA,76307,74471,6721,NA,NA,76414,6687,76414,76813,76283,Flanker Task ,19,10279,21,yes,1024
90.90909091,90.90909091,488.6818182,488.6818182,black,xpyriment,legacy,legacy,0,Incongruent,uniform,1,undefined,1,h,0,0,0,21,21,0,21,21,0,0,0,21,0,21,21,21,9/25/19 9:27,1500,The main experiment item,yes,FlankerTask.osexp,C:\Users\hosan\Desktop,no,mono,no,18,no,white,no,yes,768,legacy,21,21,C:/Users/hosan/Desktop/TB_subject-01.csv,xpyriment,Kafkaesque Koffka,3.2.8,0,h,NA,s,NA,NA,h,472,NA,15129,NA,NA,472,2,legacy,1024,2,48000,-16,experiment,SSHSS,1,odd,21851,NA,NA,45760,NA,NA,78666,76840,6721,NA,NA,78773,6687,78773,79246,78642,Flanker Task ,20,10751,22,yes,1024
91.30434783,91.30434783,489.173913,489.173913,black,xpyriment,legacy,legacy,0,Congruent,uniform,1,undefined,1,s,0,0,0,22,22,0,22,22,0,0,0,22,0,22,22,22,9/25/19 9:27,1500,The main experiment item,yes,FlankerTask.osexp,C:\Users\hosan\Desktop,no,mono,no,18,no,white,no,yes,768,legacy,22,22,C:/Users/hosan/Desktop/TB_subject-01.csv,xpyriment,Kafkaesque Koffka,3.2.8,0,s,NA,s,NA,NA,s,500,NA,15129,NA,NA,500,2,legacy,1024,2,48000,-16,experiment,SSSSS,1,odd,21851,NA,NA,45760,NA,NA,81110,79280,6721,NA,NA,81216,6687,81216,81717,81085,Flanker Task ,21,11251,23,yes,1024
91.66666667,91.66666667,489.9166667,489.9166667,black,xpyriment,legacy,legacy,0,Congruent,uniform,1,undefined,1,h,0,0,0,23,23,0,23,23,0,0,0,23,0,23,23,23,9/25/19 9:27,1500,The main experiment item,yes,FlankerTask.osexp,C:\Users\hosan\Desktop,no,mono,no,18,no,white,no,yes,768,legacy,23,23,C:/Users/hosan/Desktop/TB_subject-01.csv,xpyriment,Kafkaesque Koffka,3.2.8,0,h,NA,s,NA,NA,h,507,NA,15129,NA,NA,507,2,legacy,1024,2,48000,-16,experiment,HHHHH,1,odd,21851,NA,NA,45760,NA,NA,83589,81752,6721,NA,NA,83696,6687,83696,84204,83565,Flanker Task ,22,11758,24,yes,1024
92,92,491.16,491.16,black,xpyriment,legacy,legacy,0,Congruent,uniform,1,undefined,1,s,0,0,0,24,24,0,24,24,0,0,0,24,0,24,24,24,9/25/19 9:27,1500,The main experiment item,yes,FlankerTask.osexp,C:\Users\hosan\Desktop,no,mono,no,18,no,white,no,yes,768,legacy,24,24,C:/Users/hosan/Desktop/TB_subject-01.csv,xpyriment,Kafkaesque Koffka,3.2.8,0,s,NA,s,NA,NA,s,521,NA,15129,NA,NA,521,2,legacy,1024,2,48000,-16,experiment,SSSSS,1,odd,21851,NA,NA,45760,NA,NA,86091,84265,6721,NA,NA,86197,6687,86197,86720,86067,Flanker Task ,23,12279,25,yes,1024
92.30769231,92.30769231,490.8461538,490.8461538,black,xpyriment,legacy,legacy,0,Congruent,uniform,1,undefined,1,h,0,0,0,25,25,0,25,25,0,0,0,25,0,25,25,25,9/25/19 9:27,1500,The main experiment item,yes,FlankerTask.osexp,C:\Users\hosan\Desktop,no,mono,no,18,no,white,no,yes,768,legacy,25,25,C:/Users/hosan/Desktop/TB_subject-01.csv,xpyriment,Kafkaesque Koffka,3.2.8,0,h,NA,s,NA,NA,h,483,NA,15129,NA,NA,483,2,legacy,1024,2,48000,-16,experiment,HHHHH,1,odd,21851,NA,NA,45760,NA,NA,88605,86792,6721,NA,NA,88713,6687,88713,89196,88581,Flanker Task ,24,12762,26,yes,1024
92.59259259,92.59259259,490.6666667,490.6666667,black,xpyriment,legacy,legacy,0,Incongruent,uniform,1,undefined,1,h,0,0,0,26,26,0,26,26,0,0,0,26,0,26,26,26,9/25/19 9:27,1500,The main experiment item,yes,FlankerTask.osexp,C:\Users\hosan\Desktop,no,mono,no,18,no,white,no,yes,768,legacy,26,26,C:/Users/hosan/Desktop/TB_subject-01.csv,xpyriment,Kafkaesque Koffka,3.2.8,0,h,NA,s,NA,NA,h,486,NA,15129,NA,NA,486,2,legacy,1024,2,48000,-16,experiment,SSHSS,1,odd,21851,NA,NA,45760,NA,NA,91126,89246,6721,NA,NA,91232,6687,91232,91719,91101,Flanker Task ,25,13248,27,yes,1024
92.85714286,92.85714286,488.1428571,488.1428571,black,xpyriment,legacy,legacy,0,Congruent,uniform,1,undefined,1,h,0,0,0,27,27,0,27,27,0,0,0,27,0,27,27,27,9/25/19 9:27,1500,The main experiment item,yes,FlankerTask.osexp,C:\Users\hosan\Desktop,no,mono,no,18,no,white,no,yes,768,legacy,27,27,C:/Users/hosan/Desktop/TB_subject-01.csv,xpyriment,Kafkaesque Koffka,3.2.8,0,h,NA,s,NA,NA,h,420,NA,15129,NA,NA,420,2,legacy,1024,2,48000,-16,experiment,HHHHH,1,odd,21851,NA,NA,45760,NA,NA,93651,91807,6721,NA,NA,93757,6687,93757,94177,93627,Flanker Task ,26,13668,28,yes,1024
93.10344828,93.10344828,495.4137931,495.4137931,black,xpyriment,legacy,legacy,0,Incongruent,uniform,1,undefined,1,s,0,0,0,28,28,0,28,28,0,0,0,28,0,28,28,28,9/25/19 9:27,1500,The main experiment item,yes,FlankerTask.osexp,C:\Users\hosan\Desktop,no,mono,no,18,no,white,no,yes,768,legacy,28,28,C:/Users/hosan/Desktop/TB_subject-01.csv,xpyriment,Kafkaesque Koffka,3.2.8,0,s,NA,s,NA,NA,s,699,NA,15129,NA,NA,699,2,legacy,1024,2,48000,-16,experiment,HHSHH,1,odd,21851,NA,NA,45760,NA,NA,96048,94239,6721,NA,NA,96154,6687,96154,96853,96023,Flanker Task ,27,14367,29,yes,1024
93.33333333,93.33333333,492.9666667,492.9666667,black,xpyriment,legacy,legacy,0,Congruent,uniform,1,undefined,1,s,0,0,0,29,29,0,29,29,0,0,0,29,0,29,29,29,9/25/19 9:27,1500,The main experiment item,yes,FlankerTask.osexp,C:\Users\hosan\Desktop,no,mono,no,18,no,white,no,yes,768,legacy,29,29,C:/Users/hosan/Desktop/TB_subject-01.csv,xpyriment,Kafkaesque Koffka,3.2.8,0,s,NA,s,NA,NA,s,422,NA,15129,NA,NA,422,2,legacy,1024,2,48000,-16,experiment,SSSSS,1,odd,21851,NA,NA,45760,NA,NA,98688,96887,6721,NA,NA,98795,6687,98795,99217,98664,Flanker Task ,28,14789,30,yes,1024
93.5483871,93.5483871,490.9354839,490.9354839,black,xpyriment,legacy,legacy,0,Congruent,uniform,1,undefined,1,s,0,0,0,30,30,0,30,30,0,0,0,30,0,30,30,30,9/25/19 9:27,1500,The main experiment item,yes,FlankerTask.osexp,C:\Users\hosan\Desktop,no,mono,no,18,no,white,no,yes,768,legacy,30,30,C:/Users/hosan/Desktop/TB_subject-01.csv,xpyriment,Kafkaesque Koffka,3.2.8,0,s,NA,s,NA,NA,s,430,NA,15129,NA,NA,430,2,legacy,1024,2,48000,-16,experiment,SSSSS,1,odd,21851,NA,NA,45760,NA,NA,101176,99287,6721,NA,NA,101283,6687,101283,101714,101151,Flanker Task ,29,15219,31,yes,1024
93.75,93.75,492.46875,492.46875,black,xpyriment,legacy,legacy,0,Congruent,uniform,1,undefined,1,s,0,0,0,31,31,0,31,31,0,0,0,31,0,31,31,31,9/25/19 9:27,1500,The main experiment item,yes,FlankerTask.osexp,C:\Users\hosan\Desktop,no,mono,no,18,no,white,no,yes,768,legacy,31,31,C:/Users/hosan/Desktop/TB_subject-01.csv,xpyriment,Kafkaesque Koffka,3.2.8,0,s,NA,s,NA,NA,s,540,NA,15129,NA,NA,540,2,legacy,1024,2,48000,-16,experiment,SSSSS,1,odd,21851,NA,NA,45760,NA,NA,103608,101778,6721,NA,NA,103715,6687,103715,104256,103584,Flanker Task ,30,15759,32,yes,1024
93.93939394,93.93939394,494.6969697,494.6969697,black,xpyriment,legacy,legacy,0,Incongruent,uniform,1,undefined,1,s,0,0,0,32,32,0,32,32,0,0,0,32,0,32,32,32,9/25/19 9:27,1500,The main experiment item,yes,FlankerTask.osexp,C:\Users\hosan\Desktop,no,mono,no,18,no,white,no,yes,768,legacy,32,32,C:/Users/hosan/Desktop/TB_subject-01.csv,xpyriment,Kafkaesque Koffka,3.2.8,0,s,NA,s,NA,NA,s,566,NA,15129,NA,NA,566,2,legacy,1024,2,48000,-16,experiment,HHSHH,1,odd,21851,NA,NA,45760,NA,NA,106166,104338,6721,NA,NA,106273,6687,106273,106840,106142,Flanker Task ,31,16325,33,yes,1024
94.11764706,94.11764706,490.5,490.5,black,xpyriment,legacy,legacy,0,Congruent,uniform,1,undefined,1,s,0,0,0,33,33,0,33,33,0,0,0,33,0,33,33,33,9/25/19 9:27,1500,The main experiment item,yes,FlankerTask.osexp,C:\Users\hosan\Desktop,no,mono,no,18,no,white,no,yes,768,legacy,33,33,C:/Users/hosan/Desktop/TB_subject-01.csv,xpyriment,Kafkaesque Koffka,3.2.8,0,s,NA,s,NA,NA,s,352,NA,15129,NA,NA,352,2,legacy,1024,2,48000,-16,experiment,SSSSS,1,odd,21851,NA,NA,45760,NA,NA,108861,106902,6721,NA,NA,108968,6687,108968,109320,108837,Flanker Task ,32,16677,34,yes,1024
94.28571429,94.28571429,487.4857143,487.4857143,black,xpyriment,legacy,legacy,0,Congruent,uniform,1,undefined,1,h,0,0,0,34,34,0,34,34,0,0,0,34,0,34,34,34,9/25/19 9:27,1500,The main experiment item,yes,FlankerTask.osexp,C:\Users\hosan\Desktop,no,mono,no,18,no,white,no,yes,768,legacy,34,34,C:/Users/hosan/Desktop/TB_subject-01.csv,xpyriment,Kafkaesque Koffka,3.2.8,0,h,NA,s,NA,NA,h,385,NA,15129,NA,NA,385,2,legacy,1024,2,48000,-16,experiment,HHHHH,1,odd,21851,NA,NA,45760,NA,NA,111337,109407,6721,NA,NA,111443,6687,111443,111829,111313,Flanker Task ,33,17062,35,yes,1024
94.44444444,94.44444444,484.9722222,484.9722222,black,xpyriment,legacy,legacy,0,Congruent,uniform,1,undefined,1,h,0,0,0,35,35,0,35,35,0,0,0,35,0,35,35,35,9/25/19 9:27,1500,The main experiment item,yes,FlankerTask.osexp,C:\Users\hosan\Desktop,no,mono,no,18,no,white,no,yes,768,legacy,35,35,C:/Users/hosan/Desktop/TB_subject-01.csv,xpyriment,Kafkaesque Koffka,3.2.8,0,h,NA,s,NA,NA,h,397,NA,15129,NA,NA,397,2,legacy,1024,2,48000,-16,experiment,HHHHH,1,odd,21851,NA,NA,45760,NA,NA,113722,111896,6721,NA,NA,113829,6687,113829,114226,113698,Flanker Task ,34,17459,36,yes,1024
94.59459459,94.59459459,484.0810811,484.0810811,black,xpyriment,legacy,legacy,0,Incongruent,uniform,1,undefined,1,s,0,0,0,36,36,0,36,36,0,0,0,36,0,36,36,36,9/25/19 9:27,1500,The main experiment item,yes,FlankerTask.osexp,C:\Users\hosan\Desktop,no,mono,no,18,no,white,no,yes,768,legacy,36,36,C:/Users/hosan/Desktop/TB_subject-01.csv,xpyriment,Kafkaesque Koffka,3.2.8,0,s,NA,s,NA,NA,s,452,NA,15129,NA,NA,452,2,legacy,1024,2,48000,-16,experiment,HHSHH,1,odd,21851,NA,NA,45760,NA,NA,116123,114298,6721,NA,NA,116229,6687,116229,116682,116099,Flanker Task ,35,17911,37,yes,1024
94.73684211,94.73684211,483,483,black,xpyriment,legacy,legacy,0,Incongruent,uniform,1,undefined,1,s,0,0,0,37,37,0,37,37,0,0,0,37,0,37,37,37,9/25/19 9:27,1500,The main experiment item,yes,FlankerTask.osexp,C:\Users\hosan\Desktop,no,mono,no,18,no,white,no,yes,768,legacy,37,37,C:/Users/hosan/Desktop/TB_subject-01.csv,xpyriment,Kafkaesque Koffka,3.2.8,0,s,NA,s,NA,NA,s,443,NA,15129,NA,NA,443,2,legacy,1024,2,48000,-16,experiment,HHSHH,1,odd,21851,NA,NA,45760,NA,NA,118581,116748,6721,NA,NA,118687,6687,118687,119131,118557,Flanker Task ,36,18354,38,yes,1024
94.87179487,94.87179487,481.7948718,481.7948718,black,xpyriment,legacy,legacy,0,Incongruent,uniform,1,undefined,1,h,0,0,0,38,38,0,38,38,0,0,0,38,0,38,38,38,9/25/19 9:27,1500,The main experiment item,yes,FlankerTask.osexp,C:\Users\hosan\Desktop,no,mono,no,18,no,white,no,yes,768,legacy,38,38,C:/Users/hosan/Desktop/TB_subject-01.csv,xpyriment,Kafkaesque Koffka,3.2.8,0,h,NA,s,NA,NA,h,436,NA,15129,NA,NA,436,2,legacy,1024,2,48000,-16,experiment,SSHSS,1,odd,21851,NA,NA,45760,NA,NA,120996,119185,6721,NA,NA,121103,6687,121103,121540,120972,Flanker Task ,37,18790,39,yes,1024
92.5,92.5,479.275,479.275,black,xpyriment,legacy,legacy,0,Incongruent,uniform,0,undefined,0,s,0,0,0,39,39,0,39,39,0,0,0,39,0,39,39,39,9/25/19 9:27,1500,The main experiment item,yes,FlankerTask.osexp,C:\Users\hosan\Desktop,no,mono,no,18,no,white,no,yes,768,legacy,39,39,C:/Users/hosan/Desktop/TB_subject-01.csv,xpyriment,Kafkaesque Koffka,3.2.8,0,h,NA,s,NA,NA,h,381,NA,15129,NA,NA,381,2,legacy,1024,2,48000,-16,experiment,HHSHH,1,odd,21851,NA,NA,45760,NA,NA,123527,121611,6721,NA,NA,123633,6687,123633,124015,123501,Flanker Task ,37,19171,40,yes,1024
90.24390244,90.24390244,478.2926829,478.2926829,black,xpyriment,legacy,legacy,0,Incongruent,uniform,0,undefined,0,h,0,0,0,40,40,0,40,40,0,0,0,40,0,40,40,40,9/25/19 9:27,1500,The main experiment item,yes,FlankerTask.osexp,C:\Users\hosan\Desktop,no,mono,no,18,no,white,no,yes,768,legacy,40,40,C:/Users/hosan/Desktop/TB_subject-01.csv,xpyriment,Kafkaesque Koffka,3.2.8,0,s,NA,s,NA,NA,s,439,NA,15129,NA,NA,439,2,legacy,1024,2,48000,-16,experiment,SSHSS,1,odd,21851,NA,NA,124050,NA,NA,126381,124557,6721,NA,NA,126487,6687,126487,126927,126357,Flanker Task ,37,19610,41,yes,1024
90.47619048,90.47619048,478.3333333,478.3333333,black,xpyriment,legacy,legacy,0,Congruent,uniform,1,undefined,1,h,0,0,0,41,41,0,41,41,0,0,0,41,0,41,41,41,9/25/19 9:27,1500,The main experiment item,yes,FlankerTask.osexp,C:\Users\hosan\Desktop,no,mono,no,18,no,white,no,yes,768,legacy,41,41,C:/Users/hosan/Desktop/TB_subject-01.csv,xpyriment,Kafkaesque Koffka,3.2.8,0,h,NA,s,NA,NA,h,480,NA,15129,NA,NA,480,2,legacy,1024,2,48000,-16,experiment,HHHHH,1,odd,21851,NA,NA,126996,NA,NA,129329,127503,6721,NA,NA,129435,6687,129435,129916,129305,Flanker Task ,38,20090,42,yes,1024
90.69767442,90.69767442,475.9069767,475.9069767,black,xpyriment,legacy,legacy,0,Congruent,uniform,1,undefined,1,h,0,0,0,42,42,0,42,42,0,0,0,42,0,42,42,42,9/25/19 9:27,1500,The main experiment item,yes,FlankerTask.osexp,C:\Users\hosan\Desktop,no,mono,no,18,no,white,no,yes,768,legacy,42,42,C:/Users/hosan/Desktop/TB_subject-01.csv,xpyriment,Kafkaesque Koffka,3.2.8,0,h,NA,s,NA,NA,h,374,NA,15129,NA,NA,374,2,legacy,1024,2,48000,-16,experiment,HHHHH,1,odd,21851,NA,NA,126996,NA,NA,131819,129981,6721,NA,NA,131926,6687,131926,132301,131795,Flanker Task ,39,20464,43,yes,1024
90.90909091,90.90909091,475.0454545,475.0454545,black,xpyriment,legacy,legacy,0,Congruent,uniform,1,undefined,1,s,0,0,0,43,43,0,43,43,0,0,0,43,0,43,43,43,9/25/19 9:27,1500,The main experiment item,yes,FlankerTask.osexp,C:\Users\hosan\Desktop,no,mono,no,18,no,white,no,yes,768,legacy,43,43,C:/Users/hosan/Desktop/TB_subject-01.csv,xpyriment,Kafkaesque Koffka,3.2.8,0,s,NA,s,NA,NA,s,438,NA,15129,NA,NA,438,2,legacy,1024,2,48000,-16,experiment,SSSSS,1,odd,21851,NA,NA,126996,NA,NA,134165,132334,6721,NA,NA,134272,6687,134272,134711,134141,Flanker Task ,40,20902,44,yes,1024
91.11111111,91.11111111,475.4444444,475.4444444,black,xpyriment,legacy,legacy,0,Incongruent,uniform,1,undefined,1,s,0,0,0,44,44,0,44,44,0,0,0,44,0,44,44,44,9/25/19 9:27,1500,The main experiment item,yes,FlankerTask.osexp,C:\Users\hosan\Desktop,no,mono,no,18,no,white,no,yes,768,legacy,44,44,C:/Users/hosan/Desktop/TB_subject-01.csv,xpyriment,Kafkaesque Koffka,3.2.8,0,s,NA,s,NA,NA,s,493,NA,15129,NA,NA,493,2,legacy,1024,2,48000,-16,experiment,HHSHH,1,odd,21851,NA,NA,126996,NA,NA,136641,134797,6721,NA,NA,136748,6687,136748,137242,136617,Flanker Task ,41,21395,45,yes,1024
91.30434783,91.30434783,476.0652174,476.0652174,black,xpyriment,legacy,legacy,0,Incongruent,uniform,1,undefined,1,s,0,0,0,45,45,0,45,45,0,0,0,45,0,45,45,45,9/25/19 9:27,1500,The main experiment item,yes,FlankerTask.osexp,C:\Users\hosan\Desktop,no,mono,no,18,no,white,no,yes,768,legacy,45,45,C:/Users/hosan/Desktop/TB_subject-01.csv,xpyriment,Kafkaesque Koffka,3.2.8,0,s,NA,s,NA,NA,s,504,NA,15129,NA,NA,504,2,legacy,1024,2,48000,-16,experiment,HHSHH,1,odd,21851,NA,NA,126996,NA,NA,139095,137265,6721,NA,NA,139201,6687,139201,139706,139071,Flanker Task ,42,21899,46,yes,1024
91.4893617,91.4893617,474.5106383,474.5106383,black,xpyriment,legacy,legacy,0,Congruent,uniform,1,undefined,1,s,0,0,0,46,46,0,46,46,0,0,0,46,0,46,46,46,9/25/19 9:27,1500,The main experiment item,yes,FlankerTask.osexp,C:\Users\hosan\Desktop,no,mono,no,18,no,white,no,yes,768,legacy,46,46,C:/Users/hosan/Desktop/TB_subject-01.csv,xpyriment,Kafkaesque Koffka,3.2.8,0,s,NA,s,NA,NA,s,403,NA,15129,NA,NA,403,2,legacy,1024,2,48000,-16,experiment,SSSSS,1,odd,21851,NA,NA,126996,NA,NA,141556,139722,6721,NA,NA,141663,6687,141663,142067,141532,Flanker Task ,43,22302,47,yes,1024
91.66666667,91.66666667,474.2291667,474.2291667,black,xpyriment,legacy,legacy,0,Incongruent,uniform,1,undefined,1,s,0,0,0,47,47,0,47,47,0,0,0,47,0,47,47,47,9/25/19 9:27,1500,The main experiment item,yes,FlankerTask.osexp,C:\Users\hosan\Desktop,no,mono,no,18,no,white,no,yes,768,legacy,47,47,C:/Users/hosan/Desktop/TB_subject-01.csv,xpyriment,Kafkaesque Koffka,3.2.8,0,s,NA,s,NA,NA,s,461,NA,15129,NA,NA,461,2,legacy,1024,2,48000,-16,experiment,HHSHH,1,odd,21851,NA,NA,126996,NA,NA,144001,142149,6721,NA,NA,144107,6687,144107,144569,143977,Flanker Task ,44,22763,48,yes,1024
91.83673469,91.83673469,473.3469388,473.3469388,black,xpyriment,legacy,legacy,0,Congruent,uniform,1,undefined,1,s,0,0,0,48,48,0,48,48,0,0,0,48,0,48,48,48,9/25/19 9:27,1500,The main experiment item,yes,FlankerTask.osexp,C:\Users\hosan\Desktop,no,mono,no,18,no,white,no,yes,768,legacy,48,48,C:/Users/hosan/Desktop/TB_subject-01.csv,xpyriment,Kafkaesque Koffka,3.2.8,0,s,NA,s,NA,NA,s,431,NA,15129,NA,NA,431,2,legacy,1024,2,48000,-16,experiment,SSSSS,1,odd,21851,NA,NA,126996,NA,NA,146456,144634,6721,NA,NA,146563,6687,146563,146995,146430,Flanker Task ,45,23194,49,yes,1024
92,92,471.82,471.82,black,xpyriment,legacy,legacy,0,Incongruent,uniform,1,undefined,1,s,0,0,0,49,49,0,49,49,0,0,0,49,0,49,49,49,9/25/19 9:27,1500,The main experiment item,yes,FlankerTask.osexp,C:\Users\hosan\Desktop,no,mono,no,18,no,white,no,yes,768,legacy,49,49,C:/Users/hosan/Desktop/TB_subject-01.csv,xpyriment,Kafkaesque Koffka,3.2.8,0,s,NA,s,NA,NA,s,397,NA,15129,NA,NA,397,2,legacy,1024,2,48000,-16,experiment,HHSHH,1,odd,21851,NA,NA,126996,NA,NA,148907,147063,6721,NA,NA,149013,6687,149014,149412,148883,Flanker Task ,46,23591,50,yes,1024
92.15686275,92.15686275,470.4705882,470.4705882,black,xpyriment,legacy,legacy,0,Congruent,uniform,1,undefined,1,h,0,0,0,50,50,0,50,50,0,0,0,50,0,50,50,50,9/25/19 9:27,1500,The main experiment item,yes,FlankerTask.osexp,C:\Users\hosan\Desktop,no,mono,no,18,no,white,no,yes,768,legacy,50,50,C:/Users/hosan/Desktop/TB_subject-01.csv,xpyriment,Kafkaesque Koffka,3.2.8,0,h,NA,s,NA,NA,h,403,NA,15129,NA,NA,403,2,legacy,1024,2,48000,-16,experiment,HHHHH,1,odd,21851,NA,NA,126996,NA,NA,151287,149472,6721,NA,NA,151393,6687,151394,151798,151263,Flanker Task ,47,23994,51,yes,1024
92.30769231,92.30769231,472.5961538,472.5961538,black,xpyriment,legacy,legacy,0,Incongruent,uniform,1,undefined,1,s,0,0,0,51,51,0,51,51,0,0,0,51,0,51,51,51,9/25/19 9:27,1500,The main experiment item,yes,FlankerTask.osexp,C:\Users\hosan\Desktop,no,mono,no,18,no,white,no,yes,768,legacy,51,51,C:/Users/hosan/Desktop/TB_subject-01.csv,xpyriment,Kafkaesque Koffka,3.2.8,0,s,NA,s,NA,NA,s,581,NA,15129,NA,NA,581,2,legacy,1024,2,48000,-16,experiment,HHSHH,1,odd,21851,NA,NA,126996,NA,NA,153717,151889,6721,NA,NA,153823,6687,153823,154405,153692,Flanker Task ,48,24575,52,yes,1024
92.45283019,92.45283019,470.245283,470.245283,black,xpyriment,legacy,legacy,0,Congruent,uniform,1,undefined,1,s,0,0,0,52,52,0,52,52,0,0,0,52,0,52,52,52,9/25/19 9:27,1500,The main experiment item,yes,FlankerTask.osexp,C:\Users\hosan\Desktop,no,mono,no,18,no,white,no,yes,768,legacy,52,52,C:/Users/hosan/Desktop/TB_subject-01.csv,xpyriment,Kafkaesque Koffka,3.2.8,0,s,NA,s,NA,NA,s,348,NA,15129,NA,NA,348,2,legacy,1024,2,48000,-16,experiment,SSSSS,1,odd,21851,NA,NA,126996,NA,NA,156306,154481,6721,NA,NA,156413,6687,156413,156762,156282,Flanker Task ,49,24923,53,yes,1024
92.59259259,92.59259259,468.9814815,468.9814815,black,xpyriment,legacy,legacy,0,Incongruent,uniform,1,undefined,1,s,0,0,0,53,53,0,53,53,0,0,0,53,0,53,53,53,9/25/19 9:27,1500,The main experiment item,yes,FlankerTask.osexp,C:\Users\hosan\Desktop,no,mono,no,18,no,white,no,yes,768,legacy,53,53,C:/Users/hosan/Desktop/TB_subject-01.csv,xpyriment,Kafkaesque Koffka,3.2.8,0,s,NA,s,NA,NA,s,402,NA,15129,NA,NA,402,2,legacy,1024,2,48000,-16,experiment,HHSHH,1,odd,21851,NA,NA,126996,NA,NA,158657,156830,6721,NA,NA,158762,6687,158763,159166,158633,Flanker Task ,50,25325,54,yes,1024
92.72727273,92.72727273,469.8,469.8,black,xpyriment,legacy,legacy,0,Incongruent,uniform,1,undefined,1,h,0,0,0,54,54,0,54,54,0,0,0,54,0,54,54,54,9/25/19 9:27,1500,The main experiment item,yes,FlankerTask.osexp,C:\Users\hosan\Desktop,no,mono,no,18,no,white,no,yes,768,legacy,54,54,C:/Users/hosan/Desktop/TB_subject-01.csv,xpyriment,Kafkaesque Koffka,3.2.8,0,h,NA,s,NA,NA,h,514,NA,15129,NA,NA,514,2,legacy,1024,2,48000,-16,experiment,SSHSS,1,odd,21851,NA,NA,126996,NA,NA,161059,159225,6721,NA,NA,161165,6687,161165,161680,161034,Flanker Task ,51,25839,55,yes,1024
92.85714286,92.85714286,468.9464286,468.9464286,black,xpyriment,legacy,legacy,0,Incongruent,uniform,1,undefined,1,s,0,0,0,55,55,0,55,55,0,0,0,55,0,55,55,55,9/25/19 9:27,1500,The main experiment item,yes,FlankerTask.osexp,C:\Users\hosan\Desktop,no,mono,no,18,no,white,no,yes,768,legacy,55,55,C:/Users/hosan/Desktop/TB_subject-01.csv,xpyriment,Kafkaesque Koffka,3.2.8,0,s,NA,s,NA,NA,s,422,NA,15129,NA,NA,422,2,legacy,1024,2,48000,-16,experiment,HHSHH,1,odd,21851,NA,NA,126996,NA,NA,163571,161748,6721,NA,NA,163677,6687,163677,164100,163547,Flanker Task ,52,26261,56,yes,1024
92.98245614,92.98245614,472.3859649,472.3859649,black,xpyriment,legacy,legacy,0,Incongruent,uniform,1,undefined,1,h,0,0,0,56,56,0,56,56,0,0,0,56,0,56,56,56,9/25/19 9:27,1500,The main experiment item,yes,FlankerTask.osexp,C:\Users\hosan\Desktop,no,mono,no,18,no,white,no,yes,768,legacy,56,56,C:/Users/hosan/Desktop/TB_subject-01.csv,xpyriment,Kafkaesque Koffka,3.2.8,0,h,NA,s,NA,NA,h,665,NA,15129,NA,NA,665,2,legacy,1024,2,48000,-16,experiment,SSHSS,1,odd,21851,NA,NA,126996,NA,NA,165945,164132,6721,NA,NA,166052,6687,166052,166718,165921,Flanker Task ,53,26926,57,yes,1024
93.10344828,93.10344828,473.3275862,473.3275862,black,xpyriment,legacy,legacy,0,Congruent,uniform,1,undefined,1,h,0,0,0,57,57,0,57,57,0,0,0,57,0,57,57,57,9/25/19 9:27,1500,The main experiment item,yes,FlankerTask.osexp,C:\Users\hosan\Desktop,no,mono,no,18,no,white,no,yes,768,legacy,57,57,C:/Users/hosan/Desktop/TB_subject-01.csv,xpyriment,Kafkaesque Koffka,3.2.8,0,h,NA,s,NA,NA,h,527,NA,15129,NA,NA,527,2,legacy,1024,2,48000,-16,experiment,HHHHH,1,odd,21851,NA,NA,126996,NA,NA,168633,166801,6721,NA,NA,168739,6687,168739,169267,168609,Flanker Task ,54,27453,58,yes,1024
93.22033898,93.22033898,477.4745763,477.4745763,black,xpyriment,legacy,legacy,0,Congruent,uniform,1,undefined,1,s,0,0,0,58,58,0,58,58,0,0,0,58,0,58,58,58,9/25/19 9:27,1500,The main experiment item,yes,FlankerTask.osexp,C:\Users\hosan\Desktop,no,mono,no,18,no,white,no,yes,768,legacy,58,58,C:/Users/hosan/Desktop/TB_subject-01.csv,xpyriment,Kafkaesque Koffka,3.2.8,0,s,NA,s,NA,NA,s,718,NA,15129,NA,NA,718,2,legacy,1024,2,48000,-16,experiment,SSSSS,1,odd,21851,NA,NA,126996,NA,NA,171173,169349,6721,NA,NA,171280,6687,171280,171999,171147,Flanker Task ,55,28171,59,yes,1024
93.33333333,93.33333333,476.05,476.05,black,xpyriment,legacy,legacy,0,Congruent,uniform,1,undefined,1,s,0,0,0,59,59,0,59,59,0,0,0,59,0,59,59,59,9/25/19 9:27,1500,The main experiment item,yes,FlankerTask.osexp,C:\Users\hosan\Desktop,no,mono,no,18,no,white,no,yes,768,legacy,59,59,C:/Users/hosan/Desktop/TB_subject-01.csv,xpyriment,Kafkaesque Koffka,3.2.8,0,s,NA,s,NA,NA,s,392,NA,15129,NA,NA,392,2,legacy,1024,2,48000,-16,experiment,SSSSS,1,odd,21851,NA,NA,126996,NA,NA,173863,172071,6721,NA,NA,173970,6687,173970,174363,173840,Flanker Task ,56,28563,60,yes,1024
93.44262295,93.44262295,474.557377,474.557377,black,xpyriment,legacy,legacy,0,Congruent,uniform,1,undefined,1,s,0,0,0,60,60,0,60,60,0,0,0,60,0,60,60,60,9/25/19 9:27,1500,The main experiment item,yes,FlankerTask.osexp,C:\Users\hosan\Desktop,no,mono,no,18,no,white,no,yes,768,legacy,60,60,C:/Users/hosan/Desktop/TB_subject-01.csv,xpyriment,Kafkaesque Koffka,3.2.8,0,s,NA,s,NA,NA,s,385,NA,15129,NA,NA,385,2,legacy,1024,2,48000,-16,experiment,SSSSS,1,odd,21851,NA,NA,126996,NA,NA,176240,174427,6721,NA,NA,176345,6687,176346,176732,176215,Flanker Task ,57,28948,61,yes,1024
93.5483871,93.5483871,475.6774194,475.6774194,black,xpyriment,legacy,legacy,0,Incongruent,uniform,1,undefined,1,h,0,0,0,61,61,0,61,61,0,0,0,61,0,61,61,61,9/25/19 9:27,1500,The main experiment item,yes,FlankerTask.osexp,C:\Users\hosan\Desktop,no,mono,no,18,no,white,no,yes,768,legacy,61,61,C:/Users/hosan/Desktop/TB_subject-01.csv,xpyriment,Kafkaesque Koffka,3.2.8,0,h,NA,s,NA,NA,h,544,NA,15129,NA,NA,544,2,legacy,1024,2,48000,-16,experiment,SSHSS,1,odd,21851,NA,NA,126996,NA,NA,178617,176797,6721,NA,NA,178724,6687,178724,179269,178593,Flanker Task ,58,29492,62,yes,1024
93.65079365,93.65079365,481.0952381,481.0952381,black,xpyriment,legacy,legacy,0,Incongruent,uniform,1,undefined,1,h,0,0,0,62,62,0,62,62,0,0,0,62,0,62,62,62,9/25/19 9:27,1500,The main experiment item,yes,FlankerTask.osexp,C:\Users\hosan\Desktop,no,mono,no,18,no,white,no,yes,768,legacy,62,62,C:/Users/hosan/Desktop/TB_subject-01.csv,xpyriment,Kafkaesque Koffka,3.2.8,0,h,NA,s,NA,NA,h,817,NA,15129,NA,NA,817,2,legacy,1024,2,48000,-16,experiment,SSHSS,1,odd,21851,NA,NA,126996,NA,NA,181129,179298,6721,NA,NA,181234,6687,181234,182052,181105,Flanker Task ,59,30309,63,yes,1024
93.75,93.75,480.4375,480.4375,black,xpyriment,legacy,legacy,0,Congruent,uniform,1,undefined,1,h,0,0,0,63,63,0,63,63,0,0,0,63,0,63,63,63,9/25/19 9:27,1500,The main experiment item,yes,FlankerTask.osexp,C:\Users\hosan\Desktop,no,mono,no,18,no,white,no,yes,768,legacy,63,63,C:/Users/hosan/Desktop/TB_subject-01.csv,xpyriment,Kafkaesque Koffka,3.2.8,0,h,NA,s,NA,NA,h,439,NA,15129,NA,NA,439,2,legacy,1024,2,48000,-16,experiment,HHHHH,1,odd,21851,NA,NA,126996,NA,NA,183899,182072,6721,NA,NA,184005,6687,184005,184445,183874,Flanker Task ,60,30748,64,yes,1024
93.84615385,93.84615385,480.3692308,480.3692308,black,xpyriment,legacy,legacy,0,Congruent,uniform,1,undefined,1,h,0,0,0,64,64,0,64,64,0,0,0,64,0,64,64,64,9/25/19 9:27,1500,The main experiment item,yes,FlankerTask.osexp,C:\Users\hosan\Desktop,no,mono,no,18,no,white,no,yes,768,legacy,64,64,C:/Users/hosan/Desktop/TB_subject-01.csv,xpyriment,Kafkaesque Koffka,3.2.8,0,h,NA,s,NA,NA,h,476,NA,15129,NA,NA,476,2,legacy,1024,2,48000,-16,experiment,HHHHH,1,odd,21851,NA,NA,126996,NA,NA,186287,184475,6721,NA,NA,186393,6687,186393,186870,186263,Flanker Task ,61,31224,65,yes,1024
93.93939394,93.93939394,480.1363636,480.1363636,black,xpyriment,legacy,legacy,0,Incongruent,uniform,1,undefined,1,s,0,0,0,65,65,0,65,65,0,0,0,65,0,65,65,65,9/25/19 9:27,1500,The main experiment item,yes,FlankerTask.osexp,C:\Users\hosan\Desktop,no,mono,no,18,no,white,no,yes,768,legacy,65,65,C:/Users/hosan/Desktop/TB_subject-01.csv,xpyriment,Kafkaesque Koffka,3.2.8,0,s,NA,s,NA,NA,s,465,NA,15129,NA,NA,465,2,legacy,1024,2,48000,-16,experiment,HHSHH,1,odd,21851,NA,NA,126996,NA,NA,188721,186907,6721,NA,NA,188827,6687,188827,189293,188697,Flanker Task ,62,31689,66,yes,1024
94.02985075,94.02985075,480.8507463,480.8507463,black,xpyriment,legacy,legacy,0,Incongruent,uniform,1,undefined,1,h,0,0,0,66,66,0,66,66,0,0,0,66,0,66,66,66,9/25/19 9:27,1500,The main experiment item,yes,FlankerTask.osexp,C:\Users\hosan\Desktop,no,mono,no,18,no,white,no,yes,768,legacy,66,66,C:/Users/hosan/Desktop/TB_subject-01.csv,xpyriment,Kafkaesque Koffka,3.2.8,0,h,NA,s,NA,NA,h,528,NA,15129,NA,NA,528,2,legacy,1024,2,48000,-16,experiment,SSHSS,1,odd,21851,NA,NA,126996,NA,NA,191179,189362,6721,NA,NA,191286,6687,191286,191815,191155,Flanker Task ,63,32217,67,yes,1024
94.11764706,94.11764706,480.0441176,480.0441176,black,xpyriment,legacy,legacy,0,Incongruent,uniform,1,undefined,1,s,0,0,0,67,67,0,67,67,0,0,0,67,0,67,67,67,9/25/19 9:27,1500,The main experiment item,yes,FlankerTask.osexp,C:\Users\hosan\Desktop,no,mono,no,18,no,white,no,yes,768,legacy,67,67,C:/Users/hosan/Desktop/TB_subject-01.csv,xpyriment,Kafkaesque Koffka,3.2.8,0,s,NA,s,NA,NA,s,426,NA,15129,NA,NA,426,2,legacy,1024,2,48000,-16,experiment,HHSHH,1,odd,21851,NA,NA,126996,NA,NA,193704,191870,6721,NA,NA,193811,6687,193811,194238,193680,Flanker Task ,64,32643,68,yes,1024
94.20289855,94.20289855,478.6231884,478.6231884,black,xpyriment,legacy,legacy,0,Congruent,uniform,1,undefined,1,s,0,0,0,68,68,0,68,68,0,0,0,68,0,68,68,68,9/25/19 9:27,1500,The main experiment item,yes,FlankerTask.osexp,C:\Users\hosan\Desktop,no,mono,no,18,no,white,no,yes,768,legacy,68,68,C:/Users/hosan/Desktop/TB_subject-01.csv,xpyriment,Kafkaesque Koffka,3.2.8,0,s,NA,s,NA,NA,s,382,NA,15129,NA,NA,382,2,legacy,1024,2,48000,-16,experiment,SSSSS,1,odd,21851,NA,NA,126996,NA,NA,196131,194294,6721,NA,NA,196238,6687,196238,196621,196107,Flanker Task ,65,33025,69,yes,1024
94.28571429,94.28571429,478.0857143,478.0857143,black,xpyriment,legacy,legacy,0,Congruent,uniform,1,undefined,1,h,0,0,0,69,69,0,69,69,0,0,0,69,0,69,69,69,9/25/19 9:27,1500,The main experiment item,yes,FlankerTask.osexp,C:\Users\hosan\Desktop,no,mono,no,18,no,white,no,yes,768,legacy,69,69,C:/Users/hosan/Desktop/TB_subject-01.csv,xpyriment,Kafkaesque Koffka,3.2.8,0,h,NA,s,NA,NA,h,441,NA,15129,NA,NA,441,2,legacy,1024,2,48000,-16,experiment,HHHHH,1,odd,21851,NA,NA,126996,NA,NA,198472,196656,6721,NA,NA,198578,6687,198579,199022,198447,Flanker Task ,66,33466,70,yes,1024
94.36619718,94.36619718,479.943662,479.943662,black,xpyriment,legacy,legacy,0,Incongruent,uniform,1,undefined,1,h,0,0,0,70,70,0,70,70,0,0,0,70,0,70,70,70,9/25/19 9:27,1500,The main experiment item,yes,FlankerTask.osexp,C:\Users\hosan\Desktop,no,mono,no,18,no,white,no,yes,768,legacy,70,70,C:/Users/hosan/Desktop/TB_subject-01.csv,xpyriment,Kafkaesque Koffka,3.2.8,0,h,NA,s,NA,NA,h,610,NA,15129,NA,NA,610,2,legacy,1024,2,48000,-16,experiment,SSHSS,1,odd,21851,NA,NA,126996,NA,NA,200892,199043,6721,NA,NA,200999,6687,200999,201610,200868,Flanker Task ,67,34076,71,yes,1024
94.44444444,94.44444444,479.3611111,479.3611111,black,xpyriment,legacy,legacy,0,Incongruent,uniform,1,undefined,1,h,0,0,0,71,71,0,71,71,0,0,0,71,0,71,71,71,9/25/19 9:27,1500,The main experiment item,yes,FlankerTask.osexp,C:\Users\hosan\Desktop,no,mono,no,18,no,white,no,yes,768,legacy,71,71,C:/Users/hosan/Desktop/TB_subject-01.csv,xpyriment,Kafkaesque Koffka,3.2.8,0,h,NA,s,NA,NA,h,438,NA,15129,NA,NA,438,2,legacy,1024,2,48000,-16,experiment,SSHSS,1,odd,21851,NA,NA,126996,NA,NA,203442,201633,6721,NA,NA,203548,6687,203549,203988,203418,Flanker Task ,68,34514,72,yes,1024
94.52054795,94.52054795,479.3972603,479.3972603,black,xpyriment,legacy,legacy,0,Incongruent,uniform,1,undefined,1,s,0,0,0,72,72,0,72,72,0,0,0,72,0,72,72,72,9/25/19 9:27,1500,The main experiment item,yes,FlankerTask.osexp,C:\Users\hosan\Desktop,no,mono,no,18,no,white,no,yes,768,legacy,72,72,C:/Users/hosan/Desktop/TB_subject-01.csv,xpyriment,Kafkaesque Koffka,3.2.8,0,s,NA,s,NA,NA,s,482,NA,15129,NA,NA,482,2,legacy,1024,2,48000,-16,experiment,HHSHH,1,odd,21851,NA,NA,126996,NA,NA,205876,204058,6721,NA,NA,205983,6687,205983,206467,205852,Flanker Task ,69,34996,73,yes,1024
94.59459459,94.59459459,479.5405405,479.5405405,black,xpyriment,legacy,legacy,0,Incongruent,uniform,1,undefined,1,h,0,0,0,73,73,0,73,73,0,0,0,73,0,73,73,73,9/25/19 9:27,1500,The main experiment item,yes,FlankerTask.osexp,C:\Users\hosan\Desktop,no,mono,no,18,no,white,no,yes,768,legacy,73,73,C:/Users/hosan/Desktop/TB_subject-01.csv,xpyriment,Kafkaesque Koffka,3.2.8,0,h,NA,s,NA,NA,h,490,NA,15129,NA,NA,490,2,legacy,1024,2,48000,-16,experiment,SSHSS,1,odd,21851,NA,NA,126996,NA,NA,208344,206486,6721,NA,NA,208450,6687,208450,208941,208319,Flanker Task ,70,35486,74,yes,1024
94.66666667,94.66666667,481.0533333,481.0533333,black,xpyriment,legacy,legacy,0,Congruent,uniform,1,undefined,1,h,0,0,0,74,74,0,74,74,0,0,0,74,0,74,74,74,9/25/19 9:27,1500,The main experiment item,yes,FlankerTask.osexp,C:\Users\hosan\Desktop,no,mono,no,18,no,white,no,yes,768,legacy,74,74,C:/Users/hosan/Desktop/TB_subject-01.csv,xpyriment,Kafkaesque Koffka,3.2.8,0,h,NA,s,NA,NA,h,593,NA,15129,NA,NA,593,2,legacy,1024,2,48000,-16,experiment,HHHHH,1,odd,21851,NA,NA,126996,NA,NA,210842,209011,6721,NA,NA,210949,6687,210949,211543,210818,Flanker Task ,71,36079,75,yes,1024
94.73684211,94.73684211,481.9342105,481.9342105,black,xpyriment,legacy,legacy,0,Incongruent,uniform,1,undefined,1,s,0,0,0,75,75,0,75,75,0,0,0,75,0,75,75,75,9/25/19 9:27,1500,The main experiment item,yes,FlankerTask.osexp,C:\Users\hosan\Desktop,no,mono,no,18,no,white,no,yes,768,legacy,75,75,C:/Users/hosan/Desktop/TB_subject-01.csv,xpyriment,Kafkaesque Koffka,3.2.8,0,s,NA,s,NA,NA,s,548,NA,15129,NA,NA,548,2,legacy,1024,2,48000,-16,experiment,HHSHH,1,odd,21851,NA,NA,126996,NA,NA,213434,211603,6721,NA,NA,213540,6687,213541,214091,213409,Flanker Task ,72,36627,76,yes,1024
94.80519481,94.80519481,481.7922078,481.7922078,black,xpyriment,legacy,legacy,0,Congruent,uniform,1,undefined,1,s,0,0,0,76,76,0,76,76,0,0,0,76,0,76,76,76,9/25/19 9:27,1500,The main experiment item,yes,FlankerTask.osexp,C:\Users\hosan\Desktop,no,mono,no,18,no,white,no,yes,768,legacy,76,76,C:/Users/hosan/Desktop/TB_subject-01.csv,xpyriment,Kafkaesque Koffka,3.2.8,0,s,NA,s,NA,NA,s,471,NA,15129,NA,NA,471,2,legacy,1024,2,48000,-16,experiment,SSSSS,1,odd,21851,NA,NA,126996,NA,NA,215949,214129,6721,NA,NA,216056,6687,216056,216528,215925,Flanker Task ,73,37098,77,yes,1024
94.87179487,94.87179487,481.1794872,481.1794872,black,xpyriment,legacy,legacy,0,Congruent,uniform,1,undefined,1,h,0,0,0,77,77,0,77,77,0,0,0,77,0,77,77,77,9/25/19 9:27,1500,The main experiment item,yes,FlankerTask.osexp,C:\Users\hosan\Desktop,no,mono,no,18,no,white,no,yes,768,legacy,77,77,C:/Users/hosan/Desktop/TB_subject-01.csv,xpyriment,Kafkaesque Koffka,3.2.8,0,h,NA,s,NA,NA,h,434,NA,15129,NA,NA,434,2,legacy,1024,2,48000,-16,experiment,HHHHH,1,odd,21851,NA,NA,126996,NA,NA,218411,216579,6721,NA,NA,218518,6687,218518,218953,218387,Flanker Task ,74,37532,78,yes,1024
94.93670886,94.93670886,482.0632911,482.0632911,black,xpyriment,legacy,legacy,0,Incongruent,uniform,1,undefined,1,s,0,0,0,78,78,0,78,78,0,0,0,78,0,78,78,78,9/25/19 9:27,1500,The main experiment item,yes,FlankerTask.osexp,C:\Users\hosan\Desktop,no,mono,no,18,no,white,no,yes,768,legacy,78,78,C:/Users/hosan/Desktop/TB_subject-01.csv,xpyriment,Kafkaesque Koffka,3.2.8,0,s,NA,s,NA,NA,s,551,NA,15129,NA,NA,551,2,legacy,1024,2,48000,-16,experiment,HHSHH,1,odd,21851,NA,NA,126996,NA,NA,220847,219018,6721,NA,NA,220954,6687,220954,221507,220823,Flanker Task ,75,38083,79,yes,1024
95,95,482.475,482.475,black,xpyriment,legacy,legacy,0,Congruent,uniform,1,undefined,1,h,0,0,0,79,79,0,79,79,0,0,0,79,0,79,79,79,9/25/19 9:27,1500,The main experiment item,yes,FlankerTask.osexp,C:\Users\hosan\Desktop,no,mono,no,18,no,white,no,yes,768,legacy,79,79,C:/Users/hosan/Desktop/TB_subject-01.csv,xpyriment,Kafkaesque Koffka,3.2.8,0,h,NA,s,NA,NA,h,515,NA,15129,NA,NA,515,2,legacy,1024,2,48000,-16,experiment,HHHHH,1,odd,21851,NA,NA,126996,NA,NA,223344,221526,6721,NA,NA,223451,6687,223451,223967,223320,Flanker Task ,76,38598,80,yes,1024
95.0617284,95.0617284,483.6666667,483.6666667,black,xpyriment,legacy,legacy,0,Congruent,uniform,1,undefined,1,h,0,0,0,80,80,0,80,80,0,0,0,80,0,80,80,80,9/25/19 9:27,600,The main experiment item,yes,FlankerTask.osexp,C:\Users\hosan\Desktop,no,mono,no,18,no,white,no,yes,768,legacy,0,79,C:/Users/hosan/Desktop/TB_subject-01.csv,xpyriment,Kafkaesque Koffka,3.2.8,0,h,NA,s,h,NA,h,579,NA,15129,9900,NA,579,2,legacy,1024,2,48000,-16,experiment,HHHHH,1,odd,21851,235008,NA,126996,NA,NA,235785,224032,6721,225107,NA,235894,6687,235894,236474,235761,Flanker Task ,77,39177,81,yes,1024
95.12195122,95.12195122,483.0121951,483.0121951,black,xpyriment,legacy,legacy,0,Congruent,uniform,1,undefined,1,s,0,0,0,81,81,0,81,81,0,0,0,81,0,81,81,81,9/25/19 9:27,600,The main experiment item,yes,FlankerTask.osexp,C:\Users\hosan\Desktop,no,mono,no,18,no,white,no,yes,768,legacy,1,79,C:/Users/hosan/Desktop/TB_subject-01.csv,xpyriment,Kafkaesque Koffka,3.2.8,0,s,NA,s,h,NA,s,430,NA,15129,9900,NA,430,2,legacy,1024,2,48000,-16,experiment,SSSSS,1,odd,21851,235008,NA,126996,NA,NA,238327,236508,6721,225107,NA,238433,6687,238433,238865,238302,Flanker Task ,78,39607,82,yes,1024
93.97590361,93.97590361,482.7108434,482.7108434,black,xpyriment,legacy,legacy,0,Incongruent,uniform,0,undefined,0,h,0,0,0,82,82,0,82,82,0,0,0,82,0,82,82,82,9/25/19 9:27,600,The main experiment item,yes,FlankerTask.osexp,C:\Users\hosan\Desktop,no,mono,no,18,no,white,no,yes,768,legacy,2,79,C:/Users/hosan/Desktop/TB_subject-01.csv,xpyriment,Kafkaesque Koffka,3.2.8,0,s,NA,s,h,NA,s,458,NA,15129,9900,NA,458,2,legacy,1024,2,48000,-16,experiment,SSHSS,1,odd,21851,235008,NA,126996,NA,NA,240761,238933,6721,225107,NA,240868,6687,240868,241327,240738,Flanker Task ,78,40065,83,yes,1024
94.04761905,94.04761905,481.8928571,481.8928571,black,xpyriment,legacy,legacy,0,Congruent,uniform,1,undefined,1,h,0,0,0,83,83,0,83,83,0,0,0,83,0,83,83,83,9/25/19 9:27,600,The main experiment item,yes,FlankerTask.osexp,C:\Users\hosan\Desktop,no,mono,no,18,no,white,no,yes,768,legacy,3,79,C:/Users/hosan/Desktop/TB_subject-01.csv,xpyriment,Kafkaesque Koffka,3.2.8,0,h,NA,s,h,NA,h,414,NA,15129,9900,NA,414,2,legacy,1024,2,48000,-16,experiment,HHHHH,1,odd,21851,235008,NA,241403,NA,NA,243791,241911,6721,225107,NA,243897,6687,243897,244312,243767,Flanker Task ,79,40479,84,yes,1024
94.11764706,94.11764706,482.1058824,482.1058824,black,xpyriment,legacy,legacy,0,Incongruent,uniform,1,undefined,1,h,0,0,0,84,84,0,84,84,0,0,0,84,0,84,84,84,9/25/19 9:27,600,The main experiment item,yes,FlankerTask.osexp,C:\Users\hosan\Desktop,no,mono,no,18,no,white,no,yes,768,legacy,4,79,C:/Users/hosan/Desktop/TB_subject-01.csv,xpyriment,Kafkaesque Koffka,3.2.8,0,h,NA,s,h,NA,h,500,NA,15129,9900,NA,500,2,legacy,1024,2,48000,-16,experiment,SSHSS,1,odd,21851,235008,NA,241403,NA,NA,246232,244392,6721,225107,NA,246337,6687,246338,246841,246207,Flanker Task ,80,40979,85,yes,1024
93.02325581,93.02325581,479.7906977,479.7906977,black,xpyriment,legacy,legacy,0,Incongruent,uniform,0,undefined,0,h,0,0,0,85,85,0,85,85,0,0,0,85,0,85,85,85,9/25/19 9:27,600,The main experiment item,yes,FlankerTask.osexp,C:\Users\hosan\Desktop,no,mono,no,18,no,white,no,yes,768,legacy,5,79,C:/Users/hosan/Desktop/TB_subject-01.csv,xpyriment,Kafkaesque Koffka,3.2.8,0,s,NA,s,h,NA,s,283,NA,15129,9900,NA,283,2,legacy,1024,2,48000,-16,experiment,SSHSS,1,odd,21851,235008,NA,241403,NA,NA,248728,246906,6721,225107,NA,248835,6687,248836,249121,248704,Flanker Task ,80,41262,86,yes,1024
93.10344828,93.10344828,480.0574713,480.0574713,black,xpyriment,legacy,legacy,0,Incongruent,uniform,1,undefined,1,h,0,0,0,86,86,0,86,86,0,0,0,86,0,86,86,86,9/25/19 9:27,600,The main experiment item,yes,FlankerTask.osexp,C:\Users\hosan\Desktop,no,mono,no,18,no,white,no,yes,768,legacy,6,79,C:/Users/hosan/Desktop/TB_subject-01.csv,xpyriment,Kafkaesque Koffka,3.2.8,0,h,NA,s,h,NA,h,503,NA,15129,9900,NA,503,2,legacy,1024,2,48000,-16,experiment,SSHSS,1,odd,21851,235008,NA,249164,NA,NA,251475,249670,6721,225107,NA,251582,6687,251582,252086,251451,Flanker Task ,81,41765,87,yes,1024
93.18181818,93.18181818,479.6704545,479.6704545,black,xpyriment,legacy,legacy,0,Congruent,uniform,1,undefined,1,s,0,0,0,87,87,0,87,87,0,0,0,87,0,87,87,87,9/25/19 9:27,600,The main experiment item,yes,FlankerTask.osexp,C:\Users\hosan\Desktop,no,mono,no,18,no,white,no,yes,768,legacy,7,79,C:/Users/hosan/Desktop/TB_subject-01.csv,xpyriment,Kafkaesque Koffka,3.2.8,0,s,NA,s,h,NA,s,446,NA,15129,9900,NA,446,2,legacy,1024,2,48000,-16,experiment,SSSSS,1,odd,21851,235008,NA,249164,NA,NA,254003,252164,6721,225107,NA,254109,6687,254109,254556,253978,Flanker Task ,82,42211,88,yes,1024
93.25842697,93.25842697,478.5393258,478.5393258,black,xpyriment,legacy,legacy,0,Congruent,uniform,1,undefined,1,h,0,0,0,88,88,0,88,88,0,0,0,88,0,88,88,88,9/25/19 9:27,600,The main experiment item,yes,FlankerTask.osexp,C:\Users\hosan\Desktop,no,mono,no,18,no,white,no,yes,768,legacy,8,79,C:/Users/hosan/Desktop/TB_subject-01.csv,xpyriment,Kafkaesque Koffka,3.2.8,0,h,NA,s,h,NA,h,379,NA,15129,9900,NA,379,2,legacy,1024,2,48000,-16,experiment,HHHHH,1,odd,21851,235008,NA,249164,NA,NA,256453,254638,6721,225107,NA,256560,6687,256560,256940,256429,Flanker Task ,83,42590,89,yes,1024
93.33333333,93.33333333,478.8888889,478.8888889,black,xpyriment,legacy,legacy,0,Incongruent,uniform,1,undefined,1,h,0,0,0,89,89,0,89,89,0,0,0,89,0,89,89,89,9/25/19 9:27,600,The main experiment item,yes,FlankerTask.osexp,C:\Users\hosan\Desktop,no,mono,no,18,no,white,no,yes,768,legacy,9,79,C:/Users/hosan/Desktop/TB_subject-01.csv,xpyriment,Kafkaesque Koffka,3.2.8,0,h,NA,s,h,NA,h,510,NA,15129,9900,NA,510,2,legacy,1024,2,48000,-16,experiment,SSHSS,1,odd,21851,235008,NA,249164,NA,NA,258785,256973,6721,225107,NA,258893,6687,258893,259404,258761,Flanker Task ,84,43100,90,yes,1024
93.40659341,93.40659341,478.1648352,478.1648352,black,xpyriment,legacy,legacy,0,Congruent,uniform,1,undefined,1,h,0,0,0,90,90,0,90,90,0,0,0,90,0,90,90,90,9/25/19 9:27,600,The main experiment item,yes,FlankerTask.osexp,C:\Users\hosan\Desktop,no,mono,no,18,no,white,no,yes,768,legacy,10,79,C:/Users/hosan/Desktop/TB_subject-01.csv,xpyriment,Kafkaesque Koffka,3.2.8,0,h,NA,s,h,NA,h,413,NA,15129,9900,NA,413,2,legacy,1024,2,48000,-16,experiment,HHHHH,1,odd,21851,235008,NA,249164,NA,NA,261313,259491,6721,225107,NA,261420,6687,261420,261834,261290,Flanker Task ,85,43513,91,yes,1024
93.47826087,93.47826087,479.2173913,479.2173913,black,xpyriment,legacy,legacy,0,Congruent,uniform,1,undefined,1,s,0,0,0,91,91,0,91,91,0,0,0,91,0,91,91,91,9/25/19 9:27,600,The main experiment item,yes,FlankerTask.osexp,C:\Users\hosan\Desktop,no,mono,no,18,no,white,no,yes,768,legacy,11,79,C:/Users/hosan/Desktop/TB_subject-01.csv,xpyriment,Kafkaesque Koffka,3.2.8,0,s,NA,s,h,NA,s,575,NA,15129,9900,NA,575,2,legacy,1024,2,48000,-16,experiment,SSSSS,1,odd,21851,235008,NA,249164,NA,NA,263724,261906,6721,225107,NA,263830,6687,263830,264407,263699,Flanker Task ,86,44088,92,yes,1024
93.5483871,93.5483871,478.4623656,478.4623656,black,xpyriment,legacy,legacy,0,Congruent,uniform,1,undefined,1,h,0,0,0,92,92,0,92,92,0,0,0,92,0,92,92,92,9/25/19 9:27,600,The main experiment item,yes,FlankerTask.osexp,C:\Users\hosan\Desktop,no,mono,no,18,no,white,no,yes,768,legacy,12,79,C:/Users/hosan/Desktop/TB_subject-01.csv,xpyriment,Kafkaesque Koffka,3.2.8,0,h,NA,s,h,NA,h,409,NA,15129,9900,NA,409,2,legacy,1024,2,48000,-16,experiment,HHHHH,1,odd,21851,235008,NA,249164,NA,NA,266276,264440,6721,225107,NA,266382,6687,266382,266792,266251,Flanker Task ,87,44497,93,yes,1024
93.61702128,93.61702128,477.5957447,477.5957447,black,xpyriment,legacy,legacy,0,Congruent,uniform,1,undefined,1,h,0,0,0,93,93,0,93,93,0,0,0,93,0,93,93,93,9/25/19 9:27,600,The main experiment item,yes,FlankerTask.osexp,C:\Users\hosan\Desktop,no,mono,no,18,no,white,no,yes,768,legacy,13,79,C:/Users/hosan/Desktop/TB_subject-01.csv,xpyriment,Kafkaesque Koffka,3.2.8,0,h,NA,s,h,NA,h,397,NA,15129,9900,NA,397,2,legacy,1024,2,48000,-16,experiment,HHHHH,1,odd,21851,235008,NA,249164,NA,NA,268697,266864,6721,225107,NA,268804,6687,268804,269203,268673,Flanker Task ,88,44894,94,yes,1024
92.63157895,92.63157895,478.2736842,478.2736842,black,xpyriment,legacy,legacy,0,Incongruent,uniform,0,undefined,0,h,0,0,0,94,94,0,94,94,0,0,0,94,0,94,94,94,9/25/19 9:27,600,The main experiment item,yes,FlankerTask.osexp,C:\Users\hosan\Desktop,no,mono,no,18,no,white,no,yes,768,legacy,14,79,C:/Users/hosan/Desktop/TB_subject-01.csv,xpyriment,Kafkaesque Koffka,3.2.8,0,s,NA,s,h,NA,s,542,NA,15129,9900,NA,542,2,legacy,1024,2,48000,-16,experiment,SSHSS,1,odd,21851,235008,NA,249164,NA,NA,271066,269233,6721,225107,NA,271173,6687,271173,271716,271041,Flanker Task ,88,45436,95,yes,1024
92.70833333,92.70833333,478.53125,478.53125,black,xpyriment,legacy,legacy,0,Incongruent,uniform,1,undefined,1,h,0,0,0,95,95,0,95,95,0,0,0,95,0,95,95,95,9/25/19 9:27,600,The main experiment item,yes,FlankerTask.osexp,C:\Users\hosan\Desktop,no,mono,no,18,no,white,no,yes,768,legacy,15,79,C:/Users/hosan/Desktop/TB_subject-01.csv,xpyriment,Kafkaesque Koffka,3.2.8,0,h,NA,s,h,NA,h,503,NA,15129,9900,NA,503,2,legacy,1024,2,48000,-16,experiment,SSHSS,1,odd,21851,235008,NA,271858,NA,NA,274193,272365,6721,225107,NA,274299,6687,274299,274803,274168,Flanker Task ,89,45939,96,yes,1024
92.78350515,92.78350515,479.1958763,479.1958763,black,xpyriment,legacy,legacy,0,Incongruent,uniform,1,undefined,1,s,0,0,0,96,96,0,96,96,0,0,0,96,0,96,96,96,9/25/19 9:27,600,The main experiment item,yes,FlankerTask.osexp,C:\Users\hosan\Desktop,no,mono,no,18,no,white,no,yes,768,legacy,16,79,C:/Users/hosan/Desktop/TB_subject-01.csv,xpyriment,Kafkaesque Koffka,3.2.8,0,s,NA,s,h,NA,s,543,NA,15129,9900,NA,543,2,legacy,1024,2,48000,-16,experiment,HHSHH,1,odd,21851,235008,NA,271858,NA,NA,276663,274839,6721,225107,NA,276769,6687,276770,277314,276639,Flanker Task ,90,46482,97,yes,1024
92.85714286,92.85714286,484.0306122,484.0306122,black,xpyriment,legacy,legacy,0,Congruent,uniform,1,undefined,1,s,0,0,0,97,97,0,97,97,0,0,0,97,0,97,97,97,9/25/19 9:27,600,The main experiment item,yes,FlankerTask.osexp,C:\Users\hosan\Desktop,no,mono,no,18,no,white,no,yes,768,legacy,17,79,C:/Users/hosan/Desktop/TB_subject-01.csv,xpyriment,Kafkaesque Koffka,3.2.8,0,s,NA,s,h,NA,s,953,NA,15129,9900,NA,953,2,legacy,1024,2,48000,-16,experiment,SSSSS,1,odd,21851,235008,NA,271858,NA,NA,279210,277359,6721,225107,NA,279316,6687,279316,280270,279186,Flanker Task ,91,47435,98,yes,1024
92.92929293,92.92929293,483.4949495,483.4949495,black,xpyriment,legacy,legacy,0,Incongruent,uniform,1,undefined,1,h,0,0,0,98,98,0,98,98,0,0,0,98,0,98,98,98,9/25/19 9:27,600,The main experiment item,yes,FlankerTask.osexp,C:\Users\hosan\Desktop,no,mono,no,18,no,white,no,yes,768,legacy,18,79,C:/Users/hosan/Desktop/TB_subject-01.csv,xpyriment,Kafkaesque Koffka,3.2.8,0,h,NA,s,h,NA,h,431,NA,15129,9900,NA,431,2,legacy,1024,2,48000,-16,experiment,SSHSS,1,odd,21851,235008,NA,271858,280337,NA,282675,280843,6721,225107,NA,282781,6687,282782,283214,282651,Flanker Task ,92,47866,99,yes,1024
93,93,482.82,482.82,black,xpyriment,legacy,legacy,0,Congruent,uniform,1,undefined,1,h,0,0,0,99,99,0,99,99,0,0,0,99,0,99,99,99,9/25/19 9:27,600,The main experiment item,yes,FlankerTask.osexp,C:\Users\hosan\Desktop,no,mono,no,18,no,white,no,yes,768,legacy,19,79,C:/Users/hosan/Desktop/TB_subject-01.csv,xpyriment,Kafkaesque Koffka,3.2.8,0,h,NA,s,h,NA,h,416,NA,15129,9900,NA,416,2,legacy,1024,2,48000,-16,experiment,HHHHH,1,odd,21851,235008,NA,271858,280337,NA,285120,283299,6721,225107,NA,285227,6687,285227,285644,285095,Flanker Task ,93,48282,100,yes,1024
93.06930693,93.06930693,482.1584158,482.1584158,black,xpyriment,legacy,legacy,0,Congruent,uniform,1,undefined,1,h,0,0,0,100,100,0,100,100,0,0,0,100,0,100,100,100,9/25/19 9:27,600,The main experiment item,yes,FlankerTask.osexp,C:\Users\hosan\Desktop,no,mono,no,18,no,white,no,yes,768,legacy,20,79,C:/Users/hosan/Desktop/TB_subject-01.csv,xpyriment,Kafkaesque Koffka,3.2.8,0,h,NA,s,h,NA,h,416,NA,15129,9900,NA,416,2,legacy,1024,2,48000,-16,experiment,HHHHH,1,odd,21851,235008,NA,271858,280337,NA,287587,285762,6721,225107,NA,287694,6687,287694,288112,287564,Flanker Task ,94,48698,101,yes,1024
93.1372549,93.1372549,481.6176471,481.6176471,black,xpyriment,legacy,legacy,0,Incongruent,uniform,1,undefined,1,s,0,0,0,101,101,0,101,101,0,0,0,101,0,101,101,101,9/25/19 9:27,600,The main experiment item,yes,FlankerTask.osexp,C:\Users\hosan\Desktop,no,mono,no,18,no,white,no,yes,768,legacy,21,79,C:/Users/hosan/Desktop/TB_subject-01.csv,xpyriment,Kafkaesque Koffka,3.2.8,0,s,NA,s,h,NA,s,427,NA,15129,9900,NA,427,2,legacy,1024,2,48000,-16,experiment,HHSHH,1,odd,21851,235008,NA,271858,280337,NA,289987,288153,6721,225107,NA,290092,6687,290093,290522,289962,Flanker Task ,95,49125,102,yes,1024
93.2038835,93.2038835,480.961165,480.961165,black,xpyriment,legacy,legacy,0,Congruent,uniform,1,undefined,1,h,0,0,0,102,102,0,102,102,0,0,0,102,0,102,102,102,9/25/19 9:27,600,The main experiment item,yes,FlankerTask.osexp,C:\Users\hosan\Desktop,no,mono,no,18,no,white,no,yes,768,legacy,22,79,C:/Users/hosan/Desktop/TB_subject-01.csv,xpyriment,Kafkaesque Koffka,3.2.8,0,h,NA,s,h,NA,h,414,NA,15129,9900,NA,414,2,legacy,1024,2,48000,-16,experiment,HHHHH,1,odd,21851,235008,NA,271858,280337,NA,292387,290555,6721,225107,NA,292492,6687,292492,292907,292362,Flanker Task ,96,49539,103,yes,1024
93.26923077,93.26923077,481.5769231,481.5769231,black,xpyriment,legacy,legacy,0,Congruent,uniform,1,undefined,1,s,0,0,0,103,103,0,103,103,0,0,0,103,0,103,103,103,9/25/19 9:27,600,The main experiment item,yes,FlankerTask.osexp,C:\Users\hosan\Desktop,no,mono,no,18,no,white,no,yes,768,legacy,23,79,C:/Users/hosan/Desktop/TB_subject-01.csv,xpyriment,Kafkaesque Koffka,3.2.8,0,s,NA,s,h,NA,s,545,NA,15129,9900,NA,545,2,legacy,1024,2,48000,-16,experiment,SSSSS,1,odd,21851,235008,NA,271858,280337,NA,294809,292979,6721,225107,NA,294914,6687,294915,295462,294784,Flanker Task ,97,50084,104,yes,1024
93.33333333,93.33333333,483.1142857,483.1142857,black,xpyriment,legacy,legacy,0,Incongruent,uniform,1,undefined,1,s,0,0,0,104,104,0,104,104,0,0,0,104,0,104,104,104,9/25/19 9:27,600,The main experiment item,yes,FlankerTask.osexp,C:\Users\hosan\Desktop,no,mono,no,18,no,white,no,yes,768,legacy,24,79,C:/Users/hosan/Desktop/TB_subject-01.csv,xpyriment,Kafkaesque Koffka,3.2.8,0,s,NA,s,h,NA,s,643,NA,15129,9900,NA,643,2,legacy,1024,2,48000,-16,experiment,HHSHH,1,odd,21851,235008,NA,271858,280337,NA,297335,295503,6721,225107,NA,297442,6687,297442,298087,297311,Flanker Task ,98,50727,105,yes,1024
93.39622642,93.39622642,483.0943396,483.0943396,black,xpyriment,legacy,legacy,0,Congruent,uniform,1,undefined,1,s,0,0,0,105,105,0,105,105,0,0,0,105,0,105,105,105,9/25/19 9:27,600,The main experiment item,yes,FlankerTask.osexp,C:\Users\hosan\Desktop,no,mono,no,18,no,white,no,yes,768,legacy,25,79,C:/Users/hosan/Desktop/TB_subject-01.csv,xpyriment,Kafkaesque Koffka,3.2.8,0,s,NA,s,h,NA,s,481,NA,15129,9900,NA,481,2,legacy,1024,2,48000,-16,experiment,SSSSS,1,odd,21851,235008,NA,271858,298160,NA,300512,298668,6721,225107,NA,300618,6687,300619,301102,300489,Flanker Task ,99,51208,106,yes,1024
93.45794393,93.45794393,482.3925234,482.3925234,black,xpyriment,legacy,legacy,0,Incongruent,uniform,1,undefined,1,s,0,0,0,106,106,0,106,106,0,0,0,106,0,106,106,106,9/25/19 9:27,600,The main experiment item,yes,FlankerTask.osexp,C:\Users\hosan\Desktop,no,mono,no,18,no,white,no,yes,768,legacy,26,79,C:/Users/hosan/Desktop/TB_subject-01.csv,xpyriment,Kafkaesque Koffka,3.2.8,0,s,NA,s,h,NA,s,408,NA,15129,9900,NA,408,2,legacy,1024,2,48000,-16,experiment,HHSHH,1,odd,21851,235008,NA,271858,298160,NA,302994,301171,6721,225107,NA,303101,6687,303101,303510,302970,Flanker Task ,100,51616,107,yes,1024
93.51851852,93.51851852,482.462963,482.462963,black,xpyriment,legacy,legacy,0,Congruent,uniform,1,undefined,1,h,0,0,0,107,107,0,107,107,0,0,0,107,0,107,107,107,9/25/19 9:27,600,The main experiment item,yes,FlankerTask.osexp,C:\Users\hosan\Desktop,no,mono,no,18,no,white,no,yes,768,legacy,27,79,C:/Users/hosan/Desktop/TB_subject-01.csv,xpyriment,Kafkaesque Koffka,3.2.8,0,h,NA,s,h,NA,h,490,NA,15129,9900,NA,490,2,legacy,1024,2,48000,-16,experiment,HHHHH,1,odd,21851,235008,NA,271858,298160,NA,305374,303544,6721,225107,NA,305480,6687,305480,305972,305349,Flanker Task ,101,52106,108,yes,1024
93.57798165,93.57798165,481.8807339,481.8807339,black,xpyriment,legacy,legacy,0,Incongruent,uniform,1,undefined,1,s,0,0,0,108,108,0,108,108,0,0,0,108,0,108,108,108,9/25/19 9:27,600,The main experiment item,yes,FlankerTask.osexp,C:\Users\hosan\Desktop,no,mono,no,18,no,white,no,yes,768,legacy,28,79,C:/Users/hosan/Desktop/TB_subject-01.csv,xpyriment,Kafkaesque Koffka,3.2.8,0,s,NA,s,h,NA,s,419,NA,15129,9900,NA,419,2,legacy,1024,2,48000,-16,experiment,HHSHH,1,odd,21851,235008,NA,271858,298160,NA,308019,306209,6721,225107,NA,308126,6687,308126,308547,307995,Flanker Task ,102,52525,109,yes,1024
92.72727273,92.72727273,483.2818182,483.2818182,black,xpyriment,legacy,legacy,0,Incongruent,uniform,0,undefined,0,h,0,0,0,109,109,0,109,109,0,0,0,109,0,109,109,109,9/25/19 9:27,600,The main experiment item,yes,FlankerTask.osexp,C:\Users\hosan\Desktop,no,mono,no,18,no,white,no,yes,768,legacy,29,79,C:/Users/hosan/Desktop/TB_subject-01.csv,xpyriment,Kafkaesque Koffka,3.2.8,0,s,NA,s,h,NA,s,636,NA,15129,9900,NA,636,2,legacy,1024,2,48000,-16,experiment,SSHSS,1,odd,21851,235008,NA,271858,298160,NA,310433,308604,6721,225107,NA,310540,6687,310540,311178,310409,Flanker Task ,102,53161,110,yes,1024
92.79279279,92.79279279,484.5855856,484.5855856,black,xpyriment,legacy,legacy,0,Incongruent,uniform,1,undefined,1,h,0,0,0,110,110,0,110,110,0,0,0,110,0,110,110,110,9/25/19 9:27,600,The main experiment item,yes,FlankerTask.osexp,C:\Users\hosan\Desktop,no,mono,no,18,no,white,no,yes,768,legacy,30,79,C:/Users/hosan/Desktop/TB_subject-01.csv,xpyriment,Kafkaesque Koffka,3.2.8,0,h,NA,s,h,NA,h,628,NA,15129,9900,NA,628,2,legacy,1024,2,48000,-16,experiment,SSHSS,1,odd,21851,235008,NA,311257,311765,NA,314098,312271,6721,225107,NA,314205,6687,314205,314836,314074,Flanker Task ,103,53789,111,yes,1024
91.96428571,91.96428571,484.6517857,484.6517857,black,xpyriment,legacy,legacy,0,Congruent,uniform,0,undefined,0,s,0,0,0,111,111,0,111,111,0,0,0,111,0,111,111,111,9/25/19 9:27,600,The main experiment item,yes,FlankerTask.osexp,C:\Users\hosan\Desktop,no,mono,no,18,no,white,no,yes,768,legacy,31,79,C:/Users/hosan/Desktop/TB_subject-01.csv,xpyriment,Kafkaesque Koffka,3.2.8,0,h,NA,s,h,NA,h,492,NA,15129,9900,NA,492,2,legacy,1024,2,48000,-16,experiment,SSSSS,1,odd,21851,235008,NA,311257,314909,NA,317243,315416,6721,225107,NA,317350,6687,317350,317844,317220,Flanker Task ,103,54281,112,yes,1024
92.03539823,92.03539823,483.5575221,483.5575221,black,xpyriment,legacy,legacy,0,Congruent,uniform,1,undefined,1,h,0,0,0,112,112,0,112,112,0,0,0,112,0,112,112,112,9/25/19 9:27,600,The main experiment item,yes,FlankerTask.osexp,C:\Users\hosan\Desktop,no,mono,no,18,no,white,no,yes,768,legacy,32,79,C:/Users/hosan/Desktop/TB_subject-01.csv,xpyriment,Kafkaesque Koffka,3.2.8,0,h,NA,s,h,NA,h,361,NA,15129,9900,NA,361,2,legacy,1024,2,48000,-16,experiment,HHHHH,1,odd,21851,235008,NA,317925,314909,NA,320258,318433,6721,225107,NA,320364,6687,320364,320726,320233,Flanker Task ,104,54642,113,yes,1024
92.10526316,92.10526316,481.8421053,481.8421053,black,xpyriment,legacy,legacy,0,Congruent,uniform,1,undefined,1,h,0,0,0,113,113,0,113,113,0,0,0,113,0,113,113,113,9/25/19 9:27,600,The main experiment item,yes,FlankerTask.osexp,C:\Users\hosan\Desktop,no,mono,no,18,no,white,no,yes,768,legacy,33,79,C:/Users/hosan/Desktop/TB_subject-01.csv,xpyriment,Kafkaesque Koffka,3.2.8,0,h,NA,s,h,NA,h,288,NA,15129,9900,NA,288,2,legacy,1024,2,48000,-16,experiment,HHHHH,1,odd,21851,235008,NA,317925,314909,NA,322627,320799,6721,225107,NA,322733,6687,322733,323023,322603,Flanker Task ,105,54930,114,yes,1024
92.17391304,92.17391304,480.373913,480.373913,black,xpyriment,legacy,legacy,0,Congruent,uniform,1,undefined,1,h,0,0,0,114,114,0,114,114,0,0,0,114,0,114,114,114,9/25/19 9:27,600,The main experiment item,yes,FlankerTask.osexp,C:\Users\hosan\Desktop,no,mono,no,18,no,white,no,yes,768,legacy,34,79,C:/Users/hosan/Desktop/TB_subject-01.csv,xpyriment,Kafkaesque Koffka,3.2.8,0,h,NA,s,h,NA,h,313,NA,15129,9900,NA,313,2,legacy,1024,2,48000,-16,experiment,HHHHH,1,odd,21851,235008,NA,317925,314909,NA,324905,323091,6721,225107,NA,325011,6687,325012,325326,324881,Flanker Task ,106,55243,115,yes,1024
92.24137931,92.24137931,478.8965517,478.8965517,black,xpyriment,legacy,legacy,0,Incongruent,uniform,1,undefined,1,h,0,0,0,115,115,0,115,115,0,0,0,115,0,115,115,115,9/25/19 9:27,600,The main experiment item,yes,FlankerTask.osexp,C:\Users\hosan\Desktop,no,mono,no,18,no,white,no,yes,768,legacy,35,79,C:/Users/hosan/Desktop/TB_subject-01.csv,xpyriment,Kafkaesque Koffka,3.2.8,0,h,NA,s,h,NA,h,309,NA,15129,9900,NA,309,2,legacy,1024,2,48000,-16,experiment,SSHSS,1,odd,21851,235008,NA,317925,314909,NA,327218,325415,6721,225107,NA,327324,6687,327324,327635,327193,Flanker Task ,107,55552,116,yes,1024
92.30769231,92.30769231,477.5042735,477.5042735,black,xpyriment,legacy,legacy,0,Congruent,uniform,1,undefined,1,s,0,0,0,116,116,0,116,116,0,0,0,116,0,116,116,116,9/25/19 9:27,600,The main experiment item,yes,FlankerTask.osexp,C:\Users\hosan\Desktop,no,mono,no,18,no,white,no,yes,768,legacy,36,79,C:/Users/hosan/Desktop/TB_subject-01.csv,xpyriment,Kafkaesque Koffka,3.2.8,0,s,NA,s,h,NA,s,316,NA,15129,9900,NA,316,2,legacy,1024,2,48000,-16,experiment,SSSSS,1,odd,21851,235008,NA,317925,314909,NA,329559,327706,6721,225107,NA,329665,6687,329665,329983,329533,Flanker Task ,108,55868,117,yes,1024
92.37288136,92.37288136,476.2372881,476.2372881,black,xpyriment,legacy,legacy,0,Congruent,uniform,1,undefined,1,s,0,0,0,117,117,0,117,117,0,0,0,117,0,117,117,117,9/25/19 9:27,600,The main experiment item,yes,FlankerTask.osexp,C:\Users\hosan\Desktop,no,mono,no,18,no,white,no,yes,768,legacy,37,79,C:/Users/hosan/Desktop/TB_subject-01.csv,xpyriment,Kafkaesque Koffka,3.2.8,0,s,NA,s,h,NA,s,328,NA,15129,9900,NA,328,2,legacy,1024,2,48000,-16,experiment,SSSSS,1,odd,21851,235008,NA,317925,314909,NA,331880,330057,6721,225107,NA,331986,6687,331986,332315,331856,Flanker Task ,109,56196,118,yes,1024
92.43697479,92.43697479,475.8487395,475.8487395,black,xpyriment,legacy,legacy,0,Incongruent,uniform,1,undefined,1,s,0,0,0,118,118,0,118,118,0,0,0,118,0,118,118,118,9/25/19 9:27,600,The main experiment item,yes,FlankerTask.osexp,C:\Users\hosan\Desktop,no,mono,no,18,no,white,no,yes,768,legacy,38,79,C:/Users/hosan/Desktop/TB_subject-01.csv,xpyriment,Kafkaesque Koffka,3.2.8,0,s,NA,s,h,NA,s,430,NA,15129,9900,NA,430,2,legacy,1024,2,48000,-16,experiment,HHSHH,1,odd,21851,235008,NA,317925,314909,NA,334210,332401,6721,225107,NA,334317,6687,334317,334748,334186,Flanker Task ,110,56626,119,yes,1024
92.5,92.5,475.4166667,475.4166667,black,xpyriment,legacy,legacy,0,Incongruent,uniform,1,undefined,1,s,0,0,0,119,119,0,119,119,0,0,0,119,0,119,119,119,9/25/19 9:27,600,The main experiment item,yes,FlankerTask.osexp,C:\Users\hosan\Desktop,no,mono,no,18,no,white,no,yes,768,legacy,39,79,C:/Users/hosan/Desktop/TB_subject-01.csv,xpyriment,Kafkaesque Koffka,3.2.8,0,s,NA,s,h,NA,s,424,NA,15129,9900,NA,424,2,legacy,1024,2,48000,-16,experiment,HHSHH,1,odd,21851,235008,NA,317925,314909,NA,336589,334780,6721,225107,NA,336696,6687,336696,337122,336564,Flanker Task ,111,57050,120,yes,1024
92.56198347,92.56198347,475.3966942,475.3966942,black,xpyriment,legacy,legacy,0,Incongruent,uniform,1,undefined,1,h,0,0,0,120,120,0,120,120,0,0,0,120,0,120,120,120,9/25/19 9:27,600,The main experiment item,yes,FlankerTask.osexp,C:\Users\hosan\Desktop,no,mono,no,18,no,white,no,yes,768,legacy,40,79,C:/Users/hosan/Desktop/TB_subject-01.csv,xpyriment,Kafkaesque Koffka,3.2.8,0,h,NA,s,h,NA,h,473,NA,15129,9900,NA,473,2,legacy,1024,2,48000,-16,experiment,SSHSS,1,odd,21851,235008,NA,317925,314909,NA,339021,337193,6721,225107,NA,339128,6687,339128,339603,338997,Flanker Task ,112,57523,121,yes,1024
92.62295082,92.62295082,474.4918033,474.4918033,black,xpyriment,legacy,legacy,0,Congruent,uniform,1,undefined,1,s,0,0,0,121,121,0,121,121,0,0,0,121,0,121,121,121,9/25/19 9:27,600,The main experiment item,yes,FlankerTask.osexp,C:\Users\hosan\Desktop,no,mono,no,18,no,white,no,yes,768,legacy,41,79,C:/Users/hosan/Desktop/TB_subject-01.csv,xpyriment,Kafkaesque Koffka,3.2.8,0,s,NA,s,h,NA,s,365,NA,15129,9900,NA,365,2,legacy,1024,2,48000,-16,experiment,SSSSS,1,odd,21851,235008,NA,317925,314909,NA,341501,339674,6721,225107,NA,341608,6687,341608,341975,341477,Flanker Task ,113,57888,122,yes,1024
92.68292683,92.68292683,473.8211382,473.8211382,black,xpyriment,legacy,legacy,0,Incongruent,uniform,1,undefined,1,s,0,0,0,122,122,0,122,122,0,0,0,122,0,122,122,122,9/25/19 9:27,600,The main experiment item,yes,FlankerTask.osexp,C:\Users\hosan\Desktop,no,mono,no,18,no,white,no,yes,768,legacy,42,79,C:/Users/hosan/Desktop/TB_subject-01.csv,xpyriment,Kafkaesque Koffka,3.2.8,0,s,NA,s,h,NA,s,392,NA,15129,9900,NA,392,2,legacy,1024,2,48000,-16,experiment,HHSHH,1,odd,21851,235008,NA,317925,314909,NA,343866,342043,6721,225107,NA,343972,6687,343972,344366,343842,Flanker Task ,114,58280,123,yes,1024
92.74193548,92.74193548,473.7016129,473.7016129,black,xpyriment,legacy,legacy,0,Congruent,uniform,1,undefined,1,h,0,0,0,123,123,0,123,123,0,0,0,123,0,123,123,123,9/25/19 9:27,600,The main experiment item,yes,FlankerTask.osexp,C:\Users\hosan\Desktop,no,mono,no,18,no,white,no,yes,768,legacy,43,79,C:/Users/hosan/Desktop/TB_subject-01.csv,xpyriment,Kafkaesque Koffka,3.2.8,0,h,NA,s,h,NA,h,459,NA,15129,9900,NA,459,2,legacy,1024,2,48000,-16,experiment,HHHHH,1,odd,21851,235008,NA,317925,314909,NA,346266,344438,6721,225107,NA,346373,6687,346373,346834,346242,Flanker Task ,115,58739,124,yes,1024
92.8,92.8,472.568,472.568,black,xpyriment,legacy,legacy,0,Congruent,uniform,1,undefined,1,s,0,0,0,124,124,0,124,124,0,0,0,124,0,124,124,124,9/25/19 9:27,600,The main experiment item,yes,FlankerTask.osexp,C:\Users\hosan\Desktop,no,mono,no,18,no,white,no,yes,768,legacy,44,79,C:/Users/hosan/Desktop/TB_subject-01.csv,xpyriment,Kafkaesque Koffka,3.2.8,0,s,NA,s,h,NA,s,332,NA,15129,9900,NA,332,2,legacy,1024,2,48000,-16,experiment,SSSSS,1,odd,21851,235008,NA,317925,314909,NA,348701,346901,6721,225107,NA,348807,6687,348807,349141,348677,Flanker Task ,116,59071,125,yes,1024
92.85714286,92.85714286,471.6904762,471.6904762,black,xpyriment,legacy,legacy,0,Congruent,uniform,1,undefined,1,s,0,0,0,125,125,0,125,125,0,0,0,125,0,125,125,125,9/25/19 9:27,600,The main experiment item,yes,FlankerTask.osexp,C:\Users\hosan\Desktop,no,mono,no,18,no,white,no,yes,768,legacy,45,79,C:/Users/hosan/Desktop/TB_subject-01.csv,xpyriment,Kafkaesque Koffka,3.2.8,0,s,NA,s,h,NA,s,362,NA,15129,9900,NA,362,2,legacy,1024,2,48000,-16,experiment,SSSSS,1,odd,21851,235008,NA,317925,314909,NA,350990,349171,6721,225107,NA,351097,6687,351097,351461,350966,Flanker Task ,117,59433,126,yes,1024
92.91338583,92.91338583,471.3307087,471.3307087,black,xpyriment,legacy,legacy,0,Congruent,uniform,1,undefined,1,h,0,0,0,126,126,0,126,126,0,0,0,126,0,126,126,126,9/25/19 9:27,600,The main experiment item,yes,FlankerTask.osexp,C:\Users\hosan\Desktop,no,mono,no,18,no,white,no,yes,768,legacy,46,79,C:/Users/hosan/Desktop/TB_subject-01.csv,xpyriment,Kafkaesque Koffka,3.2.8,0,h,NA,s,h,NA,h,426,NA,15129,9900,NA,426,2,legacy,1024,2,48000,-16,experiment,HHHHH,1,odd,21851,235008,NA,317925,314909,NA,353322,351496,6721,225107,NA,353429,6687,353429,353856,353298,Flanker Task ,118,59859,127,yes,1024
92.96875,92.96875,470.859375,470.859375,black,xpyriment,legacy,legacy,0,Congruent,uniform,1,undefined,1,s,0,0,0,127,127,0,127,127,0,0,0,127,0,127,127,127,9/25/19 9:27,600,The main experiment item,yes,FlankerTask.osexp,C:\Users\hosan\Desktop,no,mono,no,18,no,white,no,yes,768,legacy,47,79,C:/Users/hosan/Desktop/TB_subject-01.csv,xpyriment,Kafkaesque Koffka,3.2.8,0,s,NA,s,h,NA,s,411,NA,15129,9900,NA,411,2,legacy,1024,2,48000,-16,experiment,SSSSS,1,odd,21851,235008,NA,317925,314909,NA,355785,353956,6721,225107,NA,355891,6687,355891,356303,355761,Flanker Task ,119,60270,128,yes,1024
93.02325581,93.02325581,470.5891473,470.5891473,black,xpyriment,legacy,legacy,0,Congruent,uniform,1,undefined,1,h,0,0,0,128,128,0,128,128,0,0,0,128,0,128,128,128,9/25/19 9:27,600,The main experiment item,yes,FlankerTask.osexp,C:\Users\hosan\Desktop,no,mono,no,18,no,white,no,yes,768,legacy,48,79,C:/Users/hosan/Desktop/TB_subject-01.csv,xpyriment,Kafkaesque Koffka,3.2.8,0,h,NA,s,h,NA,h,436,NA,15129,9900,NA,436,2,legacy,1024,2,48000,-16,experiment,HHHHH,1,odd,21851,235008,NA,317925,314909,NA,358186,356368,6721,225107,NA,358292,6687,358292,358730,358162,Flanker Task ,120,60706,129,yes,1024
93.07692308,93.07692308,470.1384615,470.1384615,black,xpyriment,legacy,legacy,0,Congruent,uniform,1,undefined,1,s,0,0,0,129,129,0,129,129,0,0,0,129,0,129,129,129,9/25/19 9:27,600,The main experiment item,yes,FlankerTask.osexp,C:\Users\hosan\Desktop,no,mono,no,18,no,white,no,yes,768,legacy,49,79,C:/Users/hosan/Desktop/TB_subject-01.csv,xpyriment,Kafkaesque Koffka,3.2.8,0,s,NA,s,h,NA,s,412,NA,15129,9900,NA,412,2,legacy,1024,2,48000,-16,experiment,SSSSS,1,odd,21851,235008,NA,317925,314909,NA,360641,358815,6721,225107,NA,360748,6687,360748,361162,360617,Flanker Task ,121,61118,130,yes,1024
93.12977099,93.12977099,469.6946565,469.6946565,black,xpyriment,legacy,legacy,0,Incongruent,uniform,1,undefined,1,s,0,0,0,130,130,0,130,130,0,0,0,130,0,130,130,130,9/25/19 9:27,600,The main experiment item,yes,FlankerTask.osexp,C:\Users\hosan\Desktop,no,mono,no,18,no,white,no,yes,768,legacy,50,79,C:/Users/hosan/Desktop/TB_subject-01.csv,xpyriment,Kafkaesque Koffka,3.2.8,0,s,NA,s,h,NA,s,412,NA,15129,9900,NA,412,2,legacy,1024,2,48000,-16,experiment,HHSHH,1,odd,21851,235008,NA,317925,314909,NA,363069,361248,6721,225107,NA,363176,6687,363176,363590,363045,Flanker Task ,122,61530,131,yes,1024
93.18181818,93.18181818,469.5454545,469.5454545,black,xpyriment,legacy,legacy,0,Congruent,uniform,1,undefined,1,h,0,0,0,131,131,0,131,131,0,0,0,131,0,131,131,131,9/25/19 9:27,600,The main experiment item,yes,FlankerTask.osexp,C:\Users\hosan\Desktop,no,mono,no,18,no,white,no,yes,768,legacy,51,79,C:/Users/hosan/Desktop/TB_subject-01.csv,xpyriment,Kafkaesque Koffka,3.2.8,0,h,NA,s,h,NA,h,450,NA,15129,9900,NA,450,2,legacy,1024,2,48000,-16,experiment,HHHHH,1,odd,21851,235008,NA,317925,314909,NA,365489,363656,6721,225107,NA,365596,6687,365596,366048,365465,Flanker Task ,123,61980,132,yes,1024
93.23308271,93.23308271,469.0676692,469.0676692,black,xpyriment,legacy,legacy,0,Incongruent,uniform,1,undefined,1,s,0,0,0,132,132,0,132,132,0,0,0,132,0,132,132,132,9/25/19 9:27,600,The main experiment item,yes,FlankerTask.osexp,C:\Users\hosan\Desktop,no,mono,no,18,no,white,no,yes,768,legacy,52,79,C:/Users/hosan/Desktop/TB_subject-01.csv,xpyriment,Kafkaesque Koffka,3.2.8,0,s,NA,s,h,NA,s,406,NA,15129,9900,NA,406,2,legacy,1024,2,48000,-16,experiment,HHSHH,1,odd,21851,235008,NA,317925,314909,NA,367890,366079,6721,225107,NA,367996,6687,367996,368403,367865,Flanker Task ,124,62386,133,yes,1024
93.28358209,93.28358209,468.7761194,468.7761194,black,xpyriment,legacy,legacy,0,Incongruent,uniform,1,undefined,1,h,0,0,0,133,133,0,133,133,0,0,0,133,0,133,133,133,9/25/19 9:27,600,The main experiment item,yes,FlankerTask.osexp,C:\Users\hosan\Desktop,no,mono,no,18,no,white,no,yes,768,legacy,53,79,C:/Users/hosan/Desktop/TB_subject-01.csv,xpyriment,Kafkaesque Koffka,3.2.8,0,h,NA,s,h,NA,h,430,NA,15129,9900,NA,430,2,legacy,1024,2,48000,-16,experiment,SSHSS,1,odd,21851,235008,NA,317925,314909,NA,370321,368478,6721,225107,NA,370427,6687,370427,370859,370297,Flanker Task ,125,62816,134,yes,1024
93.33333333,93.33333333,468.5925926,468.5925926,black,xpyriment,legacy,legacy,0,Congruent,uniform,1,undefined,1,s,0,0,0,134,134,0,134,134,0,0,0,134,0,134,134,134,9/25/19 9:27,600,The main experiment item,yes,FlankerTask.osexp,C:\Users\hosan\Desktop,no,mono,no,18,no,white,no,yes,768,legacy,54,79,C:/Users/hosan/Desktop/TB_subject-01.csv,xpyriment,Kafkaesque Koffka,3.2.8,0,s,NA,s,h,NA,s,444,NA,15129,9900,NA,444,2,legacy,1024,2,48000,-16,experiment,SSSSS,1,odd,21851,235008,NA,317925,314909,NA,372777,370946,6721,225107,NA,372884,6687,372884,373329,372754,Flanker Task ,126,63260,135,yes,1024
93.38235294,93.38235294,468.4338235,468.4338235,black,xpyriment,legacy,legacy,0,Congruent,uniform,1,undefined,1,h,0,0,0,135,135,0,135,135,0,0,0,135,0,135,135,135,9/25/19 9:27,600,The main experiment item,yes,FlankerTask.osexp,C:\Users\hosan\Desktop,no,mono,no,18,no,white,no,yes,768,legacy,55,79,C:/Users/hosan/Desktop/TB_subject-01.csv,xpyriment,Kafkaesque Koffka,3.2.8,0,h,NA,s,h,NA,h,447,NA,15129,9900,NA,447,2,legacy,1024,2,48000,-16,experiment,HHHHH,1,odd,21851,235008,NA,317925,314909,NA,375217,373397,6721,225107,NA,375324,6687,375324,375772,375193,Flanker Task ,127,63707,136,yes,1024
93.43065693,93.43065693,468.2189781,468.2189781,black,xpyriment,legacy,legacy,0,Incongruent,uniform,1,undefined,1,h,0,0,0,136,136,0,136,136,0,0,0,136,0,136,136,136,9/25/19 9:27,600,The main experiment item,yes,FlankerTask.osexp,C:\Users\hosan\Desktop,no,mono,no,18,no,white,no,yes,768,legacy,56,79,C:/Users/hosan/Desktop/TB_subject-01.csv,xpyriment,Kafkaesque Koffka,3.2.8,0,h,NA,s,h,NA,h,439,NA,15129,9900,NA,439,2,legacy,1024,2,48000,-16,experiment,SSHSS,1,odd,21851,235008,NA,317925,314909,NA,377788,375851,6721,225107,NA,377895,6687,377896,378336,377763,Flanker Task ,128,64146,137,yes,1024
93.47826087,93.47826087,468.3478261,468.3478261,black,xpyriment,legacy,legacy,0,Congruent,uniform,1,undefined,1,h,0,0,0,137,137,0,137,137,0,0,0,137,0,137,137,137,9/25/19 9:27,600,The main experiment item,yes,FlankerTask.osexp,C:\Users\hosan\Desktop,no,mono,no,18,no,white,no,yes,768,legacy,57,79,C:/Users/hosan/Desktop/TB_subject-01.csv,xpyriment,Kafkaesque Koffka,3.2.8,0,h,NA,s,h,NA,h,486,NA,15129,9900,NA,486,2,legacy,1024,2,48000,-16,experiment,HHHHH,1,odd,21851,235008,NA,317925,314909,NA,380192,378368,6721,225107,NA,380298,6687,380298,380786,380168,Flanker Task ,129,64632,138,yes,1024
93.52517986,93.52517986,468.2014388,468.2014388,black,xpyriment,legacy,legacy,0,Incongruent,uniform,1,undefined,1,h,0,0,0,138,138,0,138,138,0,0,0,138,0,138,138,138,9/25/19 9:27,600,The main experiment item,yes,FlankerTask.osexp,C:\Users\hosan\Desktop,no,mono,no,18,no,white,no,yes,768,legacy,58,79,C:/Users/hosan/Desktop/TB_subject-01.csv,xpyriment,Kafkaesque Koffka,3.2.8,0,h,NA,s,h,NA,h,448,NA,15129,9900,NA,448,2,legacy,1024,2,48000,-16,experiment,SSHSS,1,odd,21851,235008,NA,317925,314909,NA,382672,380865,6721,225107,NA,382779,6687,382779,383229,382648,Flanker Task ,130,65080,139,yes,1024
93.57142857,93.57142857,468.2642857,468.2642857,black,xpyriment,legacy,legacy,0,Incongruent,uniform,1,undefined,1,s,0,0,0,139,139,0,139,139,0,0,0,139,0,139,139,139,9/25/19 9:27,600,The main experiment item,yes,FlankerTask.osexp,C:\Users\hosan\Desktop,no,mono,no,18,no,white,no,yes,768,legacy,59,79,C:/Users/hosan/Desktop/TB_subject-01.csv,xpyriment,Kafkaesque Koffka,3.2.8,0,s,NA,s,h,NA,s,477,NA,15129,9900,NA,477,2,legacy,1024,2,48000,-16,experiment,HHSHH,1,odd,21851,235008,NA,317925,314909,NA,385127,383293,6721,225107,NA,385234,6687,385234,385713,385103,Flanker Task ,131,65557,140,yes,1024
93.61702128,93.61702128,468.0567376,468.0567376,black,xpyriment,legacy,legacy,0,Incongruent,uniform,1,undefined,1,h,0,0,0,140,140,0,140,140,0,0,0,140,0,140,140,140,9/25/19 9:27,600,The main experiment item,yes,FlankerTask.osexp,C:\Users\hosan\Desktop,no,mono,no,18,no,white,no,yes,768,legacy,60,79,C:/Users/hosan/Desktop/TB_subject-01.csv,xpyriment,Kafkaesque Koffka,3.2.8,0,h,NA,s,h,NA,h,439,NA,15129,9900,NA,439,2,legacy,1024,2,48000,-16,experiment,SSHSS,1,odd,21851,235008,NA,317925,314909,NA,387650,385813,6721,225107,NA,387756,6687,387757,388198,387625,Flanker Task ,132,65996,141,yes,1024
93.66197183,93.66197183,467.9859155,467.9859155,black,xpyriment,legacy,legacy,0,Incongruent,uniform,1,undefined,1,s,0,0,0,141,141,0,141,141,0,0,0,141,0,141,141,141,9/25/19 9:27,600,The main experiment item,yes,FlankerTask.osexp,C:\Users\hosan\Desktop,no,mono,no,18,no,white,no,yes,768,legacy,61,79,C:/Users/hosan/Desktop/TB_subject-01.csv,xpyriment,Kafkaesque Koffka,3.2.8,0,s,NA,s,h,NA,s,458,NA,15129,9900,NA,458,2,legacy,1024,2,48000,-16,experiment,HHSHH,1,odd,21851,235008,NA,317925,314909,NA,390127,388265,6721,225107,NA,390232,6687,390233,390693,390102,Flanker Task ,133,66454,142,yes,1024
93.70629371,93.70629371,467.4265734,467.4265734,black,xpyriment,legacy,legacy,0,Incongruent,uniform,1,undefined,1,h,0,0,0,142,142,0,142,142,0,0,0,142,0,142,142,142,9/25/19 9:27,600,The main experiment item,yes,FlankerTask.osexp,C:\Users\hosan\Desktop,no,mono,no,18,no,white,no,yes,768,legacy,62,79,C:/Users/hosan/Desktop/TB_subject-01.csv,xpyriment,Kafkaesque Koffka,3.2.8,0,h,NA,s,h,NA,h,388,NA,15129,9900,NA,388,2,legacy,1024,2,48000,-16,experiment,SSHSS,1,odd,21851,235008,NA,317925,314909,NA,392554,390727,6721,225107,NA,392660,6687,392660,393052,392529,Flanker Task ,134,66842,143,yes,1024
93.75,93.75,468.7986111,468.7986111,black,xpyriment,legacy,legacy,0,Incongruent,uniform,1,undefined,1,s,0,0,0,143,143,0,143,143,0,0,0,143,0,143,143,143,9/25/19 9:27,600,The main experiment item,yes,FlankerTask.osexp,C:\Users\hosan\Desktop,no,mono,no,18,no,white,no,yes,768,legacy,63,79,C:/Users/hosan/Desktop/TB_subject-01.csv,xpyriment,Kafkaesque Koffka,3.2.8,0,s,NA,s,h,NA,s,665,NA,15129,9900,NA,665,2,legacy,1024,2,48000,-16,experiment,HHSHH,1,odd,21851,235008,NA,317925,314909,NA,394939,393108,6721,225107,NA,395046,6687,395046,395713,394915,Flanker Task ,135,67507,144,yes,1024
93.79310345,93.79310345,469.2965517,469.2965517,black,xpyriment,legacy,legacy,0,Congruent,uniform,1,undefined,1,s,0,0,0,144,144,0,144,144,0,0,0,144,0,144,144,144,9/25/19 9:27,600,The main experiment item,yes,FlankerTask.osexp,C:\Users\hosan\Desktop,no,mono,no,18,no,white,no,yes,768,legacy,64,79,C:/Users/hosan/Desktop/TB_subject-01.csv,xpyriment,Kafkaesque Koffka,3.2.8,0,s,NA,s,h,NA,s,541,NA,15129,9900,NA,541,2,legacy,1024,2,48000,-16,experiment,SSSSS,1,odd,21851,235008,NA,317925,395788,NA,398126,396294,6721,225107,NA,398232,6687,398233,398776,398103,Flanker Task ,136,68048,145,yes,1024
93.83561644,93.83561644,468.9178082,468.9178082,black,xpyriment,legacy,legacy,0,Incongruent,uniform,1,undefined,1,s,0,0,0,145,145,0,145,145,0,0,0,145,0,145,145,145,9/25/19 9:27,600,The main experiment item,yes,FlankerTask.osexp,C:\Users\hosan\Desktop,no,mono,no,18,no,white,no,yes,768,legacy,65,79,C:/Users/hosan/Desktop/TB_subject-01.csv,xpyriment,Kafkaesque Koffka,3.2.8,0,s,NA,s,h,NA,s,414,NA,15129,9900,NA,414,2,legacy,1024,2,48000,-16,experiment,HHSHH,1,odd,21851,235008,NA,317925,395788,NA,400645,398809,6721,225107,NA,400751,6687,400751,401167,400621,Flanker Task ,137,68462,146,yes,1024
93.87755102,93.87755102,468.2244898,468.2244898,black,xpyriment,legacy,legacy,0,Congruent,uniform,1,undefined,1,s,0,0,0,146,146,0,146,146,0,0,0,146,0,146,146,146,9/25/19 9:27,600,The main experiment item,yes,FlankerTask.osexp,C:\Users\hosan\Desktop,no,mono,no,18,no,white,no,yes,768,legacy,66,79,C:/Users/hosan/Desktop/TB_subject-01.csv,xpyriment,Kafkaesque Koffka,3.2.8,0,s,NA,s,h,NA,s,367,NA,15129,9900,NA,367,2,legacy,1024,2,48000,-16,experiment,SSSSS,1,odd,21851,235008,NA,317925,395788,NA,403081,401257,6721,225107,NA,403187,6687,403187,403556,403057,Flanker Task ,138,68829,147,yes,1024
93.91891892,93.91891892,468.3783784,468.3783784,black,xpyriment,legacy,legacy,0,Incongruent,uniform,1,undefined,1,s,0,0,0,147,147,0,147,147,0,0,0,147,0,147,147,147,9/25/19 9:27,600,The main experiment item,yes,FlankerTask.osexp,C:\Users\hosan\Desktop,no,mono,no,18,no,white,no,yes,768,legacy,67,79,C:/Users/hosan/Desktop/TB_subject-01.csv,xpyriment,Kafkaesque Koffka,3.2.8,0,s,NA,s,h,NA,s,491,NA,15129,9900,NA,491,2,legacy,1024,2,48000,-16,experiment,HHSHH,1,odd,21851,235008,NA,317925,395788,NA,405478,403647,6721,225107,NA,405585,6687,405585,406078,405453,Flanker Task ,139,69320,148,yes,1024
93.95973154,93.95973154,467.6308725,467.6308725,black,xpyriment,legacy,legacy,0,Incongruent,uniform,1,undefined,1,s,0,0,0,148,148,0,148,148,0,0,0,148,0,148,148,148,9/25/19 9:27,600,The main experiment item,yes,FlankerTask.osexp,C:\Users\hosan\Desktop,no,mono,no,18,no,white,no,yes,768,legacy,68,79,C:/Users/hosan/Desktop/TB_subject-01.csv,xpyriment,Kafkaesque Koffka,3.2.8,0,s,NA,s,h,NA,s,357,NA,15129,9900,NA,357,2,legacy,1024,2,48000,-16,experiment,HHSHH,1,odd,21851,235008,NA,317925,395788,NA,407928,406109,6721,225107,NA,408034,6687,408034,408393,407903,Flanker Task ,140,69677,149,yes,1024
94,94,467.1133333,467.1133333,black,xpyriment,legacy,legacy,0,Incongruent,uniform,1,undefined,1,s,0,0,0,149,149,0,149,149,0,0,0,149,0,149,149,149,9/25/19 9:27,600,The main experiment item,yes,FlankerTask.osexp,C:\Users\hosan\Desktop,no,mono,no,18,no,white,no,yes,768,legacy,69,79,C:/Users/hosan/Desktop/TB_subject-01.csv,xpyriment,Kafkaesque Koffka,3.2.8,0,s,NA,s,h,NA,s,390,NA,15129,9900,NA,390,2,legacy,1024,2,48000,-16,experiment,HHSHH,1,odd,21851,235008,NA,317925,395788,NA,410265,408429,6721,225107,NA,410373,6687,410373,410765,410242,Flanker Task ,141,70067,150,yes,1024
94.0397351,94.0397351,466.3907285,466.3907285,black,xpyriment,legacy,legacy,0,Congruent,uniform,1,undefined,1,s,0,0,0,150,150,0,150,150,0,0,0,150,0,150,150,150,9/25/19 9:27,600,The main experiment item,yes,FlankerTask.osexp,C:\Users\hosan\Desktop,no,mono,no,18,no,white,no,yes,768,legacy,70,79,C:/Users/hosan/Desktop/TB_subject-01.csv,xpyriment,Kafkaesque Koffka,3.2.8,0,s,NA,s,h,NA,s,358,NA,15129,9900,NA,358,2,legacy,1024,2,48000,-16,experiment,SSSSS,1,odd,21851,235008,NA,317925,395788,NA,412644,410831,6721,225107,NA,412750,6687,412750,413109,412620,Flanker Task ,142,70425,151,yes,1024
94.07894737,94.07894737,465.7236842,465.7236842,black,xpyriment,legacy,legacy,0,Incongruent,uniform,1,undefined,1,s,0,0,0,151,151,0,151,151,0,0,0,151,0,151,151,151,9/25/19 9:27,600,The main experiment item,yes,FlankerTask.osexp,C:\Users\hosan\Desktop,no,mono,no,18,no,white,no,yes,768,legacy,71,79,C:/Users/hosan/Desktop/TB_subject-01.csv,xpyriment,Kafkaesque Koffka,3.2.8,0,s,NA,s,h,NA,s,365,NA,15129,9900,NA,365,2,legacy,1024,2,48000,-16,experiment,HHSHH,1,odd,21851,235008,NA,317925,395788,NA,415005,413179,6721,225107,NA,415113,6687,415113,415480,414981,Flanker Task ,143,70790,152,yes,1024
94.11764706,94.11764706,465.0261438,465.0261438,black,xpyriment,legacy,legacy,0,Congruent,uniform,1,undefined,1,s,0,0,0,152,152,0,152,152,0,0,0,152,0,152,152,152,9/25/19 9:27,600,The main experiment item,yes,FlankerTask.osexp,C:\Users\hosan\Desktop,no,mono,no,18,no,white,no,yes,768,legacy,72,79,C:/Users/hosan/Desktop/TB_subject-01.csv,xpyriment,Kafkaesque Koffka,3.2.8,0,s,NA,s,h,NA,s,359,NA,15129,9900,NA,359,2,legacy,1024,2,48000,-16,experiment,SSSSS,1,odd,21851,235008,NA,317925,395788,NA,417383,415553,6721,225107,NA,417489,6687,417489,417850,417359,Flanker Task ,144,71149,153,yes,1024
93.50649351,93.50649351,463.9675325,463.9675325,black,xpyriment,legacy,legacy,0,Incongruent,uniform,0,undefined,0,h,0,0,0,153,153,0,153,153,0,0,0,153,0,153,153,153,9/25/19 9:27,600,The main experiment item,yes,FlankerTask.osexp,C:\Users\hosan\Desktop,no,mono,no,18,no,white,no,yes,768,legacy,73,79,C:/Users/hosan/Desktop/TB_subject-01.csv,xpyriment,Kafkaesque Koffka,3.2.8,0,s,NA,s,h,NA,s,302,NA,15129,9900,NA,302,2,legacy,1024,2,48000,-16,experiment,SSHSS,1,odd,21851,235008,NA,317925,395788,NA,419695,417883,6721,225107,NA,419802,6687,419802,420106,419672,Flanker Task ,144,71451,154,yes,1024
93.5483871,93.5483871,464.4258065,464.4258065,black,xpyriment,legacy,legacy,0,Incongruent,uniform,1,undefined,1,s,0,0,0,154,154,0,154,154,0,0,0,154,0,154,154,154,9/25/19 9:27,600,The main experiment item,yes,FlankerTask.osexp,C:\Users\hosan\Desktop,no,mono,no,18,no,white,no,yes,768,legacy,74,79,C:/Users/hosan/Desktop/TB_subject-01.csv,xpyriment,Kafkaesque Koffka,3.2.8,0,s,NA,s,h,NA,s,535,NA,15129,9900,NA,535,2,legacy,1024,2,48000,-16,experiment,HHSHH,1,odd,21851,235008,NA,420176,395788,NA,422504,420682,6721,225107,NA,422610,6687,422610,423147,422480,Flanker Task ,145,71986,155,yes,1024
93.58974359,93.58974359,464.0897436,464.0897436,black,xpyriment,legacy,legacy,0,Incongruent,uniform,1,undefined,1,s,0,0,0,155,155,0,155,155,0,0,0,155,0,155,155,155,9/25/19 9:27,600,The main experiment item,yes,FlankerTask.osexp,C:\Users\hosan\Desktop,no,mono,no,18,no,white,no,yes,768,legacy,75,79,C:/Users/hosan/Desktop/TB_subject-01.csv,xpyriment,Kafkaesque Koffka,3.2.8,0,s,NA,s,h,NA,s,412,NA,15129,9900,NA,412,2,legacy,1024,2,48000,-16,experiment,HHSHH,1,odd,21851,235008,NA,420176,395788,NA,425007,423179,6721,225107,NA,425113,6687,425114,425528,424983,Flanker Task ,146,72398,156,yes,1024
93.63057325,93.63057325,463.7770701,463.7770701,black,xpyriment,legacy,legacy,0,Congruent,uniform,1,undefined,1,s,0,0,0,156,156,0,156,156,0,0,0,156,0,156,156,156,9/25/19 9:27,600,The main experiment item,yes,FlankerTask.osexp,C:\Users\hosan\Desktop,no,mono,no,18,no,white,no,yes,768,legacy,76,79,C:/Users/hosan/Desktop/TB_subject-01.csv,xpyriment,Kafkaesque Koffka,3.2.8,0,s,NA,s,h,NA,s,415,NA,15129,9900,NA,415,2,legacy,1024,2,48000,-16,experiment,SSSSS,1,odd,21851,235008,NA,420176,395788,NA,427445,425592,6721,225107,NA,427551,6687,427551,427968,427421,Flanker Task ,147,72813,157,yes,1024
93.03797468,93.03797468,463.3987342,463.3987342,black,xpyriment,legacy,legacy,0,Incongruent,uniform,0,undefined,0,h,0,0,0,157,157,0,157,157,0,0,0,157,0,157,157,157,9/25/19 9:27,600,The main experiment item,yes,FlankerTask.osexp,C:\Users\hosan\Desktop,no,mono,no,18,no,white,no,yes,768,legacy,77,79,C:/Users/hosan/Desktop/TB_subject-01.csv,xpyriment,Kafkaesque Koffka,3.2.8,0,s,NA,s,h,NA,s,404,NA,15129,9900,NA,404,2,legacy,1024,2,48000,-16,experiment,SSHSS,1,odd,21851,235008,NA,420176,395788,NA,429861,428045,6721,225107,NA,429967,6687,429967,430372,429837,Flanker Task ,147,73217,158,yes,1024
93.08176101,93.08176101,463.6100629,463.6100629,black,xpyriment,legacy,legacy,0,Incongruent,uniform,1,undefined,1,h,0,0,0,158,158,0,158,158,0,0,0,158,0,158,158,158,9/25/19 9:27,600,The main experiment item,yes,FlankerTask.osexp,C:\Users\hosan\Desktop,no,mono,no,18,no,white,no,yes,768,legacy,78,79,C:/Users/hosan/Desktop/TB_subject-01.csv,xpyriment,Kafkaesque Koffka,3.2.8,0,h,NA,s,h,NA,h,497,NA,15129,9900,NA,497,2,legacy,1024,2,48000,-16,experiment,SSHSS,1,odd,21851,235008,NA,430449,395788,NA,432851,430955,6721,225107,NA,432957,6687,432957,433456,432825,Flanker Task ,148,73714,159,yes,1024
93.125,93.125,464.5,464.5,black,xpyriment,legacy,legacy,0,Congruent,uniform,1,undefined,1,h,0,0,0,159,159,0,159,159,0,0,0,159,0,159,159,159,9/25/19 9:27,600,The main experiment item,yes,FlankerTask.osexp,C:\Users\hosan\Desktop,no,mono,no,18,no,white,no,yes,768,legacy,79,79,C:/Users/hosan/Desktop/TB_subject-01.csv,xpyriment,Kafkaesque Koffka,3.2.8,0,h,NA,s,h,NA,h,606,NA,15129,9900,NA,606,2,legacy,1024,2,48000,-16,experiment,HHHHH,1,odd,21851,235008,NA,430449,395788,NA,435308,433492,6721,225107,NA,435415,6687,435415,436023,435284,Flanker Task ,149,74320,160,yes,1024
93.16770186,93.16770186,465.242236,465.242236,black,xpyriment,legacy,legacy,0,Incongruent,uniform,1,undefined,1,h,0,0,0,160,160,0,160,160,0,0,0,160,0,160,160,160,9/25/19 9:27,300,The main experiment item,yes,FlankerTask.osexp,C:\Users\hosan\Desktop,no,mono,no,18,no,white,no,yes,768,legacy,0,79,C:/Users/hosan/Desktop/TB_subject-01.csv,xpyriment,Kafkaesque Koffka,3.2.8,0,h,NA,s,h,s,h,584,NA,15129,9900,5146,584,2,legacy,1024,2,48000,-16,experiment,SSHSS,1,odd,21851,235008,442833,430449,436098,NA,443617,436604,6721,225107,437684,443725,6687,443725,444311,443593,Flanker Task ,150,74904,161,yes,1024
92.59259259,92.59259259,464.2098765,464.2098765,black,xpyriment,legacy,legacy,0,Congruent,uniform,0,undefined,0,s,0,0,0,161,161,0,161,161,0,0,0,161,0,161,161,161,9/25/19 9:27,300,The main experiment item,yes,FlankerTask.osexp,C:\Users\hosan\Desktop,no,mono,no,18,no,white,no,yes,768,legacy,1,79,C:/Users/hosan/Desktop/TB_subject-01.csv,xpyriment,Kafkaesque Koffka,3.2.8,0,h,NA,s,h,s,h,298,NA,15129,9900,5146,298,2,legacy,1024,2,48000,-16,experiment,SSSSS,1,odd,21851,235008,442833,430449,444386,NA,446711,444893,6721,225107,437684,446818,6687,446818,447119,446687,Flanker Task ,150,75202,162,yes,1024
92.63803681,92.63803681,463.9815951,463.9815951,black,xpyriment,legacy,legacy,0,Congruent,uniform,1,undefined,1,h,0,0,0,162,162,0,162,162,0,0,0,162,0,162,162,162,9/25/19 9:27,300,The main experiment item,yes,FlankerTask.osexp,C:\Users\hosan\Desktop,no,mono,no,18,no,white,no,yes,768,legacy,2,79,C:/Users/hosan/Desktop/TB_subject-01.csv,xpyriment,Kafkaesque Koffka,3.2.8,0,h,NA,s,h,s,h,427,NA,15129,9900,5146,427,2,legacy,1024,2,48000,-16,experiment,HHHHH,1,odd,21851,235008,442833,447191,444386,NA,449528,447698,6721,225107,437684,449635,6687,449635,450064,449505,Flanker Task ,151,75629,163,yes,1024
92.68292683,92.68292683,463.6280488,463.6280488,black,xpyriment,legacy,legacy,0,Congruent,uniform,1,undefined,1,h,0,0,0,163,163,0,163,163,0,0,0,163,0,163,163,163,9/25/19 9:27,300,The main experiment item,yes,FlankerTask.osexp,C:\Users\hosan\Desktop,no,mono,no,18,no,white,no,yes,768,legacy,3,79,C:/Users/hosan/Desktop/TB_subject-01.csv,xpyriment,Kafkaesque Koffka,3.2.8,0,h,NA,s,h,s,h,406,NA,15129,9900,5146,406,2,legacy,1024,2,48000,-16,experiment,HHHHH,1,odd,21851,235008,442833,447191,450147,NA,452460,450653,6721,225107,437684,452567,6687,452567,452976,452436,Flanker Task ,152,76035,164,yes,1024
92.72727273,92.72727273,463.1939394,463.1939394,black,xpyriment,legacy,legacy,0,Congruent,uniform,1,undefined,1,h,0,0,0,164,164,0,164,164,0,0,0,164,0,164,164,164,9/25/19 9:27,300,The main experiment item,yes,FlankerTask.osexp,C:\Users\hosan\Desktop,no,mono,no,18,no,white,no,yes,768,legacy,4,79,C:/Users/hosan/Desktop/TB_subject-01.csv,xpyriment,Kafkaesque Koffka,3.2.8,0,h,NA,s,h,s,h,392,NA,15129,9900,5146,392,2,legacy,1024,2,48000,-16,experiment,HHHHH,1,odd,21851,235008,442833,447191,453054,NA,455386,453560,6721,225107,437684,455491,6687,455492,455886,455362,Flanker Task ,153,76427,165,yes,1024
92.77108434,92.77108434,462.246988,462.246988,black,xpyriment,legacy,legacy,0,Congruent,uniform,1,undefined,1,s,0,0,0,165,165,0,165,165,0,0,0,165,0,165,165,165,9/25/19 9:27,300,The main experiment item,yes,FlankerTask.osexp,C:\Users\hosan\Desktop,no,mono,no,18,no,white,no,yes,768,legacy,5,79,C:/Users/hosan/Desktop/TB_subject-01.csv,xpyriment,Kafkaesque Koffka,3.2.8,0,s,NA,s,h,s,s,306,NA,15129,9900,5146,306,2,legacy,1024,2,48000,-16,experiment,SSSSS,1,odd,21851,235008,442833,447191,455939,NA,458273,456445,6721,225107,437684,458379,6687,458379,458687,458249,Flanker Task ,154,76733,166,yes,1024
92.81437126,92.81437126,461.0419162,461.0419162,black,xpyriment,legacy,legacy,0,Congruent,uniform,1,undefined,1,s,0,0,0,166,166,0,166,166,0,0,0,166,0,166,166,166,9/25/19 9:27,300,The main experiment item,yes,FlankerTask.osexp,C:\Users\hosan\Desktop,no,mono,no,18,no,white,no,yes,768,legacy,6,79,C:/Users/hosan/Desktop/TB_subject-01.csv,xpyriment,Kafkaesque Koffka,3.2.8,0,s,NA,s,h,s,s,261,NA,15129,9900,5146,261,2,legacy,1024,2,48000,-16,experiment,SSSSS,1,odd,21851,235008,442833,447191,458714,NA,461035,459221,6721,225107,437684,461141,6687,461141,461403,461012,Flanker Task ,155,76994,167,yes,1024
92.26190476,92.26190476,460.9464286,460.9464286,black,xpyriment,legacy,legacy,0,Incongruent,uniform,0,undefined,0,s,0,0,0,167,167,0,167,167,0,0,0,167,0,167,167,167,9/25/19 9:27,300,The main experiment item,yes,FlankerTask.osexp,C:\Users\hosan\Desktop,no,mono,no,18,no,white,no,yes,768,legacy,7,79,C:/Users/hosan/Desktop/TB_subject-01.csv,xpyriment,Kafkaesque Koffka,3.2.8,0,h,NA,s,h,s,h,445,NA,15129,9900,5146,445,2,legacy,1024,2,48000,-16,experiment,HHSHH,1,odd,21851,235008,442833,447191,458714,NA,463252,461437,6721,225107,437684,463357,6687,463357,463804,463229,Flanker Task ,155,77439,168,yes,1024
92.30769231,92.30769231,460.2366864,460.2366864,black,xpyriment,legacy,legacy,0,Congruent,uniform,1,undefined,1,s,0,0,0,168,168,0,168,168,0,0,0,168,0,168,168,168,9/25/19 9:27,300,The main experiment item,yes,FlankerTask.osexp,C:\Users\hosan\Desktop,no,mono,no,18,no,white,no,yes,768,legacy,8,79,C:/Users/hosan/Desktop/TB_subject-01.csv,xpyriment,Kafkaesque Koffka,3.2.8,0,s,NA,s,h,s,s,341,NA,15129,9900,5146,341,2,legacy,1024,2,48000,-16,experiment,SSSSS,1,odd,21851,235008,442833,463885,464392,NA,466726,464898,6721,225107,437684,466832,6687,466832,467175,466703,Flanker Task ,156,77780,169,yes,1024
92.35294118,92.35294118,459.0823529,459.0823529,black,xpyriment,legacy,legacy,0,Congruent,uniform,1,undefined,1,s,0,0,0,169,169,0,169,169,0,0,0,169,0,169,169,169,9/25/19 9:27,300,The main experiment item,yes,FlankerTask.osexp,C:\Users\hosan\Desktop,no,mono,no,18,no,white,no,yes,768,legacy,9,79,C:/Users/hosan/Desktop/TB_subject-01.csv,xpyriment,Kafkaesque Koffka,3.2.8,0,s,NA,s,h,s,s,264,NA,15129,9900,5146,264,2,legacy,1024,2,48000,-16,experiment,SSSSS,1,odd,21851,235008,442833,463885,467238,NA,469582,467745,6721,225107,437684,469689,6687,469689,469956,469559,Flanker Task ,157,78044,170,yes,1024
