acc,accuracy,average_response_time,avg_rt,background,canvas_backend,clock_backend,color_backend,compensation,condition,coordinates,correct,correct_instructions1,correct_keyboard_response,correct_response,count_Block1,count_Block2,count_Block3,count_ISI,count_errorFeedback,count_experiment,count_faster,count_finish,count_fixation,count_getting_started,count_instructions1,count_instructions2,count_instructions3,count_keyboard_response,count_new_logger,count_new_sketchpad,count_sequence,count_stimulus,datetime,deadline,description,disable_garbage_collection,experiment_file,experiment_path,font_bold,font_family,font_italic,font_size,font_underline,foreground,form_clicks,fullscreen,height,keyboard_backend,live_row,live_row_Block1,logfile,mouse_backend,opensesame_codename,opensesame_version,repeat_cycle,response,response_finish,response_instructions1,response_instructions2,response_instructions3,response_keyboard_response,response_new_sketchpad,response_time,response_time_finish,response_time_instructions1,response_time_instructions2,response_time_instructions3,response_time_keyboard_response,response_time_new_sketchpad,round_decimals,sampler_backend,sound_buf_size,sound_channels,sound_freq,sound_sample_size,start,stimulus,subject_nr,subject_parity,time_Block1,time_Block2,time_Block3,time_ISI,time_errorFeedback,time_experiment,time_faster,time_finish,time_fixation,time_getting_started,time_instructions1,time_instructions2,time_instructions3,time_keyboard_response,time_new_logger,time_new_sketchpad,time_sequence,time_stimulus,title,total_correct,total_response_time,total_responses,uniform_coordinates,width
100,100,925,925,black,legacy,legacy,legacy,0,incongruent,uniform,1,undefined,1,s,0,0,0,0,0,0,0,0,0,0,0,0,0,0,0,NA,0,0,Sun Sep 22 16:22:41 2019,1500,The main experiment item,yes,FlankerTask.osexp,/Users/danielrazo0311/Desktop,no,mono,no,18,no,white,no,yes,768,legacy,0,0,/Users/danielrazo0311/Desktop/DR-subject0.csv,legacy,Kafkaesque Koffka,3.2.8,0,s,NA,s,NA,NA,s,NA,925,NA,14083,NA,NA,925,NA,2,legacy,1024,2,48000,-16,experiment,HHSHH,1,odd,18000,NA,NA,NA,NA,3883,NA,NA,18139,NA,3906,NA,NA,18255,19182,NA,18126,18255,Flanker Task,1,925,1,yes,1024
100,100,743.5,743.5,black,legacy,legacy,legacy,0,incongruent,uniform,1,undefined,1,h,0,0,0,1,1,0,1,0,1,0,0,0,0,1,1,NA,1,1,Sun Sep 22 16:22:41 2019,1500,The main experiment item,yes,FlankerTask.osexp,/Users/danielrazo0311/Desktop,no,mono,no,18,no,white,no,yes,768,legacy,1,1,/Users/danielrazo0311/Desktop/DR-subject0.csv,legacy,Kafkaesque Koffka,3.2.8,0,h,NA,s,NA,NA,h,NA,562,NA,14083,NA,NA,562,NA,2,legacy,1024,2,48000,-16,experiment,SSHSS,1,odd,18000,NA,NA,19227,NA,3883,NA,NA,20368,NA,3906,NA,NA,20482,21046,NA,20354,20482,Flanker Task,2,1487,2,yes,1024
100,100,670,670,black,legacy,legacy,legacy,0,congruent,uniform,1,undefined,1,h,0,0,0,2,2,0,2,0,2,0,0,0,0,2,2,NA,2,2,Sun Sep 22 16:22:41 2019,1500,The main experiment item,yes,FlankerTask.osexp,/Users/danielrazo0311/Desktop,no,mono,no,18,no,white,no,yes,768,legacy,2,2,/Users/danielrazo0311/Desktop/DR-subject0.csv,legacy,Kafkaesque Koffka,3.2.8,0,h,NA,s,NA,NA,h,NA,523,NA,14083,NA,NA,523,NA,2,legacy,1024,2,48000,-16,experiment,HHHHH,1,odd,18000,NA,NA,21061,NA,3883,NA,NA,22192,NA,3906,NA,NA,22306,22830,NA,22180,22306,Flanker Task,3,2010,3,yes,1024
100,100,614.5,614.5,black,legacy,legacy,legacy,0,congruent,uniform,1,undefined,1,s,0,0,0,3,3,0,3,0,3,0,0,0,0,3,3,NA,3,3,Sun Sep 22 16:22:41 2019,1500,The main experiment item,yes,FlankerTask.osexp,/Users/danielrazo0311/Desktop,no,mono,no,18,no,white,no,yes,768,legacy,3,3,/Users/danielrazo0311/Desktop/DR-subject0.csv,legacy,Kafkaesque Koffka,3.2.8,0,s,NA,s,NA,NA,s,NA,448,NA,14083,NA,NA,448,NA,2,legacy,1024,2,48000,-16,experiment,SSSSS,1,odd,18000,NA,NA,22855,NA,3883,NA,NA,23986,NA,3906,NA,NA,24101,24550,NA,23973,24101,Flanker Task,4,2458,4,yes,1024
100,100,596,596,black,legacy,legacy,legacy,0,incongruent,uniform,1,undefined,1,s,0,0,0,4,4,0,4,0,4,0,0,0,0,4,4,NA,4,4,Sun Sep 22 16:22:41 2019,1500,The main experiment item,yes,FlankerTask.osexp,/Users/danielrazo0311/Desktop,no,mono,no,18,no,white,no,yes,768,legacy,4,4,/Users/danielrazo0311/Desktop/DR-subject0.csv,legacy,Kafkaesque Koffka,3.2.8,0,s,NA,s,NA,NA,s,NA,522,NA,14083,NA,NA,522,NA,2,legacy,1024,2,48000,-16,experiment,HHSHH,1,odd,18000,NA,NA,24566,NA,3883,NA,NA,25696,NA,3906,NA,NA,25811,26334,NA,25684,25811,Flanker Task,5,2980,5,yes,1024
100,100,562.5,562.5,black,legacy,legacy,legacy,0,congruent,uniform,1,undefined,1,s,0,0,0,5,5,0,5,0,5,0,0,0,0,5,5,NA,5,5,Sun Sep 22 16:22:41 2019,1500,The main experiment item,yes,FlankerTask.osexp,/Users/danielrazo0311/Desktop,no,mono,no,18,no,white,no,yes,768,legacy,5,5,/Users/danielrazo0311/Desktop/DR-subject0.csv,legacy,Kafkaesque Koffka,3.2.8,0,s,NA,s,NA,NA,s,NA,395,NA,14083,NA,NA,395,NA,2,legacy,1024,2,48000,-16,experiment,SSSSS,1,odd,18000,NA,NA,26369,NA,3883,NA,NA,27502,NA,3906,NA,NA,27616,28013,NA,27486,27616,Flanker Task,6,3375,6,yes,1024
100,100,551.1428571,551.1428571,black,legacy,legacy,legacy,0,incongruent,uniform,1,undefined,1,s,0,0,0,6,6,0,6,0,6,0,0,0,0,6,6,NA,6,6,Sun Sep 22 16:22:41 2019,1500,The main experiment item,yes,FlankerTask.osexp,/Users/danielrazo0311/Desktop,no,mono,no,18,no,white,no,yes,768,legacy,6,6,/Users/danielrazo0311/Desktop/DR-subject0.csv,legacy,Kafkaesque Koffka,3.2.8,0,s,NA,s,NA,NA,s,NA,483,NA,14083,NA,NA,483,NA,2,legacy,1024,2,48000,-16,experiment,HHSHH,1,odd,18000,NA,NA,28029,NA,3883,NA,NA,29160,NA,3906,NA,NA,29273,29758,NA,29148,29273,Flanker Task,7,3858,7,yes,1024
100,100,545.5,545.5,black,legacy,legacy,legacy,0,congruent,uniform,1,undefined,1,h,0,0,0,7,7,0,7,0,7,0,0,0,0,7,7,NA,7,7,Sun Sep 22 16:22:41 2019,1500,The main experiment item,yes,FlankerTask.osexp,/Users/danielrazo0311/Desktop,no,mono,no,18,no,white,no,yes,768,legacy,7,7,/Users/danielrazo0311/Desktop/DR-subject0.csv,legacy,Kafkaesque Koffka,3.2.8,0,h,NA,s,NA,NA,h,NA,506,NA,14083,NA,NA,506,NA,2,legacy,1024,2,48000,-16,experiment,HHHHH,1,odd,18000,NA,NA,29783,NA,3883,NA,NA,30913,NA,3906,NA,NA,31026,31534,NA,30901,31026,Flanker Task,8,4364,8,yes,1024
100,100,524.6666667,524.6666667,black,legacy,legacy,legacy,0,incongruent,uniform,1,undefined,1,s,0,0,0,8,8,0,8,0,8,0,0,0,0,8,8,NA,8,8,Sun Sep 22 16:22:41 2019,1500,The main experiment item,yes,FlankerTask.osexp,/Users/danielrazo0311/Desktop,no,mono,no,18,no,white,no,yes,768,legacy,8,8,/Users/danielrazo0311/Desktop/DR-subject0.csv,legacy,Kafkaesque Koffka,3.2.8,0,s,NA,s,NA,NA,s,NA,358,NA,14083,NA,NA,358,NA,2,legacy,1024,2,48000,-16,experiment,HHSHH,1,odd,18000,NA,NA,31550,NA,3883,NA,NA,32683,NA,3906,NA,NA,32797,33157,NA,32670,32796,Flanker Task,9,4722,9,yes,1024
100,100,519.1,519.1,black,legacy,legacy,legacy,0,congruent,uniform,1,undefined,1,s,0,0,0,9,9,0,9,0,9,0,0,0,0,9,9,NA,9,9,Sun Sep 22 16:22:41 2019,1500,The main experiment item,yes,FlankerTask.osexp,/Users/danielrazo0311/Desktop,no,mono,no,18,no,white,no,yes,768,legacy,9,9,/Users/danielrazo0311/Desktop/DR-subject0.csv,legacy,Kafkaesque Koffka,3.2.8,0,s,NA,s,NA,NA,s,NA,469,NA,14083,NA,NA,469,NA,2,legacy,1024,2,48000,-16,experiment,SSSSS,1,odd,18000,NA,NA,33174,NA,3883,NA,NA,34304,NA,3906,NA,NA,34416,34887,NA,34292,34415,Flanker Task,10,5191,10,yes,1024
100,100,513.7272727,513.7272727,black,legacy,legacy,legacy,0,incongruent,uniform,1,undefined,1,h,0,0,0,10,10,0,10,0,10,0,0,0,0,10,10,NA,10,10,Sun Sep 22 16:22:41 2019,1500,The main experiment item,yes,FlankerTask.osexp,/Users/danielrazo0311/Desktop,no,mono,no,18,no,white,no,yes,768,legacy,10,10,/Users/danielrazo0311/Desktop/DR-subject0.csv,legacy,Kafkaesque Koffka,3.2.8,0,h,NA,s,NA,NA,h,NA,460,NA,14083,NA,NA,460,NA,2,legacy,1024,2,48000,-16,experiment,SSHSS,1,odd,18000,NA,NA,34904,NA,3883,NA,NA,36037,NA,3906,NA,NA,36152,36614,NA,36025,36152,Flanker Task,11,5651,11,yes,1024
91.66666667,91.66666667,499.5833333,499.5833333,black,legacy,legacy,legacy,0,incongruent,uniform,0,undefined,0,h,0,0,0,11,11,0,11,0,11,0,0,0,0,11,11,NA,11,11,Sun Sep 22 16:22:41 2019,1500,The main experiment item,yes,FlankerTask.osexp,/Users/danielrazo0311/Desktop,no,mono,no,18,no,white,no,yes,768,legacy,11,11,/Users/danielrazo0311/Desktop/DR-subject0.csv,legacy,Kafkaesque Koffka,3.2.8,0,s,NA,s,NA,NA,s,NA,344,NA,14083,NA,NA,344,NA,2,legacy,1024,2,48000,-16,experiment,SSHSS,1,odd,18000,NA,NA,36630,NA,3883,NA,NA,37760,NA,3906,NA,NA,37875,38221,NA,37748,37875,Flanker Task,11,5995,12,yes,1024
92.30769231,92.30769231,511.9230769,511.9230769,black,legacy,legacy,legacy,0,incongruent,uniform,1,undefined,1,h,0,0,0,12,12,0,12,0,12,0,0,0,0,12,12,NA,12,12,Sun Sep 22 16:22:41 2019,1500,The main experiment item,yes,FlankerTask.osexp,/Users/danielrazo0311/Desktop,no,mono,no,18,no,white,no,yes,768,legacy,12,12,/Users/danielrazo0311/Desktop/DR-subject0.csv,legacy,Kafkaesque Koffka,3.2.8,0,h,NA,s,NA,NA,h,NA,660,NA,14083,NA,NA,660,NA,2,legacy,1024,2,48000,-16,experiment,SSHSS,1,odd,18000,NA,NA,38750,38237,3883,NA,NA,39878,NA,3906,NA,NA,39992,40654,NA,39866,39992,Flanker Task,12,6655,13,yes,1024
92.85714286,92.85714286,514.3571429,514.3571429,black,legacy,legacy,legacy,0,incongruent,uniform,1,undefined,1,h,0,0,0,13,13,0,13,0,13,0,0,0,0,13,13,NA,13,13,Sun Sep 22 16:22:41 2019,1500,The main experiment item,yes,FlankerTask.osexp,/Users/danielrazo0311/Desktop,no,mono,no,18,no,white,no,yes,768,legacy,13,13,/Users/danielrazo0311/Desktop/DR-subject0.csv,legacy,Kafkaesque Koffka,3.2.8,0,h,NA,s,NA,NA,h,NA,546,NA,14083,NA,NA,546,NA,2,legacy,1024,2,48000,-16,experiment,SSHSS,1,odd,18000,NA,NA,40709,38237,3883,NA,NA,41840,NA,3906,NA,NA,41954,42502,NA,41828,41954,Flanker Task,13,7201,14,yes,1024
93.33333333,93.33333333,508.8666667,508.8666667,black,legacy,legacy,legacy,0,incongruent,uniform,1,undefined,1,h,0,0,0,14,14,0,14,0,14,0,0,0,0,14,14,NA,14,14,Sun Sep 22 16:22:41 2019,1500,The main experiment item,yes,FlankerTask.osexp,/Users/danielrazo0311/Desktop,no,mono,no,18,no,white,no,yes,768,legacy,14,14,/Users/danielrazo0311/Desktop/DR-subject0.csv,legacy,Kafkaesque Koffka,3.2.8,0,h,NA,s,NA,NA,h,NA,432,NA,14083,NA,NA,432,NA,2,legacy,1024,2,48000,-16,experiment,SSHSS,1,odd,18000,NA,NA,42518,38237,3883,NA,NA,43649,NA,3906,NA,NA,43763,44197,NA,43636,43762,Flanker Task,14,7633,15,yes,1024
93.75,93.75,503.3125,503.3125,black,legacy,legacy,legacy,0,congruent,uniform,1,undefined,1,h,0,0,0,15,15,0,15,0,15,0,0,0,0,15,15,NA,15,15,Sun Sep 22 16:22:41 2019,1500,The main experiment item,yes,FlankerTask.osexp,/Users/danielrazo0311/Desktop,no,mono,no,18,no,white,no,yes,768,legacy,15,15,/Users/danielrazo0311/Desktop/DR-subject0.csv,legacy,Kafkaesque Koffka,3.2.8,0,h,NA,s,NA,NA,h,NA,420,NA,14083,NA,NA,420,NA,2,legacy,1024,2,48000,-16,experiment,HHHHH,1,odd,18000,NA,NA,44212,38237,3883,NA,NA,45342,NA,3906,NA,NA,45456,45878,NA,45330,45456,Flanker Task,15,8053,16,yes,1024
94.11764706,94.11764706,504.4705882,504.4705882,black,legacy,legacy,legacy,0,incongruent,uniform,1,undefined,1,h,0,0,0,16,16,0,16,0,16,0,0,0,0,16,16,NA,16,16,Sun Sep 22 16:22:41 2019,1500,The main experiment item,yes,FlankerTask.osexp,/Users/danielrazo0311/Desktop,no,mono,no,18,no,white,no,yes,768,legacy,16,16,/Users/danielrazo0311/Desktop/DR-subject0.csv,legacy,Kafkaesque Koffka,3.2.8,0,h,NA,s,NA,NA,h,NA,523,NA,14083,NA,NA,523,NA,2,legacy,1024,2,48000,-16,experiment,SSHSS,1,odd,18000,NA,NA,45893,38237,3883,NA,NA,47023,NA,3906,NA,NA,47137,47662,NA,47010,47136,Flanker Task,16,8576,17,yes,1024
94.44444444,94.44444444,500.6111111,500.6111111,black,legacy,legacy,legacy,0,incongruent,uniform,1,undefined,1,h,0,0,0,17,17,0,17,0,17,0,0,0,0,17,17,NA,17,17,Sun Sep 22 16:22:41 2019,1500,The main experiment item,yes,FlankerTask.osexp,/Users/danielrazo0311/Desktop,no,mono,no,18,no,white,no,yes,768,legacy,17,17,/Users/danielrazo0311/Desktop/DR-subject0.csv,legacy,Kafkaesque Koffka,3.2.8,0,h,NA,s,NA,NA,h,NA,435,NA,14083,NA,NA,435,NA,2,legacy,1024,2,48000,-16,experiment,SSHSS,1,odd,18000,NA,NA,47677,38237,3883,NA,NA,48806,NA,3906,NA,NA,48921,49358,NA,48794,48921,Flanker Task,17,9011,18,yes,1024
94.73684211,94.73684211,500.8947368,500.8947368,black,legacy,legacy,legacy,0,incongruent,uniform,1,undefined,1,s,0,0,0,18,18,0,18,0,18,0,0,0,0,18,18,NA,18,18,Sun Sep 22 16:22:41 2019,1500,The main experiment item,yes,FlankerTask.osexp,/Users/danielrazo0311/Desktop,no,mono,no,18,no,white,no,yes,768,legacy,18,18,/Users/danielrazo0311/Desktop/DR-subject0.csv,legacy,Kafkaesque Koffka,3.2.8,0,s,NA,s,NA,NA,s,NA,506,NA,14083,NA,NA,506,NA,2,legacy,1024,2,48000,-16,experiment,HHSHH,1,odd,18000,NA,NA,49373,38237,3883,NA,NA,50504,NA,3906,NA,NA,50617,51125,NA,50492,50617,Flanker Task,18,9517,19,yes,1024
95,95,496.9,496.9,black,legacy,legacy,legacy,0,congruent,uniform,1,undefined,1,h,0,0,0,19,19,0,19,0,19,0,0,0,0,19,19,NA,19,19,Sun Sep 22 16:22:41 2019,1500,The main experiment item,yes,FlankerTask.osexp,/Users/danielrazo0311/Desktop,no,mono,no,18,no,white,no,yes,768,legacy,19,19,/Users/danielrazo0311/Desktop/DR-subject0.csv,legacy,Kafkaesque Koffka,3.2.8,0,h,NA,s,NA,NA,h,NA,421,NA,14083,NA,NA,421,NA,2,legacy,1024,2,48000,-16,experiment,HHHHH,1,odd,18000,NA,NA,51140,38237,3883,NA,NA,52269,NA,3906,NA,NA,52383,52806,NA,52257,52383,Flanker Task,19,9938,20,yes,1024
95.23809524,95.23809524,497,497,black,legacy,legacy,legacy,0,incongruent,uniform,1,undefined,1,s,0,0,0,20,20,0,20,0,20,0,0,0,0,20,20,NA,20,20,Sun Sep 22 16:22:41 2019,1500,The main experiment item,yes,FlankerTask.osexp,/Users/danielrazo0311/Desktop,no,mono,no,18,no,white,no,yes,768,legacy,20,20,/Users/danielrazo0311/Desktop/DR-subject0.csv,legacy,Kafkaesque Koffka,3.2.8,0,s,NA,s,NA,NA,s,NA,499,NA,14083,NA,NA,499,NA,2,legacy,1024,2,48000,-16,experiment,HHSHH,1,odd,18000,NA,NA,52821,38237,3883,NA,NA,53952,NA,3906,NA,NA,54065,54566,NA,53940,54065,Flanker Task,20,10437,21,yes,1024
95.45454545,95.45454545,504.0909091,504.0909091,black,legacy,legacy,legacy,0,congruent,uniform,1,undefined,1,s,0,0,0,21,21,0,21,0,21,0,0,0,0,21,21,NA,21,21,Sun Sep 22 16:22:41 2019,1500,The main experiment item,yes,FlankerTask.osexp,/Users/danielrazo0311/Desktop,no,mono,no,18,no,white,no,yes,768,legacy,21,21,/Users/danielrazo0311/Desktop/DR-subject0.csv,legacy,Kafkaesque Koffka,3.2.8,0,s,NA,s,NA,NA,s,NA,653,NA,14083,NA,NA,653,NA,2,legacy,1024,2,48000,-16,experiment,SSSSS,1,odd,18000,NA,NA,54581,38237,3883,NA,NA,55710,NA,3906,NA,NA,55823,56478,NA,55698,55823,Flanker Task,21,11090,22,yes,1024
95.65217391,95.65217391,504.6521739,504.6521739,black,legacy,legacy,legacy,0,incongruent,uniform,1,undefined,1,s,0,0,0,22,22,0,22,0,22,0,0,0,0,22,22,NA,22,22,Sun Sep 22 16:22:41 2019,1500,The main experiment item,yes,FlankerTask.osexp,/Users/danielrazo0311/Desktop,no,mono,no,18,no,white,no,yes,768,legacy,22,22,/Users/danielrazo0311/Desktop/DR-subject0.csv,legacy,Kafkaesque Koffka,3.2.8,0,s,NA,s,NA,NA,s,NA,517,NA,14083,NA,NA,517,NA,2,legacy,1024,2,48000,-16,experiment,HHSHH,1,odd,18000,NA,NA,56493,38237,3883,NA,NA,57628,NA,3906,NA,NA,57742,58261,NA,57615,57742,Flanker Task,22,11607,23,yes,1024
95.83333333,95.83333333,503.375,503.375,black,legacy,legacy,legacy,0,congruent,uniform,1,undefined,1,h,0,0,0,23,23,0,23,0,23,0,0,0,0,23,23,NA,23,23,Sun Sep 22 16:22:41 2019,1500,The main experiment item,yes,FlankerTask.osexp,/Users/danielrazo0311/Desktop,no,mono,no,18,no,white,no,yes,768,legacy,23,23,/Users/danielrazo0311/Desktop/DR-subject0.csv,legacy,Kafkaesque Koffka,3.2.8,0,h,NA,s,NA,NA,h,NA,474,NA,14083,NA,NA,474,NA,2,legacy,1024,2,48000,-16,experiment,HHHHH,1,odd,18000,NA,NA,58276,38237,3883,NA,NA,59407,NA,3906,NA,NA,59522,59998,NA,59395,59522,Flanker Task,23,12081,24,yes,1024
96,96,500.6,500.6,black,legacy,legacy,legacy,0,congruent,uniform,1,undefined,1,h,0,0,0,24,24,0,24,0,24,0,0,0,0,24,24,NA,24,24,Sun Sep 22 16:22:41 2019,1500,The main experiment item,yes,FlankerTask.osexp,/Users/danielrazo0311/Desktop,no,mono,no,18,no,white,no,yes,768,legacy,24,24,/Users/danielrazo0311/Desktop/DR-subject0.csv,legacy,Kafkaesque Koffka,3.2.8,0,h,NA,s,NA,NA,h,NA,434,NA,14083,NA,NA,434,NA,2,legacy,1024,2,48000,-16,experiment,HHHHH,1,odd,18000,NA,NA,60012,38237,3883,NA,NA,61145,NA,3906,NA,NA,61258,61694,NA,61133,61258,Flanker Task,24,12515,25,yes,1024
96.15384615,96.15384615,497.3076923,497.3076923,black,legacy,legacy,legacy,0,congruent,uniform,1,undefined,1,h,0,0,0,25,25,0,25,0,25,0,0,0,0,25,25,NA,25,25,Sun Sep 22 16:22:41 2019,1500,The main experiment item,yes,FlankerTask.osexp,/Users/danielrazo0311/Desktop,no,mono,no,18,no,white,no,yes,768,legacy,25,25,/Users/danielrazo0311/Desktop/DR-subject0.csv,legacy,Kafkaesque Koffka,3.2.8,0,h,NA,s,NA,NA,h,NA,415,NA,14083,NA,NA,415,NA,2,legacy,1024,2,48000,-16,experiment,HHHHH,1,odd,18000,NA,NA,61709,38237,3883,NA,NA,62842,NA,3906,NA,NA,62956,63374,NA,62829,62956,Flanker Task,25,12930,26,yes,1024
96.2962963,96.2962963,500,500,black,legacy,legacy,legacy,0,congruent,uniform,1,undefined,1,s,0,0,0,26,26,0,26,0,26,0,0,0,0,26,26,NA,26,26,Sun Sep 22 16:22:41 2019,1500,The main experiment item,yes,FlankerTask.osexp,/Users/danielrazo0311/Desktop,no,mono,no,18,no,white,no,yes,768,legacy,26,26,/Users/danielrazo0311/Desktop/DR-subject0.csv,legacy,Kafkaesque Koffka,3.2.8,0,s,NA,s,NA,NA,s,NA,570,NA,14083,NA,NA,570,NA,2,legacy,1024,2,48000,-16,experiment,SSSSS,1,odd,18000,NA,NA,63389,38237,3883,NA,NA,64519,NA,3906,NA,NA,64632,65205,NA,64506,64632,Flanker Task,26,13500,27,yes,1024
96.42857143,96.42857143,503.0357143,503.0357143,black,legacy,legacy,legacy,0,congruent,uniform,1,undefined,1,s,0,0,0,27,27,0,27,0,27,0,0,0,0,27,27,NA,27,27,Sun Sep 22 16:22:41 2019,1500,The main experiment item,yes,FlankerTask.osexp,/Users/danielrazo0311/Desktop,no,mono,no,18,no,white,no,yes,768,legacy,27,27,/Users/danielrazo0311/Desktop/DR-subject0.csv,legacy,Kafkaesque Koffka,3.2.8,0,s,NA,s,NA,NA,s,NA,585,NA,14083,NA,NA,585,NA,2,legacy,1024,2,48000,-16,experiment,SSSSS,1,odd,18000,NA,NA,65236,38237,3883,NA,NA,66368,NA,3906,NA,NA,66481,67069,NA,66355,66481,Flanker Task,27,14085,28,yes,1024
96.55172414,96.55172414,500.4482759,500.4482759,black,legacy,legacy,legacy,0,incongruent,uniform,1,undefined,1,h,0,0,0,28,28,0,28,0,28,0,0,0,0,28,28,NA,28,28,Sun Sep 22 16:22:41 2019,1500,The main experiment item,yes,FlankerTask.osexp,/Users/danielrazo0311/Desktop,no,mono,no,18,no,white,no,yes,768,legacy,28,28,/Users/danielrazo0311/Desktop/DR-subject0.csv,legacy,Kafkaesque Koffka,3.2.8,0,h,NA,s,NA,NA,h,NA,428,NA,14083,NA,NA,428,NA,2,legacy,1024,2,48000,-16,experiment,SSHSS,1,odd,18000,NA,NA,67084,38237,3883,NA,NA,68231,NA,3906,NA,NA,68343,68774,NA,68218,68343,Flanker Task,28,14513,29,yes,1024
96.66666667,96.66666667,500.7666667,500.7666667,black,legacy,legacy,legacy,0,incongruent,uniform,1,undefined,1,h,0,0,0,29,29,0,29,0,29,0,0,0,0,29,29,NA,29,29,Sun Sep 22 16:22:41 2019,1500,The main experiment item,yes,FlankerTask.osexp,/Users/danielrazo0311/Desktop,no,mono,no,18,no,white,no,yes,768,legacy,29,29,/Users/danielrazo0311/Desktop/DR-subject0.csv,legacy,Kafkaesque Koffka,3.2.8,0,h,NA,s,NA,NA,h,NA,510,NA,14083,NA,NA,510,NA,2,legacy,1024,2,48000,-16,experiment,SSHSS,1,odd,18000,NA,NA,68823,38237,3883,NA,NA,69956,NA,3906,NA,NA,70069,70582,NA,69943,70069,Flanker Task,29,15023,30,yes,1024
96.77419355,96.77419355,500.3870968,500.3870968,black,legacy,legacy,legacy,0,congruent,uniform,1,undefined,1,h,0,0,0,30,30,0,30,0,30,0,0,0,0,30,30,NA,30,30,Sun Sep 22 16:22:41 2019,1500,The main experiment item,yes,FlankerTask.osexp,/Users/danielrazo0311/Desktop,no,mono,no,18,no,white,no,yes,768,legacy,30,30,/Users/danielrazo0311/Desktop/DR-subject0.csv,legacy,Kafkaesque Koffka,3.2.8,0,h,NA,s,NA,NA,h,NA,489,NA,14083,NA,NA,489,NA,2,legacy,1024,2,48000,-16,experiment,HHHHH,1,odd,18000,NA,NA,70597,38237,3883,NA,NA,71728,NA,3906,NA,NA,71842,72334,NA,71715,71842,Flanker Task,30,15512,31,yes,1024
96.875,96.875,498.84375,498.84375,black,legacy,legacy,legacy,0,incongruent,uniform,1,undefined,1,h,0,0,0,31,31,0,31,0,31,0,0,0,0,31,31,NA,31,31,Sun Sep 22 16:22:41 2019,1500,The main experiment item,yes,FlankerTask.osexp,/Users/danielrazo0311/Desktop,no,mono,no,18,no,white,no,yes,768,legacy,31,31,/Users/danielrazo0311/Desktop/DR-subject0.csv,legacy,Kafkaesque Koffka,3.2.8,0,h,NA,s,NA,NA,h,NA,451,NA,14083,NA,NA,451,NA,2,legacy,1024,2,48000,-16,experiment,SSHSS,1,odd,18000,NA,NA,72350,38237,3883,NA,NA,73479,NA,3906,NA,NA,73592,74045,NA,73467,73592,Flanker Task,31,15963,32,yes,1024
96.96969697,96.96969697,497.1818182,497.1818182,black,legacy,legacy,legacy,0,congruent,uniform,1,undefined,1,s,0,0,0,32,32,0,32,0,32,0,0,0,0,32,32,NA,32,32,Sun Sep 22 16:22:41 2019,1500,The main experiment item,yes,FlankerTask.osexp,/Users/danielrazo0311/Desktop,no,mono,no,18,no,white,no,yes,768,legacy,32,32,/Users/danielrazo0311/Desktop/DR-subject0.csv,legacy,Kafkaesque Koffka,3.2.8,0,s,NA,s,NA,NA,s,NA,444,NA,14083,NA,NA,444,NA,2,legacy,1024,2,48000,-16,experiment,SSSSS,1,odd,18000,NA,NA,74060,38237,3883,NA,NA,75189,NA,3906,NA,NA,75303,75749,NA,75177,75302,Flanker Task,32,16407,33,yes,1024
97.05882353,97.05882353,496.4705882,496.4705882,black,legacy,legacy,legacy,0,incongruent,uniform,1,undefined,1,s,0,0,0,33,33,0,33,0,33,0,0,0,0,33,33,NA,33,33,Sun Sep 22 16:22:41 2019,1500,The main experiment item,yes,FlankerTask.osexp,/Users/danielrazo0311/Desktop,no,mono,no,18,no,white,no,yes,768,legacy,33,33,/Users/danielrazo0311/Desktop/DR-subject0.csv,legacy,Kafkaesque Koffka,3.2.8,0,s,NA,s,NA,NA,s,NA,473,NA,14083,NA,NA,473,NA,2,legacy,1024,2,48000,-16,experiment,HHSHH,1,odd,18000,NA,NA,75765,38237,3883,NA,NA,76897,NA,3906,NA,NA,77010,77485,NA,76885,77010,Flanker Task,33,16880,34,yes,1024
97.14285714,97.14285714,498.4571429,498.4571429,black,legacy,legacy,legacy,0,incongruent,uniform,1,undefined,1,s,0,0,0,34,34,0,34,0,34,0,0,0,0,34,34,NA,34,34,Sun Sep 22 16:22:41 2019,1500,The main experiment item,yes,FlankerTask.osexp,/Users/danielrazo0311/Desktop,no,mono,no,18,no,white,no,yes,768,legacy,34,34,/Users/danielrazo0311/Desktop/DR-subject0.csv,legacy,Kafkaesque Koffka,3.2.8,0,s,NA,s,NA,NA,s,NA,566,NA,14083,NA,NA,566,NA,2,legacy,1024,2,48000,-16,experiment,HHSHH,1,odd,18000,NA,NA,77505,38237,3883,NA,NA,78636,NA,3906,NA,NA,78749,79317,NA,78624,78749,Flanker Task,34,17446,35,yes,1024
97.22222222,97.22222222,495.1666667,495.1666667,black,legacy,legacy,legacy,0,congruent,uniform,1,undefined,1,h,0,0,0,35,35,0,35,0,35,0,0,0,0,35,35,NA,35,35,Sun Sep 22 16:22:41 2019,1500,The main experiment item,yes,FlankerTask.osexp,/Users/danielrazo0311/Desktop,no,mono,no,18,no,white,no,yes,768,legacy,35,35,/Users/danielrazo0311/Desktop/DR-subject0.csv,legacy,Kafkaesque Koffka,3.2.8,0,h,NA,s,NA,NA,h,NA,380,NA,14083,NA,NA,380,NA,2,legacy,1024,2,48000,-16,experiment,HHHHH,1,odd,18000,NA,NA,79333,38237,3883,NA,NA,80469,NA,3906,NA,NA,80583,80965,NA,80456,80583,Flanker Task,35,17826,36,yes,1024
97.2972973,97.2972973,493.1081081,493.1081081,black,legacy,legacy,legacy,0,congruent,uniform,1,undefined,1,h,0,0,0,36,36,0,36,0,36,0,0,0,0,36,36,NA,36,36,Sun Sep 22 16:22:41 2019,1500,The main experiment item,yes,FlankerTask.osexp,/Users/danielrazo0311/Desktop,no,mono,no,18,no,white,no,yes,768,legacy,36,36,/Users/danielrazo0311/Desktop/DR-subject0.csv,legacy,Kafkaesque Koffka,3.2.8,0,h,NA,s,NA,NA,h,NA,419,NA,14083,NA,NA,419,NA,2,legacy,1024,2,48000,-16,experiment,HHHHH,1,odd,18000,NA,NA,80981,38237,3883,NA,NA,82110,NA,3906,NA,NA,82224,82645,NA,82098,82224,Flanker Task,36,18245,37,yes,1024
97.36842105,97.36842105,492.1842105,492.1842105,black,legacy,legacy,legacy,0,incongruent,uniform,1,undefined,1,h,0,0,0,37,37,0,37,0,37,0,0,0,0,37,37,NA,37,37,Sun Sep 22 16:22:41 2019,1500,The main experiment item,yes,FlankerTask.osexp,/Users/danielrazo0311/Desktop,no,mono,no,18,no,white,no,yes,768,legacy,37,37,/Users/danielrazo0311/Desktop/DR-subject0.csv,legacy,Kafkaesque Koffka,3.2.8,0,h,NA,s,NA,NA,h,NA,458,NA,14083,NA,NA,458,NA,2,legacy,1024,2,48000,-16,experiment,SSHSS,1,odd,18000,NA,NA,82661,38237,3883,NA,NA,83790,NA,3906,NA,NA,83905,84365,NA,83778,83904,Flanker Task,37,18703,38,yes,1024
97.43589744,97.43589744,490.2051282,490.2051282,black,legacy,legacy,legacy,0,incongruent,uniform,1,undefined,1,h,0,0,0,38,38,0,38,0,38,0,0,0,0,38,38,NA,38,38,Sun Sep 22 16:22:41 2019,1500,The main experiment item,yes,FlankerTask.osexp,/Users/danielrazo0311/Desktop,no,mono,no,18,no,white,no,yes,768,legacy,38,38,/Users/danielrazo0311/Desktop/DR-subject0.csv,legacy,Kafkaesque Koffka,3.2.8,0,h,NA,s,NA,NA,h,NA,415,NA,14083,NA,NA,415,NA,2,legacy,1024,2,48000,-16,experiment,SSHSS,1,odd,18000,NA,NA,84381,38237,3883,NA,NA,85513,NA,3906,NA,NA,85627,86044,NA,85501,85626,Flanker Task,38,19118,39,yes,1024
97.5,97.5,489.175,489.175,black,legacy,legacy,legacy,0,incongruent,uniform,1,undefined,1,s,0,0,0,39,39,0,39,0,39,0,0,0,0,39,39,NA,39,39,Sun Sep 22 16:22:41 2019,1500,The main experiment item,yes,FlankerTask.osexp,/Users/danielrazo0311/Desktop,no,mono,no,18,no,white,no,yes,768,legacy,39,39,/Users/danielrazo0311/Desktop/DR-subject0.csv,legacy,Kafkaesque Koffka,3.2.8,0,s,NA,s,NA,NA,s,NA,449,NA,14083,NA,NA,449,NA,2,legacy,1024,2,48000,-16,experiment,HHSHH,1,odd,18000,NA,NA,86060,38237,3883,NA,NA,87192,NA,3906,NA,NA,87306,87757,NA,87179,87306,Flanker Task,39,19567,40,yes,1024
97.56097561,97.56097561,489.4146341,489.4146341,black,legacy,legacy,legacy,0,congruent,uniform,1,undefined,1,h,0,0,0,40,40,0,40,0,40,0,0,0,0,40,40,NA,40,40,Sun Sep 22 16:22:41 2019,1500,The main experiment item,yes,FlankerTask.osexp,/Users/danielrazo0311/Desktop,no,mono,no,18,no,white,no,yes,768,legacy,40,40,/Users/danielrazo0311/Desktop/DR-subject0.csv,legacy,Kafkaesque Koffka,3.2.8,0,h,NA,s,NA,NA,h,NA,499,NA,14083,NA,NA,499,NA,2,legacy,1024,2,48000,-16,experiment,HHHHH,1,odd,18000,NA,NA,87773,38237,3883,NA,NA,88903,NA,3906,NA,NA,89016,89517,NA,88890,89016,Flanker Task,40,20066,41,yes,1024
97.61904762,97.61904762,487.9047619,487.9047619,black,legacy,legacy,legacy,0,congruent,uniform,1,undefined,1,h,0,0,0,41,41,0,41,0,41,0,0,0,0,41,41,NA,41,41,Sun Sep 22 16:22:41 2019,1500,The main experiment item,yes,FlankerTask.osexp,/Users/danielrazo0311/Desktop,no,mono,no,18,no,white,no,yes,768,legacy,41,41,/Users/danielrazo0311/Desktop/DR-subject0.csv,legacy,Kafkaesque Koffka,3.2.8,0,h,NA,s,NA,NA,h,NA,426,NA,14083,NA,NA,426,NA,2,legacy,1024,2,48000,-16,experiment,HHHHH,1,odd,18000,NA,NA,89532,38237,3883,NA,NA,90662,NA,3906,NA,NA,90776,91204,NA,90650,90776,Flanker Task,41,20492,42,yes,1024
97.6744186,97.6744186,485.7906977,485.7906977,black,legacy,legacy,legacy,0,congruent,uniform,1,undefined,1,s,0,0,0,42,42,0,42,0,42,0,0,0,0,42,42,NA,42,42,Sun Sep 22 16:22:41 2019,1500,The main experiment item,yes,FlankerTask.osexp,/Users/danielrazo0311/Desktop,no,mono,no,18,no,white,no,yes,768,legacy,42,42,/Users/danielrazo0311/Desktop/DR-subject0.csv,legacy,Kafkaesque Koffka,3.2.8,0,s,NA,s,NA,NA,s,NA,397,NA,14083,NA,NA,397,NA,2,legacy,1024,2,48000,-16,experiment,SSSSS,1,odd,18000,NA,NA,91220,38237,3883,NA,NA,92354,NA,3906,NA,NA,92470,92869,NA,92342,92469,Flanker Task,42,20889,43,yes,1024
97.72727273,97.72727273,484.6590909,484.6590909,black,legacy,legacy,legacy,0,congruent,uniform,1,undefined,1,h,0,0,0,43,43,0,43,0,43,0,0,0,0,43,43,NA,43,43,Sun Sep 22 16:22:41 2019,1500,The main experiment item,yes,FlankerTask.osexp,/Users/danielrazo0311/Desktop,no,mono,no,18,no,white,no,yes,768,legacy,43,43,/Users/danielrazo0311/Desktop/DR-subject0.csv,legacy,Kafkaesque Koffka,3.2.8,0,h,NA,s,NA,NA,h,NA,436,NA,14083,NA,NA,436,NA,2,legacy,1024,2,48000,-16,experiment,HHHHH,1,odd,18000,NA,NA,92884,38237,3883,NA,NA,94012,NA,3906,NA,NA,94127,94565,NA,94000,94126,Flanker Task,43,21325,44,yes,1024
97.77777778,97.77777778,484.2888889,484.2888889,black,legacy,legacy,legacy,0,incongruent,uniform,1,undefined,1,h,0,0,0,44,44,0,44,0,44,0,0,0,0,44,44,NA,44,44,Sun Sep 22 16:22:41 2019,1500,The main experiment item,yes,FlankerTask.osexp,/Users/danielrazo0311/Desktop,no,mono,no,18,no,white,no,yes,768,legacy,44,44,/Users/danielrazo0311/Desktop/DR-subject0.csv,legacy,Kafkaesque Koffka,3.2.8,0,h,NA,s,NA,NA,h,NA,468,NA,14083,NA,NA,468,NA,2,legacy,1024,2,48000,-16,experiment,SSHSS,1,odd,18000,NA,NA,94581,38237,3883,NA,NA,95710,NA,3906,NA,NA,95823,96293,NA,95698,95823,Flanker Task,44,21793,45,yes,1024
97.82608696,97.82608696,482.7826087,482.7826087,black,legacy,legacy,legacy,0,congruent,uniform,1,undefined,1,s,0,0,0,45,45,0,45,0,45,0,0,0,0,45,45,NA,45,45,Sun Sep 22 16:22:41 2019,1500,The main experiment item,yes,FlankerTask.osexp,/Users/danielrazo0311/Desktop,no,mono,no,18,no,white,no,yes,768,legacy,45,45,/Users/danielrazo0311/Desktop/DR-subject0.csv,legacy,Kafkaesque Koffka,3.2.8,0,s,NA,s,NA,NA,s,NA,415,NA,14083,NA,NA,415,NA,2,legacy,1024,2,48000,-16,experiment,SSSSS,1,odd,18000,NA,NA,96328,38237,3883,NA,NA,97458,NA,3906,NA,NA,97572,97989,NA,97446,97572,Flanker Task,45,22208,46,yes,1024
97.87234043,97.87234043,481.212766,481.212766,black,legacy,legacy,legacy,0,incongruent,uniform,1,undefined,1,s,0,0,0,46,46,0,46,0,46,0,0,0,0,46,46,NA,46,46,Sun Sep 22 16:22:41 2019,1500,The main experiment item,yes,FlankerTask.osexp,/Users/danielrazo0311/Desktop,no,mono,no,18,no,white,no,yes,768,legacy,46,46,/Users/danielrazo0311/Desktop/DR-subject0.csv,legacy,Kafkaesque Koffka,3.2.8,0,s,NA,s,NA,NA,s,NA,409,NA,14083,NA,NA,409,NA,2,legacy,1024,2,48000,-16,experiment,HHSHH,1,odd,18000,NA,NA,98003,38237,3883,NA,NA,99133,NA,3906,NA,NA,99249,99661,NA,99120,99249,Flanker Task,46,22617,47,yes,1024
97.91666667,97.91666667,480.25,480.25,black,legacy,legacy,legacy,0,incongruent,uniform,1,undefined,1,s,0,0,0,47,47,0,47,0,47,0,0,0,0,47,47,NA,47,47,Sun Sep 22 16:22:41 2019,1500,The main experiment item,yes,FlankerTask.osexp,/Users/danielrazo0311/Desktop,no,mono,no,18,no,white,no,yes,768,legacy,47,47,/Users/danielrazo0311/Desktop/DR-subject0.csv,legacy,Kafkaesque Koffka,3.2.8,0,s,NA,s,NA,NA,s,NA,435,NA,14083,NA,NA,435,NA,2,legacy,1024,2,48000,-16,experiment,HHSHH,1,odd,18000,NA,NA,99676,38237,3883,NA,NA,100805,NA,3906,NA,NA,100919,101357,NA,100793,100919,Flanker Task,47,23052,48,yes,1024
97.95918367,97.95918367,479.1020408,479.1020408,black,legacy,legacy,legacy,0,congruent,uniform,1,undefined,1,s,0,0,0,48,48,0,48,0,48,0,0,0,0,48,48,NA,48,48,Sun Sep 22 16:22:41 2019,1500,The main experiment item,yes,FlankerTask.osexp,/Users/danielrazo0311/Desktop,no,mono,no,18,no,white,no,yes,768,legacy,48,48,/Users/danielrazo0311/Desktop/DR-subject0.csv,legacy,Kafkaesque Koffka,3.2.8,0,s,NA,s,NA,NA,s,NA,424,NA,14083,NA,NA,424,NA,2,legacy,1024,2,48000,-16,experiment,SSSSS,1,odd,18000,NA,NA,101372,38237,3883,NA,NA,102502,NA,3906,NA,NA,102617,103044,NA,102490,102617,Flanker Task,48,23476,49,yes,1024
98,98,477.18,477.18,black,legacy,legacy,legacy,0,congruent,uniform,1,undefined,1,h,0,0,0,49,49,0,49,0,49,0,0,0,0,49,49,NA,49,49,Sun Sep 22 16:22:41 2019,1500,The main experiment item,yes,FlankerTask.osexp,/Users/danielrazo0311/Desktop,no,mono,no,18,no,white,no,yes,768,legacy,49,49,/Users/danielrazo0311/Desktop/DR-subject0.csv,legacy,Kafkaesque Koffka,3.2.8,0,h,NA,s,NA,NA,h,NA,383,NA,14083,NA,NA,383,NA,2,legacy,1024,2,48000,-16,experiment,HHHHH,1,odd,18000,NA,NA,103067,38237,3883,NA,NA,104198,NA,3906,NA,NA,104315,104701,NA,104185,104315,Flanker Task,49,23859,50,yes,1024
98.03921569,98.03921569,475.1176471,475.1176471,black,legacy,legacy,legacy,0,congruent,uniform,1,undefined,1,s,0,0,0,50,50,0,50,0,50,0,0,0,0,50,50,NA,50,50,Sun Sep 22 16:22:41 2019,1500,The main experiment item,yes,FlankerTask.osexp,/Users/danielrazo0311/Desktop,no,mono,no,18,no,white,no,yes,768,legacy,50,50,/Users/danielrazo0311/Desktop/DR-subject0.csv,legacy,Kafkaesque Koffka,3.2.8,0,s,NA,s,NA,NA,s,NA,372,NA,14083,NA,NA,372,NA,2,legacy,1024,2,48000,-16,experiment,SSSSS,1,odd,18000,NA,NA,104716,38237,3883,NA,NA,105846,NA,3906,NA,NA,105958,106333,NA,105833,105958,Flanker Task,50,24231,51,yes,1024
98.07692308,98.07692308,473.3846154,473.3846154,black,legacy,legacy,legacy,0,congruent,uniform,1,undefined,1,s,0,0,0,51,51,0,51,0,51,0,0,0,0,51,51,NA,51,51,Sun Sep 22 16:22:41 2019,1500,The main experiment item,yes,FlankerTask.osexp,/Users/danielrazo0311/Desktop,no,mono,no,18,no,white,no,yes,768,legacy,51,51,/Users/danielrazo0311/Desktop/DR-subject0.csv,legacy,Kafkaesque Koffka,3.2.8,0,s,NA,s,NA,NA,s,NA,385,NA,14083,NA,NA,385,NA,2,legacy,1024,2,48000,-16,experiment,SSSSS,1,odd,18000,NA,NA,106366,38237,3883,NA,NA,107495,NA,3906,NA,NA,107609,107997,NA,107482,107609,Flanker Task,51,24616,52,yes,1024
98.11320755,98.11320755,472.0566038,472.0566038,black,legacy,legacy,legacy,0,congruent,uniform,1,undefined,1,h,0,0,0,52,52,0,52,0,52,0,0,0,0,52,52,NA,52,52,Sun Sep 22 16:22:41 2019,1500,The main experiment item,yes,FlankerTask.osexp,/Users/danielrazo0311/Desktop,no,mono,no,18,no,white,no,yes,768,legacy,52,52,/Users/danielrazo0311/Desktop/DR-subject0.csv,legacy,Kafkaesque Koffka,3.2.8,0,h,NA,s,NA,NA,h,NA,403,NA,14083,NA,NA,403,NA,2,legacy,1024,2,48000,-16,experiment,HHHHH,1,odd,18000,NA,NA,108011,38237,3883,NA,NA,109141,NA,3906,NA,NA,109255,109661,NA,109128,109255,Flanker Task,52,25019,53,yes,1024
98.14814815,98.14814815,470.7407407,470.7407407,black,legacy,legacy,legacy,0,incongruent,uniform,1,undefined,1,s,0,0,0,53,53,0,53,0,53,0,0,0,0,53,53,NA,53,53,Sun Sep 22 16:22:41 2019,1500,The main experiment item,yes,FlankerTask.osexp,/Users/danielrazo0311/Desktop,no,mono,no,18,no,white,no,yes,768,legacy,53,53,/Users/danielrazo0311/Desktop/DR-subject0.csv,legacy,Kafkaesque Koffka,3.2.8,0,s,NA,s,NA,NA,s,NA,401,NA,14083,NA,NA,401,NA,2,legacy,1024,2,48000,-16,experiment,HHSHH,1,odd,18000,NA,NA,109676,38237,3883,NA,NA,110806,NA,3906,NA,NA,110921,111325,NA,110794,110921,Flanker Task,53,25420,54,yes,1024
98.18181818,98.18181818,470.3818182,470.3818182,black,legacy,legacy,legacy,0,incongruent,uniform,1,undefined,1,h,0,0,0,54,54,0,54,0,54,0,0,0,0,54,54,NA,54,54,Sun Sep 22 16:22:41 2019,1500,The main experiment item,yes,FlankerTask.osexp,/Users/danielrazo0311/Desktop,no,mono,no,18,no,white,no,yes,768,legacy,54,54,/Users/danielrazo0311/Desktop/DR-subject0.csv,legacy,Kafkaesque Koffka,3.2.8,0,h,NA,s,NA,NA,h,NA,451,NA,14083,NA,NA,451,NA,2,legacy,1024,2,48000,-16,experiment,SSHSS,1,odd,18000,NA,NA,111340,38237,3883,NA,NA,112476,NA,3906,NA,NA,112590,113045,NA,112459,112590,Flanker Task,54,25871,55,yes,1024
98.21428571,98.21428571,470.4107143,470.4107143,black,legacy,legacy,legacy,0,incongruent,uniform,1,undefined,1,h,0,0,0,55,55,0,55,0,55,0,0,0,0,55,55,NA,55,55,Sun Sep 22 16:22:41 2019,1500,The main experiment item,yes,FlankerTask.osexp,/Users/danielrazo0311/Desktop,no,mono,no,18,no,white,no,yes,768,legacy,55,55,/Users/danielrazo0311/Desktop/DR-subject0.csv,legacy,Kafkaesque Koffka,3.2.8,0,h,NA,s,NA,NA,h,NA,472,NA,14083,NA,NA,472,NA,2,legacy,1024,2,48000,-16,experiment,SSHSS,1,odd,18000,NA,NA,113061,38237,3883,NA,NA,114191,NA,3906,NA,NA,114306,114781,NA,114179,114306,Flanker Task,55,26343,56,yes,1024
98.24561404,98.24561404,469.2105263,469.2105263,black,legacy,legacy,legacy,0,incongruent,uniform,1,undefined,1,h,0,0,0,56,56,0,56,0,56,0,0,0,0,56,56,NA,56,56,Sun Sep 22 16:22:41 2019,1500,The main experiment item,yes,FlankerTask.osexp,/Users/danielrazo0311/Desktop,no,mono,no,18,no,white,no,yes,768,legacy,56,56,/Users/danielrazo0311/Desktop/DR-subject0.csv,legacy,Kafkaesque Koffka,3.2.8,0,h,NA,s,NA,NA,h,NA,402,NA,14083,NA,NA,402,NA,2,legacy,1024,2,48000,-16,experiment,SSHSS,1,odd,18000,NA,NA,114796,38237,3883,NA,NA,115926,NA,3906,NA,NA,116040,116445,NA,115914,116039,Flanker Task,56,26745,57,yes,1024
98.27586207,98.27586207,467.6551724,467.6551724,black,legacy,legacy,legacy,0,congruent,uniform,1,undefined,1,s,0,0,0,57,57,0,57,0,57,0,0,0,0,57,57,NA,57,57,Sun Sep 22 16:22:41 2019,1500,The main experiment item,yes,FlankerTask.osexp,/Users/danielrazo0311/Desktop,no,mono,no,18,no,white,no,yes,768,legacy,57,57,/Users/danielrazo0311/Desktop/DR-subject0.csv,legacy,Kafkaesque Koffka,3.2.8,0,s,NA,s,NA,NA,s,NA,379,NA,14083,NA,NA,379,NA,2,legacy,1024,2,48000,-16,experiment,SSSSS,1,odd,18000,NA,NA,116490,38237,3883,NA,NA,117620,NA,3906,NA,NA,117734,118116,NA,117607,117734,Flanker Task,57,27124,58,yes,1024
98.30508475,98.30508475,466.4067797,466.4067797,black,legacy,legacy,legacy,0,incongruent,uniform,1,undefined,1,h,0,0,0,58,58,0,58,0,58,0,0,0,0,58,58,NA,58,58,Sun Sep 22 16:22:41 2019,1500,The main experiment item,yes,FlankerTask.osexp,/Users/danielrazo0311/Desktop,no,mono,no,18,no,white,no,yes,768,legacy,58,58,/Users/danielrazo0311/Desktop/DR-subject0.csv,legacy,Kafkaesque Koffka,3.2.8,0,h,NA,s,NA,NA,h,NA,394,NA,14083,NA,NA,394,NA,2,legacy,1024,2,48000,-16,experiment,SSHSS,1,odd,18000,NA,NA,118131,38237,3883,NA,NA,119261,NA,3906,NA,NA,119376,119773,NA,119249,119376,Flanker Task,58,27518,59,yes,1024
98.33333333,98.33333333,465.45,465.45,black,legacy,legacy,legacy,0,incongruent,uniform,1,undefined,1,h,0,0,0,59,59,0,59,0,59,0,0,0,0,59,59,NA,59,59,Sun Sep 22 16:22:41 2019,1500,The main experiment item,yes,FlankerTask.osexp,/Users/danielrazo0311/Desktop,no,mono,no,18,no,white,no,yes,768,legacy,59,59,/Users/danielrazo0311/Desktop/DR-subject0.csv,legacy,Kafkaesque Koffka,3.2.8,0,h,NA,s,NA,NA,h,NA,409,NA,14083,NA,NA,409,NA,2,legacy,1024,2,48000,-16,experiment,SSHSS,1,odd,18000,NA,NA,119792,38237,3883,NA,NA,120928,NA,3906,NA,NA,121041,121453,NA,120915,121041,Flanker Task,59,27927,60,yes,1024
98.36065574,98.36065574,465.5901639,465.5901639,black,legacy,legacy,legacy,0,incongruent,uniform,1,undefined,1,s,0,0,0,60,60,0,60,0,60,0,0,0,0,60,60,NA,60,60,Sun Sep 22 16:22:41 2019,1500,The main experiment item,yes,FlankerTask.osexp,/Users/danielrazo0311/Desktop,no,mono,no,18,no,white,no,yes,768,legacy,60,60,/Users/danielrazo0311/Desktop/DR-subject0.csv,legacy,Kafkaesque Koffka,3.2.8,0,s,NA,s,NA,NA,s,NA,474,NA,14083,NA,NA,474,NA,2,legacy,1024,2,48000,-16,experiment,HHSHH,1,odd,18000,NA,NA,121468,38237,3883,NA,NA,122599,NA,3906,NA,NA,122711,123188,NA,122587,122711,Flanker Task,60,28401,61,yes,1024
98.38709677,98.38709677,465.4677419,465.4677419,black,legacy,legacy,legacy,0,incongruent,uniform,1,undefined,1,s,0,0,0,61,61,0,61,0,61,0,0,0,0,61,61,NA,61,61,Sun Sep 22 16:22:41 2019,1500,The main experiment item,yes,FlankerTask.osexp,/Users/danielrazo0311/Desktop,no,mono,no,18,no,white,no,yes,768,legacy,61,61,/Users/danielrazo0311/Desktop/DR-subject0.csv,legacy,Kafkaesque Koffka,3.2.8,0,s,NA,s,NA,NA,s,NA,458,NA,14083,NA,NA,458,NA,2,legacy,1024,2,48000,-16,experiment,HHSHH,1,odd,18000,NA,NA,123202,38237,3883,NA,NA,124334,NA,3906,NA,NA,124448,124910,NA,124322,124448,Flanker Task,61,28859,62,yes,1024
98.41269841,98.41269841,466.1111111,466.1111111,black,legacy,legacy,legacy,0,incongruent,uniform,1,undefined,1,s,0,0,0,62,62,0,62,0,62,0,0,0,0,62,62,NA,62,62,Sun Sep 22 16:22:41 2019,1500,The main experiment item,yes,FlankerTask.osexp,/Users/danielrazo0311/Desktop,no,mono,no,18,no,white,no,yes,768,legacy,62,62,/Users/danielrazo0311/Desktop/DR-subject0.csv,legacy,Kafkaesque Koffka,3.2.8,0,s,NA,s,NA,NA,s,NA,506,NA,14083,NA,NA,506,NA,2,legacy,1024,2,48000,-16,experiment,HHSHH,1,odd,18000,NA,NA,124931,38237,3883,NA,NA,126061,NA,3906,NA,NA,126176,126685,NA,126048,126175,Flanker Task,62,29365,63,yes,1024
98.4375,98.4375,464.828125,464.828125,black,legacy,legacy,legacy,0,congruent,uniform,1,undefined,1,h,0,0,0,63,63,0,63,0,63,0,0,0,0,63,63,NA,63,63,Sun Sep 22 16:22:41 2019,1500,The main experiment item,yes,FlankerTask.osexp,/Users/danielrazo0311/Desktop,no,mono,no,18,no,white,no,yes,768,legacy,63,63,/Users/danielrazo0311/Desktop/DR-subject0.csv,legacy,Kafkaesque Koffka,3.2.8,0,h,NA,s,NA,NA,h,NA,384,NA,14083,NA,NA,384,NA,2,legacy,1024,2,48000,-16,experiment,HHHHH,1,odd,18000,NA,NA,126701,38237,3883,NA,NA,127833,NA,3906,NA,NA,127946,128333,NA,127820,127946,Flanker Task,63,29749,64,yes,1024
98.46153846,98.46153846,464.2615385,464.2615385,black,legacy,legacy,legacy,0,congruent,uniform,1,undefined,1,s,0,0,0,64,64,0,64,0,64,0,0,0,0,64,64,NA,64,64,Sun Sep 22 16:22:41 2019,1500,The main experiment item,yes,FlankerTask.osexp,/Users/danielrazo0311/Desktop,no,mono,no,18,no,white,no,yes,768,legacy,64,64,/Users/danielrazo0311/Desktop/DR-subject0.csv,legacy,Kafkaesque Koffka,3.2.8,0,s,NA,s,NA,NA,s,NA,428,NA,14083,NA,NA,428,NA,2,legacy,1024,2,48000,-16,experiment,SSSSS,1,odd,18000,NA,NA,128352,38237,3883,NA,NA,129483,NA,3906,NA,NA,129597,130027,NA,129470,129596,Flanker Task,64,30177,65,yes,1024
98.48484848,98.48484848,464.2575758,464.2575758,black,legacy,legacy,legacy,0,incongruent,uniform,1,undefined,1,s,0,0,0,65,65,0,65,0,65,0,0,0,0,65,65,NA,65,65,Sun Sep 22 16:22:41 2019,1500,The main experiment item,yes,FlankerTask.osexp,/Users/danielrazo0311/Desktop,no,mono,no,18,no,white,no,yes,768,legacy,65,65,/Users/danielrazo0311/Desktop/DR-subject0.csv,legacy,Kafkaesque Koffka,3.2.8,0,s,NA,s,NA,NA,s,NA,464,NA,14083,NA,NA,464,NA,2,legacy,1024,2,48000,-16,experiment,HHSHH,1,odd,18000,NA,NA,130043,38237,3883,NA,NA,131174,NA,3906,NA,NA,131290,131756,NA,131161,131290,Flanker Task,65,30641,66,yes,1024
98.50746269,98.50746269,464.4179104,464.4179104,black,legacy,legacy,legacy,0,incongruent,uniform,1,undefined,1,s,0,0,0,66,66,0,66,0,66,0,0,0,0,66,66,NA,66,66,Sun Sep 22 16:22:41 2019,1500,The main experiment item,yes,FlankerTask.osexp,/Users/danielrazo0311/Desktop,no,mono,no,18,no,white,no,yes,768,legacy,66,66,/Users/danielrazo0311/Desktop/DR-subject0.csv,legacy,Kafkaesque Koffka,3.2.8,0,s,NA,s,NA,NA,s,NA,475,NA,14083,NA,NA,475,NA,2,legacy,1024,2,48000,-16,experiment,HHSHH,1,odd,18000,NA,NA,131772,38237,3883,NA,NA,132902,NA,3906,NA,NA,133015,133492,NA,132890,133015,Flanker Task,66,31116,67,yes,1024
98.52941176,98.52941176,464.0882353,464.0882353,black,legacy,legacy,legacy,0,incongruent,uniform,1,undefined,1,h,0,0,0,67,67,0,67,0,67,0,0,0,0,67,67,NA,67,67,Sun Sep 22 16:22:41 2019,1500,The main experiment item,yes,FlankerTask.osexp,/Users/danielrazo0311/Desktop,no,mono,no,18,no,white,no,yes,768,legacy,67,67,/Users/danielrazo0311/Desktop/DR-subject0.csv,legacy,Kafkaesque Koffka,3.2.8,0,h,NA,s,NA,NA,h,NA,442,NA,14083,NA,NA,442,NA,2,legacy,1024,2,48000,-16,experiment,SSHSS,1,odd,18000,NA,NA,133507,38237,3883,NA,NA,134639,NA,3906,NA,NA,134751,135195,NA,134626,134751,Flanker Task,67,31558,68,yes,1024
98.55072464,98.55072464,462.3333333,462.3333333,black,legacy,legacy,legacy,0,congruent,uniform,1,undefined,1,s,0,0,0,68,68,0,68,0,68,0,0,0,0,68,68,NA,68,68,Sun Sep 22 16:22:41 2019,1500,The main experiment item,yes,FlankerTask.osexp,/Users/danielrazo0311/Desktop,no,mono,no,18,no,white,no,yes,768,legacy,68,68,/Users/danielrazo0311/Desktop/DR-subject0.csv,legacy,Kafkaesque Koffka,3.2.8,0,s,NA,s,NA,NA,s,NA,343,NA,14083,NA,NA,343,NA,2,legacy,1024,2,48000,-16,experiment,SSSSS,1,odd,18000,NA,NA,135210,38237,3883,NA,NA,136344,NA,3906,NA,NA,136458,136804,NA,136332,136458,Flanker Task,68,31901,69,yes,1024
98.57142857,98.57142857,461.7285714,461.7285714,black,legacy,legacy,legacy,0,incongruent,uniform,1,undefined,1,s,0,0,0,69,69,0,69,0,69,0,0,0,0,69,69,NA,69,69,Sun Sep 22 16:22:41 2019,1500,The main experiment item,yes,FlankerTask.osexp,/Users/danielrazo0311/Desktop,no,mono,no,18,no,white,no,yes,768,legacy,69,69,/Users/danielrazo0311/Desktop/DR-subject0.csv,legacy,Kafkaesque Koffka,3.2.8,0,s,NA,s,NA,NA,s,NA,420,NA,14083,NA,NA,420,NA,2,legacy,1024,2,48000,-16,experiment,HHSHH,1,odd,18000,NA,NA,136820,38237,3883,NA,NA,137956,NA,3906,NA,NA,138069,138492,NA,137944,138069,Flanker Task,69,32321,70,yes,1024
98.5915493,98.5915493,460.4366197,460.4366197,black,legacy,legacy,legacy,0,congruent,uniform,1,undefined,1,s,0,0,0,70,70,0,70,0,70,0,0,0,0,70,70,NA,70,70,Sun Sep 22 16:22:41 2019,1500,The main experiment item,yes,FlankerTask.osexp,/Users/danielrazo0311/Desktop,no,mono,no,18,no,white,no,yes,768,legacy,70,70,/Users/danielrazo0311/Desktop/DR-subject0.csv,legacy,Kafkaesque Koffka,3.2.8,0,s,NA,s,NA,NA,s,NA,370,NA,14083,NA,NA,370,NA,2,legacy,1024,2,48000,-16,experiment,SSSSS,1,odd,18000,NA,NA,138507,38237,3883,NA,NA,139637,NA,3906,NA,NA,139750,140123,NA,139624,139749,Flanker Task,70,32691,71,yes,1024
98.61111111,98.61111111,459.1944444,459.1944444,black,legacy,legacy,legacy,0,congruent,uniform,1,undefined,1,s,0,0,0,71,71,0,71,0,71,0,0,0,0,71,71,NA,71,71,Sun Sep 22 16:22:41 2019,1500,The main experiment item,yes,FlankerTask.osexp,/Users/danielrazo0311/Desktop,no,mono,no,18,no,white,no,yes,768,legacy,71,71,/Users/danielrazo0311/Desktop/DR-subject0.csv,legacy,Kafkaesque Koffka,3.2.8,0,s,NA,s,NA,NA,s,NA,371,NA,14083,NA,NA,371,NA,2,legacy,1024,2,48000,-16,experiment,SSSSS,1,odd,18000,NA,NA,140139,38237,3883,NA,NA,141269,NA,3906,NA,NA,141382,141756,NA,141256,141382,Flanker Task,71,33062,72,yes,1024
98.63013699,98.63013699,458.9178082,458.9178082,black,legacy,legacy,legacy,0,congruent,uniform,1,undefined,1,h,0,0,0,72,72,0,72,0,72,0,0,0,0,72,72,NA,72,72,Sun Sep 22 16:22:41 2019,1500,The main experiment item,yes,FlankerTask.osexp,/Users/danielrazo0311/Desktop,no,mono,no,18,no,white,no,yes,768,legacy,72,72,/Users/danielrazo0311/Desktop/DR-subject0.csv,legacy,Kafkaesque Koffka,3.2.8,0,h,NA,s,NA,NA,h,NA,439,NA,14083,NA,NA,439,NA,2,legacy,1024,2,48000,-16,experiment,HHHHH,1,odd,18000,NA,NA,141771,38237,3883,NA,NA,142903,NA,3906,NA,NA,143018,143460,NA,142891,143018,Flanker Task,72,33501,73,yes,1024
98.64864865,98.64864865,457.5135135,457.5135135,black,legacy,legacy,legacy,0,congruent,uniform,1,undefined,1,s,0,0,0,73,73,0,73,0,73,0,0,0,0,73,73,NA,73,73,Sun Sep 22 16:22:41 2019,1500,The main experiment item,yes,FlankerTask.osexp,/Users/danielrazo0311/Desktop,no,mono,no,18,no,white,no,yes,768,legacy,73,73,/Users/danielrazo0311/Desktop/DR-subject0.csv,legacy,Kafkaesque Koffka,3.2.8,0,s,NA,s,NA,NA,s,NA,355,NA,14083,NA,NA,355,NA,2,legacy,1024,2,48000,-16,experiment,SSSSS,1,odd,18000,NA,NA,143476,38237,3883,NA,NA,144605,NA,3906,NA,NA,144717,145075,NA,144592,144717,Flanker Task,73,33856,74,yes,1024
98.66666667,98.66666667,456.9733333,456.9733333,black,legacy,legacy,legacy,0,congruent,uniform,1,undefined,1,h,0,0,0,74,74,0,74,0,74,0,0,0,0,74,74,NA,74,74,Sun Sep 22 16:22:41 2019,1500,The main experiment item,yes,FlankerTask.osexp,/Users/danielrazo0311/Desktop,no,mono,no,18,no,white,no,yes,768,legacy,74,74,/Users/danielrazo0311/Desktop/DR-subject0.csv,legacy,Kafkaesque Koffka,3.2.8,0,h,NA,s,NA,NA,h,NA,417,NA,14083,NA,NA,417,NA,2,legacy,1024,2,48000,-16,experiment,HHHHH,1,odd,18000,NA,NA,145090,38237,3883,NA,NA,146221,NA,3906,NA,NA,146336,146756,NA,146209,146335,Flanker Task,74,34273,75,yes,1024
98.68421053,98.68421053,456.5657895,456.5657895,black,legacy,legacy,legacy,0,congruent,uniform,1,undefined,1,s,0,0,0,75,75,0,75,0,75,0,0,0,0,75,75,NA,75,75,Sun Sep 22 16:22:41 2019,1500,The main experiment item,yes,FlankerTask.osexp,/Users/danielrazo0311/Desktop,no,mono,no,18,no,white,no,yes,768,legacy,75,75,/Users/danielrazo0311/Desktop/DR-subject0.csv,legacy,Kafkaesque Koffka,3.2.8,0,s,NA,s,NA,NA,s,NA,426,NA,14083,NA,NA,426,NA,2,legacy,1024,2,48000,-16,experiment,SSSSS,1,odd,18000,NA,NA,146771,38237,3883,NA,NA,147900,NA,3906,NA,NA,148015,148444,NA,147888,148015,Flanker Task,75,34699,76,yes,1024
98.7012987,98.7012987,456.3506494,456.3506494,black,legacy,legacy,legacy,0,congruent,uniform,1,undefined,1,s,0,0,0,76,76,0,76,0,76,0,0,0,0,76,76,NA,76,76,Sun Sep 22 16:22:41 2019,1500,The main experiment item,yes,FlankerTask.osexp,/Users/danielrazo0311/Desktop,no,mono,no,18,no,white,no,yes,768,legacy,76,76,/Users/danielrazo0311/Desktop/DR-subject0.csv,legacy,Kafkaesque Koffka,3.2.8,0,s,NA,s,NA,NA,s,NA,440,NA,14083,NA,NA,440,NA,2,legacy,1024,2,48000,-16,experiment,SSSSS,1,odd,18000,NA,NA,148459,38237,3883,NA,NA,149591,NA,3906,NA,NA,149704,150147,NA,149578,149704,Flanker Task,76,35139,77,yes,1024
98.71794872,98.71794872,456.4102564,456.4102564,black,legacy,legacy,legacy,0,congruent,uniform,1,undefined,1,h,0,0,0,77,77,0,77,0,77,0,0,0,0,77,77,NA,77,77,Sun Sep 22 16:22:41 2019,1500,The main experiment item,yes,FlankerTask.osexp,/Users/danielrazo0311/Desktop,no,mono,no,18,no,white,no,yes,768,legacy,77,77,/Users/danielrazo0311/Desktop/DR-subject0.csv,legacy,Kafkaesque Koffka,3.2.8,0,h,NA,s,NA,NA,h,NA,461,NA,14083,NA,NA,461,NA,2,legacy,1024,2,48000,-16,experiment,HHHHH,1,odd,18000,NA,NA,150162,38237,3883,NA,NA,151300,NA,3906,NA,NA,151412,151876,NA,151286,151412,Flanker Task,77,35600,78,yes,1024
98.73417722,98.73417722,456.0632911,456.0632911,black,legacy,legacy,legacy,0,incongruent,uniform,1,undefined,1,s,0,0,0,78,78,0,78,0,78,0,0,0,0,78,78,NA,78,78,Sun Sep 22 16:22:41 2019,1500,The main experiment item,yes,FlankerTask.osexp,/Users/danielrazo0311/Desktop,no,mono,no,18,no,white,no,yes,768,legacy,78,78,/Users/danielrazo0311/Desktop/DR-subject0.csv,legacy,Kafkaesque Koffka,3.2.8,0,s,NA,s,NA,NA,s,NA,429,NA,14083,NA,NA,429,NA,2,legacy,1024,2,48000,-16,experiment,HHSHH,1,odd,18000,NA,NA,151891,38237,3883,NA,NA,153025,NA,3906,NA,NA,153140,153572,NA,153012,153139,Flanker Task,78,36029,79,yes,1024
98.75,98.75,456.275,456.275,black,legacy,legacy,legacy,0,congruent,uniform,1,undefined,1,h,0,0,0,79,79,0,79,0,79,0,0,0,0,79,79,NA,79,79,Sun Sep 22 16:22:41 2019,1500,The main experiment item,yes,FlankerTask.osexp,/Users/danielrazo0311/Desktop,no,mono,no,18,no,white,no,yes,768,legacy,79,79,/Users/danielrazo0311/Desktop/DR-subject0.csv,legacy,Kafkaesque Koffka,3.2.8,0,h,NA,s,NA,NA,h,NA,473,NA,14083,NA,NA,473,NA,2,legacy,1024,2,48000,-16,experiment,HHHHH,1,odd,18000,NA,NA,153587,38237,3883,NA,NA,154718,NA,3906,NA,NA,154832,155308,NA,154705,154832,Flanker Task,79,36502,80,yes,1024
98.7654321,98.7654321,458.5555556,458.5555556,black,legacy,legacy,legacy,0,incongruent,uniform,1,undefined,1,h,0,0,0,80,80,0,80,0,80,0,0,0,0,80,80,NA,80,80,Sun Sep 22 16:22:41 2019,600,The main experiment item,yes,FlankerTask.osexp,/Users/danielrazo0311/Desktop,no,mono,no,18,no,white,no,yes,768,legacy,0,79,/Users/danielrazo0311/Desktop/DR-subject0.csv,legacy,Kafkaesque Koffka,3.2.8,0,h,NA,s,s,NA,h,NA,641,NA,14083,30438,NA,641,NA,2,legacy,1024,2,48000,-16,experiment,SSHSS,1,odd,18000,186812,NA,155335,38237,3883,NA,NA,186935,NA,3906,156371,NA,187047,187691,NA,186922,187047,Flanker Task,80,37143,81,yes,1024
98.7804878,98.7804878,457.9634146,457.9634146,black,legacy,legacy,legacy,0,incongruent,uniform,1,undefined,1,s,0,0,0,81,81,0,81,0,81,0,0,0,0,81,81,NA,81,81,Sun Sep 22 16:22:41 2019,600,The main experiment item,yes,FlankerTask.osexp,/Users/danielrazo0311/Desktop,no,mono,no,18,no,white,no,yes,768,legacy,1,79,/Users/danielrazo0311/Desktop/DR-subject0.csv,legacy,Kafkaesque Koffka,3.2.8,0,s,NA,s,s,NA,s,NA,410,NA,14083,30438,NA,410,NA,2,legacy,1024,2,48000,-16,experiment,HHSHH,1,odd,18000,186812,NA,188257,38237,3883,187745,NA,189389,NA,3906,156371,NA,189502,189915,NA,189377,189502,Flanker Task,81,37553,82,yes,1024
98.79518072,98.79518072,458.0361446,458.0361446,black,legacy,legacy,legacy,0,incongruent,uniform,1,undefined,1,h,0,0,0,82,82,0,82,0,82,0,0,0,0,82,82,NA,82,82,Sun Sep 22 16:22:41 2019,600,The main experiment item,yes,FlankerTask.osexp,/Users/danielrazo0311/Desktop,no,mono,no,18,no,white,no,yes,768,legacy,2,79,/Users/danielrazo0311/Desktop/DR-subject0.csv,legacy,Kafkaesque Koffka,3.2.8,0,h,NA,s,s,NA,h,NA,464,NA,14083,30438,NA,464,NA,2,legacy,1024,2,48000,-16,experiment,SSHSS,1,odd,18000,186812,NA,189930,38237,3883,187745,NA,191059,NA,3906,156371,NA,191176,191643,NA,191047,191175,Flanker Task,82,38017,83,yes,1024
98.80952381,98.80952381,456.8690476,456.8690476,black,legacy,legacy,legacy,0,congruent,uniform,1,undefined,1,h,0,0,0,83,83,0,83,0,83,0,0,0,0,83,83,NA,83,83,Sun Sep 22 16:22:41 2019,600,The main experiment item,yes,FlankerTask.osexp,/Users/danielrazo0311/Desktop,no,mono,no,18,no,white,no,yes,768,legacy,3,79,/Users/danielrazo0311/Desktop/DR-subject0.csv,legacy,Kafkaesque Koffka,3.2.8,0,h,NA,s,s,NA,h,NA,360,NA,14083,30438,NA,360,NA,2,legacy,1024,2,48000,-16,experiment,HHHHH,1,odd,18000,186812,NA,191658,38237,3883,187745,NA,192790,NA,3906,156371,NA,192903,193266,NA,192778,192903,Flanker Task,83,38377,84,yes,1024
98.82352941,98.82352941,456.7764706,456.7764706,black,legacy,legacy,legacy,0,incongruent,uniform,1,undefined,1,s,0,0,0,84,84,0,84,0,84,0,0,0,0,84,84,NA,84,84,Sun Sep 22 16:22:41 2019,600,The main experiment item,yes,FlankerTask.osexp,/Users/danielrazo0311/Desktop,no,mono,no,18,no,white,no,yes,768,legacy,4,79,/Users/danielrazo0311/Desktop/DR-subject0.csv,legacy,Kafkaesque Koffka,3.2.8,0,s,NA,s,s,NA,s,NA,449,NA,14083,30438,NA,449,NA,2,legacy,1024,2,48000,-16,experiment,HHSHH,1,odd,18000,186812,NA,193281,38237,3883,187745,NA,194413,NA,3906,156371,NA,194527,194979,NA,194401,194527,Flanker Task,84,38826,85,yes,1024
98.8372093,98.8372093,456.0581395,456.0581395,black,legacy,legacy,legacy,0,incongruent,uniform,1,undefined,1,s,0,0,0,85,85,0,85,0,85,0,0,0,0,85,85,NA,85,85,Sun Sep 22 16:22:41 2019,600,The main experiment item,yes,FlankerTask.osexp,/Users/danielrazo0311/Desktop,no,mono,no,18,no,white,no,yes,768,legacy,5,79,/Users/danielrazo0311/Desktop/DR-subject0.csv,legacy,Kafkaesque Koffka,3.2.8,0,s,NA,s,s,NA,s,NA,395,NA,14083,30438,NA,395,NA,2,legacy,1024,2,48000,-16,experiment,HHSHH,1,odd,18000,186812,NA,194994,38237,3883,187745,NA,196124,NA,3906,156371,NA,196237,196635,NA,196111,196237,Flanker Task,85,39221,86,yes,1024
98.85057471,98.85057471,455.8045977,455.8045977,black,legacy,legacy,legacy,0,incongruent,uniform,1,undefined,1,s,0,0,0,86,86,0,86,0,86,0,0,0,0,86,86,NA,86,86,Sun Sep 22 16:22:41 2019,600,The main experiment item,yes,FlankerTask.osexp,/Users/danielrazo0311/Desktop,no,mono,no,18,no,white,no,yes,768,legacy,6,79,/Users/danielrazo0311/Desktop/DR-subject0.csv,legacy,Kafkaesque Koffka,3.2.8,0,s,NA,s,s,NA,s,NA,434,NA,14083,30438,NA,434,NA,2,legacy,1024,2,48000,-16,experiment,HHSHH,1,odd,18000,186812,NA,196650,38237,3883,187745,NA,197781,NA,3906,156371,NA,197894,198331,NA,197768,197894,Flanker Task,86,39655,87,yes,1024
98.86363636,98.86363636,454.7386364,454.7386364,black,legacy,legacy,legacy,0,congruent,uniform,1,undefined,1,h,0,0,0,87,87,0,87,0,87,0,0,0,0,87,87,NA,87,87,Sun Sep 22 16:22:41 2019,600,The main experiment item,yes,FlankerTask.osexp,/Users/danielrazo0311/Desktop,no,mono,no,18,no,white,no,yes,768,legacy,7,79,/Users/danielrazo0311/Desktop/DR-subject0.csv,legacy,Kafkaesque Koffka,3.2.8,0,h,NA,s,s,NA,h,NA,362,NA,14083,30438,NA,362,NA,2,legacy,1024,2,48000,-16,experiment,HHHHH,1,odd,18000,186812,NA,198346,38237,3883,187745,NA,199477,NA,3906,156371,NA,199590,199955,NA,199464,199590,Flanker Task,87,40017,88,yes,1024
98.87640449,98.87640449,456.1123596,456.1123596,black,legacy,legacy,legacy,0,incongruent,uniform,1,undefined,1,h,0,0,0,88,88,0,88,0,88,0,0,0,0,88,88,NA,88,88,Sun Sep 22 16:22:41 2019,600,The main experiment item,yes,FlankerTask.osexp,/Users/danielrazo0311/Desktop,no,mono,no,18,no,white,no,yes,768,legacy,8,79,/Users/danielrazo0311/Desktop/DR-subject0.csv,legacy,Kafkaesque Koffka,3.2.8,0,h,NA,s,s,NA,h,NA,577,NA,14083,30438,NA,577,NA,2,legacy,1024,2,48000,-16,experiment,SSHSS,1,odd,18000,186812,NA,199973,38237,3883,187745,NA,201101,NA,3906,156371,NA,201215,201795,NA,201089,201215,Flanker Task,88,40594,89,yes,1024
98.88888889,98.88888889,455.8555556,455.8555556,black,legacy,legacy,legacy,0,congruent,uniform,1,undefined,1,h,0,0,0,89,89,0,89,0,89,0,0,0,0,89,89,NA,89,89,Sun Sep 22 16:22:41 2019,600,The main experiment item,yes,FlankerTask.osexp,/Users/danielrazo0311/Desktop,no,mono,no,18,no,white,no,yes,768,legacy,9,79,/Users/danielrazo0311/Desktop/DR-subject0.csv,legacy,Kafkaesque Koffka,3.2.8,0,h,NA,s,s,NA,h,NA,433,NA,14083,30438,NA,433,NA,2,legacy,1024,2,48000,-16,experiment,HHHHH,1,odd,18000,186812,NA,201810,38237,3883,187745,NA,202942,NA,3906,156371,NA,203055,203491,NA,202929,203055,Flanker Task,89,41027,90,yes,1024
97.8021978,97.8021978,454.6593407,454.6593407,black,legacy,legacy,legacy,0,incongruent,uniform,0,undefined,0,h,0,0,0,90,90,0,90,0,90,0,0,0,0,90,90,NA,90,90,Sun Sep 22 16:22:41 2019,600,The main experiment item,yes,FlankerTask.osexp,/Users/danielrazo0311/Desktop,no,mono,no,18,no,white,no,yes,768,legacy,10,79,/Users/danielrazo0311/Desktop/DR-subject0.csv,legacy,Kafkaesque Koffka,3.2.8,0,s,NA,s,s,NA,s,NA,347,NA,14083,30438,NA,347,NA,2,legacy,1024,2,48000,-16,experiment,SSHSS,1,odd,18000,186812,NA,203506,38237,3883,187745,NA,204635,NA,3906,156371,NA,204748,205098,NA,204623,204748,Flanker Task,89,41374,91,yes,1024
97.82608696,97.82608696,454.8804348,454.8804348,black,legacy,legacy,legacy,0,incongruent,uniform,1,undefined,1,h,0,0,0,91,91,0,91,0,91,0,0,0,0,91,91,NA,91,91,Sun Sep 22 16:22:41 2019,600,The main experiment item,yes,FlankerTask.osexp,/Users/danielrazo0311/Desktop,no,mono,no,18,no,white,no,yes,768,legacy,11,79,/Users/danielrazo0311/Desktop/DR-subject0.csv,legacy,Kafkaesque Koffka,3.2.8,0,h,NA,s,s,NA,h,NA,475,NA,14083,30438,NA,475,NA,2,legacy,1024,2,48000,-16,experiment,SSHSS,1,odd,18000,186812,NA,205626,205113,3883,187745,NA,206755,NA,3906,156371,NA,206868,207347,NA,206743,206868,Flanker Task,90,41849,92,yes,1024
97.84946237,97.84946237,454.0537634,454.0537634,black,legacy,legacy,legacy,0,congruent,uniform,1,undefined,1,h,0,0,0,92,92,0,92,0,92,0,0,0,0,92,92,NA,92,92,Sun Sep 22 16:22:41 2019,600,The main experiment item,yes,FlankerTask.osexp,/Users/danielrazo0311/Desktop,no,mono,no,18,no,white,no,yes,768,legacy,12,79,/Users/danielrazo0311/Desktop/DR-subject0.csv,legacy,Kafkaesque Koffka,3.2.8,0,h,NA,s,s,NA,h,NA,378,NA,14083,30438,NA,378,NA,2,legacy,1024,2,48000,-16,experiment,HHHHH,1,odd,18000,186812,NA,207362,205113,3883,187745,NA,208492,NA,3906,156371,NA,208605,208986,NA,208479,208605,Flanker Task,91,42227,93,yes,1024
97.87234043,97.87234043,454.0744681,454.0744681,black,legacy,legacy,legacy,0,incongruent,uniform,1,undefined,1,s,0,0,0,93,93,0,93,0,93,0,0,0,0,93,93,NA,93,93,Sun Sep 22 16:22:41 2019,600,The main experiment item,yes,FlankerTask.osexp,/Users/danielrazo0311/Desktop,no,mono,no,18,no,white,no,yes,768,legacy,13,79,/Users/danielrazo0311/Desktop/DR-subject0.csv,legacy,Kafkaesque Koffka,3.2.8,0,s,NA,s,s,NA,s,NA,456,NA,14083,30438,NA,456,NA,2,legacy,1024,2,48000,-16,experiment,HHSHH,1,odd,18000,186812,NA,209000,205113,3883,187745,NA,210133,NA,3906,156371,NA,210247,210706,NA,210120,210247,Flanker Task,92,42683,94,yes,1024
97.89473684,97.89473684,453.5789474,453.5789474,black,legacy,legacy,legacy,0,congruent,uniform,1,undefined,1,s,0,0,0,94,94,0,94,0,94,0,0,0,0,94,94,NA,94,94,Sun Sep 22 16:22:41 2019,600,The main experiment item,yes,FlankerTask.osexp,/Users/danielrazo0311/Desktop,no,mono,no,18,no,white,no,yes,768,legacy,14,79,/Users/danielrazo0311/Desktop/DR-subject0.csv,legacy,Kafkaesque Koffka,3.2.8,0,s,NA,s,s,NA,s,NA,407,NA,14083,30438,NA,407,NA,2,legacy,1024,2,48000,-16,experiment,SSSSS,1,odd,18000,186812,NA,210722,205113,3883,187745,NA,211854,NA,3906,156371,NA,211968,212378,NA,211841,211967,Flanker Task,93,43090,95,yes,1024
97.91666667,97.91666667,452.9270833,452.9270833,black,legacy,legacy,legacy,0,congruent,uniform,1,undefined,1,s,0,0,0,95,95,0,95,0,95,0,0,0,0,95,95,NA,95,95,Sun Sep 22 16:22:41 2019,600,The main experiment item,yes,FlankerTask.osexp,/Users/danielrazo0311/Desktop,no,mono,no,18,no,white,no,yes,768,legacy,15,79,/Users/danielrazo0311/Desktop/DR-subject0.csv,legacy,Kafkaesque Koffka,3.2.8,0,s,NA,s,s,NA,s,NA,391,NA,14083,30438,NA,391,NA,2,legacy,1024,2,48000,-16,experiment,SSSSS,1,odd,18000,186812,NA,212393,205113,3883,187745,NA,213525,NA,3906,156371,NA,213639,214034,NA,213512,213639,Flanker Task,94,43481,96,yes,1024
97.93814433,97.93814433,452.371134,452.371134,black,legacy,legacy,legacy,0,congruent,uniform,1,undefined,1,h,0,0,0,96,96,0,96,0,96,0,0,0,0,96,96,NA,96,96,Sun Sep 22 16:22:41 2019,600,The main experiment item,yes,FlankerTask.osexp,/Users/danielrazo0311/Desktop,no,mono,no,18,no,white,no,yes,768,legacy,16,79,/Users/danielrazo0311/Desktop/DR-subject0.csv,legacy,Kafkaesque Koffka,3.2.8,0,h,NA,s,s,NA,h,NA,399,NA,14083,30438,NA,399,NA,2,legacy,1024,2,48000,-16,experiment,HHHHH,1,odd,18000,186812,NA,214048,205113,3883,187745,NA,215182,NA,3906,156371,NA,215296,215698,NA,215170,215296,Flanker Task,95,43880,97,yes,1024
97.95918367,97.95918367,452.744898,452.744898,black,legacy,legacy,legacy,0,congruent,uniform,1,undefined,1,s,0,0,0,97,97,0,97,0,97,0,0,0,0,97,97,NA,97,97,Sun Sep 22 16:22:41 2019,600,The main experiment item,yes,FlankerTask.osexp,/Users/danielrazo0311/Desktop,no,mono,no,18,no,white,no,yes,768,legacy,17,79,/Users/danielrazo0311/Desktop/DR-subject0.csv,legacy,Kafkaesque Koffka,3.2.8,0,s,NA,s,s,NA,s,NA,489,NA,14083,30438,NA,489,NA,2,legacy,1024,2,48000,-16,experiment,SSSSS,1,odd,18000,186812,NA,215714,205113,3883,187745,NA,216844,NA,3906,156371,NA,216958,217450,NA,216831,216958,Flanker Task,96,44369,98,yes,1024
97.97979798,97.97979798,452.1919192,452.1919192,black,legacy,legacy,legacy,0,congruent,uniform,1,undefined,1,s,0,0,0,98,98,0,98,0,98,0,0,0,0,98,98,NA,98,98,Sun Sep 22 16:22:41 2019,600,The main experiment item,yes,FlankerTask.osexp,/Users/danielrazo0311/Desktop,no,mono,no,18,no,white,no,yes,768,legacy,18,79,/Users/danielrazo0311/Desktop/DR-subject0.csv,legacy,Kafkaesque Koffka,3.2.8,0,s,NA,s,s,NA,s,NA,398,NA,14083,30438,NA,398,NA,2,legacy,1024,2,48000,-16,experiment,SSSSS,1,odd,18000,186812,NA,217465,205113,3883,187745,NA,218597,NA,3906,156371,NA,218712,219113,NA,218585,218712,Flanker Task,97,44767,99,yes,1024
98,98,451.66,451.66,black,legacy,legacy,legacy,0,congruent,uniform,1,undefined,1,s,0,0,0,99,99,0,99,0,99,0,0,0,0,99,99,NA,99,99,Sun Sep 22 16:22:41 2019,600,The main experiment item,yes,FlankerTask.osexp,/Users/danielrazo0311/Desktop,no,mono,no,18,no,white,no,yes,768,legacy,19,79,/Users/danielrazo0311/Desktop/DR-subject0.csv,legacy,Kafkaesque Koffka,3.2.8,0,s,NA,s,s,NA,s,NA,399,NA,14083,30438,NA,399,NA,2,legacy,1024,2,48000,-16,experiment,SSSSS,1,odd,18000,186812,NA,219129,205113,3883,187745,NA,220261,NA,3906,156371,NA,220376,220778,NA,220248,220376,Flanker Task,98,45166,100,yes,1024
98.01980198,98.01980198,451.1584158,451.1584158,black,legacy,legacy,legacy,0,incongruent,uniform,1,undefined,1,h,0,0,0,100,100,0,100,0,100,0,0,0,0,100,100,NA,100,100,Sun Sep 22 16:22:41 2019,600,The main experiment item,yes,FlankerTask.osexp,/Users/danielrazo0311/Desktop,no,mono,no,18,no,white,no,yes,768,legacy,20,79,/Users/danielrazo0311/Desktop/DR-subject0.csv,legacy,Kafkaesque Koffka,3.2.8,0,h,NA,s,s,NA,h,NA,401,NA,14083,30438,NA,401,NA,2,legacy,1024,2,48000,-16,experiment,SSHSS,1,odd,18000,186812,NA,220793,205113,3883,187745,NA,221923,NA,3906,156371,NA,222038,222442,NA,221910,222037,Flanker Task,99,45567,101,yes,1024
98.03921569,98.03921569,450.8235294,450.8235294,black,legacy,legacy,legacy,0,incongruent,uniform,1,undefined,1,h,0,0,0,101,101,0,101,0,101,0,0,0,0,101,101,NA,101,101,Sun Sep 22 16:22:41 2019,600,The main experiment item,yes,FlankerTask.osexp,/Users/danielrazo0311/Desktop,no,mono,no,18,no,white,no,yes,768,legacy,21,79,/Users/danielrazo0311/Desktop/DR-subject0.csv,legacy,Kafkaesque Koffka,3.2.8,0,h,NA,s,s,NA,h,NA,417,NA,14083,30438,NA,417,NA,2,legacy,1024,2,48000,-16,experiment,SSHSS,1,odd,18000,186812,NA,222457,205113,3883,187745,NA,223587,NA,3906,156371,NA,223701,224121,NA,223574,223701,Flanker Task,100,45984,102,yes,1024
98.05825243,98.05825243,450.4174757,450.4174757,black,legacy,legacy,legacy,0,congruent,uniform,1,undefined,1,s,0,0,0,102,102,0,102,0,102,0,0,0,0,102,102,NA,102,102,Sun Sep 22 16:22:41 2019,600,The main experiment item,yes,FlankerTask.osexp,/Users/danielrazo0311/Desktop,no,mono,no,18,no,white,no,yes,768,legacy,22,79,/Users/danielrazo0311/Desktop/DR-subject0.csv,legacy,Kafkaesque Koffka,3.2.8,0,s,NA,s,s,NA,s,NA,409,NA,14083,30438,NA,409,NA,2,legacy,1024,2,48000,-16,experiment,SSSSS,1,odd,18000,186812,NA,224136,205113,3883,187745,NA,225268,NA,3906,156371,NA,225382,225794,NA,225255,225382,Flanker Task,101,46393,103,yes,1024
98.07692308,98.07692308,450.0384615,450.0384615,black,legacy,legacy,legacy,0,incongruent,uniform,1,undefined,1,s,0,0,0,103,103,0,103,0,103,0,0,0,0,103,103,NA,103,103,Sun Sep 22 16:22:41 2019,600,The main experiment item,yes,FlankerTask.osexp,/Users/danielrazo0311/Desktop,no,mono,no,18,no,white,no,yes,768,legacy,23,79,/Users/danielrazo0311/Desktop/DR-subject0.csv,legacy,Kafkaesque Koffka,3.2.8,0,s,NA,s,s,NA,s,NA,411,NA,14083,30438,NA,411,NA,2,legacy,1024,2,48000,-16,experiment,HHSHH,1,odd,18000,186812,NA,225809,205113,3883,187745,NA,226939,NA,3906,156371,NA,227052,227466,NA,226926,227052,Flanker Task,102,46804,104,yes,1024
98.0952381,98.0952381,449.7333333,449.7333333,black,legacy,legacy,legacy,0,congruent,uniform,1,undefined,1,h,0,0,0,104,104,0,104,0,104,0,0,0,0,104,104,NA,104,104,Sun Sep 22 16:22:41 2019,600,The main experiment item,yes,FlankerTask.osexp,/Users/danielrazo0311/Desktop,no,mono,no,18,no,white,no,yes,768,legacy,24,79,/Users/danielrazo0311/Desktop/DR-subject0.csv,legacy,Kafkaesque Koffka,3.2.8,0,h,NA,s,s,NA,h,NA,418,NA,14083,30438,NA,418,NA,2,legacy,1024,2,48000,-16,experiment,HHHHH,1,odd,18000,186812,NA,227486,205113,3883,187745,NA,228618,NA,3906,156371,NA,228732,229153,NA,228606,228732,Flanker Task,103,47222,105,yes,1024
98.11320755,98.11320755,449.509434,449.509434,black,legacy,legacy,legacy,0,incongruent,uniform,1,undefined,1,s,0,0,0,105,105,0,105,0,105,0,0,0,0,105,105,NA,105,105,Sun Sep 22 16:22:41 2019,600,The main experiment item,yes,FlankerTask.osexp,/Users/danielrazo0311/Desktop,no,mono,no,18,no,white,no,yes,768,legacy,25,79,/Users/danielrazo0311/Desktop/DR-subject0.csv,legacy,Kafkaesque Koffka,3.2.8,0,s,NA,s,s,NA,s,NA,426,NA,14083,30438,NA,426,NA,2,legacy,1024,2,48000,-16,experiment,HHSHH,1,odd,18000,186812,NA,229169,205113,3883,187745,NA,230301,NA,3906,156371,NA,230413,230842,NA,230287,230413,Flanker Task,104,47648,106,yes,1024
98.13084112,98.13084112,449.0747664,449.0747664,black,legacy,legacy,legacy,0,congruent,uniform,1,undefined,1,s,0,0,0,106,106,0,106,0,106,0,0,0,0,106,106,NA,106,106,Sun Sep 22 16:22:41 2019,600,The main experiment item,yes,FlankerTask.osexp,/Users/danielrazo0311/Desktop,no,mono,no,18,no,white,no,yes,768,legacy,26,79,/Users/danielrazo0311/Desktop/DR-subject0.csv,legacy,Kafkaesque Koffka,3.2.8,0,s,NA,s,s,NA,s,NA,403,NA,14083,30438,NA,403,NA,2,legacy,1024,2,48000,-16,experiment,SSSSS,1,odd,18000,186812,NA,230857,205113,3883,187745,NA,231987,NA,3906,156371,NA,232100,232506,NA,231975,232100,Flanker Task,105,48051,107,yes,1024
98.14814815,98.14814815,448.712963,448.712963,black,legacy,legacy,legacy,0,incongruent,uniform,1,undefined,1,h,0,0,0,107,107,0,107,0,107,0,0,0,0,107,107,NA,107,107,Sun Sep 22 16:22:41 2019,600,The main experiment item,yes,FlankerTask.osexp,/Users/danielrazo0311/Desktop,no,mono,no,18,no,white,no,yes,768,legacy,27,79,/Users/danielrazo0311/Desktop/DR-subject0.csv,legacy,Kafkaesque Koffka,3.2.8,0,h,NA,s,s,NA,h,NA,410,NA,14083,30438,NA,410,NA,2,legacy,1024,2,48000,-16,experiment,SSHSS,1,odd,18000,186812,NA,232521,205113,3883,187745,NA,233651,NA,3906,156371,NA,233764,234177,NA,233639,233764,Flanker Task,106,48461,108,yes,1024
97.24770642,97.24770642,448.9357798,448.9357798,black,legacy,legacy,legacy,0,incongruent,uniform,0,undefined,0,h,0,0,0,108,108,0,108,0,108,0,0,0,0,108,108,NA,108,108,Sun Sep 22 16:22:41 2019,600,The main experiment item,yes,FlankerTask.osexp,/Users/danielrazo0311/Desktop,no,mono,no,18,no,white,no,yes,768,legacy,28,79,/Users/danielrazo0311/Desktop/DR-subject0.csv,legacy,Kafkaesque Koffka,3.2.8,0,s,NA,s,s,NA,s,NA,473,NA,14083,30438,NA,473,NA,2,legacy,1024,2,48000,-16,experiment,SSHSS,1,odd,18000,186812,NA,234192,205113,3883,187745,NA,235324,NA,3906,156371,NA,235438,235914,NA,235312,235438,Flanker Task,106,48934,109,yes,1024
97.27272727,97.27272727,449.2090909,449.2090909,black,legacy,legacy,legacy,0,congruent,uniform,1,undefined,1,h,0,0,0,109,109,0,109,0,109,0,0,0,0,109,109,NA,109,109,Sun Sep 22 16:22:41 2019,600,The main experiment item,yes,FlankerTask.osexp,/Users/danielrazo0311/Desktop,no,mono,no,18,no,white,no,yes,768,legacy,29,79,/Users/danielrazo0311/Desktop/DR-subject0.csv,legacy,Kafkaesque Koffka,3.2.8,0,h,NA,s,s,NA,h,NA,479,NA,14083,30438,NA,479,NA,2,legacy,1024,2,48000,-16,experiment,HHHHH,1,odd,18000,186812,NA,236441,235929,3883,187745,NA,237573,NA,3906,156371,NA,237687,238169,NA,237560,237687,Flanker Task,107,49413,110,yes,1024
97.2972973,97.2972973,449.3693694,449.3693694,black,legacy,legacy,legacy,0,congruent,uniform,1,undefined,1,h,0,0,0,110,110,0,110,0,110,0,0,0,0,110,110,NA,110,110,Sun Sep 22 16:22:41 2019,600,The main experiment item,yes,FlankerTask.osexp,/Users/danielrazo0311/Desktop,no,mono,no,18,no,white,no,yes,768,legacy,30,79,/Users/danielrazo0311/Desktop/DR-subject0.csv,legacy,Kafkaesque Koffka,3.2.8,0,h,NA,s,s,NA,h,NA,467,NA,14083,30438,NA,467,NA,2,legacy,1024,2,48000,-16,experiment,HHHHH,1,odd,18000,186812,NA,238184,235929,3883,187745,NA,239314,NA,3906,156371,NA,239428,239898,NA,239301,239428,Flanker Task,108,49880,111,yes,1024
97.32142857,97.32142857,449.1607143,449.1607143,black,legacy,legacy,legacy,0,congruent,uniform,1,undefined,1,s,0,0,0,111,111,0,111,0,111,0,0,0,0,111,111,NA,111,111,Sun Sep 22 16:22:41 2019,600,The main experiment item,yes,FlankerTask.osexp,/Users/danielrazo0311/Desktop,no,mono,no,18,no,white,no,yes,768,legacy,31,79,/Users/danielrazo0311/Desktop/DR-subject0.csv,legacy,Kafkaesque Koffka,3.2.8,0,s,NA,s,s,NA,s,NA,426,NA,14083,30438,NA,426,NA,2,legacy,1024,2,48000,-16,experiment,SSSSS,1,odd,18000,186812,NA,239913,235929,3883,187745,NA,241043,NA,3906,156371,NA,241157,241586,NA,241030,241157,Flanker Task,109,50306,112,yes,1024
97.34513274,97.34513274,449.5221239,449.5221239,black,legacy,legacy,legacy,0,incongruent,uniform,1,undefined,1,s,0,0,0,112,112,0,112,0,112,0,0,0,0,112,112,NA,112,112,Sun Sep 22 16:22:41 2019,600,The main experiment item,yes,FlankerTask.osexp,/Users/danielrazo0311/Desktop,no,mono,no,18,no,white,no,yes,768,legacy,32,79,/Users/danielrazo0311/Desktop/DR-subject0.csv,legacy,Kafkaesque Koffka,3.2.8,0,s,NA,s,s,NA,s,NA,490,NA,14083,30438,NA,490,NA,2,legacy,1024,2,48000,-16,experiment,HHSHH,1,odd,18000,186812,NA,241601,235929,3883,187745,NA,242732,NA,3906,156371,NA,242845,243338,NA,242719,242845,Flanker Task,110,50796,113,yes,1024
97.36842105,97.36842105,449.4298246,449.4298246,black,legacy,legacy,legacy,0,incongruent,uniform,1,undefined,1,s,0,0,0,113,113,0,113,0,113,0,0,0,0,113,113,NA,113,113,Sun Sep 22 16:22:41 2019,600,The main experiment item,yes,FlankerTask.osexp,/Users/danielrazo0311/Desktop,no,mono,no,18,no,white,no,yes,768,legacy,33,79,/Users/danielrazo0311/Desktop/DR-subject0.csv,legacy,Kafkaesque Koffka,3.2.8,0,s,NA,s,s,NA,s,NA,439,NA,14083,30438,NA,439,NA,2,legacy,1024,2,48000,-16,experiment,HHSHH,1,odd,18000,186812,NA,243353,235929,3883,187745,NA,244483,NA,3906,156371,NA,244598,245041,NA,244471,244597,Flanker Task,111,51235,114,yes,1024
97.39130435,97.39130435,449.6521739,449.6521739,black,legacy,legacy,legacy,0,congruent,uniform,1,undefined,1,s,0,0,0,114,114,0,114,0,114,0,0,0,0,114,114,NA,114,114,Sun Sep 22 16:22:41 2019,600,The main experiment item,yes,FlankerTask.osexp,/Users/danielrazo0311/Desktop,no,mono,no,18,no,white,no,yes,768,legacy,34,79,/Users/danielrazo0311/Desktop/DR-subject0.csv,legacy,Kafkaesque Koffka,3.2.8,0,s,NA,s,s,NA,s,NA,475,NA,14083,30438,NA,475,NA,2,legacy,1024,2,48000,-16,experiment,SSSSS,1,odd,18000,186812,NA,245095,235929,3883,187745,NA,246224,NA,3906,156371,NA,246339,246818,NA,246212,246338,Flanker Task,112,51710,115,yes,1024
97.4137931,97.4137931,449.5431034,449.5431034,black,legacy,legacy,legacy,0,congruent,uniform,1,undefined,1,s,0,0,0,115,115,0,115,0,115,0,0,0,0,115,115,NA,115,115,Sun Sep 22 16:22:41 2019,600,The main experiment item,yes,FlankerTask.osexp,/Users/danielrazo0311/Desktop,no,mono,no,18,no,white,no,yes,768,legacy,35,79,/Users/danielrazo0311/Desktop/DR-subject0.csv,legacy,Kafkaesque Koffka,3.2.8,0,s,NA,s,s,NA,s,NA,437,NA,14083,30438,NA,437,NA,2,legacy,1024,2,48000,-16,experiment,SSSSS,1,odd,18000,186812,NA,246839,235929,3883,187745,NA,247968,NA,3906,156371,NA,248081,248522,NA,247956,248081,Flanker Task,113,52147,116,yes,1024
97.43589744,97.43589744,449.2649573,449.2649573,black,legacy,legacy,legacy,0,incongruent,uniform,1,undefined,1,h,0,0,0,116,116,0,116,0,116,0,0,0,0,116,116,NA,116,116,Sun Sep 22 16:22:41 2019,600,The main experiment item,yes,FlankerTask.osexp,/Users/danielrazo0311/Desktop,no,mono,no,18,no,white,no,yes,768,legacy,36,79,/Users/danielrazo0311/Desktop/DR-subject0.csv,legacy,Kafkaesque Koffka,3.2.8,0,h,NA,s,s,NA,h,NA,417,NA,14083,30438,NA,417,NA,2,legacy,1024,2,48000,-16,experiment,SSHSS,1,odd,18000,186812,NA,248537,235929,3883,187745,NA,249667,NA,3906,156371,NA,249780,250201,NA,249655,249780,Flanker Task,114,52564,117,yes,1024
97.45762712,97.45762712,448.9915254,448.9915254,black,legacy,legacy,legacy,0,incongruent,uniform,1,undefined,1,s,0,0,0,117,117,0,117,0,117,0,0,0,0,117,117,NA,117,117,Sun Sep 22 16:22:41 2019,600,The main experiment item,yes,FlankerTask.osexp,/Users/danielrazo0311/Desktop,no,mono,no,18,no,white,no,yes,768,legacy,37,79,/Users/danielrazo0311/Desktop/DR-subject0.csv,legacy,Kafkaesque Koffka,3.2.8,0,s,NA,s,s,NA,s,NA,417,NA,14083,30438,NA,417,NA,2,legacy,1024,2,48000,-16,experiment,HHSHH,1,odd,18000,186812,NA,250217,235929,3883,187745,NA,251349,NA,3906,156371,NA,251461,251882,NA,251336,251461,Flanker Task,115,52981,118,yes,1024
97.4789916,97.4789916,449.3697479,449.3697479,black,legacy,legacy,legacy,0,congruent,uniform,1,undefined,1,h,0,0,0,118,118,0,118,0,118,0,0,0,0,118,118,NA,118,118,Sun Sep 22 16:22:41 2019,600,The main experiment item,yes,FlankerTask.osexp,/Users/danielrazo0311/Desktop,no,mono,no,18,no,white,no,yes,768,legacy,38,79,/Users/danielrazo0311/Desktop/DR-subject0.csv,legacy,Kafkaesque Koffka,3.2.8,0,h,NA,s,s,NA,h,NA,494,NA,14083,30438,NA,494,NA,2,legacy,1024,2,48000,-16,experiment,HHHHH,1,odd,18000,186812,NA,251897,235929,3883,187745,NA,253030,NA,3906,156371,NA,253144,253642,NA,253017,253144,Flanker Task,116,53475,119,yes,1024
97.5,97.5,450.5,450.5,black,legacy,legacy,legacy,0,incongruent,uniform,1,undefined,1,h,0,0,0,119,119,0,119,0,119,0,0,0,0,119,119,NA,119,119,Sun Sep 22 16:22:41 2019,600,The main experiment item,yes,FlankerTask.osexp,/Users/danielrazo0311/Desktop,no,mono,no,18,no,white,no,yes,768,legacy,39,79,/Users/danielrazo0311/Desktop/DR-subject0.csv,legacy,Kafkaesque Koffka,3.2.8,0,h,NA,s,s,NA,h,NA,585,NA,14083,30438,NA,585,NA,2,legacy,1024,2,48000,-16,experiment,SSHSS,1,odd,18000,186812,NA,253657,235929,3883,187745,NA,254787,NA,3906,156371,NA,254901,255490,NA,254775,254901,Flanker Task,117,54060,120,yes,1024
97.52066116,97.52066116,450.8677686,450.8677686,black,legacy,legacy,legacy,0,incongruent,uniform,1,undefined,1,s,0,0,0,120,120,0,120,0,120,0,0,0,0,120,120,NA,120,120,Sun Sep 22 16:22:41 2019,600,The main experiment item,yes,FlankerTask.osexp,/Users/danielrazo0311/Desktop,no,mono,no,18,no,white,no,yes,768,legacy,40,79,/Users/danielrazo0311/Desktop/DR-subject0.csv,legacy,Kafkaesque Koffka,3.2.8,0,s,NA,s,s,NA,s,NA,495,NA,14083,30438,NA,495,NA,2,legacy,1024,2,48000,-16,experiment,HHSHH,1,odd,18000,186812,NA,255505,235929,3883,187745,NA,256637,NA,3906,156371,NA,256750,257249,NA,256625,256750,Flanker Task,118,54555,121,yes,1024
97.54098361,97.54098361,451.1721311,451.1721311,black,legacy,legacy,legacy,0,incongruent,uniform,1,undefined,1,h,0,0,0,121,121,0,121,0,121,0,0,0,0,121,121,NA,121,121,Sun Sep 22 16:22:41 2019,600,The main experiment item,yes,FlankerTask.osexp,/Users/danielrazo0311/Desktop,no,mono,no,18,no,white,no,yes,768,legacy,41,79,/Users/danielrazo0311/Desktop/DR-subject0.csv,legacy,Kafkaesque Koffka,3.2.8,0,h,NA,s,s,NA,h,NA,488,NA,14083,30438,NA,488,NA,2,legacy,1024,2,48000,-16,experiment,SSHSS,1,odd,18000,186812,NA,257264,235929,3883,187745,NA,258398,NA,3906,156371,NA,258510,259001,NA,258385,258510,Flanker Task,119,55043,122,yes,1024
97.56097561,97.56097561,451.0406504,451.0406504,black,legacy,legacy,legacy,0,incongruent,uniform,1,undefined,1,s,0,0,0,122,122,0,122,0,122,0,0,0,0,122,122,NA,122,122,Sun Sep 22 16:22:41 2019,600,The main experiment item,yes,FlankerTask.osexp,/Users/danielrazo0311/Desktop,no,mono,no,18,no,white,no,yes,768,legacy,42,79,/Users/danielrazo0311/Desktop/DR-subject0.csv,legacy,Kafkaesque Koffka,3.2.8,0,s,NA,s,s,NA,s,NA,435,NA,14083,30438,NA,435,NA,2,legacy,1024,2,48000,-16,experiment,HHSHH,1,odd,18000,186812,NA,259016,235929,3883,187745,NA,260146,NA,3906,156371,NA,260259,260697,NA,260134,260259,Flanker Task,120,55478,123,yes,1024
97.58064516,97.58064516,450.9677419,450.9677419,black,legacy,legacy,legacy,0,congruent,uniform,1,undefined,1,h,0,0,0,123,123,0,123,0,123,0,0,0,0,123,123,NA,123,123,Sun Sep 22 16:22:41 2019,600,The main experiment item,yes,FlankerTask.osexp,/Users/danielrazo0311/Desktop,no,mono,no,18,no,white,no,yes,768,legacy,43,79,/Users/danielrazo0311/Desktop/DR-subject0.csv,legacy,Kafkaesque Koffka,3.2.8,0,h,NA,s,s,NA,h,NA,442,NA,14083,30438,NA,442,NA,2,legacy,1024,2,48000,-16,experiment,HHHHH,1,odd,18000,186812,NA,260713,235929,3883,187745,NA,261844,NA,3906,156371,NA,261956,262401,NA,261831,261956,Flanker Task,121,55920,124,yes,1024
97.6,97.6,451.152,451.152,black,legacy,legacy,legacy,0,congruent,uniform,1,undefined,1,s,0,0,0,124,124,0,124,0,124,0,0,0,0,124,124,NA,124,124,Sun Sep 22 16:22:41 2019,600,The main experiment item,yes,FlankerTask.osexp,/Users/danielrazo0311/Desktop,no,mono,no,18,no,white,no,yes,768,legacy,44,79,/Users/danielrazo0311/Desktop/DR-subject0.csv,legacy,Kafkaesque Koffka,3.2.8,0,s,NA,s,s,NA,s,NA,474,NA,14083,30438,NA,474,NA,2,legacy,1024,2,48000,-16,experiment,SSSSS,1,odd,18000,186812,NA,262417,235929,3883,187745,NA,263553,NA,3906,156371,NA,263667,264144,NA,263540,263667,Flanker Task,122,56394,125,yes,1024
97.61904762,97.61904762,450.8730159,450.8730159,black,legacy,legacy,legacy,0,congruent,uniform,1,undefined,1,h,0,0,0,125,125,0,125,0,125,0,0,0,0,125,125,NA,125,125,Sun Sep 22 16:22:41 2019,600,The main experiment item,yes,FlankerTask.osexp,/Users/danielrazo0311/Desktop,no,mono,no,18,no,white,no,yes,768,legacy,45,79,/Users/danielrazo0311/Desktop/DR-subject0.csv,legacy,Kafkaesque Koffka,3.2.8,0,h,NA,s,s,NA,h,NA,416,NA,14083,30438,NA,416,NA,2,legacy,1024,2,48000,-16,experiment,HHHHH,1,odd,18000,186812,NA,264159,235929,3883,187745,NA,265291,NA,3906,156371,NA,265406,265826,NA,265278,265406,Flanker Task,123,56810,126,yes,1024
97.63779528,97.63779528,452.3070866,452.3070866,black,legacy,legacy,legacy,0,congruent,uniform,1,undefined,1,h,0,0,0,126,126,0,126,0,126,0,0,0,0,126,126,NA,126,126,Sun Sep 22 16:22:41 2019,600,The main experiment item,yes,FlankerTask.osexp,/Users/danielrazo0311/Desktop,no,mono,no,18,no,white,no,yes,768,legacy,46,79,/Users/danielrazo0311/Desktop/DR-subject0.csv,legacy,Kafkaesque Koffka,3.2.8,0,h,NA,s,s,NA,h,NA,633,NA,14083,30438,NA,633,NA,2,legacy,1024,2,48000,-16,experiment,HHHHH,1,odd,18000,186812,NA,265841,235929,3883,187745,NA,266973,NA,3906,156371,NA,267085,267721,NA,266960,267085,Flanker Task,124,57443,127,yes,1024
97.65625,97.65625,452.0859375,452.0859375,black,legacy,legacy,legacy,0,congruent,uniform,1,undefined,1,s,0,0,0,127,127,0,127,0,127,0,0,0,0,127,127,NA,127,127,Sun Sep 22 16:22:41 2019,600,The main experiment item,yes,FlankerTask.osexp,/Users/danielrazo0311/Desktop,no,mono,no,18,no,white,no,yes,768,legacy,47,79,/Users/danielrazo0311/Desktop/DR-subject0.csv,legacy,Kafkaesque Koffka,3.2.8,0,s,NA,s,s,NA,s,NA,424,NA,14083,30438,NA,424,NA,2,legacy,1024,2,48000,-16,experiment,SSSSS,1,odd,18000,186812,NA,268248,235929,3883,267736,NA,269380,NA,3906,156371,NA,269494,269922,NA,269368,269494,Flanker Task,125,57867,128,yes,1024
97.6744186,97.6744186,452.0310078,452.0310078,black,legacy,legacy,legacy,0,congruent,uniform,1,undefined,1,s,0,0,0,128,128,0,128,0,128,0,0,0,0,128,128,NA,128,128,Sun Sep 22 16:22:41 2019,600,The main experiment item,yes,FlankerTask.osexp,/Users/danielrazo0311/Desktop,no,mono,no,18,no,white,no,yes,768,legacy,48,79,/Users/danielrazo0311/Desktop/DR-subject0.csv,legacy,Kafkaesque Koffka,3.2.8,0,s,NA,s,s,NA,s,NA,445,NA,14083,30438,NA,445,NA,2,legacy,1024,2,48000,-16,experiment,SSSSS,1,odd,18000,186812,NA,269941,235929,3883,267736,NA,271070,NA,3906,156371,NA,271185,271633,NA,271057,271185,Flanker Task,126,58312,129,yes,1024
97.69230769,97.69230769,451.3923077,451.3923077,black,legacy,legacy,legacy,0,congruent,uniform,1,undefined,1,h,0,0,0,129,129,0,129,0,129,0,0,0,0,129,129,NA,129,129,Sun Sep 22 16:22:41 2019,600,The main experiment item,yes,FlankerTask.osexp,/Users/danielrazo0311/Desktop,no,mono,no,18,no,white,no,yes,768,legacy,49,79,/Users/danielrazo0311/Desktop/DR-subject0.csv,legacy,Kafkaesque Koffka,3.2.8,0,h,NA,s,s,NA,h,NA,369,NA,14083,30438,NA,369,NA,2,legacy,1024,2,48000,-16,experiment,HHHHH,1,odd,18000,186812,NA,271648,235929,3883,267736,NA,272779,NA,3906,156371,NA,272892,273264,NA,272766,272891,Flanker Task,127,58681,130,yes,1024
97.70992366,97.70992366,451.0610687,451.0610687,black,legacy,legacy,legacy,0,congruent,uniform,1,undefined,1,h,0,0,0,130,130,0,130,0,130,0,0,0,0,130,130,NA,130,130,Sun Sep 22 16:22:41 2019,600,The main experiment item,yes,FlankerTask.osexp,/Users/danielrazo0311/Desktop,no,mono,no,18,no,white,no,yes,768,legacy,50,79,/Users/danielrazo0311/Desktop/DR-subject0.csv,legacy,Kafkaesque Koffka,3.2.8,0,h,NA,s,s,NA,h,NA,408,NA,14083,30438,NA,408,NA,2,legacy,1024,2,48000,-16,experiment,HHHHH,1,odd,18000,186812,NA,273281,235929,3883,267736,NA,274413,NA,3906,156371,NA,274526,274939,NA,274401,274526,Flanker Task,128,59089,131,yes,1024
97.72727273,97.72727273,450.8787879,450.8787879,black,legacy,legacy,legacy,0,incongruent,uniform,1,undefined,1,s,0,0,0,131,131,0,131,0,131,0,0,0,0,131,131,NA,131,131,Sun Sep 22 16:22:41 2019,600,The main experiment item,yes,FlankerTask.osexp,/Users/danielrazo0311/Desktop,no,mono,no,18,no,white,no,yes,768,legacy,51,79,/Users/danielrazo0311/Desktop/DR-subject0.csv,legacy,Kafkaesque Koffka,3.2.8,0,s,NA,s,s,NA,s,NA,427,NA,14083,30438,NA,427,NA,2,legacy,1024,2,48000,-16,experiment,HHSHH,1,odd,18000,186812,NA,274956,235929,3883,267736,NA,276089,NA,3906,156371,NA,276203,276633,NA,276077,276203,Flanker Task,129,59516,132,yes,1024
97.7443609,97.7443609,450.6240602,450.6240602,black,legacy,legacy,legacy,0,incongruent,uniform,1,undefined,1,h,0,0,0,132,132,0,132,0,132,0,0,0,0,132,132,NA,132,132,Sun Sep 22 16:22:41 2019,600,The main experiment item,yes,FlankerTask.osexp,/Users/danielrazo0311/Desktop,no,mono,no,18,no,white,no,yes,768,legacy,52,79,/Users/danielrazo0311/Desktop/DR-subject0.csv,legacy,Kafkaesque Koffka,3.2.8,0,h,NA,s,s,NA,h,NA,417,NA,14083,30438,NA,417,NA,2,legacy,1024,2,48000,-16,experiment,SSHSS,1,odd,18000,186812,NA,276649,235929,3883,267736,NA,277780,NA,3906,156371,NA,277893,278313,NA,277767,277893,Flanker Task,130,59933,133,yes,1024
97.76119403,97.76119403,450.0074627,450.0074627,black,legacy,legacy,legacy,0,incongruent,uniform,1,undefined,1,s,0,0,0,133,133,0,133,0,133,0,0,0,0,133,133,NA,133,133,Sun Sep 22 16:22:41 2019,600,The main experiment item,yes,FlankerTask.osexp,/Users/danielrazo0311/Desktop,no,mono,no,18,no,white,no,yes,768,legacy,53,79,/Users/danielrazo0311/Desktop/DR-subject0.csv,legacy,Kafkaesque Koffka,3.2.8,0,s,NA,s,s,NA,s,NA,368,NA,14083,30438,NA,368,NA,2,legacy,1024,2,48000,-16,experiment,HHSHH,1,odd,18000,186812,NA,278328,235929,3883,267736,NA,279460,NA,3906,156371,NA,279574,279945,NA,279448,279573,Flanker Task,131,60301,134,yes,1024
97.77777778,97.77777778,450.0962963,450.0962963,black,legacy,legacy,legacy,0,incongruent,uniform,1,undefined,1,s,0,0,0,134,134,0,134,0,134,0,0,0,0,134,134,NA,134,134,Sun Sep 22 16:22:41 2019,600,The main experiment item,yes,FlankerTask.osexp,/Users/danielrazo0311/Desktop,no,mono,no,18,no,white,no,yes,768,legacy,54,79,/Users/danielrazo0311/Desktop/DR-subject0.csv,legacy,Kafkaesque Koffka,3.2.8,0,s,NA,s,s,NA,s,NA,462,NA,14083,30438,NA,462,NA,2,legacy,1024,2,48000,-16,experiment,HHSHH,1,odd,18000,186812,NA,279960,235929,3883,267736,NA,281092,NA,3906,156371,NA,281207,281673,NA,281079,281206,Flanker Task,132,60763,135,yes,1024
97.79411765,97.79411765,449.7867647,449.7867647,black,legacy,legacy,legacy,0,incongruent,uniform,1,undefined,1,h,0,0,0,135,135,0,135,0,135,0,0,0,0,135,135,NA,135,135,Sun Sep 22 16:22:41 2019,600,The main experiment item,yes,FlankerTask.osexp,/Users/danielrazo0311/Desktop,no,mono,no,18,no,white,no,yes,768,legacy,55,79,/Users/danielrazo0311/Desktop/DR-subject0.csv,legacy,Kafkaesque Koffka,3.2.8,0,h,NA,s,s,NA,h,NA,408,NA,14083,30438,NA,408,NA,2,legacy,1024,2,48000,-16,experiment,SSHSS,1,odd,18000,186812,NA,281688,235929,3883,267736,NA,282819,NA,3906,156371,NA,282933,283345,NA,282806,282933,Flanker Task,133,61171,136,yes,1024
97.81021898,97.81021898,449.2481752,449.2481752,black,legacy,legacy,legacy,0,congruent,uniform,1,undefined,1,s,0,0,0,136,136,0,136,0,136,0,0,0,0,136,136,NA,136,136,Sun Sep 22 16:22:41 2019,600,The main experiment item,yes,FlankerTask.osexp,/Users/danielrazo0311/Desktop,no,mono,no,18,no,white,no,yes,768,legacy,56,79,/Users/danielrazo0311/Desktop/DR-subject0.csv,legacy,Kafkaesque Koffka,3.2.8,0,s,NA,s,s,NA,s,NA,376,NA,14083,30438,NA,376,NA,2,legacy,1024,2,48000,-16,experiment,SSSSS,1,odd,18000,186812,NA,283360,235929,3883,267736,NA,284491,NA,3906,156371,NA,284605,284985,NA,284479,284605,Flanker Task,134,61547,137,yes,1024
97.82608696,97.82608696,449.1449275,449.1449275,black,legacy,legacy,legacy,0,congruent,uniform,1,undefined,1,s,0,0,0,137,137,0,137,0,137,0,0,0,0,137,137,NA,137,137,Sun Sep 22 16:22:41 2019,600,The main experiment item,yes,FlankerTask.osexp,/Users/danielrazo0311/Desktop,no,mono,no,18,no,white,no,yes,768,legacy,57,79,/Users/danielrazo0311/Desktop/DR-subject0.csv,legacy,Kafkaesque Koffka,3.2.8,0,s,NA,s,s,NA,s,NA,435,NA,14083,30438,NA,435,NA,2,legacy,1024,2,48000,-16,experiment,SSSSS,1,odd,18000,186812,NA,285000,235929,3883,267736,NA,286128,NA,3906,156371,NA,286242,286681,NA,286116,286242,Flanker Task,135,61982,138,yes,1024
97.84172662,97.84172662,448.5683453,448.5683453,black,legacy,legacy,legacy,0,incongruent,uniform,1,undefined,1,h,0,0,0,138,138,0,138,0,138,0,0,0,0,138,138,NA,138,138,Sun Sep 22 16:22:41 2019,600,The main experiment item,yes,FlankerTask.osexp,/Users/danielrazo0311/Desktop,no,mono,no,18,no,white,no,yes,768,legacy,58,79,/Users/danielrazo0311/Desktop/DR-subject0.csv,legacy,Kafkaesque Koffka,3.2.8,0,h,NA,s,s,NA,h,NA,369,NA,14083,30438,NA,369,NA,2,legacy,1024,2,48000,-16,experiment,SSHSS,1,odd,18000,186812,NA,286696,235929,3883,267736,NA,287827,NA,3906,156371,NA,287940,288313,NA,287814,287940,Flanker Task,136,62351,139,yes,1024
97.85714286,97.85714286,448.2785714,448.2785714,black,legacy,legacy,legacy,0,incongruent,uniform,1,undefined,1,s,0,0,0,139,139,0,139,0,139,0,0,0,0,139,139,NA,139,139,Sun Sep 22 16:22:41 2019,600,The main experiment item,yes,FlankerTask.osexp,/Users/danielrazo0311/Desktop,no,mono,no,18,no,white,no,yes,768,legacy,59,79,/Users/danielrazo0311/Desktop/DR-subject0.csv,legacy,Kafkaesque Koffka,3.2.8,0,s,NA,s,s,NA,s,NA,408,NA,14083,30438,NA,408,NA,2,legacy,1024,2,48000,-16,experiment,HHSHH,1,odd,18000,186812,NA,288328,235929,3883,267736,NA,289458,NA,3906,156371,NA,289573,289985,NA,289446,289573,Flanker Task,137,62759,140,yes,1024
97.87234043,97.87234043,447.6099291,447.6099291,black,legacy,legacy,legacy,0,congruent,uniform,1,undefined,1,h,0,0,0,140,140,0,140,0,140,0,0,0,0,140,140,NA,140,140,Sun Sep 22 16:22:41 2019,600,The main experiment item,yes,FlankerTask.osexp,/Users/danielrazo0311/Desktop,no,mono,no,18,no,white,no,yes,768,legacy,60,79,/Users/danielrazo0311/Desktop/DR-subject0.csv,legacy,Kafkaesque Koffka,3.2.8,0,h,NA,s,s,NA,h,NA,354,NA,14083,30438,NA,354,NA,2,legacy,1024,2,48000,-16,experiment,HHHHH,1,odd,18000,186812,NA,290000,235929,3883,267736,NA,291130,NA,3906,156371,NA,291243,291601,NA,291118,291243,Flanker Task,138,63113,141,yes,1024
97.18309859,97.18309859,446.6549296,446.6549296,black,legacy,legacy,legacy,0,incongruent,uniform,0,undefined,0,h,0,0,0,141,141,0,141,0,141,0,0,0,0,141,141,NA,141,141,Sun Sep 22 16:22:41 2019,600,The main experiment item,yes,FlankerTask.osexp,/Users/danielrazo0311/Desktop,no,mono,no,18,no,white,no,yes,768,legacy,61,79,/Users/danielrazo0311/Desktop/DR-subject0.csv,legacy,Kafkaesque Koffka,3.2.8,0,s,NA,s,s,NA,s,NA,312,NA,14083,30438,NA,312,NA,2,legacy,1024,2,48000,-16,experiment,SSHSS,1,odd,18000,186812,NA,291616,235929,3883,267736,NA,292745,NA,3906,156371,NA,292860,293176,NA,292733,292859,Flanker Task,138,63425,142,yes,1024
97.2027972,97.2027972,446.1608392,446.1608392,black,legacy,legacy,legacy,0,congruent,uniform,1,undefined,1,s,0,0,0,142,142,0,142,0,142,0,0,0,0,142,142,NA,142,142,Sun Sep 22 16:22:41 2019,600,The main experiment item,yes,FlankerTask.osexp,/Users/danielrazo0311/Desktop,no,mono,no,18,no,white,no,yes,768,legacy,62,79,/Users/danielrazo0311/Desktop/DR-subject0.csv,legacy,Kafkaesque Koffka,3.2.8,0,s,NA,s,s,NA,s,NA,376,NA,14083,30438,NA,376,NA,2,legacy,1024,2,48000,-16,experiment,SSSSS,1,odd,18000,186812,NA,293703,293191,3883,267736,NA,294833,NA,3906,156371,NA,294949,295329,NA,294820,294949,Flanker Task,139,63801,143,yes,1024
97.22222222,97.22222222,445.7361111,445.7361111,black,legacy,legacy,legacy,0,congruent,uniform,1,undefined,1,s,0,0,0,143,143,0,143,0,143,0,0,0,0,143,143,NA,143,143,Sun Sep 22 16:22:41 2019,600,The main experiment item,yes,FlankerTask.osexp,/Users/danielrazo0311/Desktop,no,mono,no,18,no,white,no,yes,768,legacy,63,79,/Users/danielrazo0311/Desktop/DR-subject0.csv,legacy,Kafkaesque Koffka,3.2.8,0,s,NA,s,s,NA,s,NA,385,NA,14083,30438,NA,385,NA,2,legacy,1024,2,48000,-16,experiment,SSSSS,1,odd,18000,186812,NA,295344,293191,3883,267736,NA,296475,NA,3906,156371,NA,296588,296977,NA,296463,296588,Flanker Task,140,64186,144,yes,1024
97.24137931,97.24137931,446.6965517,446.6965517,black,legacy,legacy,legacy,0,incongruent,uniform,1,undefined,1,s,0,0,0,144,144,0,144,0,144,0,0,0,0,144,144,NA,144,144,Sun Sep 22 16:22:41 2019,600,The main experiment item,yes,FlankerTask.osexp,/Users/danielrazo0311/Desktop,no,mono,no,18,no,white,no,yes,768,legacy,64,79,/Users/danielrazo0311/Desktop/DR-subject0.csv,legacy,Kafkaesque Koffka,3.2.8,0,s,NA,s,s,NA,s,NA,585,NA,14083,30438,NA,585,NA,2,legacy,1024,2,48000,-16,experiment,HHSHH,1,odd,18000,186812,NA,296992,293191,3883,267736,NA,298123,NA,3906,156371,NA,298236,298825,NA,298110,298236,Flanker Task,141,64771,145,yes,1024
97.26027397,97.26027397,446.369863,446.369863,black,legacy,legacy,legacy,0,congruent,uniform,1,undefined,1,h,0,0,0,145,145,0,145,0,145,0,0,0,0,145,145,NA,145,145,Sun Sep 22 16:22:41 2019,600,The main experiment item,yes,FlankerTask.osexp,/Users/danielrazo0311/Desktop,no,mono,no,18,no,white,no,yes,768,legacy,65,79,/Users/danielrazo0311/Desktop/DR-subject0.csv,legacy,Kafkaesque Koffka,3.2.8,0,h,NA,s,s,NA,h,NA,399,NA,14083,30438,NA,399,NA,2,legacy,1024,2,48000,-16,experiment,HHHHH,1,odd,18000,186812,NA,298840,293191,3883,267736,NA,299971,NA,3906,156371,NA,300086,300489,NA,299959,300086,Flanker Task,142,65170,146,yes,1024
97.27891156,97.27891156,446.5306122,446.5306122,black,legacy,legacy,legacy,0,congruent,uniform,1,undefined,1,h,0,0,0,146,146,0,146,0,146,0,0,0,0,146,146,NA,146,146,Sun Sep 22 16:22:41 2019,600,The main experiment item,yes,FlankerTask.osexp,/Users/danielrazo0311/Desktop,no,mono,no,18,no,white,no,yes,768,legacy,66,79,/Users/danielrazo0311/Desktop/DR-subject0.csv,legacy,Kafkaesque Koffka,3.2.8,0,h,NA,s,s,NA,h,NA,470,NA,14083,30438,NA,470,NA,2,legacy,1024,2,48000,-16,experiment,HHHHH,1,odd,18000,186812,NA,300504,293191,3883,267736,NA,301637,NA,3906,156371,NA,301750,302224,NA,301624,301750,Flanker Task,143,65640,147,yes,1024
97.2972973,97.2972973,446.277027,446.277027,black,legacy,legacy,legacy,0,incongruent,uniform,1,undefined,1,h,0,0,0,147,147,0,147,0,147,0,0,0,0,147,147,NA,147,147,Sun Sep 22 16:22:41 2019,600,The main experiment item,yes,FlankerTask.osexp,/Users/danielrazo0311/Desktop,no,mono,no,18,no,white,no,yes,768,legacy,67,79,/Users/danielrazo0311/Desktop/DR-subject0.csv,legacy,Kafkaesque Koffka,3.2.8,0,h,NA,s,s,NA,h,NA,409,NA,14083,30438,NA,409,NA,2,legacy,1024,2,48000,-16,experiment,SSHSS,1,odd,18000,186812,NA,302239,293191,3883,267736,NA,303370,NA,3906,156371,NA,303484,303897,NA,303357,303484,Flanker Task,144,66049,148,yes,1024
97.31543624,97.31543624,446.1006711,446.1006711,black,legacy,legacy,legacy,0,congruent,uniform,1,undefined,1,h,0,0,0,148,148,0,148,0,148,0,0,0,0,148,148,NA,148,148,Sun Sep 22 16:22:41 2019,600,The main experiment item,yes,FlankerTask.osexp,/Users/danielrazo0311/Desktop,no,mono,no,18,no,white,no,yes,768,legacy,68,79,/Users/danielrazo0311/Desktop/DR-subject0.csv,legacy,Kafkaesque Koffka,3.2.8,0,h,NA,s,s,NA,h,NA,420,NA,14083,30438,NA,420,NA,2,legacy,1024,2,48000,-16,experiment,HHHHH,1,odd,18000,186812,NA,303916,293191,3883,267736,NA,305064,NA,3906,156371,NA,305177,305601,NA,305052,305177,Flanker Task,145,66469,149,yes,1024
97.33333333,97.33333333,445.7866667,445.7866667,black,legacy,legacy,legacy,0,congruent,uniform,1,undefined,1,s,0,0,0,149,149,0,149,0,149,0,0,0,0,149,149,NA,149,149,Sun Sep 22 16:22:41 2019,600,The main experiment item,yes,FlankerTask.osexp,/Users/danielrazo0311/Desktop,no,mono,no,18,no,white,no,yes,768,legacy,69,79,/Users/danielrazo0311/Desktop/DR-subject0.csv,legacy,Kafkaesque Koffka,3.2.8,0,s,NA,s,s,NA,s,NA,399,NA,14083,30438,NA,399,NA,2,legacy,1024,2,48000,-16,experiment,SSSSS,1,odd,18000,186812,NA,305617,293191,3883,267736,NA,306745,NA,3906,156371,NA,306861,307264,NA,306733,306860,Flanker Task,146,66868,150,yes,1024
97.35099338,97.35099338,445.1258278,445.1258278,black,legacy,legacy,legacy,0,incongruent,uniform,1,undefined,1,h,0,0,0,150,150,0,150,0,150,0,0,0,0,150,150,NA,150,150,Sun Sep 22 16:22:41 2019,600,The main experiment item,yes,FlankerTask.osexp,/Users/danielrazo0311/Desktop,no,mono,no,18,no,white,no,yes,768,legacy,70,79,/Users/danielrazo0311/Desktop/DR-subject0.csv,legacy,Kafkaesque Koffka,3.2.8,0,h,NA,s,s,NA,h,NA,346,NA,14083,30438,NA,346,NA,2,legacy,1024,2,48000,-16,experiment,SSHSS,1,odd,18000,186812,NA,307279,293191,3883,267736,NA,308409,NA,3906,156371,NA,308523,308873,NA,308396,308523,Flanker Task,147,67214,151,yes,1024
97.36842105,97.36842105,445.3684211,445.3684211,black,legacy,legacy,legacy,0,congruent,uniform,1,undefined,1,h,0,0,0,151,151,0,151,0,151,0,0,0,0,151,151,NA,151,151,Sun Sep 22 16:22:41 2019,600,The main experiment item,yes,FlankerTask.osexp,/Users/danielrazo0311/Desktop,no,mono,no,18,no,white,no,yes,768,legacy,71,79,/Users/danielrazo0311/Desktop/DR-subject0.csv,legacy,Kafkaesque Koffka,3.2.8,0,h,NA,s,s,NA,h,NA,482,NA,14083,30438,NA,482,NA,2,legacy,1024,2,48000,-16,experiment,HHHHH,1,odd,18000,186812,NA,308887,293191,3883,267736,NA,310016,NA,3906,156371,NA,310131,310617,NA,310004,310130,Flanker Task,148,67696,152,yes,1024
97.38562092,97.38562092,445.2810458,445.2810458,black,legacy,legacy,legacy,0,congruent,uniform,1,undefined,1,s,0,0,0,152,152,0,152,0,152,0,0,0,0,152,152,NA,152,152,Sun Sep 22 16:22:41 2019,600,The main experiment item,yes,FlankerTask.osexp,/Users/danielrazo0311/Desktop,no,mono,no,18,no,white,no,yes,768,legacy,72,79,/Users/danielrazo0311/Desktop/DR-subject0.csv,legacy,Kafkaesque Koffka,3.2.8,0,s,NA,s,s,NA,s,NA,432,NA,14083,30438,NA,432,NA,2,legacy,1024,2,48000,-16,experiment,SSSSS,1,odd,18000,186812,NA,310632,293191,3883,267736,NA,311764,NA,3906,156371,NA,311877,312313,NA,311751,311877,Flanker Task,149,68128,153,yes,1024
97.4025974,97.4025974,445.487013,445.487013,black,legacy,legacy,legacy,0,incongruent,uniform,1,undefined,1,s,0,0,0,153,153,0,153,0,153,0,0,0,0,153,153,NA,153,153,Sun Sep 22 16:22:41 2019,600,The main experiment item,yes,FlankerTask.osexp,/Users/danielrazo0311/Desktop,no,mono,no,18,no,white,no,yes,768,legacy,73,79,/Users/danielrazo0311/Desktop/DR-subject0.csv,legacy,Kafkaesque Koffka,3.2.8,0,s,NA,s,s,NA,s,NA,477,NA,14083,30438,NA,477,NA,2,legacy,1024,2,48000,-16,experiment,HHSHH,1,odd,18000,186812,NA,312328,293191,3883,267736,NA,313460,NA,3906,156371,NA,313575,314055,NA,313448,313575,Flanker Task,150,68605,154,yes,1024
97.41935484,97.41935484,445.6967742,445.6967742,black,legacy,legacy,legacy,0,incongruent,uniform,1,undefined,1,s,0,0,0,154,154,0,154,0,154,0,0,0,0,154,154,NA,154,154,Sun Sep 22 16:22:41 2019,600,The main experiment item,yes,FlankerTask.osexp,/Users/danielrazo0311/Desktop,no,mono,no,18,no,white,no,yes,768,legacy,74,79,/Users/danielrazo0311/Desktop/DR-subject0.csv,legacy,Kafkaesque Koffka,3.2.8,0,s,NA,s,s,NA,s,NA,478,NA,14083,30438,NA,478,NA,2,legacy,1024,2,48000,-16,experiment,HHSHH,1,odd,18000,186812,NA,314070,293191,3883,267736,NA,315203,NA,3906,156371,NA,315318,315800,NA,315191,315317,Flanker Task,151,69083,155,yes,1024
97.43589744,97.43589744,445.4294872,445.4294872,black,legacy,legacy,legacy,0,incongruent,uniform,1,undefined,1,s,0,0,0,155,155,0,155,0,155,0,0,0,0,155,155,NA,155,155,Sun Sep 22 16:22:41 2019,600,The main experiment item,yes,FlankerTask.osexp,/Users/danielrazo0311/Desktop,no,mono,no,18,no,white,no,yes,768,legacy,75,79,/Users/danielrazo0311/Desktop/DR-subject0.csv,legacy,Kafkaesque Koffka,3.2.8,0,s,NA,s,s,NA,s,NA,404,NA,14083,30438,NA,404,NA,2,legacy,1024,2,48000,-16,experiment,HHSHH,1,odd,18000,186812,NA,315815,293191,3883,267736,NA,316950,NA,3906,156371,NA,317064,317472,NA,316937,317063,Flanker Task,152,69487,156,yes,1024
97.4522293,97.4522293,445.133758,445.133758,black,legacy,legacy,legacy,0,congruent,uniform,1,undefined,1,h,0,0,0,156,156,0,156,0,156,0,0,0,0,156,156,NA,156,156,Sun Sep 22 16:22:41 2019,600,The main experiment item,yes,FlankerTask.osexp,/Users/danielrazo0311/Desktop,no,mono,no,18,no,white,no,yes,768,legacy,76,79,/Users/danielrazo0311/Desktop/DR-subject0.csv,legacy,Kafkaesque Koffka,3.2.8,0,h,NA,s,s,NA,h,NA,399,NA,14083,30438,NA,399,NA,2,legacy,1024,2,48000,-16,experiment,HHHHH,1,odd,18000,186812,NA,317488,293191,3883,267736,NA,318617,NA,3906,156371,NA,318732,319135,NA,318605,318732,Flanker Task,153,69886,157,yes,1024
97.46835443,97.46835443,444.9050633,444.9050633,black,legacy,legacy,legacy,0,congruent,uniform,1,undefined,1,s,0,0,0,157,157,0,157,0,157,0,0,0,0,157,157,NA,157,157,Sun Sep 22 16:22:41 2019,600,The main experiment item,yes,FlankerTask.osexp,/Users/danielrazo0311/Desktop,no,mono,no,18,no,white,no,yes,768,legacy,77,79,/Users/danielrazo0311/Desktop/DR-subject0.csv,legacy,Kafkaesque Koffka,3.2.8,0,s,NA,s,s,NA,s,NA,409,NA,14083,30438,NA,409,NA,2,legacy,1024,2,48000,-16,experiment,SSSSS,1,odd,18000,186812,NA,319151,293191,3883,267736,NA,320281,NA,3906,156371,NA,320395,320808,NA,320268,320395,Flanker Task,154,70295,158,yes,1024
97.48427673,97.48427673,445.2389937,445.2389937,black,legacy,legacy,legacy,0,incongruent,uniform,1,undefined,1,h,0,0,0,158,158,0,158,0,158,0,0,0,0,158,158,NA,158,158,Sun Sep 22 16:22:41 2019,600,The main experiment item,yes,FlankerTask.osexp,/Users/danielrazo0311/Desktop,no,mono,no,18,no,white,no,yes,768,legacy,78,79,/Users/danielrazo0311/Desktop/DR-subject0.csv,legacy,Kafkaesque Koffka,3.2.8,0,h,NA,s,s,NA,h,NA,498,NA,14083,30438,NA,498,NA,2,legacy,1024,2,48000,-16,experiment,SSHSS,1,odd,18000,186812,NA,320824,293191,3883,267736,NA,321959,NA,3906,156371,NA,322074,322576,NA,321947,322073,Flanker Task,155,70793,159,yes,1024
97.5,97.5,445.80625,445.80625,black,legacy,legacy,legacy,0,incongruent,uniform,1,undefined,1,h,0,0,0,159,159,0,159,0,159,0,0,0,0,159,159,NA,159,159,Sun Sep 22 16:22:41 2019,600,The main experiment item,yes,FlankerTask.osexp,/Users/danielrazo0311/Desktop,no,mono,no,18,no,white,no,yes,768,legacy,79,79,/Users/danielrazo0311/Desktop/DR-subject0.csv,legacy,Kafkaesque Koffka,3.2.8,0,h,NA,s,s,NA,h,NA,536,NA,14083,30438,NA,536,NA,2,legacy,1024,2,48000,-16,experiment,SSHSS,1,odd,18000,186812,NA,322591,293191,3883,267736,NA,323722,NA,3906,156371,NA,323836,324376,NA,323709,323836,Flanker Task,156,71329,160,yes,1024
96.89440994,96.89440994,446.5279503,446.5279503,black,legacy,legacy,legacy,0,incongruent,uniform,0,undefined,0,h,0,0,0,160,160,0,160,0,160,0,0,0,0,160,160,NA,160,160,Sun Sep 22 16:22:41 2019,300,The main experiment item,yes,FlankerTask.osexp,/Users/danielrazo0311/Desktop,no,mono,no,18,no,white,no,yes,768,legacy,0,79,/Users/danielrazo0311/Desktop/DR-subject0.csv,legacy,Kafkaesque Koffka,3.2.8,0,s,NA,s,s,s,s,NA,562,NA,14083,30438,20686,562,NA,2,legacy,1024,2,48000,-16,experiment,SSHSS,1,odd,18000,186812,346119,324391,293191,3883,267736,NA,346242,NA,3906,156371,325429,346354,346920,NA,346230,346354,Flanker Task,156,71891,161,yes,1024
