acc,accuracy,average_response_time,avg_rt,background,canvas_backend,clock_backend,color_backend,compensation,condition,coordinates,correct,correct_instructions1_1,correct_keyboard_response,correct_response,count_ISI,count_block1,count_block2,count_block3,count_errorFeedback,count_experiment,count_faster,count_finish,count_fixation,count_instructions1,count_instructions1_1,count_instructions2,count_instructions3,count_keyboard_response,count_logger,count_sequence,count_stimulus,datetime,deadline,description,disable_garbage_collection,experiment_file,experiment_path,font_bold,font_family,font_italic,font_size,font_underline,foreground,form_clicks,fullscreen,height,keyboard_backend,live_row,live_row_block1,logfile,mouse_backend,opensesame_codename,opensesame_version,repeat_cycle,response,response_finish,response_instructions1,response_instructions1_1,response_instructions2,response_instructions3,response_keyboard_response,response_time,response_time_finish,response_time_instructions1,response_time_instructions1_1,response_time_instructions2,response_time_instructions3,response_time_keyboard_response,round_decimals,sampler_backend,sound_buf_size,sound_channels,sound_freq,sound_sample_size,start,stimulus,subject_nr,subject_parity,time_ISI,time_block1,time_block2,time_block3,time_errorFeedback,time_experiment,time_faster,time_finish,time_fixation,time_instructions1,time_instructions1_1,time_instructions2,time_instructions3,time_keyboard_response,time_logger,time_sequence,time_stimulus,title,total_correct,total_response_time,total_responses,uniform_coordinates,width
100,100,658,658,black,legacy,legacy,legacy,0,congruent,uniform,1,undefined,1,s,0,0,0,0,0,0,0,0,0,NA,0,0,0,0,0,0,0,9/21/19 10:11,1500,The main experiment item,yes,BR-Flankertask.osexp,C:/Users/Breena Riley/Desktop/2019 Fall/MultQuant/lab 2.1,no,mono,no,18,no,white,no,yes,768,legacy,0,0,C:/Users/Breena Riley/Desktop/2019 Fall/MultQuant/BR-subject-2.csv,legacy,Kafkaesque Koffka,3.2.8,0,s,NA,NA,s,NA,NA,s,658,NA,NA,21125,NA,NA,658,2,legacy,1024,2,48000,-16,experiment,SSSSS,2,even,NA,24099,NA,NA,NA,2965,NA,NA,24210,NA,2974,NA,NA,24311,24969,24207,24311,Flankertask,1,658,1,yes,1024
100,100,553,553,black,legacy,legacy,legacy,0,congruent,uniform,1,undefined,1,s,1,0,0,0,1,0,1,0,1,NA,0,0,0,1,1,1,1,9/21/19 10:11,1500,The main experiment item,yes,BR-Flankertask.osexp,C:/Users/Breena Riley/Desktop/2019 Fall/MultQuant/lab 2.1,no,mono,no,18,no,white,no,yes,768,legacy,1,1,C:/Users/Breena Riley/Desktop/2019 Fall/MultQuant/BR-subject-2.csv,legacy,Kafkaesque Koffka,3.2.8,0,s,NA,NA,s,NA,NA,s,448,NA,NA,21125,NA,NA,448,2,legacy,1024,2,48000,-16,experiment,SSSSS,2,even,24982,24099,NA,NA,NA,2965,NA,NA,26066,NA,2974,NA,NA,26168,26616,26064,26168,Flankertask,2,1106,2,yes,1024
100,100,631.3333333,631.3333333,black,legacy,legacy,legacy,0,incongruent,uniform,1,undefined,1,s,2,0,0,0,2,0,2,0,2,NA,0,0,0,2,2,2,2,9/21/19 10:11,1500,The main experiment item,yes,BR-Flankertask.osexp,C:/Users/Breena Riley/Desktop/2019 Fall/MultQuant/lab 2.1,no,mono,no,18,no,white,no,yes,768,legacy,2,2,C:/Users/Breena Riley/Desktop/2019 Fall/MultQuant/BR-subject-2.csv,legacy,Kafkaesque Koffka,3.2.8,0,s,NA,NA,s,NA,NA,s,788,NA,NA,21125,NA,NA,788,2,legacy,1024,2,48000,-16,experiment,HHSHH,2,even,26622,24099,NA,NA,NA,2965,NA,NA,27740,NA,2974,NA,NA,27842,28631,27737,27842,Flankertask,3,1894,3,yes,1024
100,100,600.25,600.25,black,legacy,legacy,legacy,0,congruent,uniform,1,undefined,1,s,3,0,0,0,3,0,3,0,3,NA,0,0,0,3,3,3,3,9/21/19 10:11,1500,The main experiment item,yes,BR-Flankertask.osexp,C:/Users/Breena Riley/Desktop/2019 Fall/MultQuant/lab 2.1,no,mono,no,18,no,white,no,yes,768,legacy,3,3,C:/Users/Breena Riley/Desktop/2019 Fall/MultQuant/BR-subject-2.csv,legacy,Kafkaesque Koffka,3.2.8,0,s,NA,NA,s,NA,NA,s,507,NA,NA,21125,NA,NA,507,2,legacy,1024,2,48000,-16,experiment,SSSSS,2,even,28636,24099,NA,NA,NA,2965,NA,NA,29728,NA,2974,NA,NA,29829,30336,29725,29829,Flankertask,4,2401,4,yes,1024
100,100,629.8,629.8,black,legacy,legacy,legacy,0,incongruent,uniform,1,undefined,1,s,4,0,0,0,4,0,4,0,4,NA,0,0,0,4,4,4,4,9/21/19 10:11,1500,The main experiment item,yes,BR-Flankertask.osexp,C:/Users/Breena Riley/Desktop/2019 Fall/MultQuant/lab 2.1,no,mono,no,18,no,white,no,yes,768,legacy,4,4,C:/Users/Breena Riley/Desktop/2019 Fall/MultQuant/BR-subject-2.csv,legacy,Kafkaesque Koffka,3.2.8,0,s,NA,NA,s,NA,NA,s,748,NA,NA,21125,NA,NA,748,2,legacy,1024,2,48000,-16,experiment,HHSHH,2,even,30344,24099,NA,NA,NA,2965,NA,NA,31420,NA,2974,NA,NA,31522,32271,31418,31522,Flankertask,5,3149,5,yes,1024
100,100,645.6666667,645.6666667,black,legacy,legacy,legacy,0,incongruent,uniform,1,undefined,1,h,5,0,0,0,5,0,5,0,5,NA,0,0,0,5,5,5,5,9/21/19 10:11,1500,The main experiment item,yes,BR-Flankertask.osexp,C:/Users/Breena Riley/Desktop/2019 Fall/MultQuant/lab 2.1,no,mono,no,18,no,white,no,yes,768,legacy,5,5,C:/Users/Breena Riley/Desktop/2019 Fall/MultQuant/BR-subject-2.csv,legacy,Kafkaesque Koffka,3.2.8,0,h,NA,NA,s,NA,NA,h,725,NA,NA,21125,NA,NA,725,2,legacy,1024,2,48000,-16,experiment,SSHSS,2,even,32275,24099,NA,NA,NA,2965,NA,NA,33349,NA,2974,NA,NA,33451,34176,33346,33450,Flankertask,6,3874,6,yes,1024
100,100,635.2857143,635.2857143,black,legacy,legacy,legacy,0,congruent,uniform,1,undefined,1,h,6,0,0,0,6,0,6,0,6,NA,0,0,0,6,6,6,6,9/21/19 10:11,1500,The main experiment item,yes,BR-Flankertask.osexp,C:/Users/Breena Riley/Desktop/2019 Fall/MultQuant/lab 2.1,no,mono,no,18,no,white,no,yes,768,legacy,6,6,C:/Users/Breena Riley/Desktop/2019 Fall/MultQuant/BR-subject-2.csv,legacy,Kafkaesque Koffka,3.2.8,0,h,NA,NA,s,NA,NA,h,573,NA,NA,21125,NA,NA,573,2,legacy,1024,2,48000,-16,experiment,HHHHH,2,even,34184,24099,NA,NA,NA,2965,NA,NA,35261,NA,2974,NA,NA,35363,35936,35259,35363,Flankertask,7,4447,7,yes,1024
100,100,627.375,627.375,black,legacy,legacy,legacy,0,incongruent,uniform,1,undefined,1,s,7,0,0,0,7,0,7,0,7,NA,0,0,0,7,7,7,7,9/21/19 10:11,1500,The main experiment item,yes,BR-Flankertask.osexp,C:/Users/Breena Riley/Desktop/2019 Fall/MultQuant/lab 2.1,no,mono,no,18,no,white,no,yes,768,legacy,7,7,C:/Users/Breena Riley/Desktop/2019 Fall/MultQuant/BR-subject-2.csv,legacy,Kafkaesque Koffka,3.2.8,0,s,NA,NA,s,NA,NA,s,572,NA,NA,21125,NA,NA,572,2,legacy,1024,2,48000,-16,experiment,HHSHH,2,even,35944,24099,NA,NA,NA,2965,NA,NA,37024,NA,2974,NA,NA,37125,37697,37021,37125,Flankertask,8,5019,8,yes,1024
100,100,619,619,black,legacy,legacy,legacy,0,incongruent,uniform,1,undefined,1,s,8,0,0,0,8,0,8,0,8,NA,0,0,0,8,8,8,8,9/21/19 10:11,1500,The main experiment item,yes,BR-Flankertask.osexp,C:/Users/Breena Riley/Desktop/2019 Fall/MultQuant/lab 2.1,no,mono,no,18,no,white,no,yes,768,legacy,8,8,C:/Users/Breena Riley/Desktop/2019 Fall/MultQuant/BR-subject-2.csv,legacy,Kafkaesque Koffka,3.2.8,0,s,NA,NA,s,NA,NA,s,552,NA,NA,21125,NA,NA,552,2,legacy,1024,2,48000,-16,experiment,HHSHH,2,even,37706,24099,NA,NA,NA,2965,NA,NA,38807,NA,2974,NA,NA,38908,39460,38804,38908,Flankertask,9,5571,9,yes,1024
100,100,612.2,612.2,black,legacy,legacy,legacy,0,incongruent,uniform,1,undefined,1,s,9,0,0,0,9,0,9,0,9,NA,0,0,0,9,9,9,9,9/21/19 10:11,1500,The main experiment item,yes,BR-Flankertask.osexp,C:/Users/Breena Riley/Desktop/2019 Fall/MultQuant/lab 2.1,no,mono,no,18,no,white,no,yes,768,legacy,9,9,C:/Users/Breena Riley/Desktop/2019 Fall/MultQuant/BR-subject-2.csv,legacy,Kafkaesque Koffka,3.2.8,0,s,NA,NA,s,NA,NA,s,551,NA,NA,21125,NA,NA,551,2,legacy,1024,2,48000,-16,experiment,HHSHH,2,even,39468,24099,NA,NA,NA,2965,NA,NA,40546,NA,2974,NA,NA,40647,41198,40543,40647,Flankertask,10,6122,10,yes,1024
100,100,607.9090909,607.9090909,black,legacy,legacy,legacy,0,congruent,uniform,1,undefined,1,h,10,0,0,0,10,0,10,0,10,NA,0,0,0,10,10,10,10,9/21/19 10:11,1500,The main experiment item,yes,BR-Flankertask.osexp,C:/Users/Breena Riley/Desktop/2019 Fall/MultQuant/lab 2.1,no,mono,no,18,no,white,no,yes,768,legacy,10,10,C:/Users/Breena Riley/Desktop/2019 Fall/MultQuant/BR-subject-2.csv,legacy,Kafkaesque Koffka,3.2.8,0,h,NA,NA,s,NA,NA,h,565,NA,NA,21125,NA,NA,565,2,legacy,1024,2,48000,-16,experiment,HHHHH,2,even,41206,24099,NA,NA,NA,2965,NA,NA,42303,NA,2974,NA,NA,42405,42971,42300,42405,Flankertask,11,6687,11,yes,1024
100,100,603.5833333,603.5833333,black,legacy,legacy,legacy,0,incongruent,uniform,1,undefined,1,h,11,0,0,0,11,0,11,0,11,NA,0,0,0,11,11,11,11,9/21/19 10:11,1500,The main experiment item,yes,BR-Flankertask.osexp,C:/Users/Breena Riley/Desktop/2019 Fall/MultQuant/lab 2.1,no,mono,no,18,no,white,no,yes,768,legacy,11,11,C:/Users/Breena Riley/Desktop/2019 Fall/MultQuant/BR-subject-2.csv,legacy,Kafkaesque Koffka,3.2.8,0,h,NA,NA,s,NA,NA,h,556,NA,NA,21125,NA,NA,556,2,legacy,1024,2,48000,-16,experiment,SSHSS,2,even,42977,24099,NA,NA,NA,2965,NA,NA,44072,NA,2974,NA,NA,44174,44731,44068,44174,Flankertask,12,7243,12,yes,1024
100,100,593.3846154,593.3846154,black,legacy,legacy,legacy,0,congruent,uniform,1,undefined,1,h,12,0,0,0,12,0,12,0,12,NA,0,0,0,12,12,12,12,9/21/19 10:11,1500,The main experiment item,yes,BR-Flankertask.osexp,C:/Users/Breena Riley/Desktop/2019 Fall/MultQuant/lab 2.1,no,mono,no,18,no,white,no,yes,768,legacy,12,12,C:/Users/Breena Riley/Desktop/2019 Fall/MultQuant/BR-subject-2.csv,legacy,Kafkaesque Koffka,3.2.8,0,h,NA,NA,s,NA,NA,h,471,NA,NA,21125,NA,NA,471,2,legacy,1024,2,48000,-16,experiment,HHHHH,2,even,44738,24099,NA,NA,NA,2965,NA,NA,45825,NA,2974,NA,NA,45927,46398,45823,45927,Flankertask,13,7714,13,yes,1024
100,100,582.9285714,582.9285714,black,legacy,legacy,legacy,0,incongruent,uniform,1,undefined,1,h,13,0,0,0,13,0,13,0,13,NA,0,0,0,13,13,13,13,9/21/19 10:11,1500,The main experiment item,yes,BR-Flankertask.osexp,C:/Users/Breena Riley/Desktop/2019 Fall/MultQuant/lab 2.1,no,mono,no,18,no,white,no,yes,768,legacy,13,13,C:/Users/Breena Riley/Desktop/2019 Fall/MultQuant/BR-subject-2.csv,legacy,Kafkaesque Koffka,3.2.8,0,h,NA,NA,s,NA,NA,h,447,NA,NA,21125,NA,NA,447,2,legacy,1024,2,48000,-16,experiment,SSHSS,2,even,46407,24099,NA,NA,NA,2965,NA,NA,47496,NA,2974,NA,NA,47597,48045,47494,47597,Flankertask,14,8161,14,yes,1024
100,100,580.9333333,580.9333333,black,legacy,legacy,legacy,0,incongruent,uniform,1,undefined,1,h,14,0,0,0,14,0,14,0,14,NA,0,0,0,14,14,14,14,9/21/19 10:11,1500,The main experiment item,yes,BR-Flankertask.osexp,C:/Users/Breena Riley/Desktop/2019 Fall/MultQuant/lab 2.1,no,mono,no,18,no,white,no,yes,768,legacy,14,14,C:/Users/Breena Riley/Desktop/2019 Fall/MultQuant/BR-subject-2.csv,legacy,Kafkaesque Koffka,3.2.8,0,h,NA,NA,s,NA,NA,h,553,NA,NA,21125,NA,NA,553,2,legacy,1024,2,48000,-16,experiment,SSHSS,2,even,48053,24099,NA,NA,NA,2965,NA,NA,49124,NA,2974,NA,NA,49225,49779,49122,49225,Flankertask,15,8714,15,yes,1024
100,100,576.875,576.875,black,legacy,legacy,legacy,0,incongruent,uniform,1,undefined,1,s,15,0,0,0,15,0,15,0,15,NA,0,0,0,15,15,15,15,9/21/19 10:11,1500,The main experiment item,yes,BR-Flankertask.osexp,C:/Users/Breena Riley/Desktop/2019 Fall/MultQuant/lab 2.1,no,mono,no,18,no,white,no,yes,768,legacy,15,15,C:/Users/Breena Riley/Desktop/2019 Fall/MultQuant/BR-subject-2.csv,legacy,Kafkaesque Koffka,3.2.8,0,s,NA,NA,s,NA,NA,s,516,NA,NA,21125,NA,NA,516,2,legacy,1024,2,48000,-16,experiment,HHSHH,2,even,49786,24099,NA,NA,NA,2965,NA,NA,50862,NA,2974,NA,NA,50963,51479,50859,50963,Flankertask,16,9230,16,yes,1024
100,100,567.8235294,567.8235294,black,legacy,legacy,legacy,0,congruent,uniform,1,undefined,1,s,16,0,0,0,16,0,16,0,16,NA,0,0,0,16,16,16,16,9/21/19 10:11,1500,The main experiment item,yes,BR-Flankertask.osexp,C:/Users/Breena Riley/Desktop/2019 Fall/MultQuant/lab 2.1,no,mono,no,18,no,white,no,yes,768,legacy,16,16,C:/Users/Breena Riley/Desktop/2019 Fall/MultQuant/BR-subject-2.csv,legacy,Kafkaesque Koffka,3.2.8,0,s,NA,NA,s,NA,NA,s,423,NA,NA,21125,NA,NA,423,2,legacy,1024,2,48000,-16,experiment,SSSSS,2,even,51488,24099,NA,NA,NA,2965,NA,NA,52572,NA,2974,NA,NA,52674,53097,52569,52673,Flankertask,17,9653,17,yes,1024
100,100,559.5555556,559.5555556,black,legacy,legacy,legacy,0,congruent,uniform,1,undefined,1,s,17,0,0,0,17,0,17,0,17,NA,0,0,0,17,17,17,17,9/21/19 10:11,1500,The main experiment item,yes,BR-Flankertask.osexp,C:/Users/Breena Riley/Desktop/2019 Fall/MultQuant/lab 2.1,no,mono,no,18,no,white,no,yes,768,legacy,17,17,C:/Users/Breena Riley/Desktop/2019 Fall/MultQuant/BR-subject-2.csv,legacy,Kafkaesque Koffka,3.2.8,0,s,NA,NA,s,NA,NA,s,419,NA,NA,21125,NA,NA,419,2,legacy,1024,2,48000,-16,experiment,SSSSS,2,even,53102,24099,NA,NA,NA,2965,NA,NA,54197,NA,2974,NA,NA,54299,54718,54194,54298,Flankertask,18,10072,18,yes,1024
100,100,560.8947368,560.8947368,black,legacy,legacy,legacy,0,incongruent,uniform,1,undefined,1,s,18,0,0,0,18,0,18,0,18,NA,0,0,0,18,18,18,18,9/21/19 10:11,1500,The main experiment item,yes,BR-Flankertask.osexp,C:/Users/Breena Riley/Desktop/2019 Fall/MultQuant/lab 2.1,no,mono,no,18,no,white,no,yes,768,legacy,18,18,C:/Users/Breena Riley/Desktop/2019 Fall/MultQuant/BR-subject-2.csv,legacy,Kafkaesque Koffka,3.2.8,0,s,NA,NA,s,NA,NA,s,585,NA,NA,21125,NA,NA,585,2,legacy,1024,2,48000,-16,experiment,HHSHH,2,even,54722,24099,NA,NA,NA,2965,NA,NA,55801,NA,2974,NA,NA,55903,56489,55798,55903,Flankertask,19,10657,19,yes,1024
100,100,566.2,566.2,black,legacy,legacy,legacy,0,incongruent,uniform,1,undefined,1,h,19,0,0,0,19,0,19,0,19,NA,0,0,0,19,19,19,19,9/21/19 10:11,1500,The main experiment item,yes,BR-Flankertask.osexp,C:/Users/Breena Riley/Desktop/2019 Fall/MultQuant/lab 2.1,no,mono,no,18,no,white,no,yes,768,legacy,19,19,C:/Users/Breena Riley/Desktop/2019 Fall/MultQuant/BR-subject-2.csv,legacy,Kafkaesque Koffka,3.2.8,0,h,NA,NA,s,NA,NA,h,667,NA,NA,21125,NA,NA,667,2,legacy,1024,2,48000,-16,experiment,SSHSS,2,even,56497,24099,NA,NA,NA,2965,NA,NA,57593,NA,2974,NA,NA,57695,58362,57591,57695,Flankertask,20,11324,20,yes,1024
100,100,564.3333333,564.3333333,black,legacy,legacy,legacy,0,congruent,uniform,1,undefined,1,h,20,0,0,0,20,0,20,0,20,NA,0,0,0,20,20,20,20,9/21/19 10:11,1500,The main experiment item,yes,BR-Flankertask.osexp,C:/Users/Breena Riley/Desktop/2019 Fall/MultQuant/lab 2.1,no,mono,no,18,no,white,no,yes,768,legacy,20,20,C:/Users/Breena Riley/Desktop/2019 Fall/MultQuant/BR-subject-2.csv,legacy,Kafkaesque Koffka,3.2.8,0,h,NA,NA,s,NA,NA,h,527,NA,NA,21125,NA,NA,527,2,legacy,1024,2,48000,-16,experiment,HHHHH,2,even,58371,24099,NA,NA,NA,2965,NA,NA,59446,NA,2974,NA,NA,59547,60075,59443,59547,Flankertask,21,11851,21,yes,1024
100,100,562.0454545,562.0454545,black,legacy,legacy,legacy,0,incongruent,uniform,1,undefined,1,s,21,0,0,0,21,0,21,0,21,NA,0,0,0,21,21,21,21,9/21/19 10:11,1500,The main experiment item,yes,BR-Flankertask.osexp,C:/Users/Breena Riley/Desktop/2019 Fall/MultQuant/lab 2.1,no,mono,no,18,no,white,no,yes,768,legacy,21,21,C:/Users/Breena Riley/Desktop/2019 Fall/MultQuant/BR-subject-2.csv,legacy,Kafkaesque Koffka,3.2.8,0,s,NA,NA,s,NA,NA,s,514,NA,NA,21125,NA,NA,514,2,legacy,1024,2,48000,-16,experiment,HHSHH,2,even,60083,24099,NA,NA,NA,2965,NA,NA,61157,NA,2974,NA,NA,61258,61773,61154,61258,Flankertask,22,12365,22,yes,1024
100,100,555.3913043,555.3913043,black,legacy,legacy,legacy,0,congruent,uniform,1,undefined,1,s,22,0,0,0,22,0,22,0,22,NA,0,0,0,22,22,22,22,9/21/19 10:11,1500,The main experiment item,yes,BR-Flankertask.osexp,C:/Users/Breena Riley/Desktop/2019 Fall/MultQuant/lab 2.1,no,mono,no,18,no,white,no,yes,768,legacy,22,22,C:/Users/Breena Riley/Desktop/2019 Fall/MultQuant/BR-subject-2.csv,legacy,Kafkaesque Koffka,3.2.8,0,s,NA,NA,s,NA,NA,s,409,NA,NA,21125,NA,NA,409,2,legacy,1024,2,48000,-16,experiment,SSSSS,2,even,61781,24099,NA,NA,NA,2965,NA,NA,62856,NA,2974,NA,NA,62957,63366,62853,62957,Flankertask,23,12774,23,yes,1024
100,100,556.5,556.5,black,legacy,legacy,legacy,0,incongruent,uniform,1,undefined,1,h,23,0,0,0,23,0,23,0,23,NA,0,0,0,23,23,23,23,9/21/19 10:11,1500,The main experiment item,yes,BR-Flankertask.osexp,C:/Users/Breena Riley/Desktop/2019 Fall/MultQuant/lab 2.1,no,mono,no,18,no,white,no,yes,768,legacy,23,23,C:/Users/Breena Riley/Desktop/2019 Fall/MultQuant/BR-subject-2.csv,legacy,Kafkaesque Koffka,3.2.8,0,h,NA,NA,s,NA,NA,h,582,NA,NA,21125,NA,NA,582,2,legacy,1024,2,48000,-16,experiment,SSHSS,2,even,63370,24099,NA,NA,NA,2965,NA,NA,64443,NA,2974,NA,NA,64545,65127,64441,64545,Flankertask,24,13356,24,yes,1024
100,100,556.08,556.08,black,legacy,legacy,legacy,0,incongruent,uniform,1,undefined,1,h,24,0,0,0,24,0,24,0,24,NA,0,0,0,24,24,24,24,9/21/19 10:11,1500,The main experiment item,yes,BR-Flankertask.osexp,C:/Users/Breena Riley/Desktop/2019 Fall/MultQuant/lab 2.1,no,mono,no,18,no,white,no,yes,768,legacy,24,24,C:/Users/Breena Riley/Desktop/2019 Fall/MultQuant/BR-subject-2.csv,legacy,Kafkaesque Koffka,3.2.8,0,h,NA,NA,s,NA,NA,h,546,NA,NA,21125,NA,NA,546,2,legacy,1024,2,48000,-16,experiment,SSHSS,2,even,65136,24099,NA,NA,NA,2965,NA,NA,66218,NA,2974,NA,NA,66320,66866,66215,66320,Flankertask,25,13902,25,yes,1024
100,100,552.5769231,552.5769231,black,legacy,legacy,legacy,0,incongruent,uniform,1,undefined,1,h,25,0,0,0,25,0,25,0,25,NA,0,0,0,25,25,25,25,9/21/19 10:11,1500,The main experiment item,yes,BR-Flankertask.osexp,C:/Users/Breena Riley/Desktop/2019 Fall/MultQuant/lab 2.1,no,mono,no,18,no,white,no,yes,768,legacy,25,25,C:/Users/Breena Riley/Desktop/2019 Fall/MultQuant/BR-subject-2.csv,legacy,Kafkaesque Koffka,3.2.8,0,h,NA,NA,s,NA,NA,h,465,NA,NA,21125,NA,NA,465,2,legacy,1024,2,48000,-16,experiment,SSHSS,2,even,66874,24099,NA,NA,NA,2965,NA,NA,67951,NA,2974,NA,NA,68052,68517,67948,68052,Flankertask,26,14367,26,yes,1024
100,100,549.5185185,549.5185185,black,legacy,legacy,legacy,0,incongruent,uniform,1,undefined,1,h,26,0,0,0,26,0,26,0,26,NA,0,0,0,26,26,26,26,9/21/19 10:11,1500,The main experiment item,yes,BR-Flankertask.osexp,C:/Users/Breena Riley/Desktop/2019 Fall/MultQuant/lab 2.1,no,mono,no,18,no,white,no,yes,768,legacy,26,26,C:/Users/Breena Riley/Desktop/2019 Fall/MultQuant/BR-subject-2.csv,legacy,Kafkaesque Koffka,3.2.8,0,h,NA,NA,s,NA,NA,h,470,NA,NA,21125,NA,NA,470,2,legacy,1024,2,48000,-16,experiment,SSHSS,2,even,68527,24099,NA,NA,NA,2965,NA,NA,69601,NA,2974,NA,NA,69702,70173,69598,69702,Flankertask,27,14837,27,yes,1024
100,100,545.7857143,545.7857143,black,legacy,legacy,legacy,0,incongruent,uniform,1,undefined,1,h,27,0,0,0,27,0,27,0,27,NA,0,0,0,27,27,27,27,9/21/19 10:11,1500,The main experiment item,yes,BR-Flankertask.osexp,C:/Users/Breena Riley/Desktop/2019 Fall/MultQuant/lab 2.1,no,mono,no,18,no,white,no,yes,768,legacy,27,27,C:/Users/Breena Riley/Desktop/2019 Fall/MultQuant/BR-subject-2.csv,legacy,Kafkaesque Koffka,3.2.8,0,h,NA,NA,s,NA,NA,h,445,NA,NA,21125,NA,NA,445,2,legacy,1024,2,48000,-16,experiment,SSHSS,2,even,70177,24099,NA,NA,NA,2965,NA,NA,71252,NA,2974,NA,NA,71354,71800,71250,71354,Flankertask,28,15282,28,yes,1024
100,100,543.9310345,543.9310345,black,legacy,legacy,legacy,0,congruent,uniform,1,undefined,1,h,28,0,0,0,28,0,28,0,28,NA,0,0,0,28,28,28,28,9/21/19 10:11,1500,The main experiment item,yes,BR-Flankertask.osexp,C:/Users/Breena Riley/Desktop/2019 Fall/MultQuant/lab 2.1,no,mono,no,18,no,white,no,yes,768,legacy,28,28,C:/Users/Breena Riley/Desktop/2019 Fall/MultQuant/BR-subject-2.csv,legacy,Kafkaesque Koffka,3.2.8,0,h,NA,NA,s,NA,NA,h,492,NA,NA,21125,NA,NA,492,2,legacy,1024,2,48000,-16,experiment,HHHHH,2,even,71808,24099,NA,NA,NA,2965,NA,NA,72882,NA,2974,NA,NA,72983,73476,72879,72983,Flankertask,29,15774,29,yes,1024
100,100,540.4666667,540.4666667,black,legacy,legacy,legacy,0,congruent,uniform,1,undefined,1,s,29,0,0,0,29,0,29,0,29,NA,0,0,0,29,29,29,29,9/21/19 10:11,1500,The main experiment item,yes,BR-Flankertask.osexp,C:/Users/Breena Riley/Desktop/2019 Fall/MultQuant/lab 2.1,no,mono,no,18,no,white,no,yes,768,legacy,29,29,C:/Users/Breena Riley/Desktop/2019 Fall/MultQuant/BR-subject-2.csv,legacy,Kafkaesque Koffka,3.2.8,0,s,NA,NA,s,NA,NA,s,440,NA,NA,21125,NA,NA,440,2,legacy,1024,2,48000,-16,experiment,SSSSS,2,even,73484,24099,NA,NA,NA,2965,NA,NA,74558,NA,2974,NA,NA,74659,75099,74555,74659,Flankertask,30,16214,30,yes,1024
100,100,540.4193548,540.4193548,black,legacy,legacy,legacy,0,incongruent,uniform,1,undefined,1,s,30,0,0,0,30,0,30,0,30,NA,0,0,0,30,30,30,30,9/21/19 10:11,1500,The main experiment item,yes,BR-Flankertask.osexp,C:/Users/Breena Riley/Desktop/2019 Fall/MultQuant/lab 2.1,no,mono,no,18,no,white,no,yes,768,legacy,30,30,C:/Users/Breena Riley/Desktop/2019 Fall/MultQuant/BR-subject-2.csv,legacy,Kafkaesque Koffka,3.2.8,0,s,NA,NA,s,NA,NA,s,539,NA,NA,21125,NA,NA,539,2,legacy,1024,2,48000,-16,experiment,HHSHH,2,even,75107,24099,NA,NA,NA,2965,NA,NA,76184,NA,2974,NA,NA,76285,76824,76181,76285,Flankertask,31,16753,31,yes,1024
100,100,540,540,black,legacy,legacy,legacy,0,congruent,uniform,1,undefined,1,h,31,0,0,0,31,0,31,0,31,NA,0,0,0,31,31,31,31,9/21/19 10:11,1500,The main experiment item,yes,BR-Flankertask.osexp,C:/Users/Breena Riley/Desktop/2019 Fall/MultQuant/lab 2.1,no,mono,no,18,no,white,no,yes,768,legacy,31,31,C:/Users/Breena Riley/Desktop/2019 Fall/MultQuant/BR-subject-2.csv,legacy,Kafkaesque Koffka,3.2.8,0,h,NA,NA,s,NA,NA,h,527,NA,NA,21125,NA,NA,527,2,legacy,1024,2,48000,-16,experiment,HHHHH,2,even,76833,24099,NA,NA,NA,2965,NA,NA,77907,NA,2974,NA,NA,78008,78536,77905,78008,Flankertask,32,17280,32,yes,1024
100,100,540.8181818,540.8181818,black,legacy,legacy,legacy,0,incongruent,uniform,1,undefined,1,s,32,0,0,0,32,0,32,0,32,NA,0,0,0,32,32,32,32,9/21/19 10:11,1500,The main experiment item,yes,BR-Flankertask.osexp,C:/Users/Breena Riley/Desktop/2019 Fall/MultQuant/lab 2.1,no,mono,no,18,no,white,no,yes,768,legacy,32,32,C:/Users/Breena Riley/Desktop/2019 Fall/MultQuant/BR-subject-2.csv,legacy,Kafkaesque Koffka,3.2.8,0,s,NA,NA,s,NA,NA,s,567,NA,NA,21125,NA,NA,567,2,legacy,1024,2,48000,-16,experiment,HHSHH,2,even,78544,24099,NA,NA,NA,2965,NA,NA,79617,NA,2974,NA,NA,79718,80285,79615,79718,Flankertask,33,17847,33,yes,1024
100,100,540.8235294,540.8235294,black,legacy,legacy,legacy,0,incongruent,uniform,1,undefined,1,h,33,0,0,0,33,0,33,0,33,NA,0,0,0,33,33,33,33,9/21/19 10:11,1500,The main experiment item,yes,BR-Flankertask.osexp,C:/Users/Breena Riley/Desktop/2019 Fall/MultQuant/lab 2.1,no,mono,no,18,no,white,no,yes,768,legacy,33,33,C:/Users/Breena Riley/Desktop/2019 Fall/MultQuant/BR-subject-2.csv,legacy,Kafkaesque Koffka,3.2.8,0,h,NA,NA,s,NA,NA,h,541,NA,NA,21125,NA,NA,541,2,legacy,1024,2,48000,-16,experiment,SSHSS,2,even,80290,24099,NA,NA,NA,2965,NA,NA,81376,NA,2974,NA,NA,81477,82019,81373,81477,Flankertask,34,18388,34,yes,1024
100,100,553.2857143,553.2857143,black,legacy,legacy,legacy,0,congruent,uniform,1,undefined,1,s,34,0,0,0,34,0,34,0,34,NA,0,0,0,34,34,34,34,9/21/19 10:11,1500,The main experiment item,yes,BR-Flankertask.osexp,C:/Users/Breena Riley/Desktop/2019 Fall/MultQuant/lab 2.1,no,mono,no,18,no,white,no,yes,768,legacy,34,34,C:/Users/Breena Riley/Desktop/2019 Fall/MultQuant/BR-subject-2.csv,legacy,Kafkaesque Koffka,3.2.8,0,s,NA,NA,s,NA,NA,s,977,NA,NA,21125,NA,NA,977,2,legacy,1024,2,48000,-16,experiment,SSSSS,2,even,82029,24099,NA,NA,NA,2965,NA,NA,83117,NA,2974,NA,NA,83218,84196,83114,83218,Flankertask,35,19365,35,yes,1024
100,100,553.4444444,553.4444444,black,legacy,legacy,legacy,0,incongruent,uniform,1,undefined,1,s,35,0,0,0,35,0,35,0,35,NA,0,0,0,35,35,35,35,9/21/19 10:11,1500,The main experiment item,yes,BR-Flankertask.osexp,C:/Users/Breena Riley/Desktop/2019 Fall/MultQuant/lab 2.1,no,mono,no,18,no,white,no,yes,768,legacy,35,35,C:/Users/Breena Riley/Desktop/2019 Fall/MultQuant/BR-subject-2.csv,legacy,Kafkaesque Koffka,3.2.8,0,s,NA,NA,s,NA,NA,s,559,NA,NA,21125,NA,NA,559,2,legacy,1024,2,48000,-16,experiment,HHSHH,2,even,84202,24099,NA,NA,NA,2965,NA,NA,85276,NA,2974,NA,NA,85377,85937,85273,85377,Flankertask,36,19924,36,yes,1024
100,100,550.2702703,550.2702703,black,legacy,legacy,legacy,0,congruent,uniform,1,undefined,1,s,36,0,0,0,36,0,36,0,36,NA,0,0,0,36,36,36,36,9/21/19 10:11,1500,The main experiment item,yes,BR-Flankertask.osexp,C:/Users/Breena Riley/Desktop/2019 Fall/MultQuant/lab 2.1,no,mono,no,18,no,white,no,yes,768,legacy,36,36,C:/Users/Breena Riley/Desktop/2019 Fall/MultQuant/BR-subject-2.csv,legacy,Kafkaesque Koffka,3.2.8,0,s,NA,NA,s,NA,NA,s,436,NA,NA,21125,NA,NA,436,2,legacy,1024,2,48000,-16,experiment,SSSSS,2,even,85945,24099,NA,NA,NA,2965,NA,NA,87019,NA,2974,NA,NA,87120,87556,87016,87120,Flankertask,37,20360,37,yes,1024
100,100,549.0526316,549.0526316,black,legacy,legacy,legacy,0,congruent,uniform,1,undefined,1,h,37,0,0,0,37,0,37,0,37,NA,0,0,0,37,37,37,37,9/21/19 10:11,1500,The main experiment item,yes,BR-Flankertask.osexp,C:/Users/Breena Riley/Desktop/2019 Fall/MultQuant/lab 2.1,no,mono,no,18,no,white,no,yes,768,legacy,37,37,C:/Users/Breena Riley/Desktop/2019 Fall/MultQuant/BR-subject-2.csv,legacy,Kafkaesque Koffka,3.2.8,0,h,NA,NA,s,NA,NA,h,504,NA,NA,21125,NA,NA,504,2,legacy,1024,2,48000,-16,experiment,HHHHH,2,even,87564,24099,NA,NA,NA,2965,NA,NA,88669,NA,2974,NA,NA,88771,89275,88667,88771,Flankertask,38,20864,38,yes,1024
100,100,545.6410256,545.6410256,black,legacy,legacy,legacy,0,congruent,uniform,1,undefined,1,s,38,0,0,0,38,0,38,0,38,NA,0,0,0,38,38,38,38,9/21/19 10:11,1500,The main experiment item,yes,BR-Flankertask.osexp,C:/Users/Breena Riley/Desktop/2019 Fall/MultQuant/lab 2.1,no,mono,no,18,no,white,no,yes,768,legacy,38,38,C:/Users/Breena Riley/Desktop/2019 Fall/MultQuant/BR-subject-2.csv,legacy,Kafkaesque Koffka,3.2.8,0,s,NA,NA,s,NA,NA,s,416,NA,NA,21125,NA,NA,416,2,legacy,1024,2,48000,-16,experiment,SSSSS,2,even,89279,24099,NA,NA,NA,2965,NA,NA,90355,NA,2974,NA,NA,90456,90872,90352,90456,Flankertask,39,21280,39,yes,1024
97.5,97.5,542.8,542.8,black,legacy,legacy,legacy,0,congruent,uniform,0,undefined,0,h,39,0,0,0,39,0,39,0,39,NA,0,0,0,39,39,39,39,9/21/19 10:11,1500,The main experiment item,yes,BR-Flankertask.osexp,C:/Users/Breena Riley/Desktop/2019 Fall/MultQuant/lab 2.1,no,mono,no,18,no,white,no,yes,768,legacy,39,39,C:/Users/Breena Riley/Desktop/2019 Fall/MultQuant/BR-subject-2.csv,legacy,Kafkaesque Koffka,3.2.8,0,s,NA,NA,s,NA,NA,s,432,NA,NA,21125,NA,NA,432,2,legacy,1024,2,48000,-16,experiment,HHHHH,2,even,90881,24099,NA,NA,NA,2965,NA,NA,91954,NA,2974,NA,NA,92055,92488,91952,92055,Flankertask,39,21712,40,yes,1024
97.56097561,97.56097561,541.1219512,541.1219512,black,legacy,legacy,legacy,0,congruent,uniform,1,undefined,1,s,40,0,0,0,40,0,40,0,40,NA,0,0,0,40,40,40,40,9/21/19 10:11,1500,The main experiment item,yes,BR-Flankertask.osexp,C:/Users/Breena Riley/Desktop/2019 Fall/MultQuant/lab 2.1,no,mono,no,18,no,white,no,yes,768,legacy,40,40,C:/Users/Breena Riley/Desktop/2019 Fall/MultQuant/BR-subject-2.csv,legacy,Kafkaesque Koffka,3.2.8,0,s,NA,NA,s,NA,NA,s,474,NA,NA,21125,NA,NA,474,2,legacy,1024,2,48000,-16,experiment,SSSSS,2,even,92998,24099,NA,NA,92496,2965,NA,NA,94077,NA,2974,NA,NA,94179,94654,94074,94179,Flankertask,40,22186,41,yes,1024
97.61904762,97.61904762,539.8571429,539.8571429,black,legacy,legacy,legacy,0,incongruent,uniform,1,undefined,1,h,41,0,0,0,41,0,41,0,41,NA,0,0,0,41,41,41,41,9/21/19 10:11,1500,The main experiment item,yes,BR-Flankertask.osexp,C:/Users/Breena Riley/Desktop/2019 Fall/MultQuant/lab 2.1,no,mono,no,18,no,white,no,yes,768,legacy,41,41,C:/Users/Breena Riley/Desktop/2019 Fall/MultQuant/BR-subject-2.csv,legacy,Kafkaesque Koffka,3.2.8,0,h,NA,NA,s,NA,NA,h,488,NA,NA,21125,NA,NA,488,2,legacy,1024,2,48000,-16,experiment,SSHSS,2,even,94663,24099,NA,NA,92496,2965,NA,NA,95775,NA,2974,NA,NA,95877,96366,95772,95877,Flankertask,41,22674,42,yes,1024
97.6744186,97.6744186,537.4418605,537.4418605,black,legacy,legacy,legacy,0,congruent,uniform,1,undefined,1,s,42,0,0,0,42,0,42,0,42,NA,0,0,0,42,42,42,42,9/21/19 10:11,1500,The main experiment item,yes,BR-Flankertask.osexp,C:/Users/Breena Riley/Desktop/2019 Fall/MultQuant/lab 2.1,no,mono,no,18,no,white,no,yes,768,legacy,42,42,C:/Users/Breena Riley/Desktop/2019 Fall/MultQuant/BR-subject-2.csv,legacy,Kafkaesque Koffka,3.2.8,0,s,NA,NA,s,NA,NA,s,436,NA,NA,21125,NA,NA,436,2,legacy,1024,2,48000,-16,experiment,SSSSS,2,even,96372,24099,NA,NA,92496,2965,NA,NA,97471,NA,2974,NA,NA,97574,98011,97468,97574,Flankertask,42,23110,43,yes,1024
97.72727273,97.72727273,536.9090909,536.9090909,black,legacy,legacy,legacy,0,congruent,uniform,1,undefined,1,h,43,0,0,0,43,0,43,0,43,NA,0,0,0,43,43,43,43,9/21/19 10:11,1500,The main experiment item,yes,BR-Flankertask.osexp,C:/Users/Breena Riley/Desktop/2019 Fall/MultQuant/lab 2.1,no,mono,no,18,no,white,no,yes,768,legacy,43,43,C:/Users/Breena Riley/Desktop/2019 Fall/MultQuant/BR-subject-2.csv,legacy,Kafkaesque Koffka,3.2.8,0,h,NA,NA,s,NA,NA,h,514,NA,NA,21125,NA,NA,514,2,legacy,1024,2,48000,-16,experiment,HHHHH,2,even,98017,24099,NA,NA,92496,2965,NA,NA,99111,NA,2974,NA,NA,99213,99728,99108,99213,Flankertask,43,23624,44,yes,1024
97.77777778,97.77777778,535.2222222,535.2222222,black,legacy,legacy,legacy,0,incongruent,uniform,1,undefined,1,s,44,0,0,0,44,0,44,0,44,NA,0,0,0,44,44,44,44,9/21/19 10:11,1500,The main experiment item,yes,BR-Flankertask.osexp,C:/Users/Breena Riley/Desktop/2019 Fall/MultQuant/lab 2.1,no,mono,no,18,no,white,no,yes,768,legacy,44,44,C:/Users/Breena Riley/Desktop/2019 Fall/MultQuant/BR-subject-2.csv,legacy,Kafkaesque Koffka,3.2.8,0,s,NA,NA,s,NA,NA,s,461,NA,NA,21125,NA,NA,461,2,legacy,1024,2,48000,-16,experiment,HHSHH,2,even,99733,24099,NA,NA,92496,2965,NA,NA,100828,NA,2974,NA,NA,100930,101393,100825,100930,Flankertask,44,24085,45,yes,1024
97.82608696,97.82608696,533.7608696,533.7608696,black,legacy,legacy,legacy,0,congruent,uniform,1,undefined,1,h,45,0,0,0,45,0,45,0,45,NA,0,0,0,45,45,45,45,9/21/19 10:11,1500,The main experiment item,yes,BR-Flankertask.osexp,C:/Users/Breena Riley/Desktop/2019 Fall/MultQuant/lab 2.1,no,mono,no,18,no,white,no,yes,768,legacy,45,45,C:/Users/Breena Riley/Desktop/2019 Fall/MultQuant/BR-subject-2.csv,legacy,Kafkaesque Koffka,3.2.8,0,h,NA,NA,s,NA,NA,h,468,NA,NA,21125,NA,NA,468,2,legacy,1024,2,48000,-16,experiment,HHHHH,2,even,101399,24099,NA,NA,92496,2965,NA,NA,102524,NA,2974,NA,NA,102626,103095,102521,102625,Flankertask,45,24553,46,yes,1024
97.87234043,97.87234043,534.0851064,534.0851064,black,legacy,legacy,legacy,0,incongruent,uniform,1,undefined,1,h,46,0,0,0,46,0,46,0,46,NA,0,0,0,46,46,46,46,9/21/19 10:11,1500,The main experiment item,yes,BR-Flankertask.osexp,C:/Users/Breena Riley/Desktop/2019 Fall/MultQuant/lab 2.1,no,mono,no,18,no,white,no,yes,768,legacy,46,46,C:/Users/Breena Riley/Desktop/2019 Fall/MultQuant/BR-subject-2.csv,legacy,Kafkaesque Koffka,3.2.8,0,h,NA,NA,s,NA,NA,h,549,NA,NA,21125,NA,NA,549,2,legacy,1024,2,48000,-16,experiment,SSHSS,2,even,103099,24099,NA,NA,92496,2965,NA,NA,104179,NA,2974,NA,NA,104281,104831,104176,104281,Flankertask,46,25102,47,yes,1024
97.91666667,97.91666667,532.3333333,532.3333333,black,legacy,legacy,legacy,0,incongruent,uniform,1,undefined,1,s,47,0,0,0,47,0,47,0,47,NA,0,0,0,47,47,47,47,9/21/19 10:11,1500,The main experiment item,yes,BR-Flankertask.osexp,C:/Users/Breena Riley/Desktop/2019 Fall/MultQuant/lab 2.1,no,mono,no,18,no,white,no,yes,768,legacy,47,47,C:/Users/Breena Riley/Desktop/2019 Fall/MultQuant/BR-subject-2.csv,legacy,Kafkaesque Koffka,3.2.8,0,s,NA,NA,s,NA,NA,s,450,NA,NA,21125,NA,NA,450,2,legacy,1024,2,48000,-16,experiment,HHSHH,2,even,104836,24099,NA,NA,92496,2965,NA,NA,105919,NA,2974,NA,NA,106021,106471,105916,106021,Flankertask,47,25552,48,yes,1024
97.95918367,97.95918367,530.0204082,530.0204082,black,legacy,legacy,legacy,0,congruent,uniform,1,undefined,1,h,48,0,0,0,48,0,48,0,48,NA,0,0,0,48,48,48,48,9/21/19 10:11,1500,The main experiment item,yes,BR-Flankertask.osexp,C:/Users/Breena Riley/Desktop/2019 Fall/MultQuant/lab 2.1,no,mono,no,18,no,white,no,yes,768,legacy,48,48,C:/Users/Breena Riley/Desktop/2019 Fall/MultQuant/BR-subject-2.csv,legacy,Kafkaesque Koffka,3.2.8,0,h,NA,NA,s,NA,NA,h,419,NA,NA,21125,NA,NA,419,2,legacy,1024,2,48000,-16,experiment,HHHHH,2,even,106480,24099,NA,NA,92496,2965,NA,NA,107558,NA,2974,NA,NA,107660,108080,107555,107659,Flankertask,48,25971,49,yes,1024
98,98,527.52,527.52,black,legacy,legacy,legacy,0,congruent,uniform,1,undefined,1,h,49,0,0,0,49,0,49,0,49,NA,0,0,0,49,49,49,49,9/21/19 10:11,1500,The main experiment item,yes,BR-Flankertask.osexp,C:/Users/Breena Riley/Desktop/2019 Fall/MultQuant/lab 2.1,no,mono,no,18,no,white,no,yes,768,legacy,49,49,C:/Users/Breena Riley/Desktop/2019 Fall/MultQuant/BR-subject-2.csv,legacy,Kafkaesque Koffka,3.2.8,0,h,NA,NA,s,NA,NA,h,405,NA,NA,21125,NA,NA,405,2,legacy,1024,2,48000,-16,experiment,HHHHH,2,even,108088,24099,NA,NA,92496,2965,NA,NA,109163,NA,2974,NA,NA,109265,109671,109161,109264,Flankertask,49,26376,50,yes,1024
98.03921569,98.03921569,525.9215686,525.9215686,black,legacy,legacy,legacy,0,incongruent,uniform,1,undefined,1,s,50,0,0,0,50,0,50,0,50,NA,0,0,0,50,50,50,50,9/21/19 10:11,1500,The main experiment item,yes,BR-Flankertask.osexp,C:/Users/Breena Riley/Desktop/2019 Fall/MultQuant/lab 2.1,no,mono,no,18,no,white,no,yes,768,legacy,50,50,C:/Users/Breena Riley/Desktop/2019 Fall/MultQuant/BR-subject-2.csv,legacy,Kafkaesque Koffka,3.2.8,0,s,NA,NA,s,NA,NA,s,446,NA,NA,21125,NA,NA,446,2,legacy,1024,2,48000,-16,experiment,HHSHH,2,even,109679,24099,NA,NA,92496,2965,NA,NA,110754,NA,2974,NA,NA,110855,111302,110751,110855,Flankertask,50,26822,51,yes,1024
98.07692308,98.07692308,527.0576923,527.0576923,black,legacy,legacy,legacy,0,incongruent,uniform,1,undefined,1,s,51,0,0,0,51,0,51,0,51,NA,0,0,0,51,51,51,51,9/21/19 10:11,1500,The main experiment item,yes,BR-Flankertask.osexp,C:/Users/Breena Riley/Desktop/2019 Fall/MultQuant/lab 2.1,no,mono,no,18,no,white,no,yes,768,legacy,51,51,C:/Users/Breena Riley/Desktop/2019 Fall/MultQuant/BR-subject-2.csv,legacy,Kafkaesque Koffka,3.2.8,0,s,NA,NA,s,NA,NA,s,585,NA,NA,21125,NA,NA,585,2,legacy,1024,2,48000,-16,experiment,HHSHH,2,even,111311,24099,NA,NA,92496,2965,NA,NA,112384,NA,2974,NA,NA,112486,113072,112382,112486,Flankertask,51,27407,52,yes,1024
98.11320755,98.11320755,525.0566038,525.0566038,black,legacy,legacy,legacy,0,incongruent,uniform,1,undefined,1,h,52,0,0,0,52,0,52,0,52,NA,0,0,0,52,52,52,52,9/21/19 10:11,1500,The main experiment item,yes,BR-Flankertask.osexp,C:/Users/Breena Riley/Desktop/2019 Fall/MultQuant/lab 2.1,no,mono,no,18,no,white,no,yes,768,legacy,52,52,C:/Users/Breena Riley/Desktop/2019 Fall/MultQuant/BR-subject-2.csv,legacy,Kafkaesque Koffka,3.2.8,0,h,NA,NA,s,NA,NA,h,421,NA,NA,21125,NA,NA,421,2,legacy,1024,2,48000,-16,experiment,SSHSS,2,even,113082,24099,NA,NA,92496,2965,NA,NA,114158,NA,2974,NA,NA,114260,114683,114156,114260,Flankertask,52,27828,53,yes,1024
98.14814815,98.14814815,525.5185185,525.5185185,black,legacy,legacy,legacy,0,incongruent,uniform,1,undefined,1,s,53,0,0,0,53,0,53,0,53,NA,0,0,0,53,53,53,53,9/21/19 10:11,1500,The main experiment item,yes,BR-Flankertask.osexp,C:/Users/Breena Riley/Desktop/2019 Fall/MultQuant/lab 2.1,no,mono,no,18,no,white,no,yes,768,legacy,53,53,C:/Users/Breena Riley/Desktop/2019 Fall/MultQuant/BR-subject-2.csv,legacy,Kafkaesque Koffka,3.2.8,0,s,NA,NA,s,NA,NA,s,550,NA,NA,21125,NA,NA,550,2,legacy,1024,2,48000,-16,experiment,HHSHH,2,even,114689,24099,NA,NA,92496,2965,NA,NA,115765,NA,2974,NA,NA,115866,116417,115762,115866,Flankertask,53,28378,54,yes,1024
98.18181818,98.18181818,525.4909091,525.4909091,black,legacy,legacy,legacy,0,incongruent,uniform,1,undefined,1,s,54,0,0,0,54,0,54,0,54,NA,0,0,0,54,54,54,54,9/21/19 10:11,1500,The main experiment item,yes,BR-Flankertask.osexp,C:/Users/Breena Riley/Desktop/2019 Fall/MultQuant/lab 2.1,no,mono,no,18,no,white,no,yes,768,legacy,54,54,C:/Users/Breena Riley/Desktop/2019 Fall/MultQuant/BR-subject-2.csv,legacy,Kafkaesque Koffka,3.2.8,0,s,NA,NA,s,NA,NA,s,524,NA,NA,21125,NA,NA,524,2,legacy,1024,2,48000,-16,experiment,HHSHH,2,even,116425,24099,NA,NA,92496,2965,NA,NA,117500,NA,2974,NA,NA,117602,118127,117498,117602,Flankertask,54,28902,55,yes,1024
98.21428571,98.21428571,523.5357143,523.5357143,black,legacy,legacy,legacy,0,congruent,uniform,1,undefined,1,s,55,0,0,0,55,0,55,0,55,NA,0,0,0,55,55,55,55,9/21/19 10:11,1500,The main experiment item,yes,BR-Flankertask.osexp,C:/Users/Breena Riley/Desktop/2019 Fall/MultQuant/lab 2.1,no,mono,no,18,no,white,no,yes,768,legacy,55,55,C:/Users/Breena Riley/Desktop/2019 Fall/MultQuant/BR-subject-2.csv,legacy,Kafkaesque Koffka,3.2.8,0,s,NA,NA,s,NA,NA,s,416,NA,NA,21125,NA,NA,416,2,legacy,1024,2,48000,-16,experiment,SSSSS,2,even,118132,24099,NA,NA,92496,2965,NA,NA,119207,NA,2974,NA,NA,119309,119725,119205,119309,Flankertask,55,29318,56,yes,1024
98.24561404,98.24561404,522.0701754,522.0701754,black,legacy,legacy,legacy,0,incongruent,uniform,1,undefined,1,h,56,0,0,0,56,0,56,0,56,NA,0,0,0,56,56,56,56,9/21/19 10:11,1500,The main experiment item,yes,BR-Flankertask.osexp,C:/Users/Breena Riley/Desktop/2019 Fall/MultQuant/lab 2.1,no,mono,no,18,no,white,no,yes,768,legacy,56,56,C:/Users/Breena Riley/Desktop/2019 Fall/MultQuant/BR-subject-2.csv,legacy,Kafkaesque Koffka,3.2.8,0,h,NA,NA,s,NA,NA,h,440,NA,NA,21125,NA,NA,440,2,legacy,1024,2,48000,-16,experiment,SSHSS,2,even,119733,24099,NA,NA,92496,2965,NA,NA,120810,NA,2974,NA,NA,120911,121352,120807,120911,Flankertask,56,29758,57,yes,1024
98.27586207,98.27586207,520.1724138,520.1724138,black,legacy,legacy,legacy,0,congruent,uniform,1,undefined,1,s,57,0,0,0,57,0,57,0,57,NA,0,0,0,57,57,57,57,9/21/19 10:11,1500,The main experiment item,yes,BR-Flankertask.osexp,C:/Users/Breena Riley/Desktop/2019 Fall/MultQuant/lab 2.1,no,mono,no,18,no,white,no,yes,768,legacy,57,57,C:/Users/Breena Riley/Desktop/2019 Fall/MultQuant/BR-subject-2.csv,legacy,Kafkaesque Koffka,3.2.8,0,s,NA,NA,s,NA,NA,s,412,NA,NA,21125,NA,NA,412,2,legacy,1024,2,48000,-16,experiment,SSSSS,2,even,121360,24099,NA,NA,92496,2965,NA,NA,122435,NA,2974,NA,NA,122537,122950,122432,122537,Flankertask,57,30170,58,yes,1024
98.30508475,98.30508475,518.9322034,518.9322034,black,legacy,legacy,legacy,0,congruent,uniform,1,undefined,1,h,58,0,0,0,58,0,58,0,58,NA,0,0,0,58,58,58,58,9/21/19 10:11,1500,The main experiment item,yes,BR-Flankertask.osexp,C:/Users/Breena Riley/Desktop/2019 Fall/MultQuant/lab 2.1,no,mono,no,18,no,white,no,yes,768,legacy,58,58,C:/Users/Breena Riley/Desktop/2019 Fall/MultQuant/BR-subject-2.csv,legacy,Kafkaesque Koffka,3.2.8,0,h,NA,NA,s,NA,NA,h,447,NA,NA,21125,NA,NA,447,2,legacy,1024,2,48000,-16,experiment,HHHHH,2,even,122954,24099,NA,NA,92496,2965,NA,NA,124027,NA,2974,NA,NA,124128,124576,124024,124128,Flankertask,58,30617,59,yes,1024
98.33333333,98.33333333,516.9833333,516.9833333,black,legacy,legacy,legacy,0,congruent,uniform,1,undefined,1,s,59,0,0,0,59,0,59,0,59,NA,0,0,0,59,59,59,59,9/21/19 10:11,1500,The main experiment item,yes,BR-Flankertask.osexp,C:/Users/Breena Riley/Desktop/2019 Fall/MultQuant/lab 2.1,no,mono,no,18,no,white,no,yes,768,legacy,59,59,C:/Users/Breena Riley/Desktop/2019 Fall/MultQuant/BR-subject-2.csv,legacy,Kafkaesque Koffka,3.2.8,0,s,NA,NA,s,NA,NA,s,402,NA,NA,21125,NA,NA,402,2,legacy,1024,2,48000,-16,experiment,SSSSS,2,even,124584,24099,NA,NA,92496,2965,NA,NA,125659,NA,2974,NA,NA,125761,126163,125657,125760,Flankertask,59,31019,60,yes,1024
98.36065574,98.36065574,516.1639344,516.1639344,black,legacy,legacy,legacy,0,congruent,uniform,1,undefined,1,h,60,0,0,0,60,0,60,0,60,NA,0,0,0,60,60,60,60,9/21/19 10:11,1500,The main experiment item,yes,BR-Flankertask.osexp,C:/Users/Breena Riley/Desktop/2019 Fall/MultQuant/lab 2.1,no,mono,no,18,no,white,no,yes,768,legacy,60,60,C:/Users/Breena Riley/Desktop/2019 Fall/MultQuant/BR-subject-2.csv,legacy,Kafkaesque Koffka,3.2.8,0,h,NA,NA,s,NA,NA,h,467,NA,NA,21125,NA,NA,467,2,legacy,1024,2,48000,-16,experiment,HHHHH,2,even,126173,24099,NA,NA,92496,2965,NA,NA,127252,NA,2974,NA,NA,127353,127820,127249,127353,Flankertask,60,31486,61,yes,1024
98.38709677,98.38709677,515.9677419,515.9677419,black,legacy,legacy,legacy,0,congruent,uniform,1,undefined,1,h,61,0,0,0,61,0,61,0,61,NA,0,0,0,61,61,61,61,9/21/19 10:11,1500,The main experiment item,yes,BR-Flankertask.osexp,C:/Users/Breena Riley/Desktop/2019 Fall/MultQuant/lab 2.1,no,mono,no,18,no,white,no,yes,768,legacy,61,61,C:/Users/Breena Riley/Desktop/2019 Fall/MultQuant/BR-subject-2.csv,legacy,Kafkaesque Koffka,3.2.8,0,h,NA,NA,s,NA,NA,h,504,NA,NA,21125,NA,NA,504,2,legacy,1024,2,48000,-16,experiment,HHHHH,2,even,127826,24099,NA,NA,92496,2965,NA,NA,128900,NA,2974,NA,NA,129001,129506,128897,129001,Flankertask,61,31990,62,yes,1024
96.82539683,96.82539683,514.1111111,514.1111111,black,legacy,legacy,legacy,0,incongruent,uniform,0,undefined,0,h,62,0,0,0,62,0,62,0,62,NA,0,0,0,62,62,62,62,9/21/19 10:11,1500,The main experiment item,yes,BR-Flankertask.osexp,C:/Users/Breena Riley/Desktop/2019 Fall/MultQuant/lab 2.1,no,mono,no,18,no,white,no,yes,768,legacy,62,62,C:/Users/Breena Riley/Desktop/2019 Fall/MultQuant/BR-subject-2.csv,legacy,Kafkaesque Koffka,3.2.8,0,s,NA,NA,s,NA,NA,s,399,NA,NA,21125,NA,NA,399,2,legacy,1024,2,48000,-16,experiment,SSHSS,2,even,129511,24099,NA,NA,92496,2965,NA,NA,130586,NA,2974,NA,NA,130687,131086,130584,130687,Flankertask,61,32389,63,yes,1024
96.875,96.875,513.1875,513.1875,black,legacy,legacy,legacy,0,congruent,uniform,1,undefined,1,s,63,0,0,0,63,0,63,0,63,NA,0,0,0,63,63,63,63,9/21/19 10:11,1500,The main experiment item,yes,BR-Flankertask.osexp,C:/Users/Breena Riley/Desktop/2019 Fall/MultQuant/lab 2.1,no,mono,no,18,no,white,no,yes,768,legacy,63,63,C:/Users/Breena Riley/Desktop/2019 Fall/MultQuant/BR-subject-2.csv,legacy,Kafkaesque Koffka,3.2.8,0,s,NA,NA,s,NA,NA,s,455,NA,NA,21125,NA,NA,455,2,legacy,1024,2,48000,-16,experiment,SSSSS,2,even,131596,24099,NA,NA,131095,2965,NA,NA,132674,NA,2974,NA,NA,132775,133231,132671,132775,Flankertask,62,32844,64,yes,1024
96.92307692,96.92307692,512.4615385,512.4615385,black,legacy,legacy,legacy,0,congruent,uniform,1,undefined,1,h,64,0,0,0,64,0,64,0,64,NA,0,0,0,64,64,64,64,9/21/19 10:11,1500,The main experiment item,yes,BR-Flankertask.osexp,C:/Users/Breena Riley/Desktop/2019 Fall/MultQuant/lab 2.1,no,mono,no,18,no,white,no,yes,768,legacy,64,64,C:/Users/Breena Riley/Desktop/2019 Fall/MultQuant/BR-subject-2.csv,legacy,Kafkaesque Koffka,3.2.8,0,h,NA,NA,s,NA,NA,h,466,NA,NA,21125,NA,NA,466,2,legacy,1024,2,48000,-16,experiment,HHHHH,2,even,133235,24099,NA,NA,131095,2965,NA,NA,134339,NA,2974,NA,NA,134440,134907,134336,134440,Flankertask,63,33310,65,yes,1024
96.96969697,96.96969697,511.8333333,511.8333333,black,legacy,legacy,legacy,0,congruent,uniform,1,undefined,1,h,65,0,0,0,65,0,65,0,65,NA,0,0,0,65,65,65,65,9/21/19 10:11,1500,The main experiment item,yes,BR-Flankertask.osexp,C:/Users/Breena Riley/Desktop/2019 Fall/MultQuant/lab 2.1,no,mono,no,18,no,white,no,yes,768,legacy,65,65,C:/Users/Breena Riley/Desktop/2019 Fall/MultQuant/BR-subject-2.csv,legacy,Kafkaesque Koffka,3.2.8,0,h,NA,NA,s,NA,NA,h,471,NA,NA,21125,NA,NA,471,2,legacy,1024,2,48000,-16,experiment,HHHHH,2,even,134911,24099,NA,NA,131095,2965,NA,NA,135996,NA,2974,NA,NA,136097,136568,135993,136097,Flankertask,64,33781,66,yes,1024
97.01492537,97.01492537,509.8955224,509.8955224,black,legacy,legacy,legacy,0,congruent,uniform,1,undefined,1,h,66,0,0,0,66,0,66,0,66,NA,0,0,0,66,66,66,66,9/21/19 10:11,1500,The main experiment item,yes,BR-Flankertask.osexp,C:/Users/Breena Riley/Desktop/2019 Fall/MultQuant/lab 2.1,no,mono,no,18,no,white,no,yes,768,legacy,66,66,C:/Users/Breena Riley/Desktop/2019 Fall/MultQuant/BR-subject-2.csv,legacy,Kafkaesque Koffka,3.2.8,0,h,NA,NA,s,NA,NA,h,382,NA,NA,21125,NA,NA,382,2,legacy,1024,2,48000,-16,experiment,HHHHH,2,even,136573,24099,NA,NA,131095,2965,NA,NA,137659,NA,2974,NA,NA,137761,138144,137656,137761,Flankertask,65,34163,67,yes,1024
97.05882353,97.05882353,509.1911765,509.1911765,black,legacy,legacy,legacy,0,incongruent,uniform,1,undefined,1,s,67,0,0,0,67,0,67,0,67,NA,0,0,0,67,67,67,67,9/21/19 10:11,1500,The main experiment item,yes,BR-Flankertask.osexp,C:/Users/Breena Riley/Desktop/2019 Fall/MultQuant/lab 2.1,no,mono,no,18,no,white,no,yes,768,legacy,67,67,C:/Users/Breena Riley/Desktop/2019 Fall/MultQuant/BR-subject-2.csv,legacy,Kafkaesque Koffka,3.2.8,0,s,NA,NA,s,NA,NA,s,462,NA,NA,21125,NA,NA,462,2,legacy,1024,2,48000,-16,experiment,HHSHH,2,even,138149,24099,NA,NA,131095,2965,NA,NA,139232,NA,2974,NA,NA,139333,139796,139229,139333,Flankertask,66,34625,68,yes,1024
97.10144928,97.10144928,508.6666667,508.6666667,black,legacy,legacy,legacy,0,incongruent,uniform,1,undefined,1,h,68,0,0,0,68,0,68,0,68,NA,0,0,0,68,68,68,68,9/21/19 10:11,1500,The main experiment item,yes,BR-Flankertask.osexp,C:/Users/Breena Riley/Desktop/2019 Fall/MultQuant/lab 2.1,no,mono,no,18,no,white,no,yes,768,legacy,68,68,C:/Users/Breena Riley/Desktop/2019 Fall/MultQuant/BR-subject-2.csv,legacy,Kafkaesque Koffka,3.2.8,0,h,NA,NA,s,NA,NA,h,473,NA,NA,21125,NA,NA,473,2,legacy,1024,2,48000,-16,experiment,SSHSS,2,even,139800,24099,NA,NA,131095,2965,NA,NA,140876,NA,2974,NA,NA,140978,141451,140874,140978,Flankertask,67,35098,69,yes,1024
97.14285714,97.14285714,508.9714286,508.9714286,black,legacy,legacy,legacy,0,incongruent,uniform,1,undefined,1,h,69,0,0,0,69,0,69,0,69,NA,0,0,0,69,69,69,69,9/21/19 10:11,1500,The main experiment item,yes,BR-Flankertask.osexp,C:/Users/Breena Riley/Desktop/2019 Fall/MultQuant/lab 2.1,no,mono,no,18,no,white,no,yes,768,legacy,69,69,C:/Users/Breena Riley/Desktop/2019 Fall/MultQuant/BR-subject-2.csv,legacy,Kafkaesque Koffka,3.2.8,0,h,NA,NA,s,NA,NA,h,530,NA,NA,21125,NA,NA,530,2,legacy,1024,2,48000,-16,experiment,SSHSS,2,even,141456,24099,NA,NA,131095,2965,NA,NA,142541,NA,2974,NA,NA,142644,143175,142539,142642,Flankertask,68,35628,70,yes,1024
97.18309859,97.18309859,508.6056338,508.6056338,black,legacy,legacy,legacy,0,congruent,uniform,1,undefined,1,s,70,0,0,0,70,0,70,0,70,NA,0,0,0,70,70,70,70,9/21/19 10:11,1500,The main experiment item,yes,BR-Flankertask.osexp,C:/Users/Breena Riley/Desktop/2019 Fall/MultQuant/lab 2.1,no,mono,no,18,no,white,no,yes,768,legacy,70,70,C:/Users/Breena Riley/Desktop/2019 Fall/MultQuant/BR-subject-2.csv,legacy,Kafkaesque Koffka,3.2.8,0,s,NA,NA,s,NA,NA,s,483,NA,NA,21125,NA,NA,483,2,legacy,1024,2,48000,-16,experiment,SSSSS,2,even,143180,24099,NA,NA,131095,2965,NA,NA,144260,NA,2974,NA,NA,144362,144846,144257,144362,Flankertask,69,36111,71,yes,1024
97.22222222,97.22222222,507.6527778,507.6527778,black,legacy,legacy,legacy,0,congruent,uniform,1,undefined,1,s,71,0,0,0,71,0,71,0,71,NA,0,0,0,71,71,71,71,9/21/19 10:11,1500,The main experiment item,yes,BR-Flankertask.osexp,C:/Users/Breena Riley/Desktop/2019 Fall/MultQuant/lab 2.1,no,mono,no,18,no,white,no,yes,768,legacy,71,71,C:/Users/Breena Riley/Desktop/2019 Fall/MultQuant/BR-subject-2.csv,legacy,Kafkaesque Koffka,3.2.8,0,s,NA,NA,s,NA,NA,s,440,NA,NA,21125,NA,NA,440,2,legacy,1024,2,48000,-16,experiment,SSSSS,2,even,144852,24099,NA,NA,131095,2965,NA,NA,145962,NA,2974,NA,NA,146064,146505,145960,146064,Flankertask,70,36551,72,yes,1024
97.26027397,97.26027397,506,506,black,legacy,legacy,legacy,0,congruent,uniform,1,undefined,1,s,72,0,0,0,72,0,72,0,72,NA,0,0,0,72,72,72,72,9/21/19 10:11,1500,The main experiment item,yes,BR-Flankertask.osexp,C:/Users/Breena Riley/Desktop/2019 Fall/MultQuant/lab 2.1,no,mono,no,18,no,white,no,yes,768,legacy,72,72,C:/Users/Breena Riley/Desktop/2019 Fall/MultQuant/BR-subject-2.csv,legacy,Kafkaesque Koffka,3.2.8,0,s,NA,NA,s,NA,NA,s,387,NA,NA,21125,NA,NA,387,2,legacy,1024,2,48000,-16,experiment,SSSSS,2,even,146511,24099,NA,NA,131095,2965,NA,NA,147588,NA,2974,NA,NA,147690,148077,147585,147690,Flankertask,71,36938,73,yes,1024
97.2972973,97.2972973,506.2162162,506.2162162,black,legacy,legacy,legacy,0,incongruent,uniform,1,undefined,1,h,73,0,0,0,73,0,73,0,73,NA,0,0,0,73,73,73,73,9/21/19 10:11,1500,The main experiment item,yes,BR-Flankertask.osexp,C:/Users/Breena Riley/Desktop/2019 Fall/MultQuant/lab 2.1,no,mono,no,18,no,white,no,yes,768,legacy,73,73,C:/Users/Breena Riley/Desktop/2019 Fall/MultQuant/BR-subject-2.csv,legacy,Kafkaesque Koffka,3.2.8,0,h,NA,NA,s,NA,NA,h,522,NA,NA,21125,NA,NA,522,2,legacy,1024,2,48000,-16,experiment,SSHSS,2,even,148085,24099,NA,NA,131095,2965,NA,NA,149160,NA,2974,NA,NA,149263,149786,149158,149262,Flankertask,72,37460,74,yes,1024
97.33333333,97.33333333,506.4933333,506.4933333,black,legacy,legacy,legacy,0,incongruent,uniform,1,undefined,1,s,74,0,0,0,74,0,74,0,74,NA,0,0,0,74,74,74,74,9/21/19 10:11,1500,The main experiment item,yes,BR-Flankertask.osexp,C:/Users/Breena Riley/Desktop/2019 Fall/MultQuant/lab 2.1,no,mono,no,18,no,white,no,yes,768,legacy,74,74,C:/Users/Breena Riley/Desktop/2019 Fall/MultQuant/BR-subject-2.csv,legacy,Kafkaesque Koffka,3.2.8,0,s,NA,NA,s,NA,NA,s,527,NA,NA,21125,NA,NA,527,2,legacy,1024,2,48000,-16,experiment,HHSHH,2,even,149794,24099,NA,NA,131095,2965,NA,NA,150868,NA,2974,NA,NA,150969,151497,150865,150969,Flankertask,73,37987,75,yes,1024
97.36842105,97.36842105,505.7631579,505.7631579,black,legacy,legacy,legacy,0,congruent,uniform,1,undefined,1,h,75,0,0,0,75,0,75,0,75,NA,0,0,0,75,75,75,75,9/21/19 10:11,1500,The main experiment item,yes,BR-Flankertask.osexp,C:/Users/Breena Riley/Desktop/2019 Fall/MultQuant/lab 2.1,no,mono,no,18,no,white,no,yes,768,legacy,75,75,C:/Users/Breena Riley/Desktop/2019 Fall/MultQuant/BR-subject-2.csv,legacy,Kafkaesque Koffka,3.2.8,0,h,NA,NA,s,NA,NA,h,451,NA,NA,21125,NA,NA,451,2,legacy,1024,2,48000,-16,experiment,HHHHH,2,even,151503,24099,NA,NA,131095,2965,NA,NA,152581,NA,2974,NA,NA,152682,153134,152579,152682,Flankertask,74,38438,76,yes,1024
97.4025974,97.4025974,506.5064935,506.5064935,black,legacy,legacy,legacy,0,incongruent,uniform,1,undefined,1,h,76,0,0,0,76,0,76,0,76,NA,0,0,0,76,76,76,76,9/21/19 10:11,1500,The main experiment item,yes,BR-Flankertask.osexp,C:/Users/Breena Riley/Desktop/2019 Fall/MultQuant/lab 2.1,no,mono,no,18,no,white,no,yes,768,legacy,76,76,C:/Users/Breena Riley/Desktop/2019 Fall/MultQuant/BR-subject-2.csv,legacy,Kafkaesque Koffka,3.2.8,0,h,NA,NA,s,NA,NA,h,563,NA,NA,21125,NA,NA,563,2,legacy,1024,2,48000,-16,experiment,SSHSS,2,even,153141,24099,NA,NA,131095,2965,NA,NA,154226,NA,2974,NA,NA,154327,154893,154223,154327,Flankertask,75,39001,77,yes,1024
97.43589744,97.43589744,507.4230769,507.4230769,black,legacy,legacy,legacy,0,incongruent,uniform,1,undefined,1,s,77,0,0,0,77,0,77,0,77,NA,0,0,0,77,77,77,77,9/21/19 10:11,1500,The main experiment item,yes,BR-Flankertask.osexp,C:/Users/Breena Riley/Desktop/2019 Fall/MultQuant/lab 2.1,no,mono,no,18,no,white,no,yes,768,legacy,77,77,C:/Users/Breena Riley/Desktop/2019 Fall/MultQuant/BR-subject-2.csv,legacy,Kafkaesque Koffka,3.2.8,0,s,NA,NA,s,NA,NA,s,578,NA,NA,21125,NA,NA,578,2,legacy,1024,2,48000,-16,experiment,HHSHH,2,even,154901,24099,NA,NA,131095,2965,NA,NA,155975,NA,2974,NA,NA,156076,156655,155972,156076,Flankertask,76,39579,78,yes,1024
97.46835443,97.46835443,507.9493671,507.9493671,black,legacy,legacy,legacy,0,congruent,uniform,1,undefined,1,h,78,0,0,0,78,0,78,0,78,NA,0,0,0,78,78,78,78,9/21/19 10:11,1500,The main experiment item,yes,BR-Flankertask.osexp,C:/Users/Breena Riley/Desktop/2019 Fall/MultQuant/lab 2.1,no,mono,no,18,no,white,no,yes,768,legacy,78,78,C:/Users/Breena Riley/Desktop/2019 Fall/MultQuant/BR-subject-2.csv,legacy,Kafkaesque Koffka,3.2.8,0,h,NA,NA,s,NA,NA,h,549,NA,NA,21125,NA,NA,549,2,legacy,1024,2,48000,-16,experiment,HHHHH,2,even,156663,24099,NA,NA,131095,2965,NA,NA,157740,NA,2974,NA,NA,157841,158391,157737,157840,Flankertask,77,40128,79,yes,1024
97.5,97.5,509.025,509.025,black,legacy,legacy,legacy,0,congruent,uniform,1,undefined,1,s,79,0,0,0,79,0,79,0,79,NA,0,0,0,79,79,79,79,9/21/19 10:11,1500,The main experiment item,yes,BR-Flankertask.osexp,C:/Users/Breena Riley/Desktop/2019 Fall/MultQuant/lab 2.1,no,mono,no,18,no,white,no,yes,768,legacy,79,79,C:/Users/Breena Riley/Desktop/2019 Fall/MultQuant/BR-subject-2.csv,legacy,Kafkaesque Koffka,3.2.8,0,s,NA,NA,s,NA,NA,s,594,NA,NA,21125,NA,NA,594,2,legacy,1024,2,48000,-16,experiment,SSSSS,2,even,158399,24099,NA,NA,131095,2965,NA,NA,159476,NA,2974,NA,NA,159577,160172,159473,159577,Flankertask,78,40722,80,yes,1024
97.5308642,97.5308642,508.6049383,508.6049383,black,legacy,legacy,legacy,0,congruent,uniform,1,undefined,1,s,80,0,0,0,80,0,80,0,80,NA,0,0,0,80,80,80,80,9/21/19 10:11,600,The main experiment item,yes,BR-Flankertask.osexp,C:/Users/Breena Riley/Desktop/2019 Fall/MultQuant/lab 2.1,no,mono,no,18,no,white,no,yes,768,legacy,0,79,C:/Users/Breena Riley/Desktop/2019 Fall/MultQuant/BR-subject-2.csv,legacy,Kafkaesque Koffka,3.2.8,0,s,NA,NA,s,s,NA,s,475,NA,NA,21125,9791,NA,475,2,legacy,1024,2,48000,-16,experiment,SSSSS,2,even,160176,24099,170983,NA,131095,2965,NA,NA,171050,NA,2974,161191,NA,171151,171627,171048,171151,Flankertask,79,41197,81,yes,1024
97.56097561,97.56097561,507.7560976,507.7560976,black,legacy,legacy,legacy,0,congruent,uniform,1,undefined,1,s,81,0,0,0,81,0,81,0,81,NA,0,0,0,81,81,81,81,9/21/19 10:11,600,The main experiment item,yes,BR-Flankertask.osexp,C:/Users/Breena Riley/Desktop/2019 Fall/MultQuant/lab 2.1,no,mono,no,18,no,white,no,yes,768,legacy,1,79,C:/Users/Breena Riley/Desktop/2019 Fall/MultQuant/BR-subject-2.csv,legacy,Kafkaesque Koffka,3.2.8,0,s,NA,NA,s,s,NA,s,439,NA,NA,21125,9791,NA,439,2,legacy,1024,2,48000,-16,experiment,SSSSS,2,even,171636,24099,170983,NA,131095,2965,NA,NA,172712,NA,2974,161191,NA,172813,173254,172709,172813,Flankertask,80,41636,82,yes,1024
97.59036145,97.59036145,506.4939759,506.4939759,black,legacy,legacy,legacy,0,congruent,uniform,1,undefined,1,s,82,0,0,0,82,0,82,0,82,NA,0,0,0,82,82,82,82,9/21/19 10:11,600,The main experiment item,yes,BR-Flankertask.osexp,C:/Users/Breena Riley/Desktop/2019 Fall/MultQuant/lab 2.1,no,mono,no,18,no,white,no,yes,768,legacy,2,79,C:/Users/Breena Riley/Desktop/2019 Fall/MultQuant/BR-subject-2.csv,legacy,Kafkaesque Koffka,3.2.8,0,s,NA,NA,s,s,NA,s,403,NA,NA,21125,9791,NA,403,2,legacy,1024,2,48000,-16,experiment,SSSSS,2,even,173261,24099,170983,NA,131095,2965,NA,NA,174362,NA,2974,161191,NA,174463,174867,174359,174463,Flankertask,81,42039,83,yes,1024
97.61904762,97.61904762,506.0595238,506.0595238,black,legacy,legacy,legacy,0,congruent,uniform,1,undefined,1,h,83,0,0,0,83,0,83,0,83,NA,0,0,0,83,83,83,83,9/21/19 10:11,600,The main experiment item,yes,BR-Flankertask.osexp,C:/Users/Breena Riley/Desktop/2019 Fall/MultQuant/lab 2.1,no,mono,no,18,no,white,no,yes,768,legacy,3,79,C:/Users/Breena Riley/Desktop/2019 Fall/MultQuant/BR-subject-2.csv,legacy,Kafkaesque Koffka,3.2.8,0,h,NA,NA,s,s,NA,h,470,NA,NA,21125,9791,NA,470,2,legacy,1024,2,48000,-16,experiment,HHHHH,2,even,174876,24099,170983,NA,131095,2965,NA,NA,175964,NA,2974,161191,NA,176065,176536,175961,176065,Flankertask,82,42509,84,yes,1024
97.64705882,97.64705882,504.9529412,504.9529412,black,legacy,legacy,legacy,0,congruent,uniform,1,undefined,1,s,84,0,0,0,84,0,84,0,84,NA,0,0,0,84,84,84,84,9/21/19 10:11,600,The main experiment item,yes,BR-Flankertask.osexp,C:/Users/Breena Riley/Desktop/2019 Fall/MultQuant/lab 2.1,no,mono,no,18,no,white,no,yes,768,legacy,4,79,C:/Users/Breena Riley/Desktop/2019 Fall/MultQuant/BR-subject-2.csv,legacy,Kafkaesque Koffka,3.2.8,0,s,NA,NA,s,s,NA,s,412,NA,NA,21125,9791,NA,412,2,legacy,1024,2,48000,-16,experiment,SSSSS,2,even,176540,24099,170983,NA,131095,2965,NA,NA,177618,NA,2974,161191,NA,177719,178132,177615,177719,Flankertask,83,42921,85,yes,1024
97.6744186,97.6744186,504.3023256,504.3023256,black,legacy,legacy,legacy,0,incongruent,uniform,1,undefined,1,s,85,0,0,0,85,0,85,0,85,NA,0,0,0,85,85,85,85,9/21/19 10:11,600,The main experiment item,yes,BR-Flankertask.osexp,C:/Users/Breena Riley/Desktop/2019 Fall/MultQuant/lab 2.1,no,mono,no,18,no,white,no,yes,768,legacy,5,79,C:/Users/Breena Riley/Desktop/2019 Fall/MultQuant/BR-subject-2.csv,legacy,Kafkaesque Koffka,3.2.8,0,s,NA,NA,s,s,NA,s,449,NA,NA,21125,9791,NA,449,2,legacy,1024,2,48000,-16,experiment,HHSHH,2,even,178140,24099,170983,NA,131095,2965,NA,NA,179218,NA,2974,161191,NA,179320,179770,179215,179320,Flankertask,84,43370,86,yes,1024
97.70114943,97.70114943,503.4022989,503.4022989,black,legacy,legacy,legacy,0,congruent,uniform,1,undefined,1,s,86,0,0,0,86,0,86,0,86,NA,0,0,0,86,86,86,86,9/21/19 10:11,600,The main experiment item,yes,BR-Flankertask.osexp,C:/Users/Breena Riley/Desktop/2019 Fall/MultQuant/lab 2.1,no,mono,no,18,no,white,no,yes,768,legacy,6,79,C:/Users/Breena Riley/Desktop/2019 Fall/MultQuant/BR-subject-2.csv,legacy,Kafkaesque Koffka,3.2.8,0,s,NA,NA,s,s,NA,s,426,NA,NA,21125,9791,NA,426,2,legacy,1024,2,48000,-16,experiment,SSSSS,2,even,179779,24099,170983,NA,131095,2965,NA,NA,180853,NA,2974,161191,NA,180955,181382,180851,180955,Flankertask,85,43796,87,yes,1024
97.72727273,97.72727273,503.9659091,503.9659091,black,legacy,legacy,legacy,0,incongruent,uniform,1,undefined,1,h,87,0,0,0,87,0,87,0,87,NA,0,0,0,87,87,87,87,9/21/19 10:11,600,The main experiment item,yes,BR-Flankertask.osexp,C:/Users/Breena Riley/Desktop/2019 Fall/MultQuant/lab 2.1,no,mono,no,18,no,white,no,yes,768,legacy,7,79,C:/Users/Breena Riley/Desktop/2019 Fall/MultQuant/BR-subject-2.csv,legacy,Kafkaesque Koffka,3.2.8,0,h,NA,NA,s,s,NA,h,553,NA,NA,21125,9791,NA,553,2,legacy,1024,2,48000,-16,experiment,SSHSS,2,even,181391,24099,170983,NA,131095,2965,NA,NA,182468,NA,2974,161191,NA,182570,183124,182465,182570,Flankertask,86,44349,88,yes,1024
97.75280899,97.75280899,504.4157303,504.4157303,black,legacy,legacy,legacy,0,congruent,uniform,1,undefined,1,h,88,0,0,0,88,0,88,0,88,NA,0,0,0,88,88,88,88,9/21/19 10:11,600,The main experiment item,yes,BR-Flankertask.osexp,C:/Users/Breena Riley/Desktop/2019 Fall/MultQuant/lab 2.1,no,mono,no,18,no,white,no,yes,768,legacy,8,79,C:/Users/Breena Riley/Desktop/2019 Fall/MultQuant/BR-subject-2.csv,legacy,Kafkaesque Koffka,3.2.8,0,h,NA,NA,s,s,NA,h,544,NA,NA,21125,9791,NA,544,2,legacy,1024,2,48000,-16,experiment,HHHHH,2,even,183132,24099,170983,NA,131095,2965,NA,NA,184207,NA,2974,161191,NA,184308,184853,184204,184308,Flankertask,87,44893,89,yes,1024
97.77777778,97.77777778,503.9666667,503.9666667,black,legacy,legacy,legacy,0,incongruent,uniform,1,undefined,1,s,89,0,0,0,89,0,89,0,89,NA,0,0,0,89,89,89,89,9/21/19 10:11,600,The main experiment item,yes,BR-Flankertask.osexp,C:/Users/Breena Riley/Desktop/2019 Fall/MultQuant/lab 2.1,no,mono,no,18,no,white,no,yes,768,legacy,9,79,C:/Users/Breena Riley/Desktop/2019 Fall/MultQuant/BR-subject-2.csv,legacy,Kafkaesque Koffka,3.2.8,0,s,NA,NA,s,s,NA,s,464,NA,NA,21125,9791,NA,464,2,legacy,1024,2,48000,-16,experiment,HHSHH,2,even,184863,24099,170983,NA,131095,2965,NA,NA,185954,NA,2974,161191,NA,186055,186520,185951,186055,Flankertask,88,45357,90,yes,1024
97.8021978,97.8021978,503.5164835,503.5164835,black,legacy,legacy,legacy,0,congruent,uniform,1,undefined,1,s,90,0,0,0,90,0,90,0,90,NA,0,0,0,90,90,90,90,9/21/19 10:11,600,The main experiment item,yes,BR-Flankertask.osexp,C:/Users/Breena Riley/Desktop/2019 Fall/MultQuant/lab 2.1,no,mono,no,18,no,white,no,yes,768,legacy,10,79,C:/Users/Breena Riley/Desktop/2019 Fall/MultQuant/BR-subject-2.csv,legacy,Kafkaesque Koffka,3.2.8,0,s,NA,NA,s,s,NA,s,463,NA,NA,21125,9791,NA,463,2,legacy,1024,2,48000,-16,experiment,SSSSS,2,even,186528,24099,170983,NA,131095,2965,NA,NA,187603,NA,2974,161191,NA,187704,188167,187600,187704,Flankertask,89,45820,91,yes,1024
97.82608696,97.82608696,503.6630435,503.6630435,black,legacy,legacy,legacy,0,incongruent,uniform,1,undefined,1,s,91,0,0,0,91,0,91,0,91,NA,0,0,0,91,91,91,91,9/21/19 10:11,600,The main experiment item,yes,BR-Flankertask.osexp,C:/Users/Breena Riley/Desktop/2019 Fall/MultQuant/lab 2.1,no,mono,no,18,no,white,no,yes,768,legacy,11,79,C:/Users/Breena Riley/Desktop/2019 Fall/MultQuant/BR-subject-2.csv,legacy,Kafkaesque Koffka,3.2.8,0,s,NA,NA,s,s,NA,s,517,NA,NA,21125,9791,NA,517,2,legacy,1024,2,48000,-16,experiment,HHSHH,2,even,188176,24099,170983,NA,131095,2965,NA,NA,189249,NA,2974,161191,NA,189351,189869,189247,189351,Flankertask,90,46337,92,yes,1024
96.77419355,96.77419355,502.2258065,502.2258065,black,legacy,legacy,legacy,0,incongruent,uniform,0,undefined,0,h,92,0,0,0,92,0,92,0,92,NA,0,0,0,92,92,92,92,9/21/19 10:11,600,The main experiment item,yes,BR-Flankertask.osexp,C:/Users/Breena Riley/Desktop/2019 Fall/MultQuant/lab 2.1,no,mono,no,18,no,white,no,yes,768,legacy,12,79,C:/Users/Breena Riley/Desktop/2019 Fall/MultQuant/BR-subject-2.csv,legacy,Kafkaesque Koffka,3.2.8,0,s,NA,NA,s,s,NA,s,370,NA,NA,21125,9791,NA,370,2,legacy,1024,2,48000,-16,experiment,SSHSS,2,even,189878,24099,170983,NA,131095,2965,NA,NA,190955,NA,2974,161191,NA,191056,191427,190952,191056,Flankertask,90,46707,93,yes,1024
96.80851064,96.80851064,502.4042553,502.4042553,black,legacy,legacy,legacy,0,congruent,uniform,1,undefined,1,s,93,0,0,0,93,0,93,0,93,NA,0,0,0,93,93,93,93,9/21/19 10:11,600,The main experiment item,yes,BR-Flankertask.osexp,C:/Users/Breena Riley/Desktop/2019 Fall/MultQuant/lab 2.1,no,mono,no,18,no,white,no,yes,768,legacy,13,79,C:/Users/Breena Riley/Desktop/2019 Fall/MultQuant/BR-subject-2.csv,legacy,Kafkaesque Koffka,3.2.8,0,s,NA,NA,s,s,NA,s,519,NA,NA,21125,9791,NA,519,2,legacy,1024,2,48000,-16,experiment,SSSSS,2,even,191936,24099,170983,NA,191435,2965,NA,NA,193009,NA,2974,161191,NA,193111,193632,193007,193111,Flankertask,91,47226,94,yes,1024
96.84210526,96.84210526,501.5368421,501.5368421,black,legacy,legacy,legacy,0,congruent,uniform,1,undefined,1,s,94,0,0,0,94,0,94,0,94,NA,0,0,0,94,94,94,94,9/21/19 10:11,600,The main experiment item,yes,BR-Flankertask.osexp,C:/Users/Breena Riley/Desktop/2019 Fall/MultQuant/lab 2.1,no,mono,no,18,no,white,no,yes,768,legacy,14,79,C:/Users/Breena Riley/Desktop/2019 Fall/MultQuant/BR-subject-2.csv,legacy,Kafkaesque Koffka,3.2.8,0,s,NA,NA,s,s,NA,s,420,NA,NA,21125,9791,NA,420,2,legacy,1024,2,48000,-16,experiment,SSSSS,2,even,193636,24099,170983,NA,191435,2965,NA,NA,194709,NA,2974,161191,NA,194810,195231,194706,194810,Flankertask,92,47646,95,yes,1024
96.875,96.875,501.1354167,501.1354167,black,legacy,legacy,legacy,0,congruent,uniform,1,undefined,1,h,95,0,0,0,95,0,95,0,95,NA,0,0,0,95,95,95,95,9/21/19 10:11,600,The main experiment item,yes,BR-Flankertask.osexp,C:/Users/Breena Riley/Desktop/2019 Fall/MultQuant/lab 2.1,no,mono,no,18,no,white,no,yes,768,legacy,15,79,C:/Users/Breena Riley/Desktop/2019 Fall/MultQuant/BR-subject-2.csv,legacy,Kafkaesque Koffka,3.2.8,0,h,NA,NA,s,s,NA,h,463,NA,NA,21125,9791,NA,463,2,legacy,1024,2,48000,-16,experiment,HHHHH,2,even,195238,24099,170983,NA,191435,2965,NA,NA,196312,NA,2974,161191,NA,196413,196877,196309,196413,Flankertask,93,48109,96,yes,1024
96.90721649,96.90721649,501.3505155,501.3505155,black,legacy,legacy,legacy,0,incongruent,uniform,1,undefined,1,h,96,0,0,0,96,0,96,0,96,NA,0,0,0,96,96,96,96,9/21/19 10:11,600,The main experiment item,yes,BR-Flankertask.osexp,C:/Users/Breena Riley/Desktop/2019 Fall/MultQuant/lab 2.1,no,mono,no,18,no,white,no,yes,768,legacy,16,79,C:/Users/Breena Riley/Desktop/2019 Fall/MultQuant/BR-subject-2.csv,legacy,Kafkaesque Koffka,3.2.8,0,h,NA,NA,s,s,NA,h,522,NA,NA,21125,9791,NA,522,2,legacy,1024,2,48000,-16,experiment,SSHSS,2,even,196885,24099,170983,NA,191435,2965,NA,NA,197958,NA,2974,161191,NA,198060,198583,197956,198060,Flankertask,94,48631,97,yes,1024
96.93877551,96.93877551,500.9897959,500.9897959,black,legacy,legacy,legacy,0,congruent,uniform,1,undefined,1,s,97,0,0,0,97,0,97,0,97,NA,0,0,0,97,97,97,97,9/21/19 10:11,600,The main experiment item,yes,BR-Flankertask.osexp,C:/Users/Breena Riley/Desktop/2019 Fall/MultQuant/lab 2.1,no,mono,no,18,no,white,no,yes,768,legacy,17,79,C:/Users/Breena Riley/Desktop/2019 Fall/MultQuant/BR-subject-2.csv,legacy,Kafkaesque Koffka,3.2.8,0,s,NA,NA,s,s,NA,s,466,NA,NA,21125,9791,NA,466,2,legacy,1024,2,48000,-16,experiment,SSSSS,2,even,198592,24099,170983,NA,191435,2965,NA,NA,199667,NA,2974,161191,NA,199769,200237,199664,199769,Flankertask,95,49097,98,yes,1024
96.96969697,96.96969697,500.4343434,500.4343434,black,legacy,legacy,legacy,0,incongruent,uniform,1,undefined,1,s,98,0,0,0,98,0,98,0,98,NA,0,0,0,98,98,98,98,9/21/19 10:11,600,The main experiment item,yes,BR-Flankertask.osexp,C:/Users/Breena Riley/Desktop/2019 Fall/MultQuant/lab 2.1,no,mono,no,18,no,white,no,yes,768,legacy,18,79,C:/Users/Breena Riley/Desktop/2019 Fall/MultQuant/BR-subject-2.csv,legacy,Kafkaesque Koffka,3.2.8,0,s,NA,NA,s,s,NA,s,446,NA,NA,21125,9791,NA,446,2,legacy,1024,2,48000,-16,experiment,HHSHH,2,even,200245,24099,170983,NA,191435,2965,NA,NA,201318,NA,2974,161191,NA,201419,201867,201315,201419,Flankertask,96,49543,99,yes,1024
97,97,500.42,500.42,black,legacy,legacy,legacy,0,incongruent,uniform,1,undefined,1,s,99,0,0,0,99,0,99,0,99,NA,0,0,0,99,99,99,99,9/21/19 10:11,600,The main experiment item,yes,BR-Flankertask.osexp,C:/Users/Breena Riley/Desktop/2019 Fall/MultQuant/lab 2.1,no,mono,no,18,no,white,no,yes,768,legacy,19,79,C:/Users/Breena Riley/Desktop/2019 Fall/MultQuant/BR-subject-2.csv,legacy,Kafkaesque Koffka,3.2.8,0,s,NA,NA,s,s,NA,s,499,NA,NA,21125,9791,NA,499,2,legacy,1024,2,48000,-16,experiment,HHSHH,2,even,201874,24099,170983,NA,191435,2965,NA,NA,202951,NA,2974,161191,NA,203052,203552,202949,203052,Flankertask,97,50042,100,yes,1024
97.02970297,97.02970297,499.2673267,499.2673267,black,legacy,legacy,legacy,0,congruent,uniform,1,undefined,1,s,100,0,0,0,100,0,100,0,100,NA,0,0,0,100,100,100,100,9/21/19 10:11,600,The main experiment item,yes,BR-Flankertask.osexp,C:/Users/Breena Riley/Desktop/2019 Fall/MultQuant/lab 2.1,no,mono,no,18,no,white,no,yes,768,legacy,20,79,C:/Users/Breena Riley/Desktop/2019 Fall/MultQuant/BR-subject-2.csv,legacy,Kafkaesque Koffka,3.2.8,0,s,NA,NA,s,s,NA,s,384,NA,NA,21125,9791,NA,384,2,legacy,1024,2,48000,-16,experiment,SSSSS,2,even,203560,24099,170983,NA,191435,2965,NA,NA,204639,NA,2974,161191,NA,204741,205125,204637,204740,Flankertask,98,50426,101,yes,1024
97.05882353,97.05882353,500.2647059,500.2647059,black,legacy,legacy,legacy,0,incongruent,uniform,1,undefined,1,s,101,0,0,0,101,0,101,0,101,NA,0,0,0,101,101,101,101,9/21/19 10:11,600,The main experiment item,yes,BR-Flankertask.osexp,C:/Users/Breena Riley/Desktop/2019 Fall/MultQuant/lab 2.1,no,mono,no,18,no,white,no,yes,768,legacy,21,79,C:/Users/Breena Riley/Desktop/2019 Fall/MultQuant/BR-subject-2.csv,legacy,Kafkaesque Koffka,3.2.8,0,s,NA,NA,s,s,NA,s,601,NA,NA,21125,9791,NA,601,2,legacy,1024,2,48000,-16,experiment,HHSHH,2,even,205134,24099,170983,NA,191435,2965,NA,NA,206213,NA,2974,161191,NA,206314,206916,206211,206314,Flankertask,99,51027,102,yes,1024
97.08737864,97.08737864,499.5048544,499.5048544,black,legacy,legacy,legacy,0,congruent,uniform,1,undefined,1,s,102,0,0,0,102,0,102,0,102,NA,0,0,0,102,102,102,102,9/21/19 10:11,600,The main experiment item,yes,BR-Flankertask.osexp,C:/Users/Breena Riley/Desktop/2019 Fall/MultQuant/lab 2.1,no,mono,no,18,no,white,no,yes,768,legacy,22,79,C:/Users/Breena Riley/Desktop/2019 Fall/MultQuant/BR-subject-2.csv,legacy,Kafkaesque Koffka,3.2.8,0,s,NA,NA,s,s,NA,s,422,NA,NA,21125,9791,NA,422,2,legacy,1024,2,48000,-16,experiment,SSSSS,2,even,207425,24099,170983,NA,191435,2965,206924,NA,208502,NA,2974,161191,NA,208604,209027,208499,208603,Flankertask,100,51449,103,yes,1024
97.11538462,97.11538462,498.2788462,498.2788462,black,legacy,legacy,legacy,0,incongruent,uniform,1,undefined,1,s,103,0,0,0,103,0,103,0,103,NA,0,0,0,103,103,103,103,9/21/19 10:11,600,The main experiment item,yes,BR-Flankertask.osexp,C:/Users/Breena Riley/Desktop/2019 Fall/MultQuant/lab 2.1,no,mono,no,18,no,white,no,yes,768,legacy,23,79,C:/Users/Breena Riley/Desktop/2019 Fall/MultQuant/BR-subject-2.csv,legacy,Kafkaesque Koffka,3.2.8,0,s,NA,NA,s,s,NA,s,372,NA,NA,21125,9791,NA,372,2,legacy,1024,2,48000,-16,experiment,HHSHH,2,even,209035,24099,170983,NA,191435,2965,206924,NA,210111,NA,2974,161191,NA,210213,210587,210109,210212,Flankertask,101,51821,104,yes,1024
97.14285714,97.14285714,497.6571429,497.6571429,black,legacy,legacy,legacy,0,congruent,uniform,1,undefined,1,h,104,0,0,0,104,0,104,0,104,NA,0,0,0,104,104,104,104,9/21/19 10:11,600,The main experiment item,yes,BR-Flankertask.osexp,C:/Users/Breena Riley/Desktop/2019 Fall/MultQuant/lab 2.1,no,mono,no,18,no,white,no,yes,768,legacy,24,79,C:/Users/Breena Riley/Desktop/2019 Fall/MultQuant/BR-subject-2.csv,legacy,Kafkaesque Koffka,3.2.8,0,h,NA,NA,s,s,NA,h,433,NA,NA,21125,9791,NA,433,2,legacy,1024,2,48000,-16,experiment,HHHHH,2,even,210591,24099,170983,NA,191435,2965,206924,NA,211668,NA,2974,161191,NA,211770,212204,211665,211770,Flankertask,102,52254,105,yes,1024
97.16981132,97.16981132,497.7735849,497.7735849,black,legacy,legacy,legacy,0,incongruent,uniform,1,undefined,1,h,105,0,0,0,105,0,105,0,105,NA,0,0,0,105,105,105,105,9/21/19 10:11,600,The main experiment item,yes,BR-Flankertask.osexp,C:/Users/Breena Riley/Desktop/2019 Fall/MultQuant/lab 2.1,no,mono,no,18,no,white,no,yes,768,legacy,25,79,C:/Users/Breena Riley/Desktop/2019 Fall/MultQuant/BR-subject-2.csv,legacy,Kafkaesque Koffka,3.2.8,0,h,NA,NA,s,s,NA,h,510,NA,NA,21125,9791,NA,510,2,legacy,1024,2,48000,-16,experiment,SSHSS,2,even,212213,24099,170983,NA,191435,2965,206924,NA,213287,NA,2974,161191,NA,213388,213900,213284,213388,Flankertask,103,52764,106,yes,1024
97.19626168,97.19626168,497.2523364,497.2523364,black,legacy,legacy,legacy,0,incongruent,uniform,1,undefined,1,s,106,0,0,0,106,0,106,0,106,NA,0,0,0,106,106,106,106,9/21/19 10:11,600,The main experiment item,yes,BR-Flankertask.osexp,C:/Users/Breena Riley/Desktop/2019 Fall/MultQuant/lab 2.1,no,mono,no,18,no,white,no,yes,768,legacy,26,79,C:/Users/Breena Riley/Desktop/2019 Fall/MultQuant/BR-subject-2.csv,legacy,Kafkaesque Koffka,3.2.8,0,s,NA,NA,s,s,NA,s,442,NA,NA,21125,9791,NA,442,2,legacy,1024,2,48000,-16,experiment,HHSHH,2,even,213908,24099,170983,NA,191435,2965,206924,NA,214987,NA,2974,161191,NA,215089,215532,214984,215089,Flankertask,104,53206,107,yes,1024
97.22222222,97.22222222,497.4444444,497.4444444,black,legacy,legacy,legacy,0,incongruent,uniform,1,undefined,1,h,107,0,0,0,107,0,107,0,107,NA,0,0,0,107,107,107,107,9/21/19 10:11,600,The main experiment item,yes,BR-Flankertask.osexp,C:/Users/Breena Riley/Desktop/2019 Fall/MultQuant/lab 2.1,no,mono,no,18,no,white,no,yes,768,legacy,27,79,C:/Users/Breena Riley/Desktop/2019 Fall/MultQuant/BR-subject-2.csv,legacy,Kafkaesque Koffka,3.2.8,0,h,NA,NA,s,s,NA,h,518,NA,NA,21125,9791,NA,518,2,legacy,1024,2,48000,-16,experiment,SSHSS,2,even,215540,24099,170983,NA,191435,2965,206924,NA,216617,NA,2974,161191,NA,216718,217238,216614,216718,Flankertask,105,53724,108,yes,1024
97.24770642,97.24770642,496.1834862,496.1834862,black,legacy,legacy,legacy,0,congruent,uniform,1,undefined,1,s,108,0,0,0,108,0,108,0,108,NA,0,0,0,108,108,108,108,9/21/19 10:11,600,The main experiment item,yes,BR-Flankertask.osexp,C:/Users/Breena Riley/Desktop/2019 Fall/MultQuant/lab 2.1,no,mono,no,18,no,white,no,yes,768,legacy,28,79,C:/Users/Breena Riley/Desktop/2019 Fall/MultQuant/BR-subject-2.csv,legacy,Kafkaesque Koffka,3.2.8,0,s,NA,NA,s,s,NA,s,360,NA,NA,21125,9791,NA,360,2,legacy,1024,2,48000,-16,experiment,SSSSS,2,even,217246,24099,170983,NA,191435,2965,206924,NA,218319,NA,2974,161191,NA,218421,218782,218318,218421,Flankertask,106,54084,109,yes,1024
97.27272727,97.27272727,495.8090909,495.8090909,black,legacy,legacy,legacy,0,congruent,uniform,1,undefined,1,h,109,0,0,0,109,0,109,0,109,NA,0,0,0,109,109,109,109,9/21/19 10:11,600,The main experiment item,yes,BR-Flankertask.osexp,C:/Users/Breena Riley/Desktop/2019 Fall/MultQuant/lab 2.1,no,mono,no,18,no,white,no,yes,768,legacy,29,79,C:/Users/Breena Riley/Desktop/2019 Fall/MultQuant/BR-subject-2.csv,legacy,Kafkaesque Koffka,3.2.8,0,h,NA,NA,s,s,NA,h,455,NA,NA,21125,9791,NA,455,2,legacy,1024,2,48000,-16,experiment,HHHHH,2,even,218787,24099,170983,NA,191435,2965,206924,NA,219870,NA,2974,161191,NA,219972,220428,219867,219972,Flankertask,107,54539,110,yes,1024
97.2972973,97.2972973,495.027027,495.027027,black,legacy,legacy,legacy,0,incongruent,uniform,1,undefined,1,h,110,0,0,0,110,0,110,0,110,NA,0,0,0,110,110,110,110,9/21/19 10:11,600,The main experiment item,yes,BR-Flankertask.osexp,C:/Users/Breena Riley/Desktop/2019 Fall/MultQuant/lab 2.1,no,mono,no,18,no,white,no,yes,768,legacy,30,79,C:/Users/Breena Riley/Desktop/2019 Fall/MultQuant/BR-subject-2.csv,legacy,Kafkaesque Koffka,3.2.8,0,h,NA,NA,s,s,NA,h,409,NA,NA,21125,9791,NA,409,2,legacy,1024,2,48000,-16,experiment,SSHSS,2,even,220436,24099,170983,NA,191435,2965,206924,NA,221513,NA,2974,161191,NA,221614,222025,221511,221614,Flankertask,108,54948,111,yes,1024
96.42857143,96.42857143,494.2857143,494.2857143,black,legacy,legacy,legacy,0,incongruent,uniform,0,undefined,0,h,111,0,0,0,111,0,111,0,111,NA,0,0,0,111,111,111,111,9/21/19 10:11,600,The main experiment item,yes,BR-Flankertask.osexp,C:/Users/Breena Riley/Desktop/2019 Fall/MultQuant/lab 2.1,no,mono,no,18,no,white,no,yes,768,legacy,31,79,C:/Users/Breena Riley/Desktop/2019 Fall/MultQuant/BR-subject-2.csv,legacy,Kafkaesque Koffka,3.2.8,0,s,NA,NA,s,s,NA,s,412,NA,NA,21125,9791,NA,412,2,legacy,1024,2,48000,-16,experiment,SSHSS,2,even,222033,24099,170983,NA,191435,2965,206924,NA,223108,NA,2974,161191,NA,223209,223622,223106,223209,Flankertask,108,55360,112,yes,1024
95.57522124,95.57522124,493.2300885,493.2300885,black,legacy,legacy,legacy,0,incongruent,uniform,0,undefined,0,s,112,0,0,0,112,0,112,0,112,NA,0,0,0,112,112,112,112,9/21/19 10:11,600,The main experiment item,yes,BR-Flankertask.osexp,C:/Users/Breena Riley/Desktop/2019 Fall/MultQuant/lab 2.1,no,mono,no,18,no,white,no,yes,768,legacy,32,79,C:/Users/Breena Riley/Desktop/2019 Fall/MultQuant/BR-subject-2.csv,legacy,Kafkaesque Koffka,3.2.8,0,h,NA,NA,s,s,NA,h,375,NA,NA,21125,9791,NA,375,2,legacy,1024,2,48000,-16,experiment,HHSHH,2,even,224128,24099,170983,NA,223627,2965,206924,NA,225202,NA,2974,161191,NA,225304,225680,225199,225304,Flankertask,108,55735,113,yes,1024
94.73684211,94.73684211,492.5526316,492.5526316,black,legacy,legacy,legacy,0,incongruent,uniform,0,undefined,0,h,113,0,0,0,113,0,113,0,113,NA,0,0,0,113,113,113,113,9/21/19 10:11,600,The main experiment item,yes,BR-Flankertask.osexp,C:/Users/Breena Riley/Desktop/2019 Fall/MultQuant/lab 2.1,no,mono,no,18,no,white,no,yes,768,legacy,33,79,C:/Users/Breena Riley/Desktop/2019 Fall/MultQuant/BR-subject-2.csv,legacy,Kafkaesque Koffka,3.2.8,0,s,NA,NA,s,s,NA,s,416,NA,NA,21125,9791,NA,416,2,legacy,1024,2,48000,-16,experiment,SSHSS,2,even,226189,24099,170983,NA,225688,2965,206924,NA,227263,NA,2974,161191,NA,227364,227781,227260,227364,Flankertask,108,56151,114,yes,1024
94.7826087,94.7826087,496.1565217,496.1565217,black,legacy,legacy,legacy,0,incongruent,uniform,1,undefined,1,h,114,0,0,0,114,0,114,0,114,NA,0,0,0,114,114,114,114,9/21/19 10:11,600,The main experiment item,yes,BR-Flankertask.osexp,C:/Users/Breena Riley/Desktop/2019 Fall/MultQuant/lab 2.1,no,mono,no,18,no,white,no,yes,768,legacy,34,79,C:/Users/Breena Riley/Desktop/2019 Fall/MultQuant/BR-subject-2.csv,legacy,Kafkaesque Koffka,3.2.8,0,h,NA,NA,s,s,NA,h,907,NA,NA,21125,9791,NA,907,2,legacy,1024,2,48000,-16,experiment,SSHSS,2,even,228291,24099,170983,NA,227790,2965,206924,NA,229367,NA,2974,161191,NA,229468,230376,229364,229468,Flankertask,109,57058,115,yes,1024
94.82758621,94.82758621,496.1724138,496.1724138,black,legacy,legacy,legacy,0,congruent,uniform,1,undefined,1,s,115,0,0,0,115,0,115,0,115,NA,0,0,0,115,115,115,115,9/21/19 10:11,600,The main experiment item,yes,BR-Flankertask.osexp,C:/Users/Breena Riley/Desktop/2019 Fall/MultQuant/lab 2.1,no,mono,no,18,no,white,no,yes,768,legacy,35,79,C:/Users/Breena Riley/Desktop/2019 Fall/MultQuant/BR-subject-2.csv,legacy,Kafkaesque Koffka,3.2.8,0,s,NA,NA,s,s,NA,s,498,NA,NA,21125,9791,NA,498,2,legacy,1024,2,48000,-16,experiment,SSSSS,2,even,230884,24099,170983,NA,227790,2965,230383,NA,231957,NA,2974,161191,NA,232059,232558,231954,232059,Flankertask,110,57556,116,yes,1024
94.87179487,94.87179487,496.4017094,496.4017094,black,legacy,legacy,legacy,0,incongruent,uniform,1,undefined,1,h,116,0,0,0,116,0,116,0,116,NA,0,0,0,116,116,116,116,9/21/19 10:11,600,The main experiment item,yes,BR-Flankertask.osexp,C:/Users/Breena Riley/Desktop/2019 Fall/MultQuant/lab 2.1,no,mono,no,18,no,white,no,yes,768,legacy,36,79,C:/Users/Breena Riley/Desktop/2019 Fall/MultQuant/BR-subject-2.csv,legacy,Kafkaesque Koffka,3.2.8,0,h,NA,NA,s,s,NA,h,523,NA,NA,21125,9791,NA,523,2,legacy,1024,2,48000,-16,experiment,SSHSS,2,even,232566,24099,170983,NA,227790,2965,230383,NA,233646,NA,2974,161191,NA,233748,234273,233643,233748,Flankertask,111,58079,117,yes,1024
94.91525424,94.91525424,496.559322,496.559322,black,legacy,legacy,legacy,0,incongruent,uniform,1,undefined,1,s,117,0,0,0,117,0,117,0,117,NA,0,0,0,117,117,117,117,9/21/19 10:11,600,The main experiment item,yes,BR-Flankertask.osexp,C:/Users/Breena Riley/Desktop/2019 Fall/MultQuant/lab 2.1,no,mono,no,18,no,white,no,yes,768,legacy,37,79,C:/Users/Breena Riley/Desktop/2019 Fall/MultQuant/BR-subject-2.csv,legacy,Kafkaesque Koffka,3.2.8,0,s,NA,NA,s,s,NA,s,515,NA,NA,21125,9791,NA,515,2,legacy,1024,2,48000,-16,experiment,HHSHH,2,even,234281,24099,170983,NA,227790,2965,230383,NA,235355,NA,2974,161191,NA,235457,235973,235353,235457,Flankertask,112,58594,118,yes,1024
94.95798319,94.95798319,495.9663866,495.9663866,black,legacy,legacy,legacy,0,congruent,uniform,1,undefined,1,s,118,0,0,0,118,0,118,0,118,NA,0,0,0,118,118,118,118,9/21/19 10:11,600,The main experiment item,yes,BR-Flankertask.osexp,C:/Users/Breena Riley/Desktop/2019 Fall/MultQuant/lab 2.1,no,mono,no,18,no,white,no,yes,768,legacy,38,79,C:/Users/Breena Riley/Desktop/2019 Fall/MultQuant/BR-subject-2.csv,legacy,Kafkaesque Koffka,3.2.8,0,s,NA,NA,s,s,NA,s,426,NA,NA,21125,9791,NA,426,2,legacy,1024,2,48000,-16,experiment,SSSSS,2,even,235981,24099,170983,NA,227790,2965,230383,NA,237054,NA,2974,161191,NA,237156,237584,237052,237155,Flankertask,113,59020,119,yes,1024
95,95,495.4166667,495.4166667,black,legacy,legacy,legacy,0,congruent,uniform,1,undefined,1,h,119,0,0,0,119,0,119,0,119,NA,0,0,0,119,119,119,119,9/21/19 10:11,600,The main experiment item,yes,BR-Flankertask.osexp,C:/Users/Breena Riley/Desktop/2019 Fall/MultQuant/lab 2.1,no,mono,no,18,no,white,no,yes,768,legacy,39,79,C:/Users/Breena Riley/Desktop/2019 Fall/MultQuant/BR-subject-2.csv,legacy,Kafkaesque Koffka,3.2.8,0,h,NA,NA,s,s,NA,h,430,NA,NA,21125,9791,NA,430,2,legacy,1024,2,48000,-16,experiment,HHHHH,2,even,237592,24099,170983,NA,227790,2965,230383,NA,238670,NA,2974,161191,NA,238771,239202,238667,238771,Flankertask,114,59450,120,yes,1024
95.04132231,95.04132231,495.0909091,495.0909091,black,legacy,legacy,legacy,0,incongruent,uniform,1,undefined,1,s,120,0,0,0,120,0,120,0,120,NA,0,0,0,120,120,120,120,9/21/19 10:11,600,The main experiment item,yes,BR-Flankertask.osexp,C:/Users/Breena Riley/Desktop/2019 Fall/MultQuant/lab 2.1,no,mono,no,18,no,white,no,yes,768,legacy,40,79,C:/Users/Breena Riley/Desktop/2019 Fall/MultQuant/BR-subject-2.csv,legacy,Kafkaesque Koffka,3.2.8,0,s,NA,NA,s,s,NA,s,456,NA,NA,21125,9791,NA,456,2,legacy,1024,2,48000,-16,experiment,HHSHH,2,even,239206,24099,170983,NA,227790,2965,230383,NA,240280,NA,2974,161191,NA,240382,240840,240277,240382,Flankertask,115,59906,121,yes,1024
95.08196721,95.08196721,494.704918,494.704918,black,legacy,legacy,legacy,0,congruent,uniform,1,undefined,1,h,121,0,0,0,121,0,121,0,121,NA,0,0,0,121,121,121,121,9/21/19 10:11,600,The main experiment item,yes,BR-Flankertask.osexp,C:/Users/Breena Riley/Desktop/2019 Fall/MultQuant/lab 2.1,no,mono,no,18,no,white,no,yes,768,legacy,41,79,C:/Users/Breena Riley/Desktop/2019 Fall/MultQuant/BR-subject-2.csv,legacy,Kafkaesque Koffka,3.2.8,0,h,NA,NA,s,s,NA,h,448,NA,NA,21125,9791,NA,448,2,legacy,1024,2,48000,-16,experiment,HHHHH,2,even,240848,24099,170983,NA,227790,2965,230383,NA,241923,NA,2974,161191,NA,242024,242474,241921,242024,Flankertask,116,60354,122,yes,1024
95.12195122,95.12195122,493.9756098,493.9756098,black,legacy,legacy,legacy,0,congruent,uniform,1,undefined,1,s,122,0,0,0,122,0,122,0,122,NA,0,0,0,122,122,122,122,9/21/19 10:11,600,The main experiment item,yes,BR-Flankertask.osexp,C:/Users/Breena Riley/Desktop/2019 Fall/MultQuant/lab 2.1,no,mono,no,18,no,white,no,yes,768,legacy,42,79,C:/Users/Breena Riley/Desktop/2019 Fall/MultQuant/BR-subject-2.csv,legacy,Kafkaesque Koffka,3.2.8,0,s,NA,NA,s,s,NA,s,405,NA,NA,21125,9791,NA,405,2,legacy,1024,2,48000,-16,experiment,SSSSS,2,even,242482,24099,170983,NA,227790,2965,230383,NA,243555,NA,2974,161191,NA,243656,244063,243553,243656,Flankertask,117,60759,123,yes,1024
95.16129032,95.16129032,493.8790323,493.8790323,black,legacy,legacy,legacy,0,incongruent,uniform,1,undefined,1,h,123,0,0,0,123,0,123,0,123,NA,0,0,0,123,123,123,123,9/21/19 10:11,600,The main experiment item,yes,BR-Flankertask.osexp,C:/Users/Breena Riley/Desktop/2019 Fall/MultQuant/lab 2.1,no,mono,no,18,no,white,no,yes,768,legacy,43,79,C:/Users/Breena Riley/Desktop/2019 Fall/MultQuant/BR-subject-2.csv,legacy,Kafkaesque Koffka,3.2.8,0,h,NA,NA,s,s,NA,h,482,NA,NA,21125,9791,NA,482,2,legacy,1024,2,48000,-16,experiment,SSHSS,2,even,244071,24099,170983,NA,227790,2965,230383,NA,245146,NA,2974,161191,NA,245247,245730,245143,245247,Flankertask,118,61241,124,yes,1024
95.2,95.2,493.952,493.952,black,legacy,legacy,legacy,0,incongruent,uniform,1,undefined,1,h,124,0,0,0,124,0,124,0,124,NA,0,0,0,124,124,124,124,9/21/19 10:11,600,The main experiment item,yes,BR-Flankertask.osexp,C:/Users/Breena Riley/Desktop/2019 Fall/MultQuant/lab 2.1,no,mono,no,18,no,white,no,yes,768,legacy,44,79,C:/Users/Breena Riley/Desktop/2019 Fall/MultQuant/BR-subject-2.csv,legacy,Kafkaesque Koffka,3.2.8,0,h,NA,NA,s,s,NA,h,503,NA,NA,21125,9791,NA,503,2,legacy,1024,2,48000,-16,experiment,SSHSS,2,even,245738,24099,170983,NA,227790,2965,230383,NA,246812,NA,2974,161191,NA,246914,247418,246809,246914,Flankertask,119,61744,125,yes,1024
95.23809524,95.23809524,493.7380952,493.7380952,black,legacy,legacy,legacy,0,incongruent,uniform,1,undefined,1,s,125,0,0,0,125,0,125,0,125,NA,0,0,0,125,125,125,125,9/21/19 10:11,600,The main experiment item,yes,BR-Flankertask.osexp,C:/Users/Breena Riley/Desktop/2019 Fall/MultQuant/lab 2.1,no,mono,no,18,no,white,no,yes,768,legacy,45,79,C:/Users/Breena Riley/Desktop/2019 Fall/MultQuant/BR-subject-2.csv,legacy,Kafkaesque Koffka,3.2.8,0,s,NA,NA,s,s,NA,s,467,NA,NA,21125,9791,NA,467,2,legacy,1024,2,48000,-16,experiment,HHSHH,2,even,247423,24099,170983,NA,227790,2965,230383,NA,248496,NA,2974,161191,NA,248597,249065,248493,248597,Flankertask,120,62211,126,yes,1024
95.27559055,95.27559055,493.1338583,493.1338583,black,legacy,legacy,legacy,0,congruent,uniform,1,undefined,1,h,126,0,0,0,126,0,126,0,126,NA,0,0,0,126,126,126,126,9/21/19 10:11,600,The main experiment item,yes,BR-Flankertask.osexp,C:/Users/Breena Riley/Desktop/2019 Fall/MultQuant/lab 2.1,no,mono,no,18,no,white,no,yes,768,legacy,46,79,C:/Users/Breena Riley/Desktop/2019 Fall/MultQuant/BR-subject-2.csv,legacy,Kafkaesque Koffka,3.2.8,0,h,NA,NA,s,s,NA,h,417,NA,NA,21125,9791,NA,417,2,legacy,1024,2,48000,-16,experiment,HHHHH,2,even,249073,24099,170983,NA,227790,2965,230383,NA,250149,NA,2974,161191,NA,250251,250670,250147,250250,Flankertask,121,62628,127,yes,1024
95.3125,95.3125,496.7109375,496.7109375,black,legacy,legacy,legacy,0,incongruent,uniform,1,undefined,1,h,127,0,0,0,127,0,127,0,127,NA,0,0,0,127,127,127,127,9/21/19 10:11,600,The main experiment item,yes,BR-Flankertask.osexp,C:/Users/Breena Riley/Desktop/2019 Fall/MultQuant/lab 2.1,no,mono,no,18,no,white,no,yes,768,legacy,47,79,C:/Users/Breena Riley/Desktop/2019 Fall/MultQuant/BR-subject-2.csv,legacy,Kafkaesque Koffka,3.2.8,0,h,NA,NA,s,s,NA,h,951,NA,NA,21125,9791,NA,951,2,legacy,1024,2,48000,-16,experiment,SSHSS,2,even,250678,24099,170983,NA,227790,2965,230383,NA,251752,NA,2974,161191,NA,251853,252805,251749,251853,Flankertask,122,63579,128,yes,1024
95.34883721,95.34883721,496.0930233,496.0930233,black,legacy,legacy,legacy,0,congruent,uniform,1,undefined,1,h,128,0,0,0,128,0,128,0,128,NA,0,0,0,128,128,128,128,9/21/19 10:11,600,The main experiment item,yes,BR-Flankertask.osexp,C:/Users/Breena Riley/Desktop/2019 Fall/MultQuant/lab 2.1,no,mono,no,18,no,white,no,yes,768,legacy,48,79,C:/Users/Breena Riley/Desktop/2019 Fall/MultQuant/BR-subject-2.csv,legacy,Kafkaesque Koffka,3.2.8,0,h,NA,NA,s,s,NA,h,417,NA,NA,21125,9791,NA,417,2,legacy,1024,2,48000,-16,experiment,HHHHH,2,even,253315,24099,170983,NA,227790,2965,252814,NA,254389,NA,2974,161191,NA,254491,254910,254386,254490,Flankertask,123,63996,129,yes,1024
95.38461538,95.38461538,495.3769231,495.3769231,black,legacy,legacy,legacy,0,congruent,uniform,1,undefined,1,h,129,0,0,0,129,0,129,0,129,NA,0,0,0,129,129,129,129,9/21/19 10:11,600,The main experiment item,yes,BR-Flankertask.osexp,C:/Users/Breena Riley/Desktop/2019 Fall/MultQuant/lab 2.1,no,mono,no,18,no,white,no,yes,768,legacy,49,79,C:/Users/Breena Riley/Desktop/2019 Fall/MultQuant/BR-subject-2.csv,legacy,Kafkaesque Koffka,3.2.8,0,h,NA,NA,s,s,NA,h,403,NA,NA,21125,9791,NA,403,2,legacy,1024,2,48000,-16,experiment,HHHHH,2,even,254918,24099,170983,NA,227790,2965,252814,NA,255993,NA,2974,161191,NA,256094,256497,255990,256094,Flankertask,124,64399,130,yes,1024
95.41984733,95.41984733,494.7709924,494.7709924,black,legacy,legacy,legacy,0,congruent,uniform,1,undefined,1,h,130,0,0,0,130,0,130,0,130,NA,0,0,0,130,130,130,130,9/21/19 10:11,600,The main experiment item,yes,BR-Flankertask.osexp,C:/Users/Breena Riley/Desktop/2019 Fall/MultQuant/lab 2.1,no,mono,no,18,no,white,no,yes,768,legacy,50,79,C:/Users/Breena Riley/Desktop/2019 Fall/MultQuant/BR-subject-2.csv,legacy,Kafkaesque Koffka,3.2.8,0,h,NA,NA,s,s,NA,h,416,NA,NA,21125,9791,NA,416,2,legacy,1024,2,48000,-16,experiment,HHHHH,2,even,256506,24099,170983,NA,227790,2965,252814,NA,257584,NA,2974,161191,NA,257686,258104,257582,257685,Flankertask,125,64815,131,yes,1024
95.45454545,95.45454545,494.3939394,494.3939394,black,legacy,legacy,legacy,0,congruent,uniform,1,undefined,1,s,131,0,0,0,131,0,131,0,131,NA,0,0,0,131,131,131,131,9/21/19 10:11,600,The main experiment item,yes,BR-Flankertask.osexp,C:/Users/Breena Riley/Desktop/2019 Fall/MultQuant/lab 2.1,no,mono,no,18,no,white,no,yes,768,legacy,51,79,C:/Users/Breena Riley/Desktop/2019 Fall/MultQuant/BR-subject-2.csv,legacy,Kafkaesque Koffka,3.2.8,0,s,NA,NA,s,s,NA,s,445,NA,NA,21125,9791,NA,445,2,legacy,1024,2,48000,-16,experiment,SSSSS,2,even,258111,24099,170983,NA,227790,2965,252814,NA,259186,NA,2974,161191,NA,259287,259734,259184,259287,Flankertask,126,65260,132,yes,1024
95.4887218,95.4887218,494.112782,494.112782,black,legacy,legacy,legacy,0,congruent,uniform,1,undefined,1,h,132,0,0,0,132,0,132,0,132,NA,0,0,0,132,132,132,132,9/21/19 10:11,600,The main experiment item,yes,BR-Flankertask.osexp,C:/Users/Breena Riley/Desktop/2019 Fall/MultQuant/lab 2.1,no,mono,no,18,no,white,no,yes,768,legacy,52,79,C:/Users/Breena Riley/Desktop/2019 Fall/MultQuant/BR-subject-2.csv,legacy,Kafkaesque Koffka,3.2.8,0,h,NA,NA,s,s,NA,h,457,NA,NA,21125,9791,NA,457,2,legacy,1024,2,48000,-16,experiment,HHHHH,2,even,259743,24099,170983,NA,227790,2965,252814,NA,260819,NA,2974,161191,NA,260920,261378,260816,260920,Flankertask,127,65717,133,yes,1024
95.52238806,95.52238806,493.7835821,493.7835821,black,legacy,legacy,legacy,0,incongruent,uniform,1,undefined,1,s,133,0,0,0,133,0,133,0,133,NA,0,0,0,133,133,133,133,9/21/19 10:11,600,The main experiment item,yes,BR-Flankertask.osexp,C:/Users/Breena Riley/Desktop/2019 Fall/MultQuant/lab 2.1,no,mono,no,18,no,white,no,yes,768,legacy,53,79,C:/Users/Breena Riley/Desktop/2019 Fall/MultQuant/BR-subject-2.csv,legacy,Kafkaesque Koffka,3.2.8,0,s,NA,NA,s,s,NA,s,450,NA,NA,21125,9791,NA,450,2,legacy,1024,2,48000,-16,experiment,HHSHH,2,even,261386,24099,170983,NA,227790,2965,252814,NA,262462,NA,2974,161191,NA,262563,263014,262459,262563,Flankertask,128,66167,134,yes,1024
95.55555556,95.55555556,493.4222222,493.4222222,black,legacy,legacy,legacy,0,incongruent,uniform,1,undefined,1,s,134,0,0,0,134,0,134,0,134,NA,0,0,0,134,134,134,134,9/21/19 10:11,600,The main experiment item,yes,BR-Flankertask.osexp,C:/Users/Breena Riley/Desktop/2019 Fall/MultQuant/lab 2.1,no,mono,no,18,no,white,no,yes,768,legacy,54,79,C:/Users/Breena Riley/Desktop/2019 Fall/MultQuant/BR-subject-2.csv,legacy,Kafkaesque Koffka,3.2.8,0,s,NA,NA,s,s,NA,s,445,NA,NA,21125,9791,NA,445,2,legacy,1024,2,48000,-16,experiment,HHSHH,2,even,263023,24099,170983,NA,227790,2965,252814,NA,264100,NA,2974,161191,NA,264202,264648,264097,264201,Flankertask,129,66612,135,yes,1024
95.58823529,95.58823529,492.875,492.875,black,legacy,legacy,legacy,0,congruent,uniform,1,undefined,1,s,135,0,0,0,135,0,135,0,135,NA,0,0,0,135,135,135,135,9/21/19 10:11,600,The main experiment item,yes,BR-Flankertask.osexp,C:/Users/Breena Riley/Desktop/2019 Fall/MultQuant/lab 2.1,no,mono,no,18,no,white,no,yes,768,legacy,55,79,C:/Users/Breena Riley/Desktop/2019 Fall/MultQuant/BR-subject-2.csv,legacy,Kafkaesque Koffka,3.2.8,0,s,NA,NA,s,s,NA,s,419,NA,NA,21125,9791,NA,419,2,legacy,1024,2,48000,-16,experiment,SSSSS,2,even,264657,24099,170983,NA,227790,2965,252814,NA,265736,NA,2974,161191,NA,265837,266258,265734,265837,Flankertask,130,67031,136,yes,1024
95.62043796,95.62043796,492.189781,492.189781,black,legacy,legacy,legacy,0,congruent,uniform,1,undefined,1,s,136,0,0,0,136,0,136,0,136,NA,0,0,0,136,136,136,136,9/21/19 10:11,600,The main experiment item,yes,BR-Flankertask.osexp,C:/Users/Breena Riley/Desktop/2019 Fall/MultQuant/lab 2.1,no,mono,no,18,no,white,no,yes,768,legacy,56,79,C:/Users/Breena Riley/Desktop/2019 Fall/MultQuant/BR-subject-2.csv,legacy,Kafkaesque Koffka,3.2.8,0,s,NA,NA,s,s,NA,s,399,NA,NA,21125,9791,NA,399,2,legacy,1024,2,48000,-16,experiment,SSSSS,2,even,266265,24099,170983,NA,227790,2965,252814,NA,267343,NA,2974,161191,NA,267445,267845,267340,267445,Flankertask,131,67430,137,yes,1024
95.65217391,95.65217391,492.0217391,492.0217391,black,legacy,legacy,legacy,0,incongruent,uniform,1,undefined,1,s,137,0,0,0,137,0,137,0,137,NA,0,0,0,137,137,137,137,9/21/19 10:11,600,The main experiment item,yes,BR-Flankertask.osexp,C:/Users/Breena Riley/Desktop/2019 Fall/MultQuant/lab 2.1,no,mono,no,18,no,white,no,yes,768,legacy,57,79,C:/Users/Breena Riley/Desktop/2019 Fall/MultQuant/BR-subject-2.csv,legacy,Kafkaesque Koffka,3.2.8,0,s,NA,NA,s,s,NA,s,469,NA,NA,21125,9791,NA,469,2,legacy,1024,2,48000,-16,experiment,HHSHH,2,even,267849,24099,170983,NA,227790,2965,252814,NA,268923,NA,2974,161191,NA,269025,269495,268921,269025,Flankertask,132,67899,138,yes,1024
95.68345324,95.68345324,491.7697842,491.7697842,black,legacy,legacy,legacy,0,incongruent,uniform,1,undefined,1,s,138,0,0,0,138,0,138,0,138,NA,0,0,0,138,138,138,138,9/21/19 10:11,600,The main experiment item,yes,BR-Flankertask.osexp,C:/Users/Breena Riley/Desktop/2019 Fall/MultQuant/lab 2.1,no,mono,no,18,no,white,no,yes,768,legacy,58,79,C:/Users/Breena Riley/Desktop/2019 Fall/MultQuant/BR-subject-2.csv,legacy,Kafkaesque Koffka,3.2.8,0,s,NA,NA,s,s,NA,s,457,NA,NA,21125,9791,NA,457,2,legacy,1024,2,48000,-16,experiment,HHSHH,2,even,269503,24099,170983,NA,227790,2965,252814,NA,270580,NA,2974,161191,NA,270681,271139,270577,270681,Flankertask,133,68356,139,yes,1024
95,95,491.05,491.05,black,legacy,legacy,legacy,0,incongruent,uniform,0,undefined,0,h,139,0,0,0,139,0,139,0,139,NA,0,0,0,139,139,139,139,9/21/19 10:11,600,The main experiment item,yes,BR-Flankertask.osexp,C:/Users/Breena Riley/Desktop/2019 Fall/MultQuant/lab 2.1,no,mono,no,18,no,white,no,yes,768,legacy,59,79,C:/Users/Breena Riley/Desktop/2019 Fall/MultQuant/BR-subject-2.csv,legacy,Kafkaesque Koffka,3.2.8,0,s,NA,NA,s,s,NA,s,391,NA,NA,21125,9791,NA,391,2,legacy,1024,2,48000,-16,experiment,SSHSS,2,even,271148,24099,170983,NA,227790,2965,252814,NA,272224,NA,2974,161191,NA,272325,272717,272221,272325,Flankertask,133,68747,140,yes,1024
95.03546099,95.03546099,490.5319149,490.5319149,black,legacy,legacy,legacy,0,congruent,uniform,1,undefined,1,h,140,0,0,0,140,0,140,0,140,NA,0,0,0,140,140,140,140,9/21/19 10:11,600,The main experiment item,yes,BR-Flankertask.osexp,C:/Users/Breena Riley/Desktop/2019 Fall/MultQuant/lab 2.1,no,mono,no,18,no,white,no,yes,768,legacy,60,79,C:/Users/Breena Riley/Desktop/2019 Fall/MultQuant/BR-subject-2.csv,legacy,Kafkaesque Koffka,3.2.8,0,h,NA,NA,s,s,NA,h,418,NA,NA,21125,9791,NA,418,2,legacy,1024,2,48000,-16,experiment,HHHHH,2,even,273226,24099,170983,NA,272725,2965,252814,NA,274300,NA,2974,161191,NA,274400,274820,274297,274400,Flankertask,134,69165,141,yes,1024
95.07042254,95.07042254,489.9859155,489.9859155,black,legacy,legacy,legacy,0,congruent,uniform,1,undefined,1,s,141,0,0,0,141,0,141,0,141,NA,0,0,0,141,141,141,141,9/21/19 10:11,600,The main experiment item,yes,BR-Flankertask.osexp,C:/Users/Breena Riley/Desktop/2019 Fall/MultQuant/lab 2.1,no,mono,no,18,no,white,no,yes,768,legacy,61,79,C:/Users/Breena Riley/Desktop/2019 Fall/MultQuant/BR-subject-2.csv,legacy,Kafkaesque Koffka,3.2.8,0,s,NA,NA,s,s,NA,s,413,NA,NA,21125,9791,NA,413,2,legacy,1024,2,48000,-16,experiment,SSSSS,2,even,274828,24099,170983,NA,272725,2965,252814,NA,275902,NA,2974,161191,NA,276004,276419,275899,276003,Flankertask,135,69578,142,yes,1024
95.1048951,95.1048951,489.3986014,489.3986014,black,legacy,legacy,legacy,0,congruent,uniform,1,undefined,1,h,142,0,0,0,142,0,142,0,142,NA,0,0,0,142,142,142,142,9/21/19 10:11,600,The main experiment item,yes,BR-Flankertask.osexp,C:/Users/Breena Riley/Desktop/2019 Fall/MultQuant/lab 2.1,no,mono,no,18,no,white,no,yes,768,legacy,62,79,C:/Users/Breena Riley/Desktop/2019 Fall/MultQuant/BR-subject-2.csv,legacy,Kafkaesque Koffka,3.2.8,0,h,NA,NA,s,s,NA,h,406,NA,NA,21125,9791,NA,406,2,legacy,1024,2,48000,-16,experiment,HHHHH,2,even,276426,24099,170983,NA,272725,2965,252814,NA,277499,NA,2974,161191,NA,277601,278009,277496,277601,Flankertask,136,69984,143,yes,1024
95.13888889,95.13888889,489.4583333,489.4583333,black,legacy,legacy,legacy,0,incongruent,uniform,1,undefined,1,h,143,0,0,0,143,0,143,0,143,NA,0,0,0,143,143,143,143,9/21/19 10:11,600,The main experiment item,yes,BR-Flankertask.osexp,C:/Users/Breena Riley/Desktop/2019 Fall/MultQuant/lab 2.1,no,mono,no,18,no,white,no,yes,768,legacy,63,79,C:/Users/Breena Riley/Desktop/2019 Fall/MultQuant/BR-subject-2.csv,legacy,Kafkaesque Koffka,3.2.8,0,h,NA,NA,s,s,NA,h,498,NA,NA,21125,9791,NA,498,2,legacy,1024,2,48000,-16,experiment,SSHSS,2,even,278017,24099,170983,NA,272725,2965,252814,NA,279092,NA,2974,161191,NA,279194,279694,279089,279193,Flankertask,137,70482,144,yes,1024
95.17241379,95.17241379,488.937931,488.937931,black,legacy,legacy,legacy,0,incongruent,uniform,1,undefined,1,s,144,0,0,0,144,0,144,0,144,NA,0,0,0,144,144,144,144,9/21/19 10:11,600,The main experiment item,yes,BR-Flankertask.osexp,C:/Users/Breena Riley/Desktop/2019 Fall/MultQuant/lab 2.1,no,mono,no,18,no,white,no,yes,768,legacy,64,79,C:/Users/Breena Riley/Desktop/2019 Fall/MultQuant/BR-subject-2.csv,legacy,Kafkaesque Koffka,3.2.8,0,s,NA,NA,s,s,NA,s,414,NA,NA,21125,9791,NA,414,2,legacy,1024,2,48000,-16,experiment,HHSHH,2,even,279701,24099,170983,NA,272725,2965,252814,NA,280777,NA,2974,161191,NA,280878,281294,280775,280878,Flankertask,138,70896,145,yes,1024
95.20547945,95.20547945,488.5479452,488.5479452,black,legacy,legacy,legacy,0,congruent,uniform,1,undefined,1,h,145,0,0,0,145,0,145,0,145,NA,0,0,0,145,145,145,145,9/21/19 10:11,600,The main experiment item,yes,BR-Flankertask.osexp,C:/Users/Breena Riley/Desktop/2019 Fall/MultQuant/lab 2.1,no,mono,no,18,no,white,no,yes,768,legacy,65,79,C:/Users/Breena Riley/Desktop/2019 Fall/MultQuant/BR-subject-2.csv,legacy,Kafkaesque Koffka,3.2.8,0,h,NA,NA,s,s,NA,h,432,NA,NA,21125,9791,NA,432,2,legacy,1024,2,48000,-16,experiment,HHHHH,2,even,281302,24099,170983,NA,272725,2965,252814,NA,282377,NA,2974,161191,NA,282478,282912,282374,282478,Flankertask,139,71328,146,yes,1024
95.23809524,95.23809524,488,488,black,legacy,legacy,legacy,0,congruent,uniform,1,undefined,1,s,146,0,0,0,146,0,146,0,146,NA,0,0,0,146,146,146,146,9/21/19 10:11,600,The main experiment item,yes,BR-Flankertask.osexp,C:/Users/Breena Riley/Desktop/2019 Fall/MultQuant/lab 2.1,no,mono,no,18,no,white,no,yes,768,legacy,66,79,C:/Users/Breena Riley/Desktop/2019 Fall/MultQuant/BR-subject-2.csv,legacy,Kafkaesque Koffka,3.2.8,0,s,NA,NA,s,s,NA,s,408,NA,NA,21125,9791,NA,408,2,legacy,1024,2,48000,-16,experiment,SSSSS,2,even,282920,24099,170983,NA,272725,2965,252814,NA,283997,NA,2974,161191,NA,284098,284507,283994,284098,Flankertask,140,71736,147,yes,1024
95.27027027,95.27027027,487.7364865,487.7364865,black,legacy,legacy,legacy,0,congruent,uniform,1,undefined,1,h,147,0,0,0,147,0,147,0,147,NA,0,0,0,147,147,147,147,9/21/19 10:11,600,The main experiment item,yes,BR-Flankertask.osexp,C:/Users/Breena Riley/Desktop/2019 Fall/MultQuant/lab 2.1,no,mono,no,18,no,white,no,yes,768,legacy,67,79,C:/Users/Breena Riley/Desktop/2019 Fall/MultQuant/BR-subject-2.csv,legacy,Kafkaesque Koffka,3.2.8,0,h,NA,NA,s,s,NA,h,449,NA,NA,21125,9791,NA,449,2,legacy,1024,2,48000,-16,experiment,HHHHH,2,even,284516,24099,170983,NA,272725,2965,252814,NA,285591,NA,2974,161191,NA,285692,286143,285588,285692,Flankertask,141,72185,148,yes,1024
95.30201342,95.30201342,487.6040268,487.6040268,black,legacy,legacy,legacy,0,incongruent,uniform,1,undefined,1,h,148,0,0,0,148,0,148,0,148,NA,0,0,0,148,148,148,148,9/21/19 10:11,600,The main experiment item,yes,BR-Flankertask.osexp,C:/Users/Breena Riley/Desktop/2019 Fall/MultQuant/lab 2.1,no,mono,no,18,no,white,no,yes,768,legacy,68,79,C:/Users/Breena Riley/Desktop/2019 Fall/MultQuant/BR-subject-2.csv,legacy,Kafkaesque Koffka,3.2.8,0,h,NA,NA,s,s,NA,h,468,NA,NA,21125,9791,NA,468,2,legacy,1024,2,48000,-16,experiment,SSHSS,2,even,286151,24099,170983,NA,272725,2965,252814,NA,287225,NA,2974,161191,NA,287327,287797,287222,287327,Flankertask,142,72653,149,yes,1024
95.33333333,95.33333333,487.4866667,487.4866667,black,legacy,legacy,legacy,0,incongruent,uniform,1,undefined,1,s,149,0,0,0,149,0,149,0,149,NA,0,0,0,149,149,149,149,9/21/19 10:11,600,The main experiment item,yes,BR-Flankertask.osexp,C:/Users/Breena Riley/Desktop/2019 Fall/MultQuant/lab 2.1,no,mono,no,18,no,white,no,yes,768,legacy,69,79,C:/Users/Breena Riley/Desktop/2019 Fall/MultQuant/BR-subject-2.csv,legacy,Kafkaesque Koffka,3.2.8,0,s,NA,NA,s,s,NA,s,470,NA,NA,21125,9791,NA,470,2,legacy,1024,2,48000,-16,experiment,HHSHH,2,even,287805,24099,170983,NA,272725,2965,252814,NA,288879,NA,2974,161191,NA,288981,289453,288877,288981,Flankertask,143,73123,150,yes,1024
95.36423841,95.36423841,486.9602649,486.9602649,black,legacy,legacy,legacy,0,incongruent,uniform,1,undefined,1,h,150,0,0,0,150,0,150,0,150,NA,0,0,0,150,150,150,150,9/21/19 10:11,600,The main experiment item,yes,BR-Flankertask.osexp,C:/Users/Breena Riley/Desktop/2019 Fall/MultQuant/lab 2.1,no,mono,no,18,no,white,no,yes,768,legacy,70,79,C:/Users/Breena Riley/Desktop/2019 Fall/MultQuant/BR-subject-2.csv,legacy,Kafkaesque Koffka,3.2.8,0,h,NA,NA,s,s,NA,h,408,NA,NA,21125,9791,NA,408,2,legacy,1024,2,48000,-16,experiment,SSHSS,2,even,289462,24099,170983,NA,272725,2965,252814,NA,290535,NA,2974,161191,NA,290636,291046,290533,290636,Flankertask,144,73531,151,yes,1024
94.73684211,94.73684211,486.4868421,486.4868421,black,legacy,legacy,legacy,0,incongruent,uniform,0,undefined,0,h,151,0,0,0,151,0,151,0,151,NA,0,0,0,151,151,151,151,9/21/19 10:11,600,The main experiment item,yes,BR-Flankertask.osexp,C:/Users/Breena Riley/Desktop/2019 Fall/MultQuant/lab 2.1,no,mono,no,18,no,white,no,yes,768,legacy,71,79,C:/Users/Breena Riley/Desktop/2019 Fall/MultQuant/BR-subject-2.csv,legacy,Kafkaesque Koffka,3.2.8,0,s,NA,NA,s,s,NA,s,415,NA,NA,21125,9791,NA,415,2,legacy,1024,2,48000,-16,experiment,SSHSS,2,even,291050,24099,170983,NA,272725,2965,252814,NA,292123,NA,2974,161191,NA,292225,292642,292120,292225,Flankertask,144,73946,152,yes,1024
94.77124183,94.77124183,487.3986928,487.3986928,black,legacy,legacy,legacy,0,incongruent,uniform,1,undefined,1,s,152,0,0,0,152,0,152,0,152,NA,0,0,0,152,152,152,152,9/21/19 10:11,600,The main experiment item,yes,BR-Flankertask.osexp,C:/Users/Breena Riley/Desktop/2019 Fall/MultQuant/lab 2.1,no,mono,no,18,no,white,no,yes,768,legacy,72,79,C:/Users/Breena Riley/Desktop/2019 Fall/MultQuant/BR-subject-2.csv,legacy,Kafkaesque Koffka,3.2.8,0,s,NA,NA,s,s,NA,s,626,NA,NA,21125,9791,NA,626,2,legacy,1024,2,48000,-16,experiment,HHSHH,2,even,293154,24099,170983,NA,292652,2965,252814,NA,294229,NA,2974,161191,NA,294330,294958,294227,294330,Flankertask,145,74572,153,yes,1024
