acc,accuracy,average_response_time,avg_rt,background,canvas_backend,clock_backend,color_backend,compensation,condition,coordinates,correct,correct_Instruction1,correct_Keyboard_Response,correct_response,count_Block1,count_Block2,count_Block3,count_ErrorFeedback,count_Faster,count_Finish,count_Fixation,count_ISI,count_Instruction1,count_Instruction2,count_Instruction3,count_Keyboard_Response,count_Logger,count_Sequence,count_Stimulus,count_experiment,datetime,deadline,description,disable_garbage_collection,experiment_file,experiment_path,font_bold,font_family,font_italic,font_size,font_underline,foreground,form_clicks,fullscreen,height,keyboard_backend,live_row,live_row_Block1,logfile,mouse_backend,opensesame_codename,opensesame_version,repeat_cycle,response,response_Finish,response_Instruction1,response_Instruction2,response_Instruction3,response_Keyboard_Response,response_time,response_time_Finish,response_time_Instruction1,response_time_Instruction2,response_time_Instruction3,response_time_Keyboard_Response,round_decimals,sampler_backend,sound_buf_size,sound_channels,sound_freq,sound_sample_size,start,stimulus,subject_nr,subject_parity,time_Block1,time_Block2,time_Block3,time_ErrorFeedback,time_Faster,time_Finish,time_Fixation,time_ISI,time_Instruction1,time_Instruction2,time_Instruction3,time_Keyboard_Response,time_Logger,time_Sequence,time_Stimulus,time_experiment,title,total_correct,total_response_time,total_responses,uniform_coordinates,width
100,100,615,615,black,legacy,legacy,legacy,0,incongruent,uniform,1,undefined,1,h,0,0,0,0,0,0,0,0,0,0,0,0,0,0,0,0,Fri Sep 27 18:24:14 2019,1500,The main experiment item,yes,FlankerTest.osexp,/Users/Linzi/Desktop,no,mono,no,18,no,white,no,yes,768,legacy,0,0,/Users/Linzi/Desktop/LM-subject-1.csv,legacy,Kafkaesque Koffka,3.2.8,0,h,NA,s,NA,NA,h,615,NA,616,NA,NA,615,2,legacy,1024,2,48000,-16,experiment,SSHSS,1,odd,6648,NA,NA,NA,NA,NA,7005,NA,6008,NA,NA,7136,7756,6967,7135,5976,Flanker Test,1,615,1,yes,1024
100,100,543.5,543.5,black,legacy,legacy,legacy,0,incongruent,uniform,1,undefined,1,h,0,0,0,1,1,0,1,1,0,0,0,1,1,1,1,0,Fri Sep 27 18:24:14 2019,1500,The main experiment item,yes,FlankerTest.osexp,/Users/Linzi/Desktop,no,mono,no,18,no,white,no,yes,768,legacy,1,1,/Users/Linzi/Desktop/LM-subject-1.csv,legacy,Kafkaesque Koffka,3.2.8,0,h,NA,s,NA,NA,h,472,NA,616,NA,NA,472,2,legacy,1024,2,48000,-16,experiment,SSHSS,1,odd,6648,NA,NA,NA,NA,NA,9185,7806,6008,NA,NA,9325,9800,9147,9325,5976,Flanker Test,2,1087,2,yes,1024
100,100,489.6666667,489.6666667,black,legacy,legacy,legacy,0,congruent,uniform,1,undefined,1,s,0,0,0,2,2,0,2,2,0,0,0,2,2,2,2,0,Fri Sep 27 18:24:14 2019,1500,The main experiment item,yes,FlankerTest.osexp,/Users/Linzi/Desktop,no,mono,no,18,no,white,no,yes,768,legacy,2,2,/Users/Linzi/Desktop/LM-subject-1.csv,legacy,Kafkaesque Koffka,3.2.8,0,s,NA,s,NA,NA,s,382,NA,616,NA,NA,382,2,legacy,1024,2,48000,-16,experiment,SSSSS,1,odd,6648,NA,NA,NA,NA,NA,11139,9837,6008,NA,NA,11277,11663,11111,11277,5976,Flanker Test,3,1469,3,yes,1024
100,100,462,462,black,legacy,legacy,legacy,0,congruent,uniform,1,undefined,1,h,0,0,0,3,3,0,3,3,0,0,0,3,3,3,3,0,Fri Sep 27 18:24:14 2019,1500,The main experiment item,yes,FlankerTest.osexp,/Users/Linzi/Desktop,no,mono,no,18,no,white,no,yes,768,legacy,3,3,/Users/Linzi/Desktop/LM-subject-1.csv,legacy,Kafkaesque Koffka,3.2.8,0,h,NA,s,NA,NA,h,379,NA,616,NA,NA,379,2,legacy,1024,2,48000,-16,experiment,HHHHH,1,odd,6648,NA,NA,NA,NA,NA,13172,11696,6008,NA,NA,13309,13692,13120,13308,5976,Flanker Test,4,1848,4,yes,1024
100,100,446.2,446.2,black,legacy,legacy,legacy,0,congruent,uniform,1,undefined,1,h,0,0,0,4,4,0,4,4,0,0,0,4,4,4,4,0,Fri Sep 27 18:24:14 2019,1500,The main experiment item,yes,FlankerTest.osexp,/Users/Linzi/Desktop,no,mono,no,18,no,white,no,yes,768,legacy,4,4,/Users/Linzi/Desktop/LM-subject-1.csv,legacy,Kafkaesque Koffka,3.2.8,0,h,NA,s,NA,NA,h,383,NA,616,NA,NA,383,2,legacy,1024,2,48000,-16,experiment,HHHHH,1,odd,6648,NA,NA,NA,NA,NA,15000,13725,6008,NA,NA,15134,15520,14968,15133,5976,Flanker Test,5,2231,5,yes,1024
83.33333333,83.33333333,436.6666667,436.6666667,black,legacy,legacy,legacy,0,congruent,uniform,0,undefined,0,h,0,0,0,5,5,0,5,5,0,0,0,5,5,5,5,0,Fri Sep 27 18:24:14 2019,1500,The main experiment item,yes,FlankerTest.osexp,/Users/Linzi/Desktop,no,mono,no,18,no,white,no,yes,768,legacy,5,5,/Users/Linzi/Desktop/LM-subject-1.csv,legacy,Kafkaesque Koffka,3.2.8,0,s,NA,s,NA,NA,s,389,NA,616,NA,NA,389,2,legacy,1024,2,48000,-16,experiment,HHHHH,1,odd,6648,NA,NA,NA,NA,NA,16855,15559,6008,NA,NA,16986,17380,16826,16986,5976,Flanker Test,5,2620,6,yes,1024
85.71428571,85.71428571,430.8571429,430.8571429,black,legacy,legacy,legacy,0,incongruent,uniform,1,undefined,1,s,0,0,0,6,6,0,6,6,0,0,0,6,6,6,6,0,Fri Sep 27 18:24:14 2019,1500,The main experiment item,yes,FlankerTest.osexp,/Users/Linzi/Desktop,no,mono,no,18,no,white,no,yes,768,legacy,6,6,/Users/Linzi/Desktop/LM-subject-1.csv,legacy,Kafkaesque Koffka,3.2.8,0,s,NA,s,NA,NA,s,396,NA,616,NA,NA,396,2,legacy,1024,2,48000,-16,experiment,HHSHH,1,odd,6648,NA,NA,17424,NA,NA,19394,17959,6008,NA,NA,19525,19924,19331,19524,5976,Flanker Test,6,3016,7,yes,1024
87.5,87.5,429.375,429.375,black,legacy,legacy,legacy,0,congruent,uniform,1,undefined,1,s,0,0,0,7,7,0,7,7,0,0,0,7,7,7,7,0,Fri Sep 27 18:24:14 2019,1500,The main experiment item,yes,FlankerTest.osexp,/Users/Linzi/Desktop,no,mono,no,18,no,white,no,yes,768,legacy,7,7,/Users/Linzi/Desktop/LM-subject-1.csv,legacy,Kafkaesque Koffka,3.2.8,0,s,NA,s,NA,NA,s,419,NA,616,NA,NA,419,2,legacy,1024,2,48000,-16,experiment,SSSSS,1,odd,6648,NA,NA,17424,NA,NA,21227,19959,6008,NA,NA,21358,21781,21200,21358,5976,Flanker Test,7,3435,8,yes,1024
88.88888889,88.88888889,425.1111111,425.1111111,black,legacy,legacy,legacy,0,incongruent,uniform,1,undefined,1,s,0,0,0,8,8,0,8,8,0,0,0,8,8,8,8,0,Fri Sep 27 18:24:14 2019,1500,The main experiment item,yes,FlankerTest.osexp,/Users/Linzi/Desktop,no,mono,no,18,no,white,no,yes,768,legacy,8,8,/Users/Linzi/Desktop/LM-subject-1.csv,legacy,Kafkaesque Koffka,3.2.8,0,s,NA,s,NA,NA,s,391,NA,616,NA,NA,391,2,legacy,1024,2,48000,-16,experiment,HHSHH,1,odd,6648,NA,NA,17424,NA,NA,23160,21821,6008,NA,NA,23288,23684,23123,23288,5976,Flanker Test,8,3826,9,yes,1024
90,90,425.1,425.1,black,legacy,legacy,legacy,0,congruent,uniform,1,undefined,1,h,0,0,0,9,9,0,9,9,0,0,0,9,9,9,9,0,Fri Sep 27 18:24:14 2019,1500,The main experiment item,yes,FlankerTest.osexp,/Users/Linzi/Desktop,no,mono,no,18,no,white,no,yes,768,legacy,9,9,/Users/Linzi/Desktop/LM-subject-1.csv,legacy,Kafkaesque Koffka,3.2.8,0,h,NA,s,NA,NA,h,425,NA,616,NA,NA,425,2,legacy,1024,2,48000,-16,experiment,HHHHH,1,odd,6648,NA,NA,17424,NA,NA,25000,23729,6008,NA,NA,25126,25555,24973,25126,5976,Flanker Test,9,4251,10,yes,1024
90.90909091,90.90909091,422.0909091,422.0909091,black,legacy,legacy,legacy,0,incongruent,uniform,1,undefined,1,s,0,0,0,10,10,0,10,10,0,0,0,10,10,10,10,0,Fri Sep 27 18:24:14 2019,1500,The main experiment item,yes,FlankerTest.osexp,/Users/Linzi/Desktop,no,mono,no,18,no,white,no,yes,768,legacy,10,10,/Users/Linzi/Desktop/LM-subject-1.csv,legacy,Kafkaesque Koffka,3.2.8,0,s,NA,s,NA,NA,s,392,NA,616,NA,NA,392,2,legacy,1024,2,48000,-16,experiment,HHSHH,1,odd,6648,NA,NA,17424,NA,NA,26849,25586,6008,NA,NA,26975,27371,26823,26975,5976,Flanker Test,10,4643,11,yes,1024
91.66666667,91.66666667,418.75,418.75,black,legacy,legacy,legacy,0,congruent,uniform,1,undefined,1,s,0,0,0,11,11,0,11,11,0,0,0,11,11,11,11,0,Fri Sep 27 18:24:14 2019,1500,The main experiment item,yes,FlankerTest.osexp,/Users/Linzi/Desktop,no,mono,no,18,no,white,no,yes,768,legacy,11,11,/Users/Linzi/Desktop/LM-subject-1.csv,legacy,Kafkaesque Koffka,3.2.8,0,s,NA,s,NA,NA,s,382,NA,616,NA,NA,382,2,legacy,1024,2,48000,-16,experiment,SSSSS,1,odd,6648,NA,NA,17424,NA,NA,28691,27402,6008,NA,NA,28824,29210,28663,28824,5976,Flanker Test,11,5025,12,yes,1024
92.30769231,92.30769231,416.0769231,416.0769231,black,legacy,legacy,legacy,0,congruent,uniform,1,undefined,1,s,0,0,0,12,12,0,12,12,0,0,0,12,12,12,12,0,Fri Sep 27 18:24:14 2019,1500,The main experiment item,yes,FlankerTest.osexp,/Users/Linzi/Desktop,no,mono,no,18,no,white,no,yes,768,legacy,12,12,/Users/Linzi/Desktop/LM-subject-1.csv,legacy,Kafkaesque Koffka,3.2.8,0,s,NA,s,NA,NA,s,384,NA,616,NA,NA,384,2,legacy,1024,2,48000,-16,experiment,SSSSS,1,odd,6648,NA,NA,17424,NA,NA,30508,29242,6008,NA,NA,30634,31023,30481,30634,5976,Flanker Test,12,5409,13,yes,1024
92.85714286,92.85714286,414.9285714,414.9285714,black,legacy,legacy,legacy,0,incongruent,uniform,1,undefined,1,h,0,0,0,13,13,0,13,13,0,0,0,13,13,13,13,0,Fri Sep 27 18:24:14 2019,1500,The main experiment item,yes,FlankerTest.osexp,/Users/Linzi/Desktop,no,mono,no,18,no,white,no,yes,768,legacy,13,13,/Users/Linzi/Desktop/LM-subject-1.csv,legacy,Kafkaesque Koffka,3.2.8,0,h,NA,s,NA,NA,h,400,NA,616,NA,NA,400,2,legacy,1024,2,48000,-16,experiment,SSHSS,1,odd,6648,NA,NA,17424,NA,NA,32316,31056,6008,NA,NA,32442,32845,32289,32442,5976,Flanker Test,13,5809,14,yes,1024
86.66666667,86.66666667,416.2666667,416.2666667,black,legacy,legacy,legacy,0,incongruent,uniform,0,undefined,0,h,0,0,0,14,14,0,14,14,0,0,0,14,14,14,14,0,Fri Sep 27 18:24:14 2019,1500,The main experiment item,yes,FlankerTest.osexp,/Users/Linzi/Desktop,no,mono,no,18,no,white,no,yes,768,legacy,14,14,/Users/Linzi/Desktop/LM-subject-1.csv,legacy,Kafkaesque Koffka,3.2.8,0,s,NA,s,NA,NA,s,435,NA,616,NA,NA,435,2,legacy,1024,2,48000,-16,experiment,SSHSS,1,odd,6648,NA,NA,17424,NA,NA,34136,32877,6008,NA,NA,34263,34702,34108,34262,5976,Flanker Test,13,6244,15,yes,1024
87.5,87.5,418.875,418.875,black,legacy,legacy,legacy,0,incongruent,uniform,1,undefined,1,h,0,0,0,15,15,0,15,15,0,0,0,15,15,15,15,0,Fri Sep 27 18:24:14 2019,1500,The main experiment item,yes,FlankerTest.osexp,/Users/Linzi/Desktop,no,mono,no,18,no,white,no,yes,768,legacy,15,15,/Users/Linzi/Desktop/LM-subject-1.csv,legacy,Kafkaesque Koffka,3.2.8,0,h,NA,s,NA,NA,h,458,NA,616,NA,NA,458,2,legacy,1024,2,48000,-16,experiment,SSHSS,1,odd,6648,NA,NA,34737,NA,NA,36522,35263,6008,NA,NA,36649,37110,36496,36649,5976,Flanker Test,14,6702,16,yes,1024
88.23529412,88.23529412,421.1764706,421.1764706,black,legacy,legacy,legacy,0,congruent,uniform,1,undefined,1,h,0,0,0,16,16,0,16,16,0,0,0,16,16,16,16,0,Fri Sep 27 18:24:14 2019,1500,The main experiment item,yes,FlankerTest.osexp,/Users/Linzi/Desktop,no,mono,no,18,no,white,no,yes,768,legacy,16,16,/Users/Linzi/Desktop/LM-subject-1.csv,legacy,Kafkaesque Koffka,3.2.8,0,h,NA,s,NA,NA,h,458,NA,616,NA,NA,458,2,legacy,1024,2,48000,-16,experiment,HHHHH,1,odd,6648,NA,NA,34737,NA,NA,38409,37142,6008,NA,NA,38535,38996,38379,38534,5976,Flanker Test,15,7160,17,yes,1024
88.88888889,88.88888889,421.7777778,421.7777778,black,legacy,legacy,legacy,0,congruent,uniform,1,undefined,1,s,0,0,0,17,17,0,17,17,0,0,0,17,17,17,17,0,Fri Sep 27 18:24:14 2019,1500,The main experiment item,yes,FlankerTest.osexp,/Users/Linzi/Desktop,no,mono,no,18,no,white,no,yes,768,legacy,17,17,/Users/Linzi/Desktop/LM-subject-1.csv,legacy,Kafkaesque Koffka,3.2.8,0,s,NA,s,NA,NA,s,432,NA,616,NA,NA,432,2,legacy,1024,2,48000,-16,experiment,SSSSS,1,odd,6648,NA,NA,34737,NA,NA,40285,39028,6008,NA,NA,40411,40847,40258,40411,5976,Flanker Test,16,7592,18,yes,1024
89.47368421,89.47368421,423.1578947,423.1578947,black,legacy,legacy,legacy,0,congruent,uniform,1,undefined,1,s,0,0,0,18,18,0,18,18,0,0,0,18,18,18,18,0,Fri Sep 27 18:24:14 2019,1500,The main experiment item,yes,FlankerTest.osexp,/Users/Linzi/Desktop,no,mono,no,18,no,white,no,yes,768,legacy,18,18,/Users/Linzi/Desktop/LM-subject-1.csv,legacy,Kafkaesque Koffka,3.2.8,0,s,NA,s,NA,NA,s,448,NA,616,NA,NA,448,2,legacy,1024,2,48000,-16,experiment,SSSSS,1,odd,6648,NA,NA,34737,NA,NA,42141,40878,6008,NA,NA,42267,42719,42112,42266,5976,Flanker Test,17,8040,19,yes,1024
90,90,430.15,430.15,black,legacy,legacy,legacy,0,incongruent,uniform,1,undefined,1,s,0,0,0,19,19,0,19,19,0,0,0,19,19,19,19,0,Fri Sep 27 18:24:14 2019,1500,The main experiment item,yes,FlankerTest.osexp,/Users/Linzi/Desktop,no,mono,no,18,no,white,no,yes,768,legacy,19,19,/Users/Linzi/Desktop/LM-subject-1.csv,legacy,Kafkaesque Koffka,3.2.8,0,s,NA,s,NA,NA,s,563,NA,616,NA,NA,563,2,legacy,1024,2,48000,-16,experiment,HHSHH,1,odd,6648,NA,NA,34737,NA,NA,44013,42750,6008,NA,NA,44140,44706,43987,44139,5976,Flanker Test,18,8603,20,yes,1024
90.47619048,90.47619048,429.7619048,429.7619048,black,legacy,legacy,legacy,0,congruent,uniform,1,undefined,1,h,0,0,0,20,20,0,20,20,0,0,0,20,20,20,20,0,Fri Sep 27 18:24:14 2019,1500,The main experiment item,yes,FlankerTest.osexp,/Users/Linzi/Desktop,no,mono,no,18,no,white,no,yes,768,legacy,20,20,/Users/Linzi/Desktop/LM-subject-1.csv,legacy,Kafkaesque Koffka,3.2.8,0,h,NA,s,NA,NA,h,422,NA,616,NA,NA,422,2,legacy,1024,2,48000,-16,experiment,HHHHH,1,odd,6648,NA,NA,34737,NA,NA,45999,44738,6008,NA,NA,46125,46550,45973,46125,5976,Flanker Test,19,9025,21,yes,1024
90.90909091,90.90909091,428.0454545,428.0454545,black,legacy,legacy,legacy,0,congruent,uniform,1,undefined,1,s,0,0,0,21,21,0,21,21,0,0,0,21,21,21,21,0,Fri Sep 27 18:24:14 2019,1500,The main experiment item,yes,FlankerTest.osexp,/Users/Linzi/Desktop,no,mono,no,18,no,white,no,yes,768,legacy,21,21,/Users/Linzi/Desktop/LM-subject-1.csv,legacy,Kafkaesque Koffka,3.2.8,0,s,NA,s,NA,NA,s,392,NA,616,NA,NA,392,2,legacy,1024,2,48000,-16,experiment,SSSSS,1,odd,6648,NA,NA,34737,NA,NA,47840,46582,6008,NA,NA,47966,48363,47813,47966,5976,Flanker Test,20,9417,22,yes,1024
91.30434783,91.30434783,435.7391304,435.7391304,black,legacy,legacy,legacy,0,incongruent,uniform,1,undefined,1,s,0,0,0,22,22,0,22,22,0,0,0,22,22,22,22,0,Fri Sep 27 18:24:14 2019,1500,The main experiment item,yes,FlankerTest.osexp,/Users/Linzi/Desktop,no,mono,no,18,no,white,no,yes,768,legacy,22,22,/Users/Linzi/Desktop/LM-subject-1.csv,legacy,Kafkaesque Koffka,3.2.8,0,s,NA,s,NA,NA,s,605,NA,616,NA,NA,605,2,legacy,1024,2,48000,-16,experiment,HHSHH,1,odd,6648,NA,NA,34737,NA,NA,49652,48394,6008,NA,NA,49779,50387,49626,49779,5976,Flanker Test,21,10022,23,yes,1024
91.66666667,91.66666667,437.6666667,437.6666667,black,legacy,legacy,legacy,0,incongruent,uniform,1,undefined,1,s,0,0,0,23,23,0,23,23,0,0,0,23,23,23,23,0,Fri Sep 27 18:24:14 2019,1500,The main experiment item,yes,FlankerTest.osexp,/Users/Linzi/Desktop,no,mono,no,18,no,white,no,yes,768,legacy,23,23,/Users/Linzi/Desktop/LM-subject-1.csv,legacy,Kafkaesque Koffka,3.2.8,0,s,NA,s,NA,NA,s,482,NA,616,NA,NA,482,2,legacy,1024,2,48000,-16,experiment,HHSHH,1,odd,6648,NA,NA,34737,NA,NA,51680,50419,6008,NA,NA,51806,52292,51653,51806,5976,Flanker Test,22,10504,24,yes,1024
88,88,436.64,436.64,black,legacy,legacy,legacy,0,incongruent,uniform,0,undefined,0,h,0,0,0,24,24,0,24,24,0,0,0,24,24,24,24,0,Fri Sep 27 18:24:14 2019,1500,The main experiment item,yes,FlankerTest.osexp,/Users/Linzi/Desktop,no,mono,no,18,no,white,no,yes,768,legacy,24,24,/Users/Linzi/Desktop/LM-subject-1.csv,legacy,Kafkaesque Koffka,3.2.8,0,s,NA,s,NA,NA,s,412,NA,616,NA,NA,412,2,legacy,1024,2,48000,-16,experiment,SSHSS,1,odd,6648,NA,NA,34737,NA,NA,53586,52324,6008,NA,NA,53713,54129,53557,53712,5976,Flanker Test,22,10916,25,yes,1024
88.46153846,88.46153846,437.5384615,437.5384615,black,legacy,legacy,legacy,0,congruent,uniform,1,undefined,1,h,0,0,0,25,25,0,25,25,0,0,0,25,25,25,25,0,Fri Sep 27 18:24:14 2019,1500,The main experiment item,yes,FlankerTest.osexp,/Users/Linzi/Desktop,no,mono,no,18,no,white,no,yes,768,legacy,25,25,/Users/Linzi/Desktop/LM-subject-1.csv,legacy,Kafkaesque Koffka,3.2.8,0,h,NA,s,NA,NA,h,460,NA,616,NA,NA,460,2,legacy,1024,2,48000,-16,experiment,HHHHH,1,odd,6648,NA,NA,54160,NA,NA,55951,54690,6008,NA,NA,56077,56541,55925,56077,5976,Flanker Test,23,11376,26,yes,1024
88.88888889,88.88888889,437.4074074,437.4074074,black,legacy,legacy,legacy,0,congruent,uniform,1,undefined,1,s,0,0,0,26,26,0,26,26,0,0,0,26,26,26,26,0,Fri Sep 27 18:24:14 2019,1500,The main experiment item,yes,FlankerTest.osexp,/Users/Linzi/Desktop,no,mono,no,18,no,white,no,yes,768,legacy,26,26,/Users/Linzi/Desktop/LM-subject-1.csv,legacy,Kafkaesque Koffka,3.2.8,0,s,NA,s,NA,NA,s,434,NA,616,NA,NA,434,2,legacy,1024,2,48000,-16,experiment,SSSSS,1,odd,6648,NA,NA,54160,NA,NA,57832,56573,6008,NA,NA,57958,58396,57805,57958,5976,Flanker Test,24,11810,27,yes,1024
89.28571429,89.28571429,438.0357143,438.0357143,black,legacy,legacy,legacy,0,congruent,uniform,1,undefined,1,h,0,0,0,27,27,0,27,27,0,0,0,27,27,27,27,0,Fri Sep 27 18:24:14 2019,1500,The main experiment item,yes,FlankerTest.osexp,/Users/Linzi/Desktop,no,mono,no,18,no,white,no,yes,768,legacy,27,27,/Users/Linzi/Desktop/LM-subject-1.csv,legacy,Kafkaesque Koffka,3.2.8,0,h,NA,s,NA,NA,h,455,NA,616,NA,NA,455,2,legacy,1024,2,48000,-16,experiment,HHHHH,1,odd,6648,NA,NA,54160,NA,NA,59688,58428,6008,NA,NA,59815,60274,59662,59815,5976,Flanker Test,25,12265,28,yes,1024
89.65517241,89.65517241,436.8275862,436.8275862,black,legacy,legacy,legacy,0,incongruent,uniform,1,undefined,1,s,0,0,0,28,28,0,28,28,0,0,0,28,28,28,28,0,Fri Sep 27 18:24:14 2019,1500,The main experiment item,yes,FlankerTest.osexp,/Users/Linzi/Desktop,no,mono,no,18,no,white,no,yes,768,legacy,28,28,/Users/Linzi/Desktop/LM-subject-1.csv,legacy,Kafkaesque Koffka,3.2.8,0,s,NA,s,NA,NA,s,403,NA,616,NA,NA,403,2,legacy,1024,2,48000,-16,experiment,HHSHH,1,odd,6648,NA,NA,54160,NA,NA,61569,60306,6008,NA,NA,61696,62104,61542,61695,5976,Flanker Test,26,12668,29,yes,1024
90,90,438.6666667,438.6666667,black,legacy,legacy,legacy,0,incongruent,uniform,1,undefined,1,s,0,0,0,29,29,0,29,29,0,0,0,29,29,29,29,0,Fri Sep 27 18:24:14 2019,1500,The main experiment item,yes,FlankerTest.osexp,/Users/Linzi/Desktop,no,mono,no,18,no,white,no,yes,768,legacy,29,29,/Users/Linzi/Desktop/LM-subject-1.csv,legacy,Kafkaesque Koffka,3.2.8,0,s,NA,s,NA,NA,s,492,NA,616,NA,NA,492,2,legacy,1024,2,48000,-16,experiment,HHSHH,1,odd,6648,NA,NA,54160,NA,NA,63396,62135,6008,NA,NA,63523,64020,63369,63522,5976,Flanker Test,27,13160,30,yes,1024
90.32258065,90.32258065,438.6129032,438.6129032,black,legacy,legacy,legacy,0,congruent,uniform,1,undefined,1,h,0,0,0,30,30,0,30,30,0,0,0,30,30,30,30,0,Fri Sep 27 18:24:14 2019,1500,The main experiment item,yes,FlankerTest.osexp,/Users/Linzi/Desktop,no,mono,no,18,no,white,no,yes,768,legacy,30,30,/Users/Linzi/Desktop/LM-subject-1.csv,legacy,Kafkaesque Koffka,3.2.8,0,h,NA,s,NA,NA,h,437,NA,616,NA,NA,437,2,legacy,1024,2,48000,-16,experiment,HHHHH,1,odd,6648,NA,NA,54160,NA,NA,65312,64051,6008,NA,NA,65439,65881,65286,65439,5976,Flanker Test,28,13597,31,yes,1024
90.625,90.625,439.5,439.5,black,legacy,legacy,legacy,0,incongruent,uniform,1,undefined,1,h,0,0,0,31,31,0,31,31,0,0,0,31,31,31,31,0,Fri Sep 27 18:24:14 2019,1500,The main experiment item,yes,FlankerTest.osexp,/Users/Linzi/Desktop,no,mono,no,18,no,white,no,yes,768,legacy,31,31,/Users/Linzi/Desktop/LM-subject-1.csv,legacy,Kafkaesque Koffka,3.2.8,0,h,NA,s,NA,NA,h,467,NA,616,NA,NA,467,2,legacy,1024,2,48000,-16,experiment,SSHSS,1,odd,6648,NA,NA,54160,NA,NA,67169,65912,6008,NA,NA,67295,67766,67142,67295,5976,Flanker Test,29,14064,32,yes,1024
90.90909091,90.90909091,441.4848485,441.4848485,black,legacy,legacy,legacy,0,incongruent,uniform,1,undefined,1,s,0,0,0,32,32,0,32,32,0,0,0,32,32,32,32,0,Fri Sep 27 18:24:14 2019,1500,The main experiment item,yes,FlankerTest.osexp,/Users/Linzi/Desktop,no,mono,no,18,no,white,no,yes,768,legacy,32,32,/Users/Linzi/Desktop/LM-subject-1.csv,legacy,Kafkaesque Koffka,3.2.8,0,s,NA,s,NA,NA,s,505,NA,616,NA,NA,505,2,legacy,1024,2,48000,-16,experiment,HHSHH,1,odd,6648,NA,NA,54160,NA,NA,69057,67798,6008,NA,NA,69183,69692,69031,69183,5976,Flanker Test,30,14569,33,yes,1024
91.17647059,91.17647059,441.0882353,441.0882353,black,legacy,legacy,legacy,0,congruent,uniform,1,undefined,1,h,0,0,0,33,33,0,33,33,0,0,0,33,33,33,33,0,Fri Sep 27 18:24:14 2019,1500,The main experiment item,yes,FlankerTest.osexp,/Users/Linzi/Desktop,no,mono,no,18,no,white,no,yes,768,legacy,33,33,/Users/Linzi/Desktop/LM-subject-1.csv,legacy,Kafkaesque Koffka,3.2.8,0,h,NA,s,NA,NA,h,428,NA,616,NA,NA,428,2,legacy,1024,2,48000,-16,experiment,HHHHH,1,odd,6648,NA,NA,54160,NA,NA,70985,69724,6008,NA,NA,71111,71543,70958,71111,5976,Flanker Test,31,14997,34,yes,1024
91.42857143,91.42857143,441.4285714,441.4285714,black,legacy,legacy,legacy,0,congruent,uniform,1,undefined,1,s,0,0,0,34,34,0,34,34,0,0,0,34,34,34,34,0,Fri Sep 27 18:24:14 2019,1500,The main experiment item,yes,FlankerTest.osexp,/Users/Linzi/Desktop,no,mono,no,18,no,white,no,yes,768,legacy,34,34,/Users/Linzi/Desktop/LM-subject-1.csv,legacy,Kafkaesque Koffka,3.2.8,0,s,NA,s,NA,NA,s,453,NA,616,NA,NA,453,2,legacy,1024,2,48000,-16,experiment,SSSSS,1,odd,6648,NA,NA,54160,NA,NA,72833,71575,6008,NA,NA,72959,73416,72807,72959,5976,Flanker Test,32,15450,35,yes,1024
91.66666667,91.66666667,441.8888889,441.8888889,black,legacy,legacy,legacy,0,congruent,uniform,1,undefined,1,h,0,0,0,35,35,0,35,35,0,0,0,35,35,35,35,0,Fri Sep 27 18:24:14 2019,1500,The main experiment item,yes,FlankerTest.osexp,/Users/Linzi/Desktop,no,mono,no,18,no,white,no,yes,768,legacy,35,35,/Users/Linzi/Desktop/LM-subject-1.csv,legacy,Kafkaesque Koffka,3.2.8,0,h,NA,s,NA,NA,h,458,NA,616,NA,NA,458,2,legacy,1024,2,48000,-16,experiment,HHHHH,1,odd,6648,NA,NA,54160,NA,NA,74707,73447,6008,NA,NA,74833,75295,74680,74833,5976,Flanker Test,33,15908,36,yes,1024
91.89189189,91.89189189,441.3513514,441.3513514,black,legacy,legacy,legacy,0,congruent,uniform,1,undefined,1,s,0,0,0,36,36,0,36,36,0,0,0,36,36,36,36,0,Fri Sep 27 18:24:14 2019,1500,The main experiment item,yes,FlankerTest.osexp,/Users/Linzi/Desktop,no,mono,no,18,no,white,no,yes,768,legacy,36,36,/Users/Linzi/Desktop/LM-subject-1.csv,legacy,Kafkaesque Koffka,3.2.8,0,s,NA,s,NA,NA,s,422,NA,616,NA,NA,422,2,legacy,1024,2,48000,-16,experiment,SSSSS,1,odd,6648,NA,NA,54160,NA,NA,76586,75326,6008,NA,NA,76713,77139,76559,76712,5976,Flanker Test,34,16330,37,yes,1024
92.10526316,92.10526316,443.4210526,443.4210526,black,legacy,legacy,legacy,0,incongruent,uniform,1,undefined,1,s,0,0,0,37,37,0,37,37,0,0,0,37,37,37,37,0,Fri Sep 27 18:24:14 2019,1500,The main experiment item,yes,FlankerTest.osexp,/Users/Linzi/Desktop,no,mono,no,18,no,white,no,yes,768,legacy,37,37,/Users/Linzi/Desktop/LM-subject-1.csv,legacy,Kafkaesque Koffka,3.2.8,0,s,NA,s,NA,NA,s,520,NA,616,NA,NA,520,2,legacy,1024,2,48000,-16,experiment,HHSHH,1,odd,6648,NA,NA,54160,NA,NA,78432,77171,6008,NA,NA,78558,79082,78405,78558,5976,Flanker Test,35,16850,38,yes,1024
89.74358974,89.74358974,443.2051282,443.2051282,black,legacy,legacy,legacy,0,incongruent,uniform,0,undefined,0,s,0,0,0,38,38,0,38,38,0,0,0,38,38,38,38,0,Fri Sep 27 18:24:14 2019,1500,The main experiment item,yes,FlankerTest.osexp,/Users/Linzi/Desktop,no,mono,no,18,no,white,no,yes,768,legacy,38,38,/Users/Linzi/Desktop/LM-subject-1.csv,legacy,Kafkaesque Koffka,3.2.8,0,h,NA,s,NA,NA,h,435,NA,616,NA,NA,435,2,legacy,1024,2,48000,-16,experiment,HHSHH,1,odd,6648,NA,NA,54160,NA,NA,80375,79113,6008,NA,NA,80501,80940,80349,80501,5976,Flanker Test,35,17285,39,yes,1024
90,90,448.325,448.325,black,legacy,legacy,legacy,0,incongruent,uniform,1,undefined,1,h,0,0,0,39,39,0,39,39,0,0,0,39,39,39,39,0,Fri Sep 27 18:24:14 2019,1500,The main experiment item,yes,FlankerTest.osexp,/Users/Linzi/Desktop,no,mono,no,18,no,white,no,yes,768,legacy,39,39,/Users/Linzi/Desktop/LM-subject-1.csv,legacy,Kafkaesque Koffka,3.2.8,0,h,NA,s,NA,NA,h,648,NA,616,NA,NA,648,2,legacy,1024,2,48000,-16,experiment,SSHSS,1,odd,6648,NA,NA,80971,NA,NA,82755,81498,6008,NA,NA,82881,83533,82728,82881,5976,Flanker Test,36,17933,40,yes,1024
90.24390244,90.24390244,449.2926829,449.2926829,black,legacy,legacy,legacy,0,incongruent,uniform,1,undefined,1,h,0,0,0,40,40,0,40,40,0,0,0,40,40,40,40,0,Fri Sep 27 18:24:14 2019,1500,The main experiment item,yes,FlankerTest.osexp,/Users/Linzi/Desktop,no,mono,no,18,no,white,no,yes,768,legacy,40,40,/Users/Linzi/Desktop/LM-subject-1.csv,legacy,Kafkaesque Koffka,3.2.8,0,h,NA,s,NA,NA,h,488,NA,616,NA,NA,488,2,legacy,1024,2,48000,-16,experiment,SSHSS,1,odd,6648,NA,NA,80971,NA,NA,84823,83565,6008,NA,NA,84950,85442,84797,84949,5976,Flanker Test,37,18421,41,yes,1024
90.47619048,90.47619048,449.2619048,449.2619048,black,legacy,legacy,legacy,0,congruent,uniform,1,undefined,1,s,0,0,0,41,41,0,41,41,0,0,0,41,41,41,41,0,Fri Sep 27 18:24:14 2019,1500,The main experiment item,yes,FlankerTest.osexp,/Users/Linzi/Desktop,no,mono,no,18,no,white,no,yes,768,legacy,41,41,/Users/Linzi/Desktop/LM-subject-1.csv,legacy,Kafkaesque Koffka,3.2.8,0,s,NA,s,NA,NA,s,448,NA,616,NA,NA,448,2,legacy,1024,2,48000,-16,experiment,SSSSS,1,odd,6648,NA,NA,80971,NA,NA,86732,85474,6008,NA,NA,86858,87310,86705,86857,5976,Flanker Test,38,18869,42,yes,1024
90.69767442,90.69767442,450.3023256,450.3023256,black,legacy,legacy,legacy,0,incongruent,uniform,1,undefined,1,s,0,0,0,42,42,0,42,42,0,0,0,42,42,42,42,0,Fri Sep 27 18:24:14 2019,1500,The main experiment item,yes,FlankerTest.osexp,/Users/Linzi/Desktop,no,mono,no,18,no,white,no,yes,768,legacy,42,42,/Users/Linzi/Desktop/LM-subject-1.csv,legacy,Kafkaesque Koffka,3.2.8,0,s,NA,s,NA,NA,s,494,NA,616,NA,NA,494,2,legacy,1024,2,48000,-16,experiment,HHSHH,1,odd,6648,NA,NA,80971,NA,NA,88603,87343,6008,NA,NA,88730,89228,88577,88730,5976,Flanker Test,39,19363,43,yes,1024
90.90909091,90.90909091,450.3636364,450.3636364,black,legacy,legacy,legacy,0,incongruent,uniform,1,undefined,1,s,0,0,0,43,43,0,43,43,0,0,0,43,43,43,43,0,Fri Sep 27 18:24:14 2019,1500,The main experiment item,yes,FlankerTest.osexp,/Users/Linzi/Desktop,no,mono,no,18,no,white,no,yes,768,legacy,43,43,/Users/Linzi/Desktop/LM-subject-1.csv,legacy,Kafkaesque Koffka,3.2.8,0,s,NA,s,NA,NA,s,453,NA,616,NA,NA,453,2,legacy,1024,2,48000,-16,experiment,HHSHH,1,odd,6648,NA,NA,80971,NA,NA,90519,89260,6008,NA,NA,90646,91104,90492,90646,5976,Flanker Test,40,19816,44,yes,1024
91.11111111,91.11111111,449.0666667,449.0666667,black,legacy,legacy,legacy,0,congruent,uniform,1,undefined,1,s,0,0,0,44,44,0,44,44,0,0,0,44,44,44,44,0,Fri Sep 27 18:24:14 2019,1500,The main experiment item,yes,FlankerTest.osexp,/Users/Linzi/Desktop,no,mono,no,18,no,white,no,yes,768,legacy,44,44,/Users/Linzi/Desktop/LM-subject-1.csv,legacy,Kafkaesque Koffka,3.2.8,0,s,NA,s,NA,NA,s,392,NA,616,NA,NA,392,2,legacy,1024,2,48000,-16,experiment,SSSSS,1,odd,6648,NA,NA,80971,NA,NA,92394,91136,6008,NA,NA,92520,92917,92368,92520,5976,Flanker Test,41,20208,45,yes,1024
91.30434783,91.30434783,449.5217391,449.5217391,black,legacy,legacy,legacy,0,congruent,uniform,1,undefined,1,h,0,0,0,45,45,0,45,45,0,0,0,45,45,45,45,0,Fri Sep 27 18:24:14 2019,1500,The main experiment item,yes,FlankerTest.osexp,/Users/Linzi/Desktop,no,mono,no,18,no,white,no,yes,768,legacy,45,45,/Users/Linzi/Desktop/LM-subject-1.csv,legacy,Kafkaesque Koffka,3.2.8,0,h,NA,s,NA,NA,h,470,NA,616,NA,NA,470,2,legacy,1024,2,48000,-16,experiment,HHHHH,1,odd,6648,NA,NA,80971,NA,NA,94207,92948,6008,NA,NA,94334,94809,94181,94334,5976,Flanker Test,42,20678,46,yes,1024
91.4893617,91.4893617,448.6595745,448.6595745,black,legacy,legacy,legacy,0,congruent,uniform,1,undefined,1,h,0,0,0,46,46,0,46,46,0,0,0,46,46,46,46,0,Fri Sep 27 18:24:14 2019,1500,The main experiment item,yes,FlankerTest.osexp,/Users/Linzi/Desktop,no,mono,no,18,no,white,no,yes,768,legacy,46,46,/Users/Linzi/Desktop/LM-subject-1.csv,legacy,Kafkaesque Koffka,3.2.8,0,h,NA,s,NA,NA,h,409,NA,616,NA,NA,409,2,legacy,1024,2,48000,-16,experiment,HHHHH,1,odd,6648,NA,NA,80971,NA,NA,96099,94840,6008,NA,NA,96225,96639,96072,96224,5976,Flanker Test,43,21087,47,yes,1024
89.58333333,89.58333333,447.4375,447.4375,black,legacy,legacy,legacy,0,incongruent,uniform,0,undefined,0,h,0,0,0,47,47,0,47,47,0,0,0,47,47,47,47,0,Fri Sep 27 18:24:14 2019,1500,The main experiment item,yes,FlankerTest.osexp,/Users/Linzi/Desktop,no,mono,no,18,no,white,no,yes,768,legacy,47,47,/Users/Linzi/Desktop/LM-subject-1.csv,legacy,Kafkaesque Koffka,3.2.8,0,s,NA,s,NA,NA,s,390,NA,616,NA,NA,390,2,legacy,1024,2,48000,-16,experiment,SSHSS,1,odd,6648,NA,NA,80971,NA,NA,97927,96670,6008,NA,NA,98054,98449,97900,98053,5976,Flanker Test,43,21477,48,yes,1024
89.79591837,89.79591837,447.4897959,447.4897959,black,legacy,legacy,legacy,0,incongruent,uniform,1,undefined,1,s,0,0,0,48,48,0,48,48,0,0,0,48,48,48,48,0,Fri Sep 27 18:24:14 2019,1500,The main experiment item,yes,FlankerTest.osexp,/Users/Linzi/Desktop,no,mono,no,18,no,white,no,yes,768,legacy,48,48,/Users/Linzi/Desktop/LM-subject-1.csv,legacy,Kafkaesque Koffka,3.2.8,0,s,NA,s,NA,NA,s,450,NA,616,NA,NA,450,2,legacy,1024,2,48000,-16,experiment,HHSHH,1,odd,6648,NA,NA,98481,NA,NA,100271,99008,6008,NA,NA,100398,100853,100245,100398,5976,Flanker Test,44,21927,49,yes,1024
90,90,445.52,445.52,black,legacy,legacy,legacy,0,congruent,uniform,1,undefined,1,h,0,0,0,49,49,0,49,49,0,0,0,49,49,49,49,0,Fri Sep 27 18:24:14 2019,1500,The main experiment item,yes,FlankerTest.osexp,/Users/Linzi/Desktop,no,mono,no,18,no,white,no,yes,768,legacy,49,49,/Users/Linzi/Desktop/LM-subject-1.csv,legacy,Kafkaesque Koffka,3.2.8,0,h,NA,s,NA,NA,h,349,NA,616,NA,NA,349,2,legacy,1024,2,48000,-16,experiment,HHHHH,1,odd,6648,NA,NA,98481,NA,NA,102145,100885,6008,NA,NA,102271,102624,102119,102271,5976,Flanker Test,45,22276,50,yes,1024
90.19607843,90.19607843,444,444,black,legacy,legacy,legacy,0,incongruent,uniform,1,undefined,1,h,0,0,0,50,50,0,50,50,0,0,0,50,50,50,50,0,Fri Sep 27 18:24:14 2019,1500,The main experiment item,yes,FlankerTest.osexp,/Users/Linzi/Desktop,no,mono,no,18,no,white,no,yes,768,legacy,50,50,/Users/Linzi/Desktop/LM-subject-1.csv,legacy,Kafkaesque Koffka,3.2.8,0,h,NA,s,NA,NA,h,368,NA,616,NA,NA,368,2,legacy,1024,2,48000,-16,experiment,SSHSS,1,odd,6648,NA,NA,98481,NA,NA,103917,102656,6008,NA,NA,104044,104417,103891,104044,5976,Flanker Test,46,22644,51,yes,1024
90.38461538,90.38461538,446.1153846,446.1153846,black,legacy,legacy,legacy,0,incongruent,uniform,1,undefined,1,h,0,0,0,51,51,0,51,51,0,0,0,51,51,51,51,0,Fri Sep 27 18:24:14 2019,1500,The main experiment item,yes,FlankerTest.osexp,/Users/Linzi/Desktop,no,mono,no,18,no,white,no,yes,768,legacy,51,51,/Users/Linzi/Desktop/LM-subject-1.csv,legacy,Kafkaesque Koffka,3.2.8,0,h,NA,s,NA,NA,h,554,NA,616,NA,NA,554,2,legacy,1024,2,48000,-16,experiment,SSHSS,1,odd,6648,NA,NA,98481,NA,NA,105707,104448,6008,NA,NA,105833,106392,105681,105833,5976,Flanker Test,47,23198,52,yes,1024
90.56603774,90.56603774,446.3207547,446.3207547,black,legacy,legacy,legacy,0,congruent,uniform,1,undefined,1,s,0,0,0,52,52,0,52,52,0,0,0,52,52,52,52,0,Fri Sep 27 18:24:14 2019,1500,The main experiment item,yes,FlankerTest.osexp,/Users/Linzi/Desktop,no,mono,no,18,no,white,no,yes,768,legacy,52,52,/Users/Linzi/Desktop/LM-subject-1.csv,legacy,Kafkaesque Koffka,3.2.8,0,s,NA,s,NA,NA,s,457,NA,616,NA,NA,457,2,legacy,1024,2,48000,-16,experiment,SSSSS,1,odd,6648,NA,NA,98481,NA,NA,107686,106423,6008,NA,NA,107812,108274,107659,107811,5976,Flanker Test,48,23655,53,yes,1024
88.88888889,88.88888889,446.8703704,446.8703704,black,legacy,legacy,legacy,0,incongruent,uniform,0,undefined,0,s,0,0,0,53,53,0,53,53,0,0,0,53,53,53,53,0,Fri Sep 27 18:24:14 2019,1500,The main experiment item,yes,FlankerTest.osexp,/Users/Linzi/Desktop,no,mono,no,18,no,white,no,yes,768,legacy,53,53,/Users/Linzi/Desktop/LM-subject-1.csv,legacy,Kafkaesque Koffka,3.2.8,0,h,NA,s,NA,NA,h,476,NA,616,NA,NA,476,2,legacy,1024,2,48000,-16,experiment,HHSHH,1,odd,6648,NA,NA,98481,NA,NA,109565,108305,6008,NA,NA,109693,110174,109539,109692,5976,Flanker Test,48,24131,54,yes,1024
89.09090909,89.09090909,447.4363636,447.4363636,black,legacy,legacy,legacy,0,incongruent,uniform,1,undefined,1,s,0,0,0,54,54,0,54,54,0,0,0,54,54,54,54,0,Fri Sep 27 18:24:14 2019,1500,The main experiment item,yes,FlankerTest.osexp,/Users/Linzi/Desktop,no,mono,no,18,no,white,no,yes,768,legacy,54,54,/Users/Linzi/Desktop/LM-subject-1.csv,legacy,Kafkaesque Koffka,3.2.8,0,s,NA,s,NA,NA,s,478,NA,616,NA,NA,478,2,legacy,1024,2,48000,-16,experiment,HHSHH,1,odd,6648,NA,NA,110206,NA,NA,111991,110733,6008,NA,NA,112119,112602,111965,112118,5976,Flanker Test,49,24609,55,yes,1024
89.28571429,89.28571429,447.125,447.125,black,legacy,legacy,legacy,0,congruent,uniform,1,undefined,1,s,0,0,0,55,55,0,55,55,0,0,0,55,55,55,55,0,Fri Sep 27 18:24:14 2019,1500,The main experiment item,yes,FlankerTest.osexp,/Users/Linzi/Desktop,no,mono,no,18,no,white,no,yes,768,legacy,55,55,/Users/Linzi/Desktop/LM-subject-1.csv,legacy,Kafkaesque Koffka,3.2.8,0,s,NA,s,NA,NA,s,430,NA,616,NA,NA,430,2,legacy,1024,2,48000,-16,experiment,SSSSS,1,odd,6648,NA,NA,110206,NA,NA,113890,112633,6008,NA,NA,114016,114451,113863,114015,5976,Flanker Test,50,25039,56,yes,1024
89.47368421,89.47368421,446.0526316,446.0526316,black,legacy,legacy,legacy,0,congruent,uniform,1,undefined,1,s,0,0,0,56,56,0,56,56,0,0,0,56,56,56,56,0,Fri Sep 27 18:24:14 2019,1500,The main experiment item,yes,FlankerTest.osexp,/Users/Linzi/Desktop,no,mono,no,18,no,white,no,yes,768,legacy,56,56,/Users/Linzi/Desktop/LM-subject-1.csv,legacy,Kafkaesque Koffka,3.2.8,0,s,NA,s,NA,NA,s,386,NA,616,NA,NA,386,2,legacy,1024,2,48000,-16,experiment,SSSSS,1,odd,6648,NA,NA,110206,NA,NA,115741,114482,6008,NA,NA,115867,116258,115714,115867,5976,Flanker Test,51,25425,57,yes,1024
89.65517241,89.65517241,447.362069,447.362069,black,legacy,legacy,legacy,0,incongruent,uniform,1,undefined,1,s,0,0,0,57,57,0,57,57,0,0,0,57,57,57,57,0,Fri Sep 27 18:24:14 2019,1500,The main experiment item,yes,FlankerTest.osexp,/Users/Linzi/Desktop,no,mono,no,18,no,white,no,yes,768,legacy,57,57,/Users/Linzi/Desktop/LM-subject-1.csv,legacy,Kafkaesque Koffka,3.2.8,0,s,NA,s,NA,NA,s,522,NA,616,NA,NA,522,2,legacy,1024,2,48000,-16,experiment,HHSHH,1,odd,6648,NA,NA,110206,NA,NA,117550,116290,6008,NA,NA,117676,118203,117523,117676,5976,Flanker Test,52,25947,58,yes,1024
89.83050847,89.83050847,446.4576271,446.4576271,black,legacy,legacy,legacy,0,congruent,uniform,1,undefined,1,s,0,0,0,58,58,0,58,58,0,0,0,58,58,58,58,0,Fri Sep 27 18:24:14 2019,1500,The main experiment item,yes,FlankerTest.osexp,/Users/Linzi/Desktop,no,mono,no,18,no,white,no,yes,768,legacy,58,58,/Users/Linzi/Desktop/LM-subject-1.csv,legacy,Kafkaesque Koffka,3.2.8,0,s,NA,s,NA,NA,s,394,NA,616,NA,NA,394,2,legacy,1024,2,48000,-16,experiment,SSSSS,1,odd,6648,NA,NA,110206,NA,NA,119494,118234,6008,NA,NA,119620,120019,119467,119620,5976,Flanker Test,53,26341,59,yes,1024
88.33333333,88.33333333,445.45,445.45,black,legacy,legacy,legacy,0,incongruent,uniform,0,undefined,0,h,0,0,0,59,59,0,59,59,0,0,0,59,59,59,59,0,Fri Sep 27 18:24:14 2019,1500,The main experiment item,yes,FlankerTest.osexp,/Users/Linzi/Desktop,no,mono,no,18,no,white,no,yes,768,legacy,59,59,/Users/Linzi/Desktop/LM-subject-1.csv,legacy,Kafkaesque Koffka,3.2.8,0,s,NA,s,NA,NA,s,386,NA,616,NA,NA,386,2,legacy,1024,2,48000,-16,experiment,SSHSS,1,odd,6648,NA,NA,110206,NA,NA,121309,120050,6008,NA,NA,121435,121826,121282,121435,5976,Flanker Test,53,26727,60,yes,1024
88.52459016,88.52459016,445.8852459,445.8852459,black,legacy,legacy,legacy,0,incongruent,uniform,1,undefined,1,h,0,0,0,60,60,0,60,60,0,0,0,60,60,60,60,0,Fri Sep 27 18:24:14 2019,1500,The main experiment item,yes,FlankerTest.osexp,/Users/Linzi/Desktop,no,mono,no,18,no,white,no,yes,768,legacy,60,60,/Users/Linzi/Desktop/LM-subject-1.csv,legacy,Kafkaesque Koffka,3.2.8,0,h,NA,s,NA,NA,h,472,NA,616,NA,NA,472,2,legacy,1024,2,48000,-16,experiment,SSHSS,1,odd,6648,NA,NA,121857,NA,NA,123641,122384,6008,NA,NA,123767,124245,123614,123767,5976,Flanker Test,54,27199,61,yes,1024
88.70967742,88.70967742,445.2903226,445.2903226,black,legacy,legacy,legacy,0,incongruent,uniform,1,undefined,1,h,0,0,0,61,61,0,61,61,0,0,0,61,61,61,61,0,Fri Sep 27 18:24:14 2019,1500,The main experiment item,yes,FlankerTest.osexp,/Users/Linzi/Desktop,no,mono,no,18,no,white,no,yes,768,legacy,61,61,/Users/Linzi/Desktop/LM-subject-1.csv,legacy,Kafkaesque Koffka,3.2.8,0,h,NA,s,NA,NA,h,409,NA,616,NA,NA,409,2,legacy,1024,2,48000,-16,experiment,SSHSS,1,odd,6648,NA,NA,121857,NA,NA,125542,124277,6008,NA,NA,125669,126084,125515,125668,5976,Flanker Test,55,27608,62,yes,1024
88.88888889,88.88888889,445.7777778,445.7777778,black,legacy,legacy,legacy,0,congruent,uniform,1,undefined,1,s,0,0,0,62,62,0,62,62,0,0,0,62,62,62,62,0,Fri Sep 27 18:24:14 2019,1500,The main experiment item,yes,FlankerTest.osexp,/Users/Linzi/Desktop,no,mono,no,18,no,white,no,yes,768,legacy,62,62,/Users/Linzi/Desktop/LM-subject-1.csv,legacy,Kafkaesque Koffka,3.2.8,0,s,NA,s,NA,NA,s,476,NA,616,NA,NA,476,2,legacy,1024,2,48000,-16,experiment,SSSSS,1,odd,6648,NA,NA,121857,NA,NA,127380,126115,6008,NA,NA,127506,127987,127353,127506,5976,Flanker Test,56,28084,63,yes,1024
89.0625,89.0625,445.765625,445.765625,black,legacy,legacy,legacy,0,congruent,uniform,1,undefined,1,h,0,0,0,63,63,0,63,63,0,0,0,63,63,63,63,0,Fri Sep 27 18:24:14 2019,1500,The main experiment item,yes,FlankerTest.osexp,/Users/Linzi/Desktop,no,mono,no,18,no,white,no,yes,768,legacy,63,63,/Users/Linzi/Desktop/LM-subject-1.csv,legacy,Kafkaesque Koffka,3.2.8,0,h,NA,s,NA,NA,h,445,NA,616,NA,NA,445,2,legacy,1024,2,48000,-16,experiment,HHHHH,1,odd,6648,NA,NA,121857,NA,NA,129283,128019,6008,NA,NA,129410,129861,129256,129410,5976,Flanker Test,57,28529,64,yes,1024
89.23076923,89.23076923,445.3384615,445.3384615,black,legacy,legacy,legacy,0,congruent,uniform,1,undefined,1,h,0,0,0,64,64,0,64,64,0,0,0,64,64,64,64,0,Fri Sep 27 18:24:14 2019,1500,The main experiment item,yes,FlankerTest.osexp,/Users/Linzi/Desktop,no,mono,no,18,no,white,no,yes,768,legacy,64,64,/Users/Linzi/Desktop/LM-subject-1.csv,legacy,Kafkaesque Koffka,3.2.8,0,h,NA,s,NA,NA,h,418,NA,616,NA,NA,418,2,legacy,1024,2,48000,-16,experiment,HHHHH,1,odd,6648,NA,NA,121857,NA,NA,131154,129892,6008,NA,NA,131280,131703,131126,131280,5976,Flanker Test,58,28947,65,yes,1024
89.39393939,89.39393939,444.4393939,444.4393939,black,legacy,legacy,legacy,0,congruent,uniform,1,undefined,1,s,0,0,0,65,65,0,65,65,0,0,0,65,65,65,65,0,Fri Sep 27 18:24:14 2019,1500,The main experiment item,yes,FlankerTest.osexp,/Users/Linzi/Desktop,no,mono,no,18,no,white,no,yes,768,legacy,65,65,/Users/Linzi/Desktop/LM-subject-1.csv,legacy,Kafkaesque Koffka,3.2.8,0,s,NA,s,NA,NA,s,386,NA,616,NA,NA,386,2,legacy,1024,2,48000,-16,experiment,SSSSS,1,odd,6648,NA,NA,121857,NA,NA,132995,131735,6008,NA,NA,133121,133513,132969,133121,5976,Flanker Test,59,29333,66,yes,1024
88.05970149,88.05970149,445,445,black,legacy,legacy,legacy,0,incongruent,uniform,0,undefined,0,h,0,0,0,66,66,0,66,66,0,0,0,66,66,66,66,0,Fri Sep 27 18:24:14 2019,1500,The main experiment item,yes,FlankerTest.osexp,/Users/Linzi/Desktop,no,mono,no,18,no,white,no,yes,768,legacy,66,66,/Users/Linzi/Desktop/LM-subject-1.csv,legacy,Kafkaesque Koffka,3.2.8,0,s,NA,s,NA,NA,s,482,NA,616,NA,NA,482,2,legacy,1024,2,48000,-16,experiment,SSHSS,1,odd,6648,NA,NA,121857,NA,NA,134804,133544,6008,NA,NA,134930,135418,134777,134930,5976,Flanker Test,59,29815,67,yes,1024
88.23529412,88.23529412,446.1764706,446.1764706,black,legacy,legacy,legacy,0,incongruent,uniform,1,undefined,1,h,0,0,0,67,67,0,67,67,0,0,0,67,67,67,67,0,Fri Sep 27 18:24:14 2019,1500,The main experiment item,yes,FlankerTest.osexp,/Users/Linzi/Desktop,no,mono,no,18,no,white,no,yes,768,legacy,67,67,/Users/Linzi/Desktop/LM-subject-1.csv,legacy,Kafkaesque Koffka,3.2.8,0,h,NA,s,NA,NA,h,525,NA,616,NA,NA,525,2,legacy,1024,2,48000,-16,experiment,SSHSS,1,odd,6648,NA,NA,135450,NA,NA,137240,135979,6008,NA,NA,137367,137898,137213,137366,5976,Flanker Test,60,30340,68,yes,1024
88.4057971,88.4057971,446.3188406,446.3188406,black,legacy,legacy,legacy,0,congruent,uniform,1,undefined,1,h,0,0,0,68,68,0,68,68,0,0,0,68,68,68,68,0,Fri Sep 27 18:24:14 2019,1500,The main experiment item,yes,FlankerTest.osexp,/Users/Linzi/Desktop,no,mono,no,18,no,white,no,yes,768,legacy,68,68,/Users/Linzi/Desktop/LM-subject-1.csv,legacy,Kafkaesque Koffka,3.2.8,0,h,NA,s,NA,NA,h,456,NA,616,NA,NA,456,2,legacy,1024,2,48000,-16,experiment,HHHHH,1,odd,6648,NA,NA,135450,NA,NA,139191,137930,6008,NA,NA,139317,139778,139164,139317,5976,Flanker Test,61,30796,69,yes,1024
88.57142857,88.57142857,447.0428571,447.0428571,black,legacy,legacy,legacy,0,incongruent,uniform,1,undefined,1,h,0,0,0,69,69,0,69,69,0,0,0,69,69,69,69,0,Fri Sep 27 18:24:14 2019,1500,The main experiment item,yes,FlankerTest.osexp,/Users/Linzi/Desktop,no,mono,no,18,no,white,no,yes,768,legacy,69,69,/Users/Linzi/Desktop/LM-subject-1.csv,legacy,Kafkaesque Koffka,3.2.8,0,h,NA,s,NA,NA,h,497,NA,616,NA,NA,497,2,legacy,1024,2,48000,-16,experiment,SSHSS,1,odd,6648,NA,NA,135450,NA,NA,141068,139810,6008,NA,NA,141195,141698,141041,141194,5976,Flanker Test,62,31293,70,yes,1024
88.73239437,88.73239437,446.971831,446.971831,black,legacy,legacy,legacy,0,congruent,uniform,1,undefined,1,s,0,0,0,70,70,0,70,70,0,0,0,70,70,70,70,0,Fri Sep 27 18:24:14 2019,1500,The main experiment item,yes,FlankerTest.osexp,/Users/Linzi/Desktop,no,mono,no,18,no,white,no,yes,768,legacy,70,70,/Users/Linzi/Desktop/LM-subject-1.csv,legacy,Kafkaesque Koffka,3.2.8,0,s,NA,s,NA,NA,s,442,NA,616,NA,NA,442,2,legacy,1024,2,48000,-16,experiment,SSSSS,1,odd,6648,NA,NA,135450,NA,NA,142988,141729,6008,NA,NA,143114,143561,142961,143113,5976,Flanker Test,63,31735,71,yes,1024
88.88888889,88.88888889,446.8472222,446.8472222,black,legacy,legacy,legacy,0,congruent,uniform,1,undefined,1,h,0,0,0,71,71,0,71,71,0,0,0,71,71,71,71,0,Fri Sep 27 18:24:14 2019,1500,The main experiment item,yes,FlankerTest.osexp,/Users/Linzi/Desktop,no,mono,no,18,no,white,no,yes,768,legacy,71,71,/Users/Linzi/Desktop/LM-subject-1.csv,legacy,Kafkaesque Koffka,3.2.8,0,h,NA,s,NA,NA,h,438,NA,616,NA,NA,438,2,legacy,1024,2,48000,-16,experiment,HHHHH,1,odd,6648,NA,NA,135450,NA,NA,144854,143593,6008,NA,NA,144980,145424,144827,144980,5976,Flanker Test,64,32173,72,yes,1024
87.67123288,87.67123288,447.0821918,447.0821918,black,legacy,legacy,legacy,0,incongruent,uniform,0,undefined,0,h,0,0,0,72,72,0,72,72,0,0,0,72,72,72,72,0,Fri Sep 27 18:24:14 2019,1500,The main experiment item,yes,FlankerTest.osexp,/Users/Linzi/Desktop,no,mono,no,18,no,white,no,yes,768,legacy,72,72,/Users/Linzi/Desktop/LM-subject-1.csv,legacy,Kafkaesque Koffka,3.2.8,0,s,NA,s,NA,NA,s,464,NA,616,NA,NA,464,2,legacy,1024,2,48000,-16,experiment,SSHSS,1,odd,6648,NA,NA,135450,NA,NA,146714,145455,6008,NA,NA,146840,147309,146688,146840,5976,Flanker Test,64,32637,73,yes,1024
87.83783784,87.83783784,449.9054054,449.9054054,black,legacy,legacy,legacy,0,incongruent,uniform,1,undefined,1,s,0,0,0,73,73,0,73,73,0,0,0,73,73,73,73,0,Fri Sep 27 18:24:14 2019,1500,The main experiment item,yes,FlankerTest.osexp,/Users/Linzi/Desktop,no,mono,no,18,no,white,no,yes,768,legacy,73,73,/Users/Linzi/Desktop/LM-subject-1.csv,legacy,Kafkaesque Koffka,3.2.8,0,s,NA,s,NA,NA,s,656,NA,616,NA,NA,656,2,legacy,1024,2,48000,-16,experiment,HHSHH,1,odd,6648,NA,NA,147342,NA,NA,149130,147871,6008,NA,NA,149257,149918,149104,149257,5976,Flanker Test,65,33293,74,yes,1024
88,88,450.1733333,450.1733333,black,legacy,legacy,legacy,0,incongruent,uniform,1,undefined,1,s,0,0,0,74,74,0,74,74,0,0,0,74,74,74,74,0,Fri Sep 27 18:24:14 2019,1500,The main experiment item,yes,FlankerTest.osexp,/Users/Linzi/Desktop,no,mono,no,18,no,white,no,yes,768,legacy,74,74,/Users/Linzi/Desktop/LM-subject-1.csv,legacy,Kafkaesque Koffka,3.2.8,0,s,NA,s,NA,NA,s,470,NA,616,NA,NA,470,2,legacy,1024,2,48000,-16,experiment,HHSHH,1,odd,6648,NA,NA,147342,NA,NA,151209,149950,6008,NA,NA,151336,151812,151182,151336,5976,Flanker Test,66,33763,75,yes,1024
88.15789474,88.15789474,449.5657895,449.5657895,black,legacy,legacy,legacy,0,congruent,uniform,1,undefined,1,h,0,0,0,75,75,0,75,75,0,0,0,75,75,75,75,0,Fri Sep 27 18:24:14 2019,1500,The main experiment item,yes,FlankerTest.osexp,/Users/Linzi/Desktop,no,mono,no,18,no,white,no,yes,768,legacy,75,75,/Users/Linzi/Desktop/LM-subject-1.csv,legacy,Kafkaesque Koffka,3.2.8,0,h,NA,s,NA,NA,h,404,NA,616,NA,NA,404,2,legacy,1024,2,48000,-16,experiment,HHHHH,1,odd,6648,NA,NA,147342,NA,NA,153100,151843,6008,NA,NA,153226,153636,153073,153226,5976,Flanker Test,67,34167,76,yes,1024
88.31168831,88.31168831,449,449,black,legacy,legacy,legacy,0,congruent,uniform,1,undefined,1,h,0,0,0,76,76,0,76,76,0,0,0,76,76,76,76,0,Fri Sep 27 18:24:14 2019,1500,The main experiment item,yes,FlankerTest.osexp,/Users/Linzi/Desktop,no,mono,no,18,no,white,no,yes,768,legacy,76,76,/Users/Linzi/Desktop/LM-subject-1.csv,legacy,Kafkaesque Koffka,3.2.8,0,h,NA,s,NA,NA,h,406,NA,616,NA,NA,406,2,legacy,1024,2,48000,-16,experiment,HHHHH,1,odd,6648,NA,NA,147342,NA,NA,154927,153667,6008,NA,NA,155053,155464,154900,155053,5976,Flanker Test,68,34573,77,yes,1024
88.46153846,88.46153846,449.0128205,449.0128205,black,legacy,legacy,legacy,0,congruent,uniform,1,undefined,1,s,0,0,0,77,77,0,77,77,0,0,0,77,77,77,77,0,Fri Sep 27 18:24:14 2019,1500,The main experiment item,yes,FlankerTest.osexp,/Users/Linzi/Desktop,no,mono,no,18,no,white,no,yes,768,legacy,77,77,/Users/Linzi/Desktop/LM-subject-1.csv,legacy,Kafkaesque Koffka,3.2.8,0,s,NA,s,NA,NA,s,450,NA,616,NA,NA,450,2,legacy,1024,2,48000,-16,experiment,SSSSS,1,odd,6648,NA,NA,147342,NA,NA,156754,155496,6008,NA,NA,156880,157336,156727,156880,5976,Flanker Test,69,35023,78,yes,1024
88.60759494,88.60759494,448.6582278,448.6582278,black,legacy,legacy,legacy,0,incongruent,uniform,1,undefined,1,h,0,0,0,78,78,0,78,78,0,0,0,78,78,78,78,0,Fri Sep 27 18:24:14 2019,1500,The main experiment item,yes,FlankerTest.osexp,/Users/Linzi/Desktop,no,mono,no,18,no,white,no,yes,768,legacy,78,78,/Users/Linzi/Desktop/LM-subject-1.csv,legacy,Kafkaesque Koffka,3.2.8,0,h,NA,s,NA,NA,h,421,NA,616,NA,NA,421,2,legacy,1024,2,48000,-16,experiment,SSHSS,1,odd,6648,NA,NA,147342,NA,NA,158627,157367,6008,NA,NA,158753,159179,158600,158753,5976,Flanker Test,70,35444,79,yes,1024
88.75,88.75,449.6375,449.6375,black,legacy,legacy,legacy,0,incongruent,uniform,1,undefined,1,s,0,0,0,79,79,0,79,79,0,0,0,79,79,79,79,0,Fri Sep 27 18:24:14 2019,1500,The main experiment item,yes,FlankerTest.osexp,/Users/Linzi/Desktop,no,mono,no,18,no,white,no,yes,768,legacy,79,79,/Users/Linzi/Desktop/LM-subject-1.csv,legacy,Kafkaesque Koffka,3.2.8,0,s,NA,s,NA,NA,s,527,NA,616,NA,NA,527,2,legacy,1024,2,48000,-16,experiment,HHSHH,1,odd,6648,NA,NA,147342,NA,NA,160474,159211,6008,NA,NA,160601,161133,160447,160600,5976,Flanker Test,71,35971,80,yes,1024
88.88888889,88.88888889,450.6666667,450.6666667,black,legacy,legacy,legacy,0,incongruent,uniform,1,undefined,1,s,0,0,0,80,80,0,80,80,0,0,0,80,80,80,80,0,Fri Sep 27 18:24:14 2019,600,The main experiment item,yes,FlankerTest.osexp,/Users/Linzi/Desktop,no,mono,no,18,no,white,no,yes,768,legacy,0,79,/Users/Linzi/Desktop/LM-subject-1.csv,legacy,Kafkaesque Koffka,3.2.8,0,s,NA,s,h,NA,s,533,NA,616,9578,NA,533,2,legacy,1024,2,48000,-16,experiment,HHSHH,1,odd,6648,171825,NA,147342,NA,NA,172070,161164,6008,162241,NA,172196,172735,172043,172196,5976,Flanker Test,72,36504,81,yes,1024
89.02439024,89.02439024,449.6585366,449.6585366,black,legacy,legacy,legacy,0,congruent,uniform,1,undefined,1,h,0,0,0,81,81,0,81,81,0,0,0,81,81,81,81,0,Fri Sep 27 18:24:14 2019,600,The main experiment item,yes,FlankerTest.osexp,/Users/Linzi/Desktop,no,mono,no,18,no,white,no,yes,768,legacy,1,79,/Users/Linzi/Desktop/LM-subject-1.csv,legacy,Kafkaesque Koffka,3.2.8,0,h,NA,s,h,NA,h,368,NA,616,9578,NA,368,2,legacy,1024,2,48000,-16,experiment,HHHHH,1,odd,6648,171825,NA,147342,NA,NA,174024,172765,6008,162241,NA,174151,174524,173999,174151,5976,Flanker Test,73,36872,82,yes,1024
89.15662651,89.15662651,448.9036145,448.9036145,black,legacy,legacy,legacy,0,congruent,uniform,1,undefined,1,s,0,0,0,82,82,0,82,82,0,0,0,82,82,82,82,0,Fri Sep 27 18:24:14 2019,600,The main experiment item,yes,FlankerTest.osexp,/Users/Linzi/Desktop,no,mono,no,18,no,white,no,yes,768,legacy,2,79,/Users/Linzi/Desktop/LM-subject-1.csv,legacy,Kafkaesque Koffka,3.2.8,0,s,NA,s,h,NA,s,387,NA,616,9578,NA,387,2,legacy,1024,2,48000,-16,experiment,SSSSS,1,odd,6648,171825,NA,147342,NA,NA,175812,174556,6008,162241,NA,175940,176332,175785,175939,5976,Flanker Test,74,37259,83,yes,1024
89.28571429,89.28571429,449.3214286,449.3214286,black,legacy,legacy,legacy,0,incongruent,uniform,1,undefined,1,h,0,0,0,83,83,0,83,83,0,0,0,83,83,83,83,0,Fri Sep 27 18:24:14 2019,600,The main experiment item,yes,FlankerTest.osexp,/Users/Linzi/Desktop,no,mono,no,18,no,white,no,yes,768,legacy,3,79,/Users/Linzi/Desktop/LM-subject-1.csv,legacy,Kafkaesque Koffka,3.2.8,0,h,NA,s,h,NA,h,484,NA,616,9578,NA,484,2,legacy,1024,2,48000,-16,experiment,SSHSS,1,odd,6648,171825,NA,147342,NA,NA,177622,176364,6008,162241,NA,177749,178239,177596,177748,5976,Flanker Test,75,37743,84,yes,1024
88.23529412,88.23529412,449.1176471,449.1176471,black,legacy,legacy,legacy,0,incongruent,uniform,0,undefined,0,h,0,0,0,84,84,0,84,84,0,0,0,84,84,84,84,0,Fri Sep 27 18:24:14 2019,600,The main experiment item,yes,FlankerTest.osexp,/Users/Linzi/Desktop,no,mono,no,18,no,white,no,yes,768,legacy,4,79,/Users/Linzi/Desktop/LM-subject-1.csv,legacy,Kafkaesque Koffka,3.2.8,0,s,NA,s,h,NA,s,432,NA,616,9578,NA,432,2,legacy,1024,2,48000,-16,experiment,SSHSS,1,odd,6648,171825,NA,147342,NA,NA,179530,178270,6008,162241,NA,179656,180095,179504,179655,5976,Flanker Test,75,38175,85,yes,1024
88.37209302,88.37209302,448.8837209,448.8837209,black,legacy,legacy,legacy,0,congruent,uniform,1,undefined,1,h,0,0,0,85,85,0,85,85,0,0,0,85,85,85,85,0,Fri Sep 27 18:24:14 2019,600,The main experiment item,yes,FlankerTest.osexp,/Users/Linzi/Desktop,no,mono,no,18,no,white,no,yes,768,legacy,5,79,/Users/Linzi/Desktop/LM-subject-1.csv,legacy,Kafkaesque Koffka,3.2.8,0,h,NA,s,h,NA,h,429,NA,616,9578,NA,429,2,legacy,1024,2,48000,-16,experiment,HHHHH,1,odd,6648,171825,NA,180126,NA,NA,181915,180652,6008,162241,NA,182041,182476,181889,182041,5976,Flanker Test,76,38604,86,yes,1024
87.35632184,87.35632184,449.2183908,449.2183908,black,legacy,legacy,legacy,0,incongruent,uniform,0,undefined,0,h,0,0,0,86,86,0,86,86,0,0,0,86,86,86,86,0,Fri Sep 27 18:24:14 2019,600,The main experiment item,yes,FlankerTest.osexp,/Users/Linzi/Desktop,no,mono,no,18,no,white,no,yes,768,legacy,6,79,/Users/Linzi/Desktop/LM-subject-1.csv,legacy,Kafkaesque Koffka,3.2.8,0,s,NA,s,h,NA,s,478,NA,616,9578,NA,478,2,legacy,1024,2,48000,-16,experiment,SSHSS,1,odd,6648,171825,NA,180126,NA,NA,183771,182508,6008,162241,NA,183897,184382,183744,183897,5976,Flanker Test,76,39082,87,yes,1024
87.5,87.5,448.4772727,448.4772727,black,legacy,legacy,legacy,0,congruent,uniform,1,undefined,1,s,0,0,0,87,87,0,87,87,0,0,0,87,87,87,87,0,Fri Sep 27 18:24:14 2019,600,The main experiment item,yes,FlankerTest.osexp,/Users/Linzi/Desktop,no,mono,no,18,no,white,no,yes,768,legacy,7,79,/Users/Linzi/Desktop/LM-subject-1.csv,legacy,Kafkaesque Koffka,3.2.8,0,s,NA,s,h,NA,s,384,NA,616,9578,NA,384,2,legacy,1024,2,48000,-16,experiment,SSSSS,1,odd,6648,171825,NA,184413,NA,NA,186195,184939,6008,162241,NA,186321,186711,186169,186321,5976,Flanker Test,77,39466,88,yes,1024
87.64044944,87.64044944,447.7752809,447.7752809,black,legacy,legacy,legacy,0,congruent,uniform,1,undefined,1,h,0,0,0,88,88,0,88,88,0,0,0,88,88,88,88,0,Fri Sep 27 18:24:14 2019,600,The main experiment item,yes,FlankerTest.osexp,/Users/Linzi/Desktop,no,mono,no,18,no,white,no,yes,768,legacy,8,79,/Users/Linzi/Desktop/LM-subject-1.csv,legacy,Kafkaesque Koffka,3.2.8,0,h,NA,s,h,NA,h,386,NA,616,9578,NA,386,2,legacy,1024,2,48000,-16,experiment,HHHHH,1,odd,6648,171825,NA,184413,NA,NA,188002,186743,6008,162241,NA,188128,188520,187976,188127,5976,Flanker Test,78,39852,89,yes,1024
87.77777778,87.77777778,446.9222222,446.9222222,black,legacy,legacy,legacy,0,incongruent,uniform,1,undefined,1,h,0,0,0,89,89,0,89,89,0,0,0,89,89,89,89,0,Fri Sep 27 18:24:14 2019,600,The main experiment item,yes,FlankerTest.osexp,/Users/Linzi/Desktop,no,mono,no,18,no,white,no,yes,768,legacy,9,79,/Users/Linzi/Desktop/LM-subject-1.csv,legacy,Kafkaesque Koffka,3.2.8,0,h,NA,s,h,NA,h,371,NA,616,9578,NA,371,2,legacy,1024,2,48000,-16,experiment,SSHSS,1,odd,6648,171825,NA,184413,NA,NA,189811,188553,6008,162241,NA,189937,190314,189784,189937,5976,Flanker Test,79,40223,90,yes,1024
87.91208791,87.91208791,447.4945055,447.4945055,black,legacy,legacy,legacy,0,incongruent,uniform,1,undefined,1,h,0,0,0,90,90,0,90,90,0,0,0,90,90,90,90,0,Fri Sep 27 18:24:14 2019,600,The main experiment item,yes,FlankerTest.osexp,/Users/Linzi/Desktop,no,mono,no,18,no,white,no,yes,768,legacy,10,79,/Users/Linzi/Desktop/LM-subject-1.csv,legacy,Kafkaesque Koffka,3.2.8,0,h,NA,s,h,NA,h,499,NA,616,9578,NA,499,2,legacy,1024,2,48000,-16,experiment,SSHSS,1,odd,6648,171825,NA,184413,NA,NA,191606,190347,6008,162241,NA,191732,192237,191580,191732,5976,Flanker Test,80,40722,91,yes,1024
88.04347826,88.04347826,448.3804348,448.3804348,black,legacy,legacy,legacy,0,congruent,uniform,1,undefined,1,s,0,0,0,91,91,0,91,91,0,0,0,91,91,91,91,0,Fri Sep 27 18:24:14 2019,600,The main experiment item,yes,FlankerTest.osexp,/Users/Linzi/Desktop,no,mono,no,18,no,white,no,yes,768,legacy,11,79,/Users/Linzi/Desktop/LM-subject-1.csv,legacy,Kafkaesque Koffka,3.2.8,0,s,NA,s,h,NA,s,529,NA,616,9578,NA,529,2,legacy,1024,2,48000,-16,experiment,SSSSS,1,odd,6648,171825,NA,184413,NA,NA,193525,192268,6008,162241,NA,193651,194186,193498,193651,5976,Flanker Test,81,41251,92,yes,1024
87.09677419,87.09677419,448.5806452,448.5806452,black,legacy,legacy,legacy,0,incongruent,uniform,0,undefined,0,s,0,0,0,92,92,0,92,92,0,0,0,92,92,92,92,0,Fri Sep 27 18:24:14 2019,600,The main experiment item,yes,FlankerTest.osexp,/Users/Linzi/Desktop,no,mono,no,18,no,white,no,yes,768,legacy,12,79,/Users/Linzi/Desktop/LM-subject-1.csv,legacy,Kafkaesque Koffka,3.2.8,0,h,NA,s,h,NA,h,467,NA,616,9578,NA,467,2,legacy,1024,2,48000,-16,experiment,HHSHH,1,odd,6648,171825,NA,184413,NA,NA,195480,194218,6008,162241,NA,195606,196079,195453,195605,5976,Flanker Test,81,41718,93,yes,1024
87.23404255,87.23404255,449.106383,449.106383,black,legacy,legacy,legacy,0,incongruent,uniform,1,undefined,1,s,0,0,0,93,93,0,93,93,0,0,0,93,93,93,93,0,Fri Sep 27 18:24:14 2019,600,The main experiment item,yes,FlankerTest.osexp,/Users/Linzi/Desktop,no,mono,no,18,no,white,no,yes,768,legacy,13,79,/Users/Linzi/Desktop/LM-subject-1.csv,legacy,Kafkaesque Koffka,3.2.8,0,s,NA,s,h,NA,s,498,NA,616,9578,NA,498,2,legacy,1024,2,48000,-16,experiment,HHSHH,1,odd,6648,171825,NA,196110,NA,NA,197896,196638,6008,162241,NA,198022,198526,197870,198022,5976,Flanker Test,82,42216,94,yes,1024
87.36842105,87.36842105,448.7684211,448.7684211,black,legacy,legacy,legacy,0,congruent,uniform,1,undefined,1,s,0,0,0,94,94,0,94,94,0,0,0,94,94,94,94,0,Fri Sep 27 18:24:14 2019,600,The main experiment item,yes,FlankerTest.osexp,/Users/Linzi/Desktop,no,mono,no,18,no,white,no,yes,768,legacy,14,79,/Users/Linzi/Desktop/LM-subject-1.csv,legacy,Kafkaesque Koffka,3.2.8,0,s,NA,s,h,NA,s,417,NA,616,9578,NA,417,2,legacy,1024,2,48000,-16,experiment,SSSSS,1,odd,6648,171825,NA,196110,NA,NA,199812,198557,6008,162241,NA,199938,200361,199785,199937,5976,Flanker Test,83,42633,95,yes,1024
86.45833333,86.45833333,448.3854167,448.3854167,black,legacy,legacy,legacy,0,congruent,uniform,0,undefined,0,h,0,0,0,95,95,0,95,95,0,0,0,95,95,95,95,0,Fri Sep 27 18:24:14 2019,600,The main experiment item,yes,FlankerTest.osexp,/Users/Linzi/Desktop,no,mono,no,18,no,white,no,yes,768,legacy,15,79,/Users/Linzi/Desktop/LM-subject-1.csv,legacy,Kafkaesque Koffka,3.2.8,0,s,NA,s,h,NA,s,412,NA,616,9578,NA,412,2,legacy,1024,2,48000,-16,experiment,HHHHH,1,odd,6648,171825,NA,196110,NA,NA,201654,200393,6008,162241,NA,201780,202198,201628,201779,5976,Flanker Test,83,43045,96,yes,1024
86.59793814,86.59793814,448.3092784,448.3092784,black,legacy,legacy,legacy,0,congruent,uniform,1,undefined,1,s,0,0,0,96,96,0,96,96,0,0,0,96,96,96,96,0,Fri Sep 27 18:24:14 2019,600,The main experiment item,yes,FlankerTest.osexp,/Users/Linzi/Desktop,no,mono,no,18,no,white,no,yes,768,legacy,16,79,/Users/Linzi/Desktop/LM-subject-1.csv,legacy,Kafkaesque Koffka,3.2.8,0,s,NA,s,h,NA,s,441,NA,616,9578,NA,441,2,legacy,1024,2,48000,-16,experiment,SSSSS,1,odd,6648,171825,NA,202230,NA,NA,204018,202762,6008,162241,NA,204145,204592,203993,204145,5976,Flanker Test,84,43486,97,yes,1024
85.71428571,85.71428571,447.9285714,447.9285714,black,legacy,legacy,legacy,0,incongruent,uniform,0,undefined,0,s,0,0,0,97,97,0,97,97,0,0,0,97,97,97,97,0,Fri Sep 27 18:24:14 2019,600,The main experiment item,yes,FlankerTest.osexp,/Users/Linzi/Desktop,no,mono,no,18,no,white,no,yes,768,legacy,17,79,/Users/Linzi/Desktop/LM-subject-1.csv,legacy,Kafkaesque Koffka,3.2.8,0,h,NA,s,h,NA,h,411,NA,616,9578,NA,411,2,legacy,1024,2,48000,-16,experiment,HHSHH,1,odd,6648,171825,NA,202230,NA,NA,205884,204624,6008,162241,NA,206009,206426,205857,206008,5976,Flanker Test,84,43897,98,yes,1024
84.84848485,84.84848485,448.5858586,448.5858586,black,legacy,legacy,legacy,0,incongruent,uniform,0,undefined,0,h,0,0,0,98,98,0,98,98,0,0,0,98,98,98,98,0,Fri Sep 27 18:24:14 2019,600,The main experiment item,yes,FlankerTest.osexp,/Users/Linzi/Desktop,no,mono,no,18,no,white,no,yes,768,legacy,18,79,/Users/Linzi/Desktop/LM-subject-1.csv,legacy,Kafkaesque Koffka,3.2.8,0,s,NA,s,h,NA,s,513,NA,616,9578,NA,513,2,legacy,1024,2,48000,-16,experiment,SSHSS,1,odd,6648,171825,NA,206457,NA,NA,208241,206983,6008,162241,NA,208367,208886,208214,208367,5976,Flanker Test,84,44410,99,yes,1024
85,85,449.18,449.18,black,legacy,legacy,legacy,0,congruent,uniform,1,undefined,1,h,0,0,0,99,99,0,99,99,0,0,0,99,99,99,99,0,Fri Sep 27 18:24:14 2019,600,The main experiment item,yes,FlankerTest.osexp,/Users/Linzi/Desktop,no,mono,no,18,no,white,no,yes,768,legacy,19,79,/Users/Linzi/Desktop/LM-subject-1.csv,legacy,Kafkaesque Koffka,3.2.8,0,h,NA,s,h,NA,h,508,NA,616,9578,NA,508,2,legacy,1024,2,48000,-16,experiment,HHHHH,1,odd,6648,171825,NA,208917,NA,NA,210704,209444,6008,162241,NA,210830,211344,210678,210830,5976,Flanker Test,85,44918,100,yes,1024
85.14851485,85.14851485,449.7128713,449.7128713,black,legacy,legacy,legacy,0,incongruent,uniform,1,undefined,1,s,0,0,0,100,100,0,100,100,0,0,0,100,100,100,100,0,Fri Sep 27 18:24:14 2019,600,The main experiment item,yes,FlankerTest.osexp,/Users/Linzi/Desktop,no,mono,no,18,no,white,no,yes,768,legacy,20,79,/Users/Linzi/Desktop/LM-subject-1.csv,legacy,Kafkaesque Koffka,3.2.8,0,s,NA,s,h,NA,s,503,NA,616,9578,NA,503,2,legacy,1024,2,48000,-16,experiment,HHSHH,1,odd,6648,171825,NA,208917,NA,NA,212638,211375,6008,162241,NA,212765,213274,212612,212764,5976,Flanker Test,86,45421,101,yes,1024
85.29411765,85.29411765,449.9215686,449.9215686,black,legacy,legacy,legacy,0,congruent,uniform,1,undefined,1,h,0,0,0,101,101,0,101,101,0,0,0,101,101,101,101,0,Fri Sep 27 18:24:14 2019,600,The main experiment item,yes,FlankerTest.osexp,/Users/Linzi/Desktop,no,mono,no,18,no,white,no,yes,768,legacy,21,79,/Users/Linzi/Desktop/LM-subject-1.csv,legacy,Kafkaesque Koffka,3.2.8,0,h,NA,s,h,NA,h,471,NA,616,9578,NA,471,2,legacy,1024,2,48000,-16,experiment,HHHHH,1,odd,6648,171825,NA,208917,NA,NA,214565,213305,6008,162241,NA,214692,215169,214539,214691,5976,Flanker Test,87,45892,102,yes,1024
85.4368932,85.4368932,450.4660194,450.4660194,black,legacy,legacy,legacy,0,congruent,uniform,1,undefined,1,s,0,0,0,102,102,0,102,102,0,0,0,102,102,102,102,0,Fri Sep 27 18:24:14 2019,600,The main experiment item,yes,FlankerTest.osexp,/Users/Linzi/Desktop,no,mono,no,18,no,white,no,yes,768,legacy,22,79,/Users/Linzi/Desktop/LM-subject-1.csv,legacy,Kafkaesque Koffka,3.2.8,0,s,NA,s,h,NA,s,506,NA,616,9578,NA,506,2,legacy,1024,2,48000,-16,experiment,SSSSS,1,odd,6648,171825,NA,208917,NA,NA,216457,215200,6008,162241,NA,216584,217096,216430,216583,5976,Flanker Test,88,46398,103,yes,1024
85.57692308,85.57692308,450.1346154,450.1346154,black,legacy,legacy,legacy,0,congruent,uniform,1,undefined,1,h,0,0,0,103,103,0,103,103,0,0,0,103,103,103,103,0,Fri Sep 27 18:24:14 2019,600,The main experiment item,yes,FlankerTest.osexp,/Users/Linzi/Desktop,no,mono,no,18,no,white,no,yes,768,legacy,23,79,/Users/Linzi/Desktop/LM-subject-1.csv,legacy,Kafkaesque Koffka,3.2.8,0,h,NA,s,h,NA,h,416,NA,616,9578,NA,416,2,legacy,1024,2,48000,-16,experiment,HHHHH,1,odd,6648,171825,NA,208917,NA,NA,218392,217128,6008,162241,NA,218518,218940,218365,218518,5976,Flanker Test,89,46814,104,yes,1024
85.71428571,85.71428571,450.3428571,450.3428571,black,legacy,legacy,legacy,0,congruent,uniform,1,undefined,1,s,0,0,0,104,104,0,104,104,0,0,0,104,104,104,104,0,Fri Sep 27 18:24:14 2019,600,The main experiment item,yes,FlankerTest.osexp,/Users/Linzi/Desktop,no,mono,no,18,no,white,no,yes,768,legacy,24,79,/Users/Linzi/Desktop/LM-subject-1.csv,legacy,Kafkaesque Koffka,3.2.8,0,s,NA,s,h,NA,s,472,NA,616,9578,NA,472,2,legacy,1024,2,48000,-16,experiment,SSSSS,1,odd,6648,171825,NA,208917,NA,NA,220230,218973,6008,162241,NA,220358,220836,220203,220357,5976,Flanker Test,90,47286,105,yes,1024
85.8490566,85.8490566,449.9433962,449.9433962,black,legacy,legacy,legacy,0,congruent,uniform,1,undefined,1,h,0,0,0,105,105,0,105,105,0,0,0,105,105,105,105,0,Fri Sep 27 18:24:14 2019,600,The main experiment item,yes,FlankerTest.osexp,/Users/Linzi/Desktop,no,mono,no,18,no,white,no,yes,768,legacy,25,79,/Users/Linzi/Desktop/LM-subject-1.csv,legacy,Kafkaesque Koffka,3.2.8,0,h,NA,s,h,NA,h,408,NA,616,9578,NA,408,2,legacy,1024,2,48000,-16,experiment,HHHHH,1,odd,6648,171825,NA,208917,NA,NA,222124,220867,6008,162241,NA,222250,222665,222097,222250,5976,Flanker Test,91,47694,106,yes,1024
85.98130841,85.98130841,449.6261682,449.6261682,black,legacy,legacy,legacy,0,congruent,uniform,1,undefined,1,s,0,0,0,106,106,0,106,106,0,0,0,106,106,106,106,0,Fri Sep 27 18:24:14 2019,600,The main experiment item,yes,FlankerTest.osexp,/Users/Linzi/Desktop,no,mono,no,18,no,white,no,yes,768,legacy,26,79,/Users/Linzi/Desktop/LM-subject-1.csv,legacy,Kafkaesque Koffka,3.2.8,0,s,NA,s,h,NA,s,416,NA,616,9578,NA,416,2,legacy,1024,2,48000,-16,experiment,SSSSS,1,odd,6648,171825,NA,208917,NA,NA,223955,222697,6008,162241,NA,224082,224505,223928,224081,5976,Flanker Test,92,48110,107,yes,1024
86.11111111,86.11111111,449.6111111,449.6111111,black,legacy,legacy,legacy,0,congruent,uniform,1,undefined,1,h,0,0,0,107,107,0,107,107,0,0,0,107,107,107,107,0,Fri Sep 27 18:24:14 2019,600,The main experiment item,yes,FlankerTest.osexp,/Users/Linzi/Desktop,no,mono,no,18,no,white,no,yes,768,legacy,27,79,/Users/Linzi/Desktop/LM-subject-1.csv,legacy,Kafkaesque Koffka,3.2.8,0,h,NA,s,h,NA,h,448,NA,616,9578,NA,448,2,legacy,1024,2,48000,-16,experiment,HHHHH,1,odd,6648,171825,NA,208917,NA,NA,225796,224537,6008,162241,NA,225923,226378,225770,225923,5976,Flanker Test,93,48558,108,yes,1024
86.23853211,86.23853211,450.146789,450.146789,black,legacy,legacy,legacy,0,incongruent,uniform,1,undefined,1,h,0,0,0,108,108,0,108,108,0,0,0,108,108,108,108,0,Fri Sep 27 18:24:14 2019,600,The main experiment item,yes,FlankerTest.osexp,/Users/Linzi/Desktop,no,mono,no,18,no,white,no,yes,768,legacy,28,79,/Users/Linzi/Desktop/LM-subject-1.csv,legacy,Kafkaesque Koffka,3.2.8,0,h,NA,s,h,NA,h,508,NA,616,9578,NA,508,2,legacy,1024,2,48000,-16,experiment,SSHSS,1,odd,6648,171825,NA,208917,NA,NA,227665,226409,6008,162241,NA,227792,228307,227639,227792,5976,Flanker Test,94,49066,109,yes,1024
86.36363636,86.36363636,449.7090909,449.7090909,black,legacy,legacy,legacy,0,congruent,uniform,1,undefined,1,h,0,0,0,109,109,0,109,109,0,0,0,109,109,109,109,0,Fri Sep 27 18:24:14 2019,600,The main experiment item,yes,FlankerTest.osexp,/Users/Linzi/Desktop,no,mono,no,18,no,white,no,yes,768,legacy,29,79,/Users/Linzi/Desktop/LM-subject-1.csv,legacy,Kafkaesque Koffka,3.2.8,0,h,NA,s,h,NA,h,402,NA,616,9578,NA,402,2,legacy,1024,2,48000,-16,experiment,HHHHH,1,odd,6648,171825,NA,208917,NA,NA,229597,228339,6008,162241,NA,229724,230133,229571,229723,5976,Flanker Test,95,49468,110,yes,1024
86.48648649,86.48648649,449.2432432,449.2432432,black,legacy,legacy,legacy,0,incongruent,uniform,1,undefined,1,h,0,0,0,110,110,0,110,110,0,0,0,110,110,110,110,0,Fri Sep 27 18:24:14 2019,600,The main experiment item,yes,FlankerTest.osexp,/Users/Linzi/Desktop,no,mono,no,18,no,white,no,yes,768,legacy,30,79,/Users/Linzi/Desktop/LM-subject-1.csv,legacy,Kafkaesque Koffka,3.2.8,0,h,NA,s,h,NA,h,398,NA,616,9578,NA,398,2,legacy,1024,2,48000,-16,experiment,SSHSS,1,odd,6648,171825,NA,208917,NA,NA,231426,230164,6008,162241,NA,231552,231957,231398,231551,5976,Flanker Test,96,49866,111,yes,1024
86.60714286,86.60714286,450.3035714,450.3035714,black,legacy,legacy,legacy,0,incongruent,uniform,1,undefined,1,s,0,0,0,111,111,0,111,111,0,0,0,111,111,111,111,0,Fri Sep 27 18:24:14 2019,600,The main experiment item,yes,FlankerTest.osexp,/Users/Linzi/Desktop,no,mono,no,18,no,white,no,yes,768,legacy,31,79,/Users/Linzi/Desktop/LM-subject-1.csv,legacy,Kafkaesque Koffka,3.2.8,0,s,NA,s,h,NA,s,568,NA,616,9578,NA,568,2,legacy,1024,2,48000,-16,experiment,HHSHH,1,odd,6648,171825,NA,208917,NA,NA,233245,231988,6008,162241,NA,233372,233947,233219,233371,5976,Flanker Test,97,50434,112,yes,1024
86.72566372,86.72566372,449.8495575,449.8495575,black,legacy,legacy,legacy,0,congruent,uniform,1,undefined,1,s,0,0,0,112,112,0,112,112,0,0,0,112,112,112,112,0,Fri Sep 27 18:24:14 2019,600,The main experiment item,yes,FlankerTest.osexp,/Users/Linzi/Desktop,no,mono,no,18,no,white,no,yes,768,legacy,32,79,/Users/Linzi/Desktop/LM-subject-1.csv,legacy,Kafkaesque Koffka,3.2.8,0,s,NA,s,h,NA,s,399,NA,616,9578,NA,399,2,legacy,1024,2,48000,-16,experiment,SSSSS,1,odd,6648,171825,NA,208917,NA,NA,235237,233978,6008,162241,NA,235363,235769,235211,235363,5976,Flanker Test,98,50833,113,yes,1024
86.84210526,86.84210526,450.0087719,450.0087719,black,legacy,legacy,legacy,0,incongruent,uniform,1,undefined,1,s,0,0,0,113,113,0,113,113,0,0,0,113,113,113,113,0,Fri Sep 27 18:24:14 2019,600,The main experiment item,yes,FlankerTest.osexp,/Users/Linzi/Desktop,no,mono,no,18,no,white,no,yes,768,legacy,33,79,/Users/Linzi/Desktop/LM-subject-1.csv,legacy,Kafkaesque Koffka,3.2.8,0,s,NA,s,h,NA,s,468,NA,616,9578,NA,468,2,legacy,1024,2,48000,-16,experiment,HHSHH,1,odd,6648,171825,NA,208917,NA,NA,237057,235800,6008,162241,NA,237183,237658,237030,237183,5976,Flanker Test,99,51301,114,yes,1024
86.95652174,86.95652174,449.173913,449.173913,black,legacy,legacy,legacy,0,congruent,uniform,1,undefined,1,h,0,0,0,114,114,0,114,114,0,0,0,114,114,114,114,0,Fri Sep 27 18:24:14 2019,600,The main experiment item,yes,FlankerTest.osexp,/Users/Linzi/Desktop,no,mono,no,18,no,white,no,yes,768,legacy,34,79,/Users/Linzi/Desktop/LM-subject-1.csv,legacy,Kafkaesque Koffka,3.2.8,0,h,NA,s,h,NA,h,354,NA,616,9578,NA,354,2,legacy,1024,2,48000,-16,experiment,HHHHH,1,odd,6648,171825,NA,208917,NA,NA,238947,237690,6008,162241,NA,239074,239435,238921,239073,5976,Flanker Test,100,51655,115,yes,1024
87.06896552,87.06896552,448.4568966,448.4568966,black,legacy,legacy,legacy,0,incongruent,uniform,1,undefined,1,h,0,0,0,115,115,0,115,115,0,0,0,115,115,115,115,0,Fri Sep 27 18:24:14 2019,600,The main experiment item,yes,FlankerTest.osexp,/Users/Linzi/Desktop,no,mono,no,18,no,white,no,yes,768,legacy,35,79,/Users/Linzi/Desktop/LM-subject-1.csv,legacy,Kafkaesque Koffka,3.2.8,0,h,NA,s,h,NA,h,366,NA,616,9578,NA,366,2,legacy,1024,2,48000,-16,experiment,SSHSS,1,odd,6648,171825,NA,208917,NA,NA,240723,239466,6008,162241,NA,240849,241222,240696,240849,5976,Flanker Test,101,52021,116,yes,1024
87.17948718,87.17948718,447.7094017,447.7094017,black,legacy,legacy,legacy,0,congruent,uniform,1,undefined,1,h,0,0,0,116,116,0,116,116,0,0,0,116,116,116,116,0,Fri Sep 27 18:24:14 2019,600,The main experiment item,yes,FlankerTest.osexp,/Users/Linzi/Desktop,no,mono,no,18,no,white,no,yes,768,legacy,36,79,/Users/Linzi/Desktop/LM-subject-1.csv,legacy,Kafkaesque Koffka,3.2.8,0,h,NA,s,h,NA,h,361,NA,616,9578,NA,361,2,legacy,1024,2,48000,-16,experiment,HHHHH,1,odd,6648,171825,NA,208917,NA,NA,242513,241253,6008,162241,NA,242640,243008,242486,242639,5976,Flanker Test,102,52382,117,yes,1024
87.28813559,87.28813559,447.3305085,447.3305085,black,legacy,legacy,legacy,0,incongruent,uniform,1,undefined,1,h,0,0,0,117,117,0,117,117,0,0,0,117,117,117,117,0,Fri Sep 27 18:24:14 2019,600,The main experiment item,yes,FlankerTest.osexp,/Users/Linzi/Desktop,no,mono,no,18,no,white,no,yes,768,legacy,37,79,/Users/Linzi/Desktop/LM-subject-1.csv,legacy,Kafkaesque Koffka,3.2.8,0,h,NA,s,h,NA,h,403,NA,616,9578,NA,403,2,legacy,1024,2,48000,-16,experiment,SSHSS,1,odd,6648,171825,NA,208917,NA,NA,244297,243039,6008,162241,NA,244425,244835,244270,244424,5976,Flanker Test,103,52785,118,yes,1024
87.39495798,87.39495798,448.0336134,448.0336134,black,legacy,legacy,legacy,0,congruent,uniform,1,undefined,1,s,0,0,0,118,118,0,118,118,0,0,0,118,118,118,118,0,Fri Sep 27 18:24:14 2019,600,The main experiment item,yes,FlankerTest.osexp,/Users/Linzi/Desktop,no,mono,no,18,no,white,no,yes,768,legacy,38,79,/Users/Linzi/Desktop/LM-subject-1.csv,legacy,Kafkaesque Koffka,3.2.8,0,s,NA,s,h,NA,s,531,NA,616,9578,NA,531,2,legacy,1024,2,48000,-16,experiment,SSSSS,1,odd,6648,171825,NA,208917,NA,NA,246121,244866,6008,162241,NA,246249,246787,246095,246248,5976,Flanker Test,104,53316,119,yes,1024
87.5,87.5,448.0666667,448.0666667,black,legacy,legacy,legacy,0,congruent,uniform,1,undefined,1,h,0,0,0,119,119,0,119,119,0,0,0,119,119,119,119,0,Fri Sep 27 18:24:14 2019,600,The main experiment item,yes,FlankerTest.osexp,/Users/Linzi/Desktop,no,mono,no,18,no,white,no,yes,768,legacy,39,79,/Users/Linzi/Desktop/LM-subject-1.csv,legacy,Kafkaesque Koffka,3.2.8,0,h,NA,s,h,NA,h,452,NA,616,9578,NA,452,2,legacy,1024,2,48000,-16,experiment,HHHHH,1,odd,6648,171825,NA,208917,NA,NA,248075,246818,6008,162241,NA,248202,248661,248048,248202,5976,Flanker Test,105,53768,120,yes,1024
87.60330579,87.60330579,447.8264463,447.8264463,black,legacy,legacy,legacy,0,congruent,uniform,1,undefined,1,s,0,0,0,120,120,0,120,120,0,0,0,120,120,120,120,0,Fri Sep 27 18:24:14 2019,600,The main experiment item,yes,FlankerTest.osexp,/Users/Linzi/Desktop,no,mono,no,18,no,white,no,yes,768,legacy,40,79,/Users/Linzi/Desktop/LM-subject-1.csv,legacy,Kafkaesque Koffka,3.2.8,0,s,NA,s,h,NA,s,419,NA,616,9578,NA,419,2,legacy,1024,2,48000,-16,experiment,SSSSS,1,odd,6648,171825,NA,208917,NA,NA,249951,248693,6008,162241,NA,250078,250504,249924,250077,5976,Flanker Test,106,54187,121,yes,1024
87.70491803,87.70491803,447.4836066,447.4836066,black,legacy,legacy,legacy,0,congruent,uniform,1,undefined,1,h,0,0,0,121,121,0,121,121,0,0,0,121,121,121,121,0,Fri Sep 27 18:24:14 2019,600,The main experiment item,yes,FlankerTest.osexp,/Users/Linzi/Desktop,no,mono,no,18,no,white,no,yes,768,legacy,41,79,/Users/Linzi/Desktop/LM-subject-1.csv,legacy,Kafkaesque Koffka,3.2.8,0,h,NA,s,h,NA,h,406,NA,616,9578,NA,406,2,legacy,1024,2,48000,-16,experiment,HHHHH,1,odd,6648,171825,NA,208917,NA,NA,251793,250535,6008,162241,NA,251920,252333,251766,251920,5976,Flanker Test,107,54593,122,yes,1024
87.80487805,87.80487805,447.4796748,447.4796748,black,legacy,legacy,legacy,0,congruent,uniform,1,undefined,1,s,0,0,0,122,122,0,122,122,0,0,0,122,122,122,122,0,Fri Sep 27 18:24:14 2019,600,The main experiment item,yes,FlankerTest.osexp,/Users/Linzi/Desktop,no,mono,no,18,no,white,no,yes,768,legacy,42,79,/Users/Linzi/Desktop/LM-subject-1.csv,legacy,Kafkaesque Koffka,3.2.8,0,s,NA,s,h,NA,s,447,NA,616,9578,NA,447,2,legacy,1024,2,48000,-16,experiment,SSSSS,1,odd,6648,171825,NA,208917,NA,NA,253627,252365,6008,162241,NA,253753,254207,253600,253753,5976,Flanker Test,108,55040,123,yes,1024
87.90322581,87.90322581,447.6451613,447.6451613,black,legacy,legacy,legacy,0,incongruent,uniform,1,undefined,1,s,0,0,0,123,123,0,123,123,0,0,0,123,123,123,123,0,Fri Sep 27 18:24:14 2019,600,The main experiment item,yes,FlankerTest.osexp,/Users/Linzi/Desktop,no,mono,no,18,no,white,no,yes,768,legacy,43,79,/Users/Linzi/Desktop/LM-subject-1.csv,legacy,Kafkaesque Koffka,3.2.8,0,s,NA,s,h,NA,s,468,NA,616,9578,NA,468,2,legacy,1024,2,48000,-16,experiment,HHSHH,1,odd,6648,171825,NA,208917,NA,NA,255502,254238,6008,162241,NA,255629,256104,255475,255628,5976,Flanker Test,109,55508,124,yes,1024
88,88,447.888,447.888,black,legacy,legacy,legacy,0,incongruent,uniform,1,undefined,1,s,0,0,0,124,124,0,124,124,0,0,0,124,124,124,124,0,Fri Sep 27 18:24:14 2019,600,The main experiment item,yes,FlankerTest.osexp,/Users/Linzi/Desktop,no,mono,no,18,no,white,no,yes,768,legacy,44,79,/Users/Linzi/Desktop/LM-subject-1.csv,legacy,Kafkaesque Koffka,3.2.8,0,s,NA,s,h,NA,s,478,NA,616,9578,NA,478,2,legacy,1024,2,48000,-16,experiment,HHSHH,1,odd,6648,171825,NA,208917,NA,NA,257397,256135,6008,162241,NA,257523,258008,257370,257523,5976,Flanker Test,110,55986,125,yes,1024
88.0952381,88.0952381,447.547619,447.547619,black,legacy,legacy,legacy,0,congruent,uniform,1,undefined,1,s,0,0,0,125,125,0,125,125,0,0,0,125,125,125,125,0,Fri Sep 27 18:24:14 2019,600,The main experiment item,yes,FlankerTest.osexp,/Users/Linzi/Desktop,no,mono,no,18,no,white,no,yes,768,legacy,45,79,/Users/Linzi/Desktop/LM-subject-1.csv,legacy,Kafkaesque Koffka,3.2.8,0,s,NA,s,h,NA,s,405,NA,616,9578,NA,405,2,legacy,1024,2,48000,-16,experiment,SSSSS,1,odd,6648,171825,NA,208917,NA,NA,259293,258039,6008,162241,NA,259420,259832,259267,259420,5976,Flanker Test,111,56391,126,yes,1024
87.4015748,87.4015748,447.0472441,447.0472441,black,legacy,legacy,legacy,0,incongruent,uniform,0,undefined,0,s,0,0,0,126,126,0,126,126,0,0,0,126,126,126,126,0,Fri Sep 27 18:24:14 2019,600,The main experiment item,yes,FlankerTest.osexp,/Users/Linzi/Desktop,no,mono,no,18,no,white,no,yes,768,legacy,46,79,/Users/Linzi/Desktop/LM-subject-1.csv,legacy,Kafkaesque Koffka,3.2.8,0,h,NA,s,h,NA,h,384,NA,616,9578,NA,384,2,legacy,1024,2,48000,-16,experiment,HHSHH,1,odd,6648,171825,NA,208917,NA,NA,261121,259863,6008,162241,NA,261247,261638,261095,261247,5976,Flanker Test,111,56775,127,yes,1024
87.5,87.5,447.7265625,447.7265625,black,legacy,legacy,legacy,0,incongruent,uniform,1,undefined,1,s,0,0,0,127,127,0,127,127,0,0,0,127,127,127,127,0,Fri Sep 27 18:24:14 2019,600,The main experiment item,yes,FlankerTest.osexp,/Users/Linzi/Desktop,no,mono,no,18,no,white,no,yes,768,legacy,47,79,/Users/Linzi/Desktop/LM-subject-1.csv,legacy,Kafkaesque Koffka,3.2.8,0,s,NA,s,h,NA,s,534,NA,616,9578,NA,534,2,legacy,1024,2,48000,-16,experiment,HHSHH,1,odd,6648,171825,NA,261670,NA,NA,263456,262196,6008,162241,NA,263583,264125,263430,263582,5976,Flanker Test,112,57309,128,yes,1024
87.59689922,87.59689922,447.7209302,447.7209302,black,legacy,legacy,legacy,0,congruent,uniform,1,undefined,1,s,0,0,0,128,128,0,128,128,0,0,0,128,128,128,128,0,Fri Sep 27 18:24:14 2019,600,The main experiment item,yes,FlankerTest.osexp,/Users/Linzi/Desktop,no,mono,no,18,no,white,no,yes,768,legacy,48,79,/Users/Linzi/Desktop/LM-subject-1.csv,legacy,Kafkaesque Koffka,3.2.8,0,s,NA,s,h,NA,s,447,NA,616,9578,NA,447,2,legacy,1024,2,48000,-16,experiment,SSSSS,1,odd,6648,171825,NA,261670,NA,NA,265416,264157,6008,162241,NA,265543,265998,265389,265543,5976,Flanker Test,113,57756,129,yes,1024
87.69230769,87.69230769,447.8692308,447.8692308,black,legacy,legacy,legacy,0,incongruent,uniform,1,undefined,1,h,0,0,0,129,129,0,129,129,0,0,0,129,129,129,129,0,Fri Sep 27 18:24:14 2019,600,The main experiment item,yes,FlankerTest.osexp,/Users/Linzi/Desktop,no,mono,no,18,no,white,no,yes,768,legacy,49,79,/Users/Linzi/Desktop/LM-subject-1.csv,legacy,Kafkaesque Koffka,3.2.8,0,h,NA,s,h,NA,h,467,NA,616,9578,NA,467,2,legacy,1024,2,48000,-16,experiment,SSHSS,1,odd,6648,171825,NA,261670,NA,NA,267287,266028,6008,162241,NA,267413,267887,267260,267413,5976,Flanker Test,114,58223,130,yes,1024
87.78625954,87.78625954,447.6259542,447.6259542,black,legacy,legacy,legacy,0,congruent,uniform,1,undefined,1,h,0,0,0,130,130,0,130,130,0,0,0,130,130,130,130,0,Fri Sep 27 18:24:14 2019,600,The main experiment item,yes,FlankerTest.osexp,/Users/Linzi/Desktop,no,mono,no,18,no,white,no,yes,768,legacy,50,79,/Users/Linzi/Desktop/LM-subject-1.csv,legacy,Kafkaesque Koffka,3.2.8,0,h,NA,s,h,NA,h,416,NA,616,9578,NA,416,2,legacy,1024,2,48000,-16,experiment,HHHHH,1,odd,6648,171825,NA,261670,NA,NA,269176,267918,6008,162241,NA,269303,269727,269150,269302,5976,Flanker Test,115,58639,131,yes,1024
87.87878788,87.87878788,447.5454545,447.5454545,black,legacy,legacy,legacy,0,congruent,uniform,1,undefined,1,s,0,0,0,131,131,0,131,131,0,0,0,131,131,131,131,0,Fri Sep 27 18:24:14 2019,600,The main experiment item,yes,FlankerTest.osexp,/Users/Linzi/Desktop,no,mono,no,18,no,white,no,yes,768,legacy,51,79,/Users/Linzi/Desktop/LM-subject-1.csv,legacy,Kafkaesque Koffka,3.2.8,0,s,NA,s,h,NA,s,437,NA,616,9578,NA,437,2,legacy,1024,2,48000,-16,experiment,SSSSS,1,odd,6648,171825,NA,261670,NA,NA,271013,269758,6008,162241,NA,271139,271583,270987,271139,5976,Flanker Test,116,59076,132,yes,1024
87.96992481,87.96992481,447.2030075,447.2030075,black,legacy,legacy,legacy,0,incongruent,uniform,1,undefined,1,h,0,0,0,132,132,0,132,132,0,0,0,132,132,132,132,0,Fri Sep 27 18:24:14 2019,600,The main experiment item,yes,FlankerTest.osexp,/Users/Linzi/Desktop,no,mono,no,18,no,white,no,yes,768,legacy,52,79,/Users/Linzi/Desktop/LM-subject-1.csv,legacy,Kafkaesque Koffka,3.2.8,0,h,NA,s,h,NA,h,402,NA,616,9578,NA,402,2,legacy,1024,2,48000,-16,experiment,SSHSS,1,odd,6648,171825,NA,261670,NA,NA,272876,271615,6008,162241,NA,273001,273410,272849,273001,5976,Flanker Test,117,59478,133,yes,1024
88.05970149,88.05970149,447.6119403,447.6119403,black,legacy,legacy,legacy,0,congruent,uniform,1,undefined,1,h,0,0,0,133,133,0,133,133,0,0,0,133,133,133,133,0,Fri Sep 27 18:24:14 2019,600,The main experiment item,yes,FlankerTest.osexp,/Users/Linzi/Desktop,no,mono,no,18,no,white,no,yes,768,legacy,53,79,/Users/Linzi/Desktop/LM-subject-1.csv,legacy,Kafkaesque Koffka,3.2.8,0,h,NA,s,h,NA,h,502,NA,616,9578,NA,502,2,legacy,1024,2,48000,-16,experiment,HHHHH,1,odd,6648,171825,NA,261670,NA,NA,274701,273441,6008,162241,NA,274827,275337,274674,274827,5976,Flanker Test,118,59980,134,yes,1024
88.14814815,88.14814815,447.4666667,447.4666667,black,legacy,legacy,legacy,0,incongruent,uniform,1,undefined,1,h,0,0,0,134,134,0,134,134,0,0,0,134,134,134,134,0,Fri Sep 27 18:24:14 2019,600,The main experiment item,yes,FlankerTest.osexp,/Users/Linzi/Desktop,no,mono,no,18,no,white,no,yes,768,legacy,54,79,/Users/Linzi/Desktop/LM-subject-1.csv,legacy,Kafkaesque Koffka,3.2.8,0,h,NA,s,h,NA,h,428,NA,616,9578,NA,428,2,legacy,1024,2,48000,-16,experiment,SSHSS,1,odd,6648,171825,NA,261670,NA,NA,276628,275369,6008,162241,NA,276754,277190,276601,276754,5976,Flanker Test,119,60408,135,yes,1024
88.23529412,88.23529412,448.0441176,448.0441176,black,legacy,legacy,legacy,0,incongruent,uniform,1,undefined,1,s,0,0,0,135,135,0,135,135,0,0,0,135,135,135,135,0,Fri Sep 27 18:24:14 2019,600,The main experiment item,yes,FlankerTest.osexp,/Users/Linzi/Desktop,no,mono,no,18,no,white,no,yes,768,legacy,55,79,/Users/Linzi/Desktop/LM-subject-1.csv,legacy,Kafkaesque Koffka,3.2.8,0,s,NA,s,h,NA,s,526,NA,616,9578,NA,526,2,legacy,1024,2,48000,-16,experiment,HHSHH,1,odd,6648,171825,NA,261670,NA,NA,278486,277220,6008,162241,NA,278612,279145,278459,278611,5976,Flanker Test,120,60934,136,yes,1024
88.32116788,88.32116788,448.270073,448.270073,black,legacy,legacy,legacy,0,incongruent,uniform,1,undefined,1,s,0,0,0,136,136,0,136,136,0,0,0,136,136,136,136,0,Fri Sep 27 18:24:14 2019,600,The main experiment item,yes,FlankerTest.osexp,/Users/Linzi/Desktop,no,mono,no,18,no,white,no,yes,768,legacy,56,79,/Users/Linzi/Desktop/LM-subject-1.csv,legacy,Kafkaesque Koffka,3.2.8,0,s,NA,s,h,NA,s,479,NA,616,9578,NA,479,2,legacy,1024,2,48000,-16,experiment,HHSHH,1,odd,6648,171825,NA,261670,NA,NA,280441,279178,6008,162241,NA,280569,281056,280414,280568,5976,Flanker Test,121,61413,137,yes,1024
88.4057971,88.4057971,448.384058,448.384058,black,legacy,legacy,legacy,0,incongruent,uniform,1,undefined,1,h,0,0,0,137,137,0,137,137,0,0,0,137,137,137,137,0,Fri Sep 27 18:24:14 2019,600,The main experiment item,yes,FlankerTest.osexp,/Users/Linzi/Desktop,no,mono,no,18,no,white,no,yes,768,legacy,57,79,/Users/Linzi/Desktop/LM-subject-1.csv,legacy,Kafkaesque Koffka,3.2.8,0,h,NA,s,h,NA,h,464,NA,616,9578,NA,464,2,legacy,1024,2,48000,-16,experiment,SSHSS,1,odd,6648,171825,NA,261670,NA,NA,282349,281087,6008,162241,NA,282475,282946,282321,282475,5976,Flanker Test,122,61877,138,yes,1024
88.48920863,88.48920863,448.5179856,448.5179856,black,legacy,legacy,legacy,0,incongruent,uniform,1,undefined,1,s,0,0,0,138,138,0,138,138,0,0,0,138,138,138,138,0,Fri Sep 27 18:24:14 2019,600,The main experiment item,yes,FlankerTest.osexp,/Users/Linzi/Desktop,no,mono,no,18,no,white,no,yes,768,legacy,58,79,/Users/Linzi/Desktop/LM-subject-1.csv,legacy,Kafkaesque Koffka,3.2.8,0,s,NA,s,h,NA,s,467,NA,616,9578,NA,467,2,legacy,1024,2,48000,-16,experiment,HHSHH,1,odd,6648,171825,NA,261670,NA,NA,284238,282979,6008,162241,NA,284365,284840,284211,284364,5976,Flanker Test,123,62344,139,yes,1024
88.57142857,88.57142857,448.2428571,448.2428571,black,legacy,legacy,legacy,0,incongruent,uniform,1,undefined,1,h,0,0,0,139,139,0,139,139,0,0,0,139,139,139,139,0,Fri Sep 27 18:24:14 2019,600,The main experiment item,yes,FlankerTest.osexp,/Users/Linzi/Desktop,no,mono,no,18,no,white,no,yes,768,legacy,59,79,/Users/Linzi/Desktop/LM-subject-1.csv,legacy,Kafkaesque Koffka,3.2.8,0,h,NA,s,h,NA,h,410,NA,616,9578,NA,410,2,legacy,1024,2,48000,-16,experiment,SSHSS,1,odd,6648,171825,NA,261670,NA,NA,286127,284871,6008,162241,NA,286253,286671,286100,286252,5976,Flanker Test,124,62754,140,yes,1024
88.65248227,88.65248227,448.2907801,448.2907801,black,legacy,legacy,legacy,0,congruent,uniform,1,undefined,1,s,0,0,0,140,140,0,140,140,0,0,0,140,140,140,140,0,Fri Sep 27 18:24:14 2019,600,The main experiment item,yes,FlankerTest.osexp,/Users/Linzi/Desktop,no,mono,no,18,no,white,no,yes,768,legacy,60,79,/Users/Linzi/Desktop/LM-subject-1.csv,legacy,Kafkaesque Koffka,3.2.8,0,s,NA,s,h,NA,s,455,NA,616,9578,NA,455,2,legacy,1024,2,48000,-16,experiment,SSSSS,1,odd,6648,171825,NA,261670,NA,NA,287959,286702,6008,162241,NA,288085,288547,287932,288085,5976,Flanker Test,125,63209,141,yes,1024
88.73239437,88.73239437,448.1549296,448.1549296,black,legacy,legacy,legacy,0,congruent,uniform,1,undefined,1,h,0,0,0,141,141,0,141,141,0,0,0,141,141,141,141,0,Fri Sep 27 18:24:14 2019,600,The main experiment item,yes,FlankerTest.osexp,/Users/Linzi/Desktop,no,mono,no,18,no,white,no,yes,768,legacy,61,79,/Users/Linzi/Desktop/LM-subject-1.csv,legacy,Kafkaesque Koffka,3.2.8,0,h,NA,s,h,NA,h,429,NA,616,9578,NA,429,2,legacy,1024,2,48000,-16,experiment,HHHHH,1,odd,6648,171825,NA,261670,NA,NA,289837,288579,6008,162241,NA,289963,290399,289810,289962,5976,Flanker Test,126,63638,142,yes,1024
88.81118881,88.81118881,448.2447552,448.2447552,black,legacy,legacy,legacy,0,congruent,uniform,1,undefined,1,s,0,0,0,142,142,0,142,142,0,0,0,142,142,142,142,0,Fri Sep 27 18:24:14 2019,600,The main experiment item,yes,FlankerTest.osexp,/Users/Linzi/Desktop,no,mono,no,18,no,white,no,yes,768,legacy,62,79,/Users/Linzi/Desktop/LM-subject-1.csv,legacy,Kafkaesque Koffka,3.2.8,0,s,NA,s,h,NA,s,461,NA,616,9578,NA,461,2,legacy,1024,2,48000,-16,experiment,SSSSS,1,odd,6648,171825,NA,261670,NA,NA,291692,290430,6008,162241,NA,291821,292289,291665,291820,5976,Flanker Test,127,64099,143,yes,1024
88.88888889,88.88888889,448.3958333,448.3958333,black,legacy,legacy,legacy,0,incongruent,uniform,1,undefined,1,h,0,0,0,143,143,0,143,143,0,0,0,143,143,143,143,0,Fri Sep 27 18:24:14 2019,600,The main experiment item,yes,FlankerTest.osexp,/Users/Linzi/Desktop,no,mono,no,18,no,white,no,yes,768,legacy,63,79,/Users/Linzi/Desktop/LM-subject-1.csv,legacy,Kafkaesque Koffka,3.2.8,0,h,NA,s,h,NA,h,470,NA,616,9578,NA,470,2,legacy,1024,2,48000,-16,experiment,SSHSS,1,odd,6648,171825,NA,261670,NA,NA,293582,292320,6008,162241,NA,293708,294185,293556,293708,5976,Flanker Test,128,64569,144,yes,1024
88.96551724,88.96551724,448.6896552,448.6896552,black,legacy,legacy,legacy,0,incongruent,uniform,1,undefined,1,s,0,0,0,144,144,0,144,144,0,0,0,144,144,144,144,0,Fri Sep 27 18:24:14 2019,600,The main experiment item,yes,FlankerTest.osexp,/Users/Linzi/Desktop,no,mono,no,18,no,white,no,yes,768,legacy,64,79,/Users/Linzi/Desktop/LM-subject-1.csv,legacy,Kafkaesque Koffka,3.2.8,0,s,NA,s,h,NA,s,491,NA,616,9578,NA,491,2,legacy,1024,2,48000,-16,experiment,HHSHH,1,odd,6648,171825,NA,261670,NA,NA,295477,294216,6008,162241,NA,295603,296101,295450,295603,5976,Flanker Test,129,65060,145,yes,1024
89.04109589,89.04109589,448.5821918,448.5821918,black,legacy,legacy,legacy,0,congruent,uniform,1,undefined,1,h,0,0,0,145,145,0,145,145,0,0,0,145,145,145,145,0,Fri Sep 27 18:24:14 2019,600,The main experiment item,yes,FlankerTest.osexp,/Users/Linzi/Desktop,no,mono,no,18,no,white,no,yes,768,legacy,65,79,/Users/Linzi/Desktop/LM-subject-1.csv,legacy,Kafkaesque Koffka,3.2.8,0,h,NA,s,h,NA,h,433,NA,616,9578,NA,433,2,legacy,1024,2,48000,-16,experiment,HHHHH,1,odd,6648,171825,NA,261670,NA,NA,297394,296133,6008,162241,NA,297520,297961,297367,297520,5976,Flanker Test,130,65493,146,yes,1024
89.11564626,89.11564626,448.6326531,448.6326531,black,legacy,legacy,legacy,0,incongruent,uniform,1,undefined,1,s,0,0,0,146,146,0,146,146,0,0,0,146,146,146,146,0,Fri Sep 27 18:24:14 2019,600,The main experiment item,yes,FlankerTest.osexp,/Users/Linzi/Desktop,no,mono,no,18,no,white,no,yes,768,legacy,66,79,/Users/Linzi/Desktop/LM-subject-1.csv,legacy,Kafkaesque Koffka,3.2.8,0,s,NA,s,h,NA,s,456,NA,616,9578,NA,456,2,legacy,1024,2,48000,-16,experiment,HHSHH,1,odd,6648,171825,NA,261670,NA,NA,299253,297992,6008,162241,NA,299379,299843,299226,299378,5976,Flanker Test,131,65949,147,yes,1024
88.51351351,88.51351351,448.1418919,448.1418919,black,legacy,legacy,legacy,0,incongruent,uniform,0,undefined,0,h,0,0,0,147,147,0,147,147,0,0,0,147,147,147,147,0,Fri Sep 27 18:24:14 2019,600,The main experiment item,yes,FlankerTest.osexp,/Users/Linzi/Desktop,no,mono,no,18,no,white,no,yes,768,legacy,67,79,/Users/Linzi/Desktop/LM-subject-1.csv,legacy,Kafkaesque Koffka,3.2.8,0,s,NA,s,h,NA,s,376,NA,616,9578,NA,376,2,legacy,1024,2,48000,-16,experiment,SSHSS,1,odd,6648,171825,NA,261670,NA,NA,301130,299874,6008,162241,NA,301257,301641,301103,301256,5976,Flanker Test,131,66325,148,yes,1024
87.91946309,87.91946309,449.2147651,449.2147651,black,legacy,legacy,legacy,0,incongruent,uniform,0,undefined,0,s,0,0,0,148,148,0,148,148,0,0,0,148,148,148,148,0,Fri Sep 27 18:24:14 2019,600,The main experiment item,yes,FlankerTest.osexp,/Users/Linzi/Desktop,no,mono,no,18,no,white,no,yes,768,legacy,68,79,/Users/Linzi/Desktop/LM-subject-1.csv,legacy,Kafkaesque Koffka,3.2.8,0,h,NA,s,h,NA,h,608,NA,616,9578,NA,608,2,legacy,1024,2,48000,-16,experiment,HHSHH,1,odd,6648,171825,NA,301672,NA,NA,303458,302198,6008,162241,NA,303586,304202,303433,303585,5976,Flanker Test,131,66933,149,yes,1024
88,88,449.1933333,449.1933333,black,legacy,legacy,legacy,0,congruent,uniform,1,undefined,1,s,0,0,0,149,149,0,149,149,0,0,0,149,149,149,149,0,Fri Sep 27 18:24:14 2019,600,The main experiment item,yes,FlankerTest.osexp,/Users/Linzi/Desktop,no,mono,no,18,no,white,no,yes,768,legacy,69,79,/Users/Linzi/Desktop/LM-subject-1.csv,legacy,Kafkaesque Koffka,3.2.8,0,s,NA,s,h,NA,s,446,NA,616,9578,NA,446,2,legacy,1024,2,48000,-16,experiment,SSSSS,1,odd,6648,171825,NA,304234,304760,NA,306545,305287,6008,162241,NA,306672,307126,306520,306672,5976,Flanker Test,132,67379,150,yes,1024
88.0794702,88.0794702,448.6490066,448.6490066,black,legacy,legacy,legacy,0,congruent,uniform,1,undefined,1,s,0,0,0,150,150,0,150,150,0,0,0,150,150,150,150,0,Fri Sep 27 18:24:14 2019,600,The main experiment item,yes,FlankerTest.osexp,/Users/Linzi/Desktop,no,mono,no,18,no,white,no,yes,768,legacy,70,79,/Users/Linzi/Desktop/LM-subject-1.csv,legacy,Kafkaesque Koffka,3.2.8,0,s,NA,s,h,NA,s,367,NA,616,9578,NA,367,2,legacy,1024,2,48000,-16,experiment,SSSSS,1,odd,6648,171825,NA,304234,304760,NA,308416,307157,6008,162241,NA,308542,308917,308389,308541,5976,Flanker Test,133,67746,151,yes,1024
87.5,87.5,448.5197368,448.5197368,black,legacy,legacy,legacy,0,incongruent,uniform,0,undefined,0,s,0,0,0,151,151,0,151,151,0,0,0,151,151,151,151,0,Fri Sep 27 18:24:14 2019,600,The main experiment item,yes,FlankerTest.osexp,/Users/Linzi/Desktop,no,mono,no,18,no,white,no,yes,768,legacy,71,79,/Users/Linzi/Desktop/LM-subject-1.csv,legacy,Kafkaesque Koffka,3.2.8,0,h,NA,s,h,NA,h,429,NA,616,9578,NA,429,2,legacy,1024,2,48000,-16,experiment,HHSHH,1,odd,6648,171825,NA,304234,304760,NA,310208,308949,6008,162241,NA,310334,310771,310180,310333,5976,Flanker Test,133,68175,152,yes,1024
86.92810458,86.92810458,448.0392157,448.0392157,black,legacy,legacy,legacy,0,incongruent,uniform,0,undefined,0,h,0,0,0,152,152,0,152,152,0,0,0,152,152,152,152,0,Fri Sep 27 18:24:14 2019,600,The main experiment item,yes,FlankerTest.osexp,/Users/Linzi/Desktop,no,mono,no,18,no,white,no,yes,768,legacy,72,79,/Users/Linzi/Desktop/LM-subject-1.csv,legacy,Kafkaesque Koffka,3.2.8,0,s,NA,s,h,NA,s,375,NA,616,9578,NA,375,2,legacy,1024,2,48000,-16,experiment,SSHSS,1,odd,6648,171825,NA,310802,304760,NA,312588,311328,6008,162241,NA,312715,313098,312561,312714,5976,Flanker Test,133,68550,153,yes,1024
87.01298701,87.01298701,447.8766234,447.8766234,black,legacy,legacy,legacy,0,congruent,uniform,1,undefined,1,h,0,0,0,153,153,0,153,153,0,0,0,153,153,153,153,0,Fri Sep 27 18:24:14 2019,600,The main experiment item,yes,FlankerTest.osexp,/Users/Linzi/Desktop,no,mono,no,18,no,white,no,yes,768,legacy,73,79,/Users/Linzi/Desktop/LM-subject-1.csv,legacy,Kafkaesque Koffka,3.2.8,0,h,NA,s,h,NA,h,423,NA,616,9578,NA,423,2,legacy,1024,2,48000,-16,experiment,HHHHH,1,odd,6648,171825,NA,313129,304760,NA,314912,313655,6008,162241,NA,315040,315471,314887,315039,5976,Flanker Test,134,68973,154,yes,1024
87.09677419,87.09677419,447.8516129,447.8516129,black,legacy,legacy,legacy,0,congruent,uniform,1,undefined,1,h,0,0,0,154,154,0,154,154,0,0,0,154,154,154,154,0,Fri Sep 27 18:24:14 2019,600,The main experiment item,yes,FlankerTest.osexp,/Users/Linzi/Desktop,no,mono,no,18,no,white,no,yes,768,legacy,74,79,/Users/Linzi/Desktop/LM-subject-1.csv,legacy,Kafkaesque Koffka,3.2.8,0,h,NA,s,h,NA,h,444,NA,616,9578,NA,444,2,legacy,1024,2,48000,-16,experiment,HHHHH,1,odd,6648,171825,NA,313129,304760,NA,316764,315503,6008,162241,NA,316890,317343,316737,316890,5976,Flanker Test,135,69417,155,yes,1024
87.17948718,87.17948718,447.8782051,447.8782051,black,legacy,legacy,legacy,0,incongruent,uniform,1,undefined,1,h,0,0,0,155,155,0,155,155,0,0,0,155,155,155,155,0,Fri Sep 27 18:24:14 2019,600,The main experiment item,yes,FlankerTest.osexp,/Users/Linzi/Desktop,no,mono,no,18,no,white,no,yes,768,legacy,75,79,/Users/Linzi/Desktop/LM-subject-1.csv,legacy,Kafkaesque Koffka,3.2.8,0,h,NA,s,h,NA,h,452,NA,616,9578,NA,452,2,legacy,1024,2,48000,-16,experiment,SSHSS,1,odd,6648,171825,NA,313129,304760,NA,318634,317374,6008,162241,NA,318760,319220,318606,318760,5976,Flanker Test,136,69869,156,yes,1024
87.2611465,87.2611465,447.7643312,447.7643312,black,legacy,legacy,legacy,0,congruent,uniform,1,undefined,1,s,0,0,0,156,156,0,156,156,0,0,0,156,156,156,156,0,Fri Sep 27 18:24:14 2019,600,The main experiment item,yes,FlankerTest.osexp,/Users/Linzi/Desktop,no,mono,no,18,no,white,no,yes,768,legacy,76,79,/Users/Linzi/Desktop/LM-subject-1.csv,legacy,Kafkaesque Koffka,3.2.8,0,s,NA,s,h,NA,s,430,NA,616,9578,NA,430,2,legacy,1024,2,48000,-16,experiment,SSSSS,1,odd,6648,171825,NA,313129,304760,NA,320510,319252,6008,162241,NA,320637,321075,320483,320636,5976,Flanker Test,137,70299,157,yes,1024
86.70886076,86.70886076,447.3417722,447.3417722,black,legacy,legacy,legacy,0,incongruent,uniform,0,undefined,0,s,0,0,0,157,157,0,157,157,0,0,0,157,157,157,157,0,Fri Sep 27 18:24:14 2019,600,The main experiment item,yes,FlankerTest.osexp,/Users/Linzi/Desktop,no,mono,no,18,no,white,no,yes,768,legacy,77,79,/Users/Linzi/Desktop/LM-subject-1.csv,legacy,Kafkaesque Koffka,3.2.8,0,h,NA,s,h,NA,h,381,NA,616,9578,NA,381,2,legacy,1024,2,48000,-16,experiment,HHSHH,1,odd,6648,171825,NA,313129,304760,NA,322365,321106,6008,162241,NA,322491,322880,322338,322491,5976,Flanker Test,137,70680,158,yes,1024
86.79245283,86.79245283,447.7798742,447.7798742,black,legacy,legacy,legacy,0,incongruent,uniform,1,undefined,1,h,0,0,0,158,158,0,158,158,0,0,0,158,158,158,158,0,Fri Sep 27 18:24:14 2019,600,The main experiment item,yes,FlankerTest.osexp,/Users/Linzi/Desktop,no,mono,no,18,no,white,no,yes,768,legacy,78,79,/Users/Linzi/Desktop/LM-subject-1.csv,legacy,Kafkaesque Koffka,3.2.8,0,h,NA,s,h,NA,h,517,NA,616,9578,NA,517,2,legacy,1024,2,48000,-16,experiment,SSHSS,1,odd,6648,171825,NA,322911,304760,NA,324698,323438,6008,162241,NA,324824,325349,324672,324824,5976,Flanker Test,138,71197,159,yes,1024
86.875,86.875,448.10625,448.10625,black,legacy,legacy,legacy,0,incongruent,uniform,1,undefined,1,s,0,0,0,159,159,0,159,159,0,0,0,159,159,159,159,0,Fri Sep 27 18:24:14 2019,600,The main experiment item,yes,FlankerTest.osexp,/Users/Linzi/Desktop,no,mono,no,18,no,white,no,yes,768,legacy,79,79,/Users/Linzi/Desktop/LM-subject-1.csv,legacy,Kafkaesque Koffka,3.2.8,0,s,NA,s,h,NA,s,500,NA,616,9578,NA,500,2,legacy,1024,2,48000,-16,experiment,HHSHH,1,odd,6648,171825,NA,322911,304760,NA,326639,325380,6008,162241,NA,326765,327273,326612,326765,5976,Flanker Test,139,71697,160,yes,1024
86.95652174,86.95652174,447.8881988,447.8881988,black,legacy,legacy,legacy,0,congruent,uniform,1,undefined,1,s,0,0,0,160,160,0,160,160,0,0,0,160,160,160,160,0,Fri Sep 27 18:24:14 2019,300,The main experiment item,yes,FlankerTest.osexp,/Users/Linzi/Desktop,no,mono,no,18,no,white,no,yes,768,legacy,0,79,/Users/Linzi/Desktop/LM-subject-1.csv,legacy,Kafkaesque Koffka,3.2.8,0,s,NA,s,h,h,s,413,NA,616,9578,5785,413,2,legacy,1024,2,48000,-16,experiment,SSSSS,1,odd,6648,171825,334174,322911,304760,NA,334419,327304,6008,162241,328380,334546,334967,334392,334545,5976,Flanker Test,140,72110,161,yes,1024
87.03703704,87.03703704,447.382716,447.382716,black,legacy,legacy,legacy,0,congruent,uniform,1,undefined,1,h,0,0,0,161,161,0,161,161,0,0,0,161,161,161,161,0,Fri Sep 27 18:24:14 2019,300,The main experiment item,yes,FlankerTest.osexp,/Users/Linzi/Desktop,no,mono,no,18,no,white,no,yes,768,legacy,1,79,/Users/Linzi/Desktop/LM-subject-1.csv,legacy,Kafkaesque Koffka,3.2.8,0,h,NA,s,h,h,h,366,NA,616,9578,5785,366,2,legacy,1024,2,48000,-16,experiment,HHHHH,1,odd,6648,171825,334174,322911,334998,NA,336784,335524,6008,162241,328380,336910,337284,336757,336910,5976,Flanker Test,141,72476,162,yes,1024
86.50306748,86.50306748,447.006135,447.006135,black,legacy,legacy,legacy,0,congruent,uniform,0,undefined,0,h,0,0,0,162,162,0,162,162,0,0,0,162,162,162,162,0,Fri Sep 27 18:24:14 2019,300,The main experiment item,yes,FlankerTest.osexp,/Users/Linzi/Desktop,no,mono,no,18,no,white,no,yes,768,legacy,2,79,/Users/Linzi/Desktop/LM-subject-1.csv,legacy,Kafkaesque Koffka,3.2.8,0,s,NA,s,h,h,s,386,NA,616,9578,5785,386,2,legacy,1024,2,48000,-16,experiment,HHHHH,1,odd,6648,171825,334174,322911,337315,NA,339103,337841,6008,162241,328380,339230,339624,339077,339229,5976,Flanker Test,141,72862,163,yes,1024
85.97560976,85.97560976,446.2926829,446.2926829,black,legacy,legacy,legacy,0,incongruent,uniform,0,undefined,0,h,0,0,0,163,163,0,163,163,0,0,0,163,163,163,163,0,Fri Sep 27 18:24:14 2019,300,The main experiment item,yes,FlankerTest.osexp,/Users/Linzi/Desktop,no,mono,no,18,no,white,no,yes,768,legacy,3,79,/Users/Linzi/Desktop/LM-subject-1.csv,legacy,Kafkaesque Koffka,3.2.8,0,s,NA,s,h,h,s,330,NA,616,9578,5785,330,2,legacy,1024,2,48000,-16,experiment,SSHSS,1,odd,6648,171825,334174,339656,340186,NA,341972,340713,6008,162241,328380,342099,342437,341944,342098,5976,Flanker Test,141,73192,164,yes,1024
86.06060606,86.06060606,446.3333333,446.3333333,black,legacy,legacy,legacy,0,incongruent,uniform,1,undefined,1,h,0,0,0,164,164,0,164,164,0,0,0,164,164,164,164,0,Fri Sep 27 18:24:14 2019,300,The main experiment item,yes,FlankerTest.osexp,/Users/Linzi/Desktop,no,mono,no,18,no,white,no,yes,768,legacy,4,79,/Users/Linzi/Desktop/LM-subject-1.csv,legacy,Kafkaesque Koffka,3.2.8,0,h,NA,s,h,h,h,453,NA,616,9578,5785,453,2,legacy,1024,2,48000,-16,experiment,SSHSS,1,odd,6648,171825,334174,342467,342994,NA,344782,343521,6008,162241,328380,344908,345370,344756,344908,5976,Flanker Test,142,73645,165,yes,1024
86.14457831,86.14457831,446.5060241,446.5060241,black,legacy,legacy,legacy,0,incongruent,uniform,1,undefined,1,s,0,0,0,165,165,0,165,165,0,0,0,165,165,165,165,0,Fri Sep 27 18:24:14 2019,300,The main experiment item,yes,FlankerTest.osexp,/Users/Linzi/Desktop,no,mono,no,18,no,white,no,yes,768,legacy,5,79,/Users/Linzi/Desktop/LM-subject-1.csv,legacy,Kafkaesque Koffka,3.2.8,0,s,NA,s,h,h,s,475,NA,616,9578,5785,475,2,legacy,1024,2,48000,-16,experiment,HHSHH,1,odd,6648,171825,334174,342467,345402,NA,347186,345928,6008,162241,328380,347313,347796,347160,347313,5976,Flanker Test,143,74120,166,yes,1024
86.22754491,86.22754491,446.1556886,446.1556886,black,legacy,legacy,legacy,0,incongruent,uniform,1,undefined,1,s,0,0,0,166,166,0,166,166,0,0,0,166,166,166,166,0,Fri Sep 27 18:24:14 2019,300,The main experiment item,yes,FlankerTest.osexp,/Users/Linzi/Desktop,no,mono,no,18,no,white,no,yes,768,legacy,6,79,/Users/Linzi/Desktop/LM-subject-1.csv,legacy,Kafkaesque Koffka,3.2.8,0,s,NA,s,h,h,s,388,NA,616,9578,5785,388,2,legacy,1024,2,48000,-16,experiment,HHSHH,1,odd,6648,171825,334174,342467,347827,NA,349618,348354,6008,162241,328380,349744,350141,349591,349744,5976,Flanker Test,144,74508,167,yes,1024
86.30952381,86.30952381,446.0535714,446.0535714,black,legacy,legacy,legacy,0,incongruent,uniform,1,undefined,1,s,0,0,0,167,167,0,167,167,0,0,0,167,167,167,167,0,Fri Sep 27 18:24:14 2019,300,The main experiment item,yes,FlankerTest.osexp,/Users/Linzi/Desktop,no,mono,no,18,no,white,no,yes,768,legacy,7,79,/Users/Linzi/Desktop/LM-subject-1.csv,legacy,Kafkaesque Koffka,3.2.8,0,s,NA,s,h,h,s,429,NA,616,9578,5785,429,2,legacy,1024,2,48000,-16,experiment,HHSHH,1,odd,6648,171825,334174,342467,350172,NA,351958,350698,6008,162241,328380,352084,352522,351932,352084,5976,Flanker Test,145,74937,168,yes,1024
86.39053254,86.39053254,446.0887574,446.0887574,black,legacy,legacy,legacy,0,incongruent,uniform,1,undefined,1,h,0,0,0,168,168,0,168,168,0,0,0,168,168,168,168,0,Fri Sep 27 18:24:14 2019,300,The main experiment item,yes,FlankerTest.osexp,/Users/Linzi/Desktop,no,mono,no,18,no,white,no,yes,768,legacy,8,79,/Users/Linzi/Desktop/LM-subject-1.csv,legacy,Kafkaesque Koffka,3.2.8,0,h,NA,s,h,h,h,452,NA,616,9578,5785,452,2,legacy,1024,2,48000,-16,experiment,SSHSS,1,odd,6648,171825,334174,342467,352553,NA,354340,353081,6008,162241,328380,354467,354928,354312,354466,5976,Flanker Test,146,75389,169,yes,1024
86.47058824,86.47058824,446.3,446.3,black,legacy,legacy,legacy,0,congruent,uniform,1,undefined,1,s,0,0,0,169,169,0,169,169,0,0,0,169,169,169,169,0,Fri Sep 27 18:24:14 2019,300,The main experiment item,yes,FlankerTest.osexp,/Users/Linzi/Desktop,no,mono,no,18,no,white,no,yes,768,legacy,9,79,/Users/Linzi/Desktop/LM-subject-1.csv,legacy,Kafkaesque Koffka,3.2.8,0,s,NA,s,h,h,s,482,NA,616,9578,5785,482,2,legacy,1024,2,48000,-16,experiment,SSSSS,1,odd,6648,171825,334174,342467,354959,NA,356746,355486,6008,162241,328380,356872,357363,356720,356872,5976,Flanker Test,147,75871,170,yes,1024
86.5497076,86.5497076,446.502924,446.502924,black,legacy,legacy,legacy,0,incongruent,uniform,1,undefined,1,s,0,0,0,170,170,0,170,170,0,0,0,170,170,170,170,0,Fri Sep 27 18:24:14 2019,300,The main experiment item,yes,FlankerTest.osexp,/Users/Linzi/Desktop,no,mono,no,18,no,white,no,yes,768,legacy,10,79,/Users/Linzi/Desktop/LM-subject-1.csv,legacy,Kafkaesque Koffka,3.2.8,0,s,NA,s,h,h,s,481,NA,616,9578,5785,481,2,legacy,1024,2,48000,-16,experiment,HHSHH,1,odd,6648,171825,334174,342467,357394,NA,359182,357920,6008,162241,328380,359309,359799,359156,359308,5976,Flanker Test,148,76352,171,yes,1024
86.04651163,86.04651163,446.0465116,446.0465116,black,legacy,legacy,legacy,0,incongruent,uniform,0,undefined,0,h,0,0,0,171,171,0,171,171,0,0,0,171,171,171,171,0,Fri Sep 27 18:24:14 2019,300,The main experiment item,yes,FlankerTest.osexp,/Users/Linzi/Desktop,no,mono,no,18,no,white,no,yes,768,legacy,11,79,/Users/Linzi/Desktop/LM-subject-1.csv,legacy,Kafkaesque Koffka,3.2.8,0,s,NA,s,h,h,s,368,NA,616,9578,5785,368,2,legacy,1024,2,48000,-16,experiment,SSHSS,1,odd,6648,171825,334174,342467,359830,NA,361615,360358,6008,162241,328380,361741,362118,361589,361741,5976,Flanker Test,148,76720,172,yes,1024
