acc,accuracy,average_response_time,avg_rt,background,canvas_backend,clock_backend,color_backend,compensation,condition,coordinates,correct,correct_Instruction1,correct_Keyboard_Response,correct_response,count_Block1,count_Block2,count_Block3,count_ErrorFeedback,count_Faster,count_Finish,count_Fixation,count_ISI,count_Instruction1,count_Instruction2,count_Instruction3,count_Keyboard_Response,count_Logger,count_Sequence,count_Stimulus,count_experiment,datetime,deadline,description,disable_garbage_collection,experiment_file,experiment_path,font_bold,font_family,font_italic,font_size,font_underline,foreground,form_clicks,fullscreen,height,keyboard_backend,live_row,live_row_Block1,logfile,mouse_backend,opensesame_codename,opensesame_version,repeat_cycle,response,response_Finish,response_Instruction1,response_Instruction2,response_Instruction3,response_Keyboard_Response,response_time,response_time_Finish,response_time_Instruction1,response_time_Instruction2,response_time_Instruction3,response_time_Keyboard_Response,round_decimals,sampler_backend,sound_buf_size,sound_channels,sound_freq,sound_sample_size,start,stimulus,subject_nr,subject_parity,time_Block1,time_Block2,time_Block3,time_ErrorFeedback,time_Faster,time_Finish,time_Fixation,time_ISI,time_Instruction1,time_Instruction2,time_Instruction3,time_Keyboard_Response,time_Logger,time_Sequence,time_Stimulus,time_experiment,title,total_correct,total_response_time,total_responses,uniform_coordinates,width
100,100,467,467,black,legacy,legacy,legacy,0,congruent,uniform,1,undefined,1,s,0,0,0,0,0,0,0,0,0,0,0,0,0,0,0,0,Fri Sep 27 14:02:28 2019,1500,The main experiment item,yes,FlankerTest.osexp,/Users/Linzi/Desktop,no,mono,no,18,no,white,no,yes,768,legacy,0,0,/Users/Linzi/Desktop/LM-subject-2.csv,legacy,Kafkaesque Koffka,3.2.8,0,s,NA,s,NA,NA,s,467,NA,6701,NA,NA,467,2,legacy,1024,2,48000,-16,experiment,SSSSS,2,even,12392,NA,NA,NA,NA,NA,12663,NA,5673,NA,NA,12790,13260,12635,12789,5640,Flanker Test,1,467,1,yes,1024
100,100,421,421,black,legacy,legacy,legacy,0,congruent,uniform,1,undefined,1,s,0,0,0,1,1,0,1,1,0,0,0,1,1,1,1,0,Fri Sep 27 14:02:28 2019,1500,The main experiment item,yes,FlankerTest.osexp,/Users/Linzi/Desktop,no,mono,no,18,no,white,no,yes,768,legacy,1,1,/Users/Linzi/Desktop/LM-subject-2.csv,legacy,Kafkaesque Koffka,3.2.8,0,s,NA,s,NA,NA,s,375,NA,6701,NA,NA,375,2,legacy,1024,2,48000,-16,experiment,SSSSS,2,even,12392,NA,NA,NA,NA,NA,14578,13302,5673,NA,NA,14704,15082,14551,14704,5640,Flanker Test,2,842,2,yes,1024
66.66666667,66.66666667,472.3333333,472.3333333,black,legacy,legacy,legacy,0,incongruent,uniform,0,undefined,0,s,0,0,0,2,2,0,2,2,0,0,0,2,2,2,2,0,Fri Sep 27 14:02:28 2019,1500,The main experiment item,yes,FlankerTest.osexp,/Users/Linzi/Desktop,no,mono,no,18,no,white,no,yes,768,legacy,2,2,/Users/Linzi/Desktop/LM-subject-2.csv,legacy,Kafkaesque Koffka,3.2.8,0,h,NA,s,NA,NA,h,575,NA,6701,NA,NA,575,2,legacy,1024,2,48000,-16,experiment,HHSHH,2,even,12392,NA,NA,NA,NA,NA,16373,15113,5673,NA,NA,16499,17078,16346,16499,5640,Flanker Test,2,1417,3,yes,1024
75,75,454.25,454.25,black,legacy,legacy,legacy,0,congruent,uniform,1,undefined,1,h,0,0,0,3,3,0,3,3,0,0,0,3,3,3,3,0,Fri Sep 27 14:02:28 2019,1500,The main experiment item,yes,FlankerTest.osexp,/Users/Linzi/Desktop,no,mono,no,18,no,white,no,yes,768,legacy,3,3,/Users/Linzi/Desktop/LM-subject-2.csv,legacy,Kafkaesque Koffka,3.2.8,0,h,NA,s,NA,NA,h,400,NA,6701,NA,NA,400,2,legacy,1024,2,48000,-16,experiment,HHHHH,2,even,12392,NA,NA,17109,NA,NA,18897,17638,5673,NA,NA,19023,19427,18871,19023,5640,Flanker Test,3,1817,4,yes,1024
80,80,440,440,black,legacy,legacy,legacy,0,congruent,uniform,1,undefined,1,h,0,0,0,4,4,0,4,4,0,0,0,4,4,4,4,0,Fri Sep 27 14:02:28 2019,1500,The main experiment item,yes,FlankerTest.osexp,/Users/Linzi/Desktop,no,mono,no,18,no,white,no,yes,768,legacy,4,4,/Users/Linzi/Desktop/LM-subject-2.csv,legacy,Kafkaesque Koffka,3.2.8,0,h,NA,s,NA,NA,h,383,NA,6701,NA,NA,383,2,legacy,1024,2,48000,-16,experiment,HHHHH,2,even,12392,NA,NA,17109,NA,NA,20718,19460,5673,NA,NA,20846,21232,20692,20845,5640,Flanker Test,4,2200,5,yes,1024
83.33333333,83.33333333,446.1666667,446.1666667,black,legacy,legacy,legacy,0,incongruent,uniform,1,undefined,1,s,0,0,0,5,5,0,5,5,0,0,0,5,5,5,5,0,Fri Sep 27 14:02:28 2019,1500,The main experiment item,yes,FlankerTest.osexp,/Users/Linzi/Desktop,no,mono,no,18,no,white,no,yes,768,legacy,5,5,/Users/Linzi/Desktop/LM-subject-2.csv,legacy,Kafkaesque Koffka,3.2.8,0,s,NA,s,NA,NA,s,477,NA,6701,NA,NA,477,2,legacy,1024,2,48000,-16,experiment,HHSHH,2,even,12392,NA,NA,17109,NA,NA,22522,21263,5673,NA,NA,22648,23129,22495,22648,5640,Flanker Test,5,2677,6,yes,1024
85.71428571,85.71428571,435,435,black,legacy,legacy,legacy,0,congruent,uniform,1,undefined,1,s,0,0,0,6,6,0,6,6,0,0,0,6,6,6,6,0,Fri Sep 27 14:02:28 2019,1500,The main experiment item,yes,FlankerTest.osexp,/Users/Linzi/Desktop,no,mono,no,18,no,white,no,yes,768,legacy,6,6,/Users/Linzi/Desktop/LM-subject-2.csv,legacy,Kafkaesque Koffka,3.2.8,0,s,NA,s,NA,NA,s,368,NA,6701,NA,NA,368,2,legacy,1024,2,48000,-16,experiment,SSSSS,2,even,12392,NA,NA,17109,NA,NA,24416,23160,5673,NA,NA,24542,24914,24390,24542,5640,Flanker Test,6,3045,7,yes,1024
87.5,87.5,437.375,437.375,black,legacy,legacy,legacy,0,congruent,uniform,1,undefined,1,h,0,0,0,7,7,0,7,7,0,0,0,7,7,7,7,0,Fri Sep 27 14:02:28 2019,1500,The main experiment item,yes,FlankerTest.osexp,/Users/Linzi/Desktop,no,mono,no,18,no,white,no,yes,768,legacy,7,7,/Users/Linzi/Desktop/LM-subject-2.csv,legacy,Kafkaesque Koffka,3.2.8,0,h,NA,s,NA,NA,h,454,NA,6701,NA,NA,454,2,legacy,1024,2,48000,-16,experiment,HHHHH,2,even,12392,NA,NA,17109,NA,NA,26204,24945,5673,NA,NA,26331,26789,26177,26330,5640,Flanker Test,7,3499,8,yes,1024
88.88888889,88.88888889,439.4444444,439.4444444,black,legacy,legacy,legacy,0,congruent,uniform,1,undefined,1,s,0,0,0,8,8,0,8,8,0,0,0,8,8,8,8,0,Fri Sep 27 14:02:28 2019,1500,The main experiment item,yes,FlankerTest.osexp,/Users/Linzi/Desktop,no,mono,no,18,no,white,no,yes,768,legacy,8,8,/Users/Linzi/Desktop/LM-subject-2.csv,legacy,Kafkaesque Koffka,3.2.8,0,s,NA,s,NA,NA,s,456,NA,6701,NA,NA,456,2,legacy,1024,2,48000,-16,experiment,SSSSS,2,even,12392,NA,NA,17109,NA,NA,28075,26820,5673,NA,NA,28201,28661,28048,28201,5640,Flanker Test,8,3955,9,yes,1024
90,90,434.1,434.1,black,legacy,legacy,legacy,0,incongruent,uniform,1,undefined,1,s,0,0,0,9,9,0,9,9,0,0,0,9,9,9,9,0,Fri Sep 27 14:02:28 2019,1500,The main experiment item,yes,FlankerTest.osexp,/Users/Linzi/Desktop,no,mono,no,18,no,white,no,yes,768,legacy,9,9,/Users/Linzi/Desktop/LM-subject-2.csv,legacy,Kafkaesque Koffka,3.2.8,0,s,NA,s,NA,NA,s,386,NA,6701,NA,NA,386,2,legacy,1024,2,48000,-16,experiment,HHSHH,2,even,12392,NA,NA,17109,NA,NA,29952,28693,5673,NA,NA,30079,30469,29925,30078,5640,Flanker Test,9,4341,10,yes,1024
90.90909091,90.90909091,433.1818182,433.1818182,black,legacy,legacy,legacy,0,congruent,uniform,1,undefined,1,h,0,0,0,10,10,0,10,10,0,0,0,10,10,10,10,0,Fri Sep 27 14:02:28 2019,1500,The main experiment item,yes,FlankerTest.osexp,/Users/Linzi/Desktop,no,mono,no,18,no,white,no,yes,768,legacy,10,10,/Users/Linzi/Desktop/LM-subject-2.csv,legacy,Kafkaesque Koffka,3.2.8,0,h,NA,s,NA,NA,h,424,NA,6701,NA,NA,424,2,legacy,1024,2,48000,-16,experiment,HHHHH,2,even,12392,NA,NA,17109,NA,NA,31759,30500,5673,NA,NA,31885,32313,31733,31885,5640,Flanker Test,10,4765,11,yes,1024
91.66666667,91.66666667,429.25,429.25,black,legacy,legacy,legacy,0,congruent,uniform,1,undefined,1,h,0,0,0,11,11,0,11,11,0,0,0,11,11,11,11,0,Fri Sep 27 14:02:28 2019,1500,The main experiment item,yes,FlankerTest.osexp,/Users/Linzi/Desktop,no,mono,no,18,no,white,no,yes,768,legacy,11,11,/Users/Linzi/Desktop/LM-subject-2.csv,legacy,Kafkaesque Koffka,3.2.8,0,h,NA,s,NA,NA,h,386,NA,6701,NA,NA,386,2,legacy,1024,2,48000,-16,experiment,HHHHH,2,even,12392,NA,NA,17109,NA,NA,33603,32344,5673,NA,NA,33730,34120,33576,33729,5640,Flanker Test,11,5151,12,yes,1024
84.61538462,84.61538462,425.6153846,425.6153846,black,legacy,legacy,legacy,0,incongruent,uniform,0,undefined,0,s,0,0,0,12,12,0,12,12,0,0,0,12,12,12,12,0,Fri Sep 27 14:02:28 2019,1500,The main experiment item,yes,FlankerTest.osexp,/Users/Linzi/Desktop,no,mono,no,18,no,white,no,yes,768,legacy,12,12,/Users/Linzi/Desktop/LM-subject-2.csv,legacy,Kafkaesque Koffka,3.2.8,0,h,NA,s,NA,NA,h,382,NA,6701,NA,NA,382,2,legacy,1024,2,48000,-16,experiment,HHSHH,2,even,12392,NA,NA,17109,NA,NA,35410,34151,5673,NA,NA,35537,35923,35384,35536,5640,Flanker Test,11,5533,13,yes,1024
78.57142857,78.57142857,428.6428571,428.6428571,black,legacy,legacy,legacy,0,incongruent,uniform,0,undefined,0,h,0,0,0,13,13,0,13,13,0,0,0,13,13,13,13,0,Fri Sep 27 14:02:28 2019,1500,The main experiment item,yes,FlankerTest.osexp,/Users/Linzi/Desktop,no,mono,no,18,no,white,no,yes,768,legacy,13,13,/Users/Linzi/Desktop/LM-subject-2.csv,legacy,Kafkaesque Koffka,3.2.8,0,s,NA,s,NA,NA,s,468,NA,6701,NA,NA,468,2,legacy,1024,2,48000,-16,experiment,SSHSS,2,even,12392,NA,NA,35955,NA,NA,37744,36484,5673,NA,NA,37870,38342,37718,37870,5640,Flanker Test,11,6001,14,yes,1024
80,80,429.8,429.8,black,legacy,legacy,legacy,0,congruent,uniform,1,undefined,1,h,0,0,0,14,14,0,14,14,0,0,0,14,14,14,14,0,Fri Sep 27 14:02:28 2019,1500,The main experiment item,yes,FlankerTest.osexp,/Users/Linzi/Desktop,no,mono,no,18,no,white,no,yes,768,legacy,14,14,/Users/Linzi/Desktop/LM-subject-2.csv,legacy,Kafkaesque Koffka,3.2.8,0,h,NA,s,NA,NA,h,446,NA,6701,NA,NA,446,2,legacy,1024,2,48000,-16,experiment,HHHHH,2,even,12392,NA,NA,38374,NA,NA,40163,38904,5673,NA,NA,40289,40739,40137,40289,5640,Flanker Test,12,6447,15,yes,1024
81.25,81.25,434.1875,434.1875,black,legacy,legacy,legacy,0,congruent,uniform,1,undefined,1,h,0,0,0,15,15,0,15,15,0,0,0,15,15,15,15,0,Fri Sep 27 14:02:28 2019,1500,The main experiment item,yes,FlankerTest.osexp,/Users/Linzi/Desktop,no,mono,no,18,no,white,no,yes,768,legacy,15,15,/Users/Linzi/Desktop/LM-subject-2.csv,legacy,Kafkaesque Koffka,3.2.8,0,h,NA,s,NA,NA,h,500,NA,6701,NA,NA,500,2,legacy,1024,2,48000,-16,experiment,HHHHH,2,even,12392,NA,NA,38374,NA,NA,42029,40770,5673,NA,NA,42156,42660,42002,42155,5640,Flanker Test,13,6947,16,yes,1024
82.35294118,82.35294118,435.6470588,435.6470588,black,legacy,legacy,legacy,0,incongruent,uniform,1,undefined,1,h,0,0,0,16,16,0,16,16,0,0,0,16,16,16,16,0,Fri Sep 27 14:02:28 2019,1500,The main experiment item,yes,FlankerTest.osexp,/Users/Linzi/Desktop,no,mono,no,18,no,white,no,yes,768,legacy,16,16,/Users/Linzi/Desktop/LM-subject-2.csv,legacy,Kafkaesque Koffka,3.2.8,0,h,NA,s,NA,NA,h,459,NA,6701,NA,NA,459,2,legacy,1024,2,48000,-16,experiment,SSHSS,2,even,12392,NA,NA,38374,NA,NA,43949,42691,5673,NA,NA,44076,44539,43922,44075,5640,Flanker Test,14,7406,17,yes,1024
83.33333333,83.33333333,433.6111111,433.6111111,black,legacy,legacy,legacy,0,incongruent,uniform,1,undefined,1,s,0,0,0,17,17,0,17,17,0,0,0,17,17,17,17,0,Fri Sep 27 14:02:28 2019,1500,The main experiment item,yes,FlankerTest.osexp,/Users/Linzi/Desktop,no,mono,no,18,no,white,no,yes,768,legacy,17,17,/Users/Linzi/Desktop/LM-subject-2.csv,legacy,Kafkaesque Koffka,3.2.8,0,s,NA,s,NA,NA,s,399,NA,6701,NA,NA,399,2,legacy,1024,2,48000,-16,experiment,HHSHH,2,even,12392,NA,NA,38374,NA,NA,45833,44570,5673,NA,NA,45959,46362,45806,45959,5640,Flanker Test,15,7805,18,yes,1024
84.21052632,84.21052632,432.2631579,432.2631579,black,legacy,legacy,legacy,0,congruent,uniform,1,undefined,1,h,0,0,0,18,18,0,18,18,0,0,0,18,18,18,18,0,Fri Sep 27 14:02:28 2019,1500,The main experiment item,yes,FlankerTest.osexp,/Users/Linzi/Desktop,no,mono,no,18,no,white,no,yes,768,legacy,18,18,/Users/Linzi/Desktop/LM-subject-2.csv,legacy,Kafkaesque Koffka,3.2.8,0,h,NA,s,NA,NA,h,408,NA,6701,NA,NA,408,2,legacy,1024,2,48000,-16,experiment,HHHHH,2,even,12392,NA,NA,38374,NA,NA,47656,46393,5673,NA,NA,47782,48193,47628,47782,5640,Flanker Test,16,8213,19,yes,1024
80,80,426.75,426.75,black,legacy,legacy,legacy,0,incongruent,uniform,0,undefined,0,h,0,0,0,19,19,0,19,19,0,0,0,19,19,19,19,0,Fri Sep 27 14:02:28 2019,1500,The main experiment item,yes,FlankerTest.osexp,/Users/Linzi/Desktop,no,mono,no,18,no,white,no,yes,768,legacy,19,19,/Users/Linzi/Desktop/LM-subject-2.csv,legacy,Kafkaesque Koffka,3.2.8,0,s,NA,s,NA,NA,s,322,NA,6701,NA,NA,322,2,legacy,1024,2,48000,-16,experiment,SSHSS,2,even,12392,NA,NA,38374,NA,NA,49482,48225,5673,NA,NA,49610,49936,49455,49609,5640,Flanker Test,16,8535,20,yes,1024
80.95238095,80.95238095,423.8095238,423.8095238,black,legacy,legacy,legacy,0,incongruent,uniform,1,undefined,1,s,0,0,0,20,20,0,20,20,0,0,0,20,20,20,20,0,Fri Sep 27 14:02:28 2019,1500,The main experiment item,yes,FlankerTest.osexp,/Users/Linzi/Desktop,no,mono,no,18,no,white,no,yes,768,legacy,20,20,/Users/Linzi/Desktop/LM-subject-2.csv,legacy,Kafkaesque Koffka,3.2.8,0,s,NA,s,NA,NA,s,365,NA,6701,NA,NA,365,2,legacy,1024,2,48000,-16,experiment,HHSHH,2,even,12392,NA,NA,49967,NA,NA,51753,50494,5673,NA,NA,51879,52248,51727,51879,5640,Flanker Test,17,8900,21,yes,1024
81.81818182,81.81818182,422.6818182,422.6818182,black,legacy,legacy,legacy,0,congruent,uniform,1,undefined,1,s,0,0,0,21,21,0,21,21,0,0,0,21,21,21,21,0,Fri Sep 27 14:02:28 2019,1500,The main experiment item,yes,FlankerTest.osexp,/Users/Linzi/Desktop,no,mono,no,18,no,white,no,yes,768,legacy,21,21,/Users/Linzi/Desktop/LM-subject-2.csv,legacy,Kafkaesque Koffka,3.2.8,0,s,NA,s,NA,NA,s,399,NA,6701,NA,NA,399,2,legacy,1024,2,48000,-16,experiment,SSSSS,2,even,12392,NA,NA,49967,NA,NA,53538,52278,5673,NA,NA,53665,54068,53511,53665,5640,Flanker Test,18,9299,22,yes,1024
82.60869565,82.60869565,423.7391304,423.7391304,black,legacy,legacy,legacy,0,congruent,uniform,1,undefined,1,h,0,0,0,22,22,0,22,22,0,0,0,22,22,22,22,0,Fri Sep 27 14:02:28 2019,1500,The main experiment item,yes,FlankerTest.osexp,/Users/Linzi/Desktop,no,mono,no,18,no,white,no,yes,768,legacy,22,22,/Users/Linzi/Desktop/LM-subject-2.csv,legacy,Kafkaesque Koffka,3.2.8,0,h,NA,s,NA,NA,h,447,NA,6701,NA,NA,447,2,legacy,1024,2,48000,-16,experiment,HHHHH,2,even,12392,NA,NA,49967,NA,NA,55359,54099,5673,NA,NA,55485,55936,55332,55485,5640,Flanker Test,19,9746,23,yes,1024
83.33333333,83.33333333,424.375,424.375,black,legacy,legacy,legacy,0,incongruent,uniform,1,undefined,1,s,0,0,0,23,23,0,23,23,0,0,0,23,23,23,23,0,Fri Sep 27 14:02:28 2019,1500,The main experiment item,yes,FlankerTest.osexp,/Users/Linzi/Desktop,no,mono,no,18,no,white,no,yes,768,legacy,23,23,/Users/Linzi/Desktop/LM-subject-2.csv,legacy,Kafkaesque Koffka,3.2.8,0,s,NA,s,NA,NA,s,439,NA,6701,NA,NA,439,2,legacy,1024,2,48000,-16,experiment,HHSHH,2,even,12392,NA,NA,49967,NA,NA,57226,55967,5673,NA,NA,57353,57796,57199,57352,5640,Flanker Test,20,10185,24,yes,1024
84,84,425.44,425.44,black,legacy,legacy,legacy,0,incongruent,uniform,1,undefined,1,h,0,0,0,24,24,0,24,24,0,0,0,24,24,24,24,0,Fri Sep 27 14:02:28 2019,1500,The main experiment item,yes,FlankerTest.osexp,/Users/Linzi/Desktop,no,mono,no,18,no,white,no,yes,768,legacy,24,24,/Users/Linzi/Desktop/LM-subject-2.csv,legacy,Kafkaesque Koffka,3.2.8,0,h,NA,s,NA,NA,h,451,NA,6701,NA,NA,451,2,legacy,1024,2,48000,-16,experiment,SSHSS,2,even,12392,NA,NA,49967,NA,NA,59084,57827,5673,NA,NA,59210,59665,59057,59210,5640,Flanker Test,21,10636,25,yes,1024
84.61538462,84.61538462,426.1538462,426.1538462,black,legacy,legacy,legacy,0,incongruent,uniform,1,undefined,1,s,0,0,0,25,25,0,25,25,0,0,0,25,25,25,25,0,Fri Sep 27 14:02:28 2019,1500,The main experiment item,yes,FlankerTest.osexp,/Users/Linzi/Desktop,no,mono,no,18,no,white,no,yes,768,legacy,25,25,/Users/Linzi/Desktop/LM-subject-2.csv,legacy,Kafkaesque Koffka,3.2.8,0,s,NA,s,NA,NA,s,444,NA,6701,NA,NA,444,2,legacy,1024,2,48000,-16,experiment,HHSHH,2,even,12392,NA,NA,49967,NA,NA,60958,59697,5673,NA,NA,61084,61532,60931,61084,5640,Flanker Test,22,11080,26,yes,1024
85.18518519,85.18518519,427.7407407,427.7407407,black,legacy,legacy,legacy,0,incongruent,uniform,1,undefined,1,s,0,0,0,26,26,0,26,26,0,0,0,26,26,26,26,0,Fri Sep 27 14:02:28 2019,1500,The main experiment item,yes,FlankerTest.osexp,/Users/Linzi/Desktop,no,mono,no,18,no,white,no,yes,768,legacy,26,26,/Users/Linzi/Desktop/LM-subject-2.csv,legacy,Kafkaesque Koffka,3.2.8,0,s,NA,s,NA,NA,s,469,NA,6701,NA,NA,469,2,legacy,1024,2,48000,-16,experiment,HHSHH,2,even,12392,NA,NA,49967,NA,NA,62823,61563,5673,NA,NA,62949,63423,62796,62949,5640,Flanker Test,23,11549,27,yes,1024
85.71428571,85.71428571,426.4285714,426.4285714,black,legacy,legacy,legacy,0,congruent,uniform,1,undefined,1,s,0,0,0,27,27,0,27,27,0,0,0,27,27,27,27,0,Fri Sep 27 14:02:28 2019,1500,The main experiment item,yes,FlankerTest.osexp,/Users/Linzi/Desktop,no,mono,no,18,no,white,no,yes,768,legacy,27,27,/Users/Linzi/Desktop/LM-subject-2.csv,legacy,Kafkaesque Koffka,3.2.8,0,s,NA,s,NA,NA,s,391,NA,6701,NA,NA,391,2,legacy,1024,2,48000,-16,experiment,SSSSS,2,even,12392,NA,NA,49967,NA,NA,64711,63454,5673,NA,NA,64838,65234,64684,64837,5640,Flanker Test,24,11940,28,yes,1024
86.20689655,86.20689655,423.0689655,423.0689655,black,legacy,legacy,legacy,0,congruent,uniform,1,undefined,1,h,0,0,0,28,28,0,28,28,0,0,0,28,28,28,28,0,Fri Sep 27 14:02:28 2019,1500,The main experiment item,yes,FlankerTest.osexp,/Users/Linzi/Desktop,no,mono,no,18,no,white,no,yes,768,legacy,28,28,/Users/Linzi/Desktop/LM-subject-2.csv,legacy,Kafkaesque Koffka,3.2.8,0,h,NA,s,NA,NA,h,329,NA,6701,NA,NA,329,2,legacy,1024,2,48000,-16,experiment,HHHHH,2,even,12392,NA,NA,49967,NA,NA,66530,65265,5673,NA,NA,66658,66991,66504,66657,5640,Flanker Test,25,12269,29,yes,1024
86.66666667,86.66666667,422.1666667,422.1666667,black,legacy,legacy,legacy,0,congruent,uniform,1,undefined,1,s,0,0,0,29,29,0,29,29,0,0,0,29,29,29,29,0,Fri Sep 27 14:02:28 2019,1500,The main experiment item,yes,FlankerTest.osexp,/Users/Linzi/Desktop,no,mono,no,18,no,white,no,yes,768,legacy,29,29,/Users/Linzi/Desktop/LM-subject-2.csv,legacy,Kafkaesque Koffka,3.2.8,0,s,NA,s,NA,NA,s,396,NA,6701,NA,NA,396,2,legacy,1024,2,48000,-16,experiment,SSSSS,2,even,12392,NA,NA,49967,NA,NA,68279,67023,5673,NA,NA,68406,68807,68252,68405,5640,Flanker Test,26,12665,30,yes,1024
87.09677419,87.09677419,420.0322581,420.0322581,black,legacy,legacy,legacy,0,congruent,uniform,1,undefined,1,s,0,0,0,30,30,0,30,30,0,0,0,30,30,30,30,0,Fri Sep 27 14:02:28 2019,1500,The main experiment item,yes,FlankerTest.osexp,/Users/Linzi/Desktop,no,mono,no,18,no,white,no,yes,768,legacy,30,30,/Users/Linzi/Desktop/LM-subject-2.csv,legacy,Kafkaesque Koffka,3.2.8,0,s,NA,s,NA,NA,s,356,NA,6701,NA,NA,356,2,legacy,1024,2,48000,-16,experiment,SSSSS,2,even,12392,NA,NA,49967,NA,NA,70093,68838,5673,NA,NA,70219,70580,70066,70219,5640,Flanker Test,27,13021,31,yes,1024
87.5,87.5,418.9375,418.9375,black,legacy,legacy,legacy,0,congruent,uniform,1,undefined,1,s,0,0,0,31,31,0,31,31,0,0,0,31,31,31,31,0,Fri Sep 27 14:02:28 2019,1500,The main experiment item,yes,FlankerTest.osexp,/Users/Linzi/Desktop,no,mono,no,18,no,white,no,yes,768,legacy,31,31,/Users/Linzi/Desktop/LM-subject-2.csv,legacy,Kafkaesque Koffka,3.2.8,0,s,NA,s,NA,NA,s,385,NA,6701,NA,NA,385,2,legacy,1024,2,48000,-16,experiment,SSSSS,2,even,12392,NA,NA,49967,NA,NA,71868,70611,5673,NA,NA,71995,72384,71841,71995,5640,Flanker Test,28,13406,32,yes,1024
87.87878788,87.87878788,418.0606061,418.0606061,black,legacy,legacy,legacy,0,incongruent,uniform,1,undefined,1,h,0,0,0,32,32,0,32,32,0,0,0,32,32,32,32,0,Fri Sep 27 14:02:28 2019,1500,The main experiment item,yes,FlankerTest.osexp,/Users/Linzi/Desktop,no,mono,no,18,no,white,no,yes,768,legacy,32,32,/Users/Linzi/Desktop/LM-subject-2.csv,legacy,Kafkaesque Koffka,3.2.8,0,h,NA,s,NA,NA,h,390,NA,6701,NA,NA,390,2,legacy,1024,2,48000,-16,experiment,SSHSS,2,even,12392,NA,NA,49967,NA,NA,73676,72415,5673,NA,NA,73803,74198,73648,73802,5640,Flanker Test,29,13796,33,yes,1024
88.23529412,88.23529412,418.3529412,418.3529412,black,legacy,legacy,legacy,0,incongruent,uniform,1,undefined,1,s,0,0,0,33,33,0,33,33,0,0,0,33,33,33,33,0,Fri Sep 27 14:02:28 2019,1500,The main experiment item,yes,FlankerTest.osexp,/Users/Linzi/Desktop,no,mono,no,18,no,white,no,yes,768,legacy,33,33,/Users/Linzi/Desktop/LM-subject-2.csv,legacy,Kafkaesque Koffka,3.2.8,0,s,NA,s,NA,NA,s,428,NA,6701,NA,NA,428,2,legacy,1024,2,48000,-16,experiment,HHSHH,2,even,12392,NA,NA,49967,NA,NA,75487,74229,5673,NA,NA,75614,76047,75461,75614,5640,Flanker Test,30,14224,34,yes,1024
88.57142857,88.57142857,416.7714286,416.7714286,black,legacy,legacy,legacy,0,congruent,uniform,1,undefined,1,h,0,0,0,34,34,0,34,34,0,0,0,34,34,34,34,0,Fri Sep 27 14:02:28 2019,1500,The main experiment item,yes,FlankerTest.osexp,/Users/Linzi/Desktop,no,mono,no,18,no,white,no,yes,768,legacy,34,34,/Users/Linzi/Desktop/LM-subject-2.csv,legacy,Kafkaesque Koffka,3.2.8,0,h,NA,s,NA,NA,h,363,NA,6701,NA,NA,363,2,legacy,1024,2,48000,-16,experiment,HHHHH,2,even,12392,NA,NA,49967,NA,NA,77334,76078,5673,NA,NA,77461,77828,77308,77461,5640,Flanker Test,31,14587,35,yes,1024
88.88888889,88.88888889,415.25,415.25,black,legacy,legacy,legacy,0,congruent,uniform,1,undefined,1,s,0,0,0,35,35,0,35,35,0,0,0,35,35,35,35,0,Fri Sep 27 14:02:28 2019,1500,The main experiment item,yes,FlankerTest.osexp,/Users/Linzi/Desktop,no,mono,no,18,no,white,no,yes,768,legacy,35,35,/Users/Linzi/Desktop/LM-subject-2.csv,legacy,Kafkaesque Koffka,3.2.8,0,s,NA,s,NA,NA,s,362,NA,6701,NA,NA,362,2,legacy,1024,2,48000,-16,experiment,SSSSS,2,even,12392,NA,NA,49967,NA,NA,79118,77860,5673,NA,NA,79245,79612,79091,79244,5640,Flanker Test,32,14949,36,yes,1024
89.18918919,89.18918919,414.9189189,414.9189189,black,legacy,legacy,legacy,0,incongruent,uniform,1,undefined,1,h,0,0,0,36,36,0,36,36,0,0,0,36,36,36,36,0,Fri Sep 27 14:02:28 2019,1500,The main experiment item,yes,FlankerTest.osexp,/Users/Linzi/Desktop,no,mono,no,18,no,white,no,yes,768,legacy,36,36,/Users/Linzi/Desktop/LM-subject-2.csv,legacy,Kafkaesque Koffka,3.2.8,0,h,NA,s,NA,NA,h,403,NA,6701,NA,NA,403,2,legacy,1024,2,48000,-16,experiment,SSHSS,2,even,12392,NA,NA,49967,NA,NA,80903,79643,5673,NA,NA,81029,81436,80876,81029,5640,Flanker Test,33,15352,37,yes,1024
89.47368421,89.47368421,414.3684211,414.3684211,black,legacy,legacy,legacy,0,congruent,uniform,1,undefined,1,h,0,0,0,37,37,0,37,37,0,0,0,37,37,37,37,0,Fri Sep 27 14:02:28 2019,1500,The main experiment item,yes,FlankerTest.osexp,/Users/Linzi/Desktop,no,mono,no,18,no,white,no,yes,768,legacy,37,37,/Users/Linzi/Desktop/LM-subject-2.csv,legacy,Kafkaesque Koffka,3.2.8,0,h,NA,s,NA,NA,h,394,NA,6701,NA,NA,394,2,legacy,1024,2,48000,-16,experiment,HHHHH,2,even,12392,NA,NA,49967,NA,NA,82727,81468,5673,NA,NA,82854,83253,82700,82853,5640,Flanker Test,34,15746,38,yes,1024
89.74358974,89.74358974,414.5384615,414.5384615,black,legacy,legacy,legacy,0,incongruent,uniform,1,undefined,1,h,0,0,0,38,38,0,38,38,0,0,0,38,38,38,38,0,Fri Sep 27 14:02:28 2019,1500,The main experiment item,yes,FlankerTest.osexp,/Users/Linzi/Desktop,no,mono,no,18,no,white,no,yes,768,legacy,38,38,/Users/Linzi/Desktop/LM-subject-2.csv,legacy,Kafkaesque Koffka,3.2.8,0,h,NA,s,NA,NA,h,421,NA,6701,NA,NA,421,2,legacy,1024,2,48000,-16,experiment,SSHSS,2,even,12392,NA,NA,49967,NA,NA,84541,83284,5673,NA,NA,84670,85095,84515,84669,5640,Flanker Test,35,16167,39,yes,1024
90,90,416,416,black,legacy,legacy,legacy,0,incongruent,uniform,1,undefined,1,s,0,0,0,39,39,0,39,39,0,0,0,39,39,39,39,0,Fri Sep 27 14:02:28 2019,1500,The main experiment item,yes,FlankerTest.osexp,/Users/Linzi/Desktop,no,mono,no,18,no,white,no,yes,768,legacy,39,39,/Users/Linzi/Desktop/LM-subject-2.csv,legacy,Kafkaesque Koffka,3.2.8,0,s,NA,s,NA,NA,s,473,NA,6701,NA,NA,473,2,legacy,1024,2,48000,-16,experiment,HHSHH,2,even,12392,NA,NA,49967,NA,NA,86384,85126,5673,NA,NA,86511,86988,86358,86510,5640,Flanker Test,36,16640,40,yes,1024
90.24390244,90.24390244,415.4878049,415.4878049,black,legacy,legacy,legacy,0,incongruent,uniform,1,undefined,1,s,0,0,0,40,40,0,40,40,0,0,0,40,40,40,40,0,Fri Sep 27 14:02:28 2019,1500,The main experiment item,yes,FlankerTest.osexp,/Users/Linzi/Desktop,no,mono,no,18,no,white,no,yes,768,legacy,40,40,/Users/Linzi/Desktop/LM-subject-2.csv,legacy,Kafkaesque Koffka,3.2.8,0,s,NA,s,NA,NA,s,395,NA,6701,NA,NA,395,2,legacy,1024,2,48000,-16,experiment,HHSHH,2,even,12392,NA,NA,49967,NA,NA,88280,87019,5673,NA,NA,88406,88806,88253,88406,5640,Flanker Test,37,17035,41,yes,1024
90.47619048,90.47619048,416.3809524,416.3809524,black,legacy,legacy,legacy,0,incongruent,uniform,1,undefined,1,h,0,0,0,41,41,0,41,41,0,0,0,41,41,41,41,0,Fri Sep 27 14:02:28 2019,1500,The main experiment item,yes,FlankerTest.osexp,/Users/Linzi/Desktop,no,mono,no,18,no,white,no,yes,768,legacy,41,41,/Users/Linzi/Desktop/LM-subject-2.csv,legacy,Kafkaesque Koffka,3.2.8,0,h,NA,s,NA,NA,h,453,NA,6701,NA,NA,453,2,legacy,1024,2,48000,-16,experiment,SSHSS,2,even,12392,NA,NA,49967,NA,NA,90093,88837,5673,NA,NA,90221,90678,90067,90220,5640,Flanker Test,38,17488,42,yes,1024
90.69767442,90.69767442,415.5348837,415.5348837,black,legacy,legacy,legacy,0,congruent,uniform,1,undefined,1,h,0,0,0,42,42,0,42,42,0,0,0,42,42,42,42,0,Fri Sep 27 14:02:28 2019,1500,The main experiment item,yes,FlankerTest.osexp,/Users/Linzi/Desktop,no,mono,no,18,no,white,no,yes,768,legacy,42,42,/Users/Linzi/Desktop/LM-subject-2.csv,legacy,Kafkaesque Koffka,3.2.8,0,h,NA,s,NA,NA,h,380,NA,6701,NA,NA,380,2,legacy,1024,2,48000,-16,experiment,HHHHH,2,even,12392,NA,NA,49967,NA,NA,91967,90710,5673,NA,NA,92094,92478,91940,92094,5640,Flanker Test,39,17868,43,yes,1024
90.90909091,90.90909091,414.9545455,414.9545455,black,legacy,legacy,legacy,0,congruent,uniform,1,undefined,1,h,0,0,0,43,43,0,43,43,0,0,0,43,43,43,43,0,Fri Sep 27 14:02:28 2019,1500,The main experiment item,yes,FlankerTest.osexp,/Users/Linzi/Desktop,no,mono,no,18,no,white,no,yes,768,legacy,43,43,/Users/Linzi/Desktop/LM-subject-2.csv,legacy,Kafkaesque Koffka,3.2.8,0,h,NA,s,NA,NA,h,390,NA,6701,NA,NA,390,2,legacy,1024,2,48000,-16,experiment,HHHHH,2,even,12392,NA,NA,49967,NA,NA,93774,92510,5673,NA,NA,93900,94294,93746,93900,5640,Flanker Test,40,18258,44,yes,1024
91.11111111,91.11111111,413.8444444,413.8444444,black,legacy,legacy,legacy,0,congruent,uniform,1,undefined,1,h,0,0,0,44,44,0,44,44,0,0,0,44,44,44,44,0,Fri Sep 27 14:02:28 2019,1500,The main experiment item,yes,FlankerTest.osexp,/Users/Linzi/Desktop,no,mono,no,18,no,white,no,yes,768,legacy,44,44,/Users/Linzi/Desktop/LM-subject-2.csv,legacy,Kafkaesque Koffka,3.2.8,0,h,NA,s,NA,NA,h,365,NA,6701,NA,NA,365,2,legacy,1024,2,48000,-16,experiment,HHHHH,2,even,12392,NA,NA,49967,NA,NA,95585,94326,5673,NA,NA,95713,96082,95559,95712,5640,Flanker Test,41,18623,45,yes,1024
91.30434783,91.30434783,412.8913043,412.8913043,black,legacy,legacy,legacy,0,congruent,uniform,1,undefined,1,s,0,0,0,45,45,0,45,45,0,0,0,45,45,45,45,0,Fri Sep 27 14:02:28 2019,1500,The main experiment item,yes,FlankerTest.osexp,/Users/Linzi/Desktop,no,mono,no,18,no,white,no,yes,768,legacy,45,45,/Users/Linzi/Desktop/LM-subject-2.csv,legacy,Kafkaesque Koffka,3.2.8,0,s,NA,s,NA,NA,s,370,NA,6701,NA,NA,370,2,legacy,1024,2,48000,-16,experiment,SSSSS,2,even,12392,NA,NA,49967,NA,NA,97371,96114,5673,NA,NA,97499,97873,97345,97498,5640,Flanker Test,42,18993,46,yes,1024
91.4893617,91.4893617,413.2978723,413.2978723,black,legacy,legacy,legacy,0,incongruent,uniform,1,undefined,1,s,0,0,0,46,46,0,46,46,0,0,0,46,46,46,46,0,Fri Sep 27 14:02:28 2019,1500,The main experiment item,yes,FlankerTest.osexp,/Users/Linzi/Desktop,no,mono,no,18,no,white,no,yes,768,legacy,46,46,/Users/Linzi/Desktop/LM-subject-2.csv,legacy,Kafkaesque Koffka,3.2.8,0,s,NA,s,NA,NA,s,432,NA,6701,NA,NA,432,2,legacy,1024,2,48000,-16,experiment,HHSHH,2,even,12392,NA,NA,49967,NA,NA,99164,97906,5673,NA,NA,99290,99726,99137,99290,5640,Flanker Test,43,19425,47,yes,1024
91.66666667,91.66666667,412.4583333,412.4583333,black,legacy,legacy,legacy,0,incongruent,uniform,1,undefined,1,s,0,0,0,47,47,0,47,47,0,0,0,47,47,47,47,0,Fri Sep 27 14:02:28 2019,1500,The main experiment item,yes,FlankerTest.osexp,/Users/Linzi/Desktop,no,mono,no,18,no,white,no,yes,768,legacy,47,47,/Users/Linzi/Desktop/LM-subject-2.csv,legacy,Kafkaesque Koffka,3.2.8,0,s,NA,s,NA,NA,s,373,NA,6701,NA,NA,373,2,legacy,1024,2,48000,-16,experiment,HHSHH,2,even,12392,NA,NA,49967,NA,NA,101015,99758,5673,NA,NA,101141,101518,100989,101141,5640,Flanker Test,44,19798,48,yes,1024
91.83673469,91.83673469,411.9183673,411.9183673,black,legacy,legacy,legacy,0,congruent,uniform,1,undefined,1,s,0,0,0,48,48,0,48,48,0,0,0,48,48,48,48,0,Fri Sep 27 14:02:28 2019,1500,The main experiment item,yes,FlankerTest.osexp,/Users/Linzi/Desktop,no,mono,no,18,no,white,no,yes,768,legacy,48,48,/Users/Linzi/Desktop/LM-subject-2.csv,legacy,Kafkaesque Koffka,3.2.8,0,s,NA,s,NA,NA,s,386,NA,6701,NA,NA,386,2,legacy,1024,2,48000,-16,experiment,SSSSS,2,even,12392,NA,NA,49967,NA,NA,102809,101550,5673,NA,NA,102935,103327,102782,102935,5640,Flanker Test,45,20184,49,yes,1024
92,92,412.4,412.4,black,legacy,legacy,legacy,0,incongruent,uniform,1,undefined,1,h,0,0,0,49,49,0,49,49,0,0,0,49,49,49,49,0,Fri Sep 27 14:02:28 2019,1500,The main experiment item,yes,FlankerTest.osexp,/Users/Linzi/Desktop,no,mono,no,18,no,white,no,yes,768,legacy,49,49,/Users/Linzi/Desktop/LM-subject-2.csv,legacy,Kafkaesque Koffka,3.2.8,0,h,NA,s,NA,NA,h,436,NA,6701,NA,NA,436,2,legacy,1024,2,48000,-16,experiment,SSHSS,2,even,12392,NA,NA,49967,NA,NA,104618,103358,5673,NA,NA,104744,105185,104590,104744,5640,Flanker Test,46,20620,50,yes,1024
92.15686275,92.15686275,411.627451,411.627451,black,legacy,legacy,legacy,0,congruent,uniform,1,undefined,1,h,0,0,0,50,50,0,50,50,0,0,0,50,50,50,50,0,Fri Sep 27 14:02:28 2019,1500,The main experiment item,yes,FlankerTest.osexp,/Users/Linzi/Desktop,no,mono,no,18,no,white,no,yes,768,legacy,50,50,/Users/Linzi/Desktop/LM-subject-2.csv,legacy,Kafkaesque Koffka,3.2.8,0,h,NA,s,NA,NA,h,373,NA,6701,NA,NA,373,2,legacy,1024,2,48000,-16,experiment,HHHHH,2,even,12392,NA,NA,49967,NA,NA,106477,105217,5673,NA,NA,106604,106982,106450,106603,5640,Flanker Test,47,20993,51,yes,1024
92.30769231,92.30769231,412.1923077,412.1923077,black,legacy,legacy,legacy,0,incongruent,uniform,1,undefined,1,h,0,0,0,51,51,0,51,51,0,0,0,51,51,51,51,0,Fri Sep 27 14:02:28 2019,1500,The main experiment item,yes,FlankerTest.osexp,/Users/Linzi/Desktop,no,mono,no,18,no,white,no,yes,768,legacy,51,51,/Users/Linzi/Desktop/LM-subject-2.csv,legacy,Kafkaesque Koffka,3.2.8,0,h,NA,s,NA,NA,h,441,NA,6701,NA,NA,441,2,legacy,1024,2,48000,-16,experiment,SSHSS,2,even,12392,NA,NA,49967,NA,NA,108271,107012,5673,NA,NA,108397,108843,108244,108397,5640,Flanker Test,48,21434,52,yes,1024
92.45283019,92.45283019,411.7924528,411.7924528,black,legacy,legacy,legacy,0,congruent,uniform,1,undefined,1,s,0,0,0,52,52,0,52,52,0,0,0,52,52,52,52,0,Fri Sep 27 14:02:28 2019,1500,The main experiment item,yes,FlankerTest.osexp,/Users/Linzi/Desktop,no,mono,no,18,no,white,no,yes,768,legacy,52,52,/Users/Linzi/Desktop/LM-subject-2.csv,legacy,Kafkaesque Koffka,3.2.8,0,s,NA,s,NA,NA,s,391,NA,6701,NA,NA,391,2,legacy,1024,2,48000,-16,experiment,SSSSS,2,even,12392,NA,NA,49967,NA,NA,110130,108875,5673,NA,NA,110256,110653,110103,110256,5640,Flanker Test,49,21825,53,yes,1024
92.59259259,92.59259259,411.3148148,411.3148148,black,legacy,legacy,legacy,0,congruent,uniform,1,undefined,1,s,0,0,0,53,53,0,53,53,0,0,0,53,53,53,53,0,Fri Sep 27 14:02:28 2019,1500,The main experiment item,yes,FlankerTest.osexp,/Users/Linzi/Desktop,no,mono,no,18,no,white,no,yes,768,legacy,53,53,/Users/Linzi/Desktop/LM-subject-2.csv,legacy,Kafkaesque Koffka,3.2.8,0,s,NA,s,NA,NA,s,386,NA,6701,NA,NA,386,2,legacy,1024,2,48000,-16,experiment,SSSSS,2,even,12392,NA,NA,49967,NA,NA,111943,110685,5673,NA,NA,112070,112461,111916,112070,5640,Flanker Test,50,22211,54,yes,1024
92.72727273,92.72727273,410.4545455,410.4545455,black,legacy,legacy,legacy,0,congruent,uniform,1,undefined,1,s,0,0,0,54,54,0,54,54,0,0,0,54,54,54,54,0,Fri Sep 27 14:02:28 2019,1500,The main experiment item,yes,FlankerTest.osexp,/Users/Linzi/Desktop,no,mono,no,18,no,white,no,yes,768,legacy,54,54,/Users/Linzi/Desktop/LM-subject-2.csv,legacy,Kafkaesque Koffka,3.2.8,0,s,NA,s,NA,NA,s,364,NA,6701,NA,NA,364,2,legacy,1024,2,48000,-16,experiment,SSSSS,2,even,12392,NA,NA,49967,NA,NA,113751,112493,5673,NA,NA,113878,114247,113724,113878,5640,Flanker Test,51,22575,55,yes,1024
92.85714286,92.85714286,410.6071429,410.6071429,black,legacy,legacy,legacy,0,incongruent,uniform,1,undefined,1,h,0,0,0,55,55,0,55,55,0,0,0,55,55,55,55,0,Fri Sep 27 14:02:28 2019,1500,The main experiment item,yes,FlankerTest.osexp,/Users/Linzi/Desktop,no,mono,no,18,no,white,no,yes,768,legacy,55,55,/Users/Linzi/Desktop/LM-subject-2.csv,legacy,Kafkaesque Koffka,3.2.8,0,h,NA,s,NA,NA,h,419,NA,6701,NA,NA,419,2,legacy,1024,2,48000,-16,experiment,SSHSS,2,even,12392,NA,NA,49967,NA,NA,115535,114278,5673,NA,NA,115663,116087,115508,115663,5640,Flanker Test,52,22994,56,yes,1024
92.98245614,92.98245614,410.8947368,410.8947368,black,legacy,legacy,legacy,0,incongruent,uniform,1,undefined,1,h,0,0,0,56,56,0,56,56,0,0,0,56,56,56,56,0,Fri Sep 27 14:02:28 2019,1500,The main experiment item,yes,FlankerTest.osexp,/Users/Linzi/Desktop,no,mono,no,18,no,white,no,yes,768,legacy,56,56,/Users/Linzi/Desktop/LM-subject-2.csv,legacy,Kafkaesque Koffka,3.2.8,0,h,NA,s,NA,NA,h,427,NA,6701,NA,NA,427,2,legacy,1024,2,48000,-16,experiment,SSHSS,2,even,12392,NA,NA,49967,NA,NA,117375,116119,5673,NA,NA,117503,117935,117349,117502,5640,Flanker Test,53,23421,57,yes,1024
91.37931034,91.37931034,410.4655172,410.4655172,black,legacy,legacy,legacy,0,incongruent,uniform,0,undefined,0,s,0,0,0,57,57,0,57,57,0,0,0,57,57,57,57,0,Fri Sep 27 14:02:28 2019,1500,The main experiment item,yes,FlankerTest.osexp,/Users/Linzi/Desktop,no,mono,no,18,no,white,no,yes,768,legacy,57,57,/Users/Linzi/Desktop/LM-subject-2.csv,legacy,Kafkaesque Koffka,3.2.8,0,h,NA,s,NA,NA,h,386,NA,6701,NA,NA,386,2,legacy,1024,2,48000,-16,experiment,HHSHH,2,even,12392,NA,NA,49967,NA,NA,119224,117966,5673,NA,NA,119351,119742,119197,119350,5640,Flanker Test,53,23807,58,yes,1024
91.52542373,91.52542373,411.0677966,411.0677966,black,legacy,legacy,legacy,0,congruent,uniform,1,undefined,1,s,0,0,0,58,58,0,58,58,0,0,0,58,58,58,58,0,Fri Sep 27 14:02:28 2019,1500,The main experiment item,yes,FlankerTest.osexp,/Users/Linzi/Desktop,no,mono,no,18,no,white,no,yes,768,legacy,58,58,/Users/Linzi/Desktop/LM-subject-2.csv,legacy,Kafkaesque Koffka,3.2.8,0,s,NA,s,NA,NA,s,446,NA,6701,NA,NA,446,2,legacy,1024,2,48000,-16,experiment,SSSSS,2,even,12392,NA,NA,119773,NA,NA,121555,120300,5673,NA,NA,121681,122132,121529,121681,5640,Flanker Test,54,24253,59,yes,1024
91.66666667,91.66666667,411.3,411.3,black,legacy,legacy,legacy,0,incongruent,uniform,1,undefined,1,h,0,0,0,59,59,0,59,59,0,0,0,59,59,59,59,0,Fri Sep 27 14:02:28 2019,1500,The main experiment item,yes,FlankerTest.osexp,/Users/Linzi/Desktop,no,mono,no,18,no,white,no,yes,768,legacy,59,59,/Users/Linzi/Desktop/LM-subject-2.csv,legacy,Kafkaesque Koffka,3.2.8,0,h,NA,s,NA,NA,h,425,NA,6701,NA,NA,425,2,legacy,1024,2,48000,-16,experiment,SSHSS,2,even,12392,NA,NA,119773,NA,NA,123421,122164,5673,NA,NA,123547,123977,123394,123547,5640,Flanker Test,55,24678,60,yes,1024
91.80327869,91.80327869,411.0491803,411.0491803,black,legacy,legacy,legacy,0,congruent,uniform,1,undefined,1,h,0,0,0,60,60,0,60,60,0,0,0,60,60,60,60,0,Fri Sep 27 14:02:28 2019,1500,The main experiment item,yes,FlankerTest.osexp,/Users/Linzi/Desktop,no,mono,no,18,no,white,no,yes,768,legacy,60,60,/Users/Linzi/Desktop/LM-subject-2.csv,legacy,Kafkaesque Koffka,3.2.8,0,h,NA,s,NA,NA,h,396,NA,6701,NA,NA,396,2,legacy,1024,2,48000,-16,experiment,HHHHH,2,even,12392,NA,NA,119773,NA,NA,125269,124008,5673,NA,NA,125395,125796,125241,125395,5640,Flanker Test,56,25074,61,yes,1024
91.93548387,91.93548387,410.7903226,410.7903226,black,legacy,legacy,legacy,0,congruent,uniform,1,undefined,1,h,0,0,0,61,61,0,61,61,0,0,0,61,61,61,61,0,Fri Sep 27 14:02:28 2019,1500,The main experiment item,yes,FlankerTest.osexp,/Users/Linzi/Desktop,no,mono,no,18,no,white,no,yes,768,legacy,61,61,/Users/Linzi/Desktop/LM-subject-2.csv,legacy,Kafkaesque Koffka,3.2.8,0,h,NA,s,NA,NA,h,395,NA,6701,NA,NA,395,2,legacy,1024,2,48000,-16,experiment,HHHHH,2,even,12392,NA,NA,119773,NA,NA,127086,125827,5673,NA,NA,127213,127613,127059,127212,5640,Flanker Test,57,25469,62,yes,1024
92.06349206,92.06349206,411.6349206,411.6349206,black,legacy,legacy,legacy,0,incongruent,uniform,1,undefined,1,h,0,0,0,62,62,0,62,62,0,0,0,62,62,62,62,0,Fri Sep 27 14:02:28 2019,1500,The main experiment item,yes,FlankerTest.osexp,/Users/Linzi/Desktop,no,mono,no,18,no,white,no,yes,768,legacy,62,62,/Users/Linzi/Desktop/LM-subject-2.csv,legacy,Kafkaesque Koffka,3.2.8,0,h,NA,s,NA,NA,h,464,NA,6701,NA,NA,464,2,legacy,1024,2,48000,-16,experiment,SSHSS,2,even,12392,NA,NA,119773,NA,NA,128903,127645,5673,NA,NA,129029,129498,128877,129029,5640,Flanker Test,58,25933,63,yes,1024
92.1875,92.1875,412.984375,412.984375,black,legacy,legacy,legacy,0,incongruent,uniform,1,undefined,1,s,0,0,0,63,63,0,63,63,0,0,0,63,63,63,63,0,Fri Sep 27 14:02:28 2019,1500,The main experiment item,yes,FlankerTest.osexp,/Users/Linzi/Desktop,no,mono,no,18,no,white,no,yes,768,legacy,63,63,/Users/Linzi/Desktop/LM-subject-2.csv,legacy,Kafkaesque Koffka,3.2.8,0,s,NA,s,NA,NA,s,498,NA,6701,NA,NA,498,2,legacy,1024,2,48000,-16,experiment,HHSHH,2,even,12392,NA,NA,119773,NA,NA,130789,129529,5673,NA,NA,130916,131419,130763,130915,5640,Flanker Test,59,26431,64,yes,1024
92.30769231,92.30769231,413.3846154,413.3846154,black,legacy,legacy,legacy,0,incongruent,uniform,1,undefined,1,h,0,0,0,64,64,0,64,64,0,0,0,64,64,64,64,0,Fri Sep 27 14:02:28 2019,1500,The main experiment item,yes,FlankerTest.osexp,/Users/Linzi/Desktop,no,mono,no,18,no,white,no,yes,768,legacy,64,64,/Users/Linzi/Desktop/LM-subject-2.csv,legacy,Kafkaesque Koffka,3.2.8,0,h,NA,s,NA,NA,h,439,NA,6701,NA,NA,439,2,legacy,1024,2,48000,-16,experiment,SSHSS,2,even,12392,NA,NA,119773,NA,NA,132707,131450,5673,NA,NA,132834,133278,132681,132834,5640,Flanker Test,60,26870,65,yes,1024
92.42424242,92.42424242,413.5,413.5,black,legacy,legacy,legacy,0,incongruent,uniform,1,undefined,1,h,0,0,0,65,65,0,65,65,0,0,0,65,65,65,65,0,Fri Sep 27 14:02:28 2019,1500,The main experiment item,yes,FlankerTest.osexp,/Users/Linzi/Desktop,no,mono,no,18,no,white,no,yes,768,legacy,65,65,/Users/Linzi/Desktop/LM-subject-2.csv,legacy,Kafkaesque Koffka,3.2.8,0,h,NA,s,NA,NA,h,421,NA,6701,NA,NA,421,2,legacy,1024,2,48000,-16,experiment,SSHSS,2,even,12392,NA,NA,119773,NA,NA,134569,133310,5673,NA,NA,134696,135122,134543,134696,5640,Flanker Test,61,27291,66,yes,1024
92.53731343,92.53731343,414.5522388,414.5522388,black,legacy,legacy,legacy,0,incongruent,uniform,1,undefined,1,s,0,0,0,66,66,0,66,66,0,0,0,66,66,66,66,0,Fri Sep 27 14:02:28 2019,1500,The main experiment item,yes,FlankerTest.osexp,/Users/Linzi/Desktop,no,mono,no,18,no,white,no,yes,768,legacy,66,66,/Users/Linzi/Desktop/LM-subject-2.csv,legacy,Kafkaesque Koffka,3.2.8,0,s,NA,s,NA,NA,s,484,NA,6701,NA,NA,484,2,legacy,1024,2,48000,-16,experiment,HHSHH,2,even,12392,NA,NA,119773,NA,NA,136412,135153,5673,NA,NA,136539,137028,136386,136539,5640,Flanker Test,62,27775,67,yes,1024
92.64705882,92.64705882,415.5147059,415.5147059,black,legacy,legacy,legacy,0,congruent,uniform,1,undefined,1,s,0,0,0,67,67,0,67,67,0,0,0,67,67,67,67,0,Fri Sep 27 14:02:28 2019,1500,The main experiment item,yes,FlankerTest.osexp,/Users/Linzi/Desktop,no,mono,no,18,no,white,no,yes,768,legacy,67,67,/Users/Linzi/Desktop/LM-subject-2.csv,legacy,Kafkaesque Koffka,3.2.8,0,s,NA,s,NA,NA,s,480,NA,6701,NA,NA,480,2,legacy,1024,2,48000,-16,experiment,SSSSS,2,even,12392,NA,NA,119773,NA,NA,138320,137060,5673,NA,NA,138446,138932,138292,138446,5640,Flanker Test,63,28255,68,yes,1024
92.75362319,92.75362319,415.4637681,415.4637681,black,legacy,legacy,legacy,0,incongruent,uniform,1,undefined,1,h,0,0,0,68,68,0,68,68,0,0,0,68,68,68,68,0,Fri Sep 27 14:02:28 2019,1500,The main experiment item,yes,FlankerTest.osexp,/Users/Linzi/Desktop,no,mono,no,18,no,white,no,yes,768,legacy,68,68,/Users/Linzi/Desktop/LM-subject-2.csv,legacy,Kafkaesque Koffka,3.2.8,0,h,NA,s,NA,NA,h,412,NA,6701,NA,NA,412,2,legacy,1024,2,48000,-16,experiment,SSHSS,2,even,12392,NA,NA,119773,NA,NA,140220,138963,5673,NA,NA,140348,140765,140193,140348,5640,Flanker Test,64,28667,69,yes,1024
92.85714286,92.85714286,415.4857143,415.4857143,black,legacy,legacy,legacy,0,incongruent,uniform,1,undefined,1,s,0,0,0,69,69,0,69,69,0,0,0,69,69,69,69,0,Fri Sep 27 14:02:28 2019,1500,The main experiment item,yes,FlankerTest.osexp,/Users/Linzi/Desktop,no,mono,no,18,no,white,no,yes,768,legacy,69,69,/Users/Linzi/Desktop/LM-subject-2.csv,legacy,Kafkaesque Koffka,3.2.8,0,s,NA,s,NA,NA,s,417,NA,6701,NA,NA,417,2,legacy,1024,2,48000,-16,experiment,HHSHH,2,even,12392,NA,NA,119773,NA,NA,142054,140797,5673,NA,NA,142181,142604,142027,142181,5640,Flanker Test,65,29084,70,yes,1024
92.95774648,92.95774648,415.1549296,415.1549296,black,legacy,legacy,legacy,0,congruent,uniform,1,undefined,1,s,0,0,0,70,70,0,70,70,0,0,0,70,70,70,70,0,Fri Sep 27 14:02:28 2019,1500,The main experiment item,yes,FlankerTest.osexp,/Users/Linzi/Desktop,no,mono,no,18,no,white,no,yes,768,legacy,70,70,/Users/Linzi/Desktop/LM-subject-2.csv,legacy,Kafkaesque Koffka,3.2.8,0,s,NA,s,NA,NA,s,392,NA,6701,NA,NA,392,2,legacy,1024,2,48000,-16,experiment,SSSSS,2,even,12392,NA,NA,119773,NA,NA,143897,142635,5673,NA,NA,144022,144420,143870,144022,5640,Flanker Test,66,29476,71,yes,1024
93.05555556,93.05555556,415.9027778,415.9027778,black,legacy,legacy,legacy,0,congruent,uniform,1,undefined,1,s,0,0,0,71,71,0,71,71,0,0,0,71,71,71,71,0,Fri Sep 27 14:02:28 2019,1500,The main experiment item,yes,FlankerTest.osexp,/Users/Linzi/Desktop,no,mono,no,18,no,white,no,yes,768,legacy,71,71,/Users/Linzi/Desktop/LM-subject-2.csv,legacy,Kafkaesque Koffka,3.2.8,0,s,NA,s,NA,NA,s,469,NA,6701,NA,NA,469,2,legacy,1024,2,48000,-16,experiment,SSSSS,2,even,12392,NA,NA,119773,NA,NA,145711,144452,5673,NA,NA,145838,146313,145684,145837,5640,Flanker Test,67,29945,72,yes,1024
93.15068493,93.15068493,415.3835616,415.3835616,black,legacy,legacy,legacy,0,incongruent,uniform,1,undefined,1,s,0,0,0,72,72,0,72,72,0,0,0,72,72,72,72,0,Fri Sep 27 14:02:28 2019,1500,The main experiment item,yes,FlankerTest.osexp,/Users/Linzi/Desktop,no,mono,no,18,no,white,no,yes,768,legacy,72,72,/Users/Linzi/Desktop/LM-subject-2.csv,legacy,Kafkaesque Koffka,3.2.8,0,s,NA,s,NA,NA,s,378,NA,6701,NA,NA,378,2,legacy,1024,2,48000,-16,experiment,HHSHH,2,even,12392,NA,NA,119773,NA,NA,147603,146344,5673,NA,NA,147730,148114,147576,147729,5640,Flanker Test,68,30323,73,yes,1024
93.24324324,93.24324324,416.1891892,416.1891892,black,legacy,legacy,legacy,0,incongruent,uniform,1,undefined,1,h,0,0,0,73,73,0,73,73,0,0,0,73,73,73,73,0,Fri Sep 27 14:02:28 2019,1500,The main experiment item,yes,FlankerTest.osexp,/Users/Linzi/Desktop,no,mono,no,18,no,white,no,yes,768,legacy,73,73,/Users/Linzi/Desktop/LM-subject-2.csv,legacy,Kafkaesque Koffka,3.2.8,0,h,NA,s,NA,NA,h,475,NA,6701,NA,NA,475,2,legacy,1024,2,48000,-16,experiment,SSHSS,2,even,12392,NA,NA,119773,NA,NA,149404,148145,5673,NA,NA,149530,150011,149376,149530,5640,Flanker Test,69,30798,74,yes,1024
93.33333333,93.33333333,417.1066667,417.1066667,black,legacy,legacy,legacy,0,incongruent,uniform,1,undefined,1,h,0,0,0,74,74,0,74,74,0,0,0,74,74,74,74,0,Fri Sep 27 14:02:28 2019,1500,The main experiment item,yes,FlankerTest.osexp,/Users/Linzi/Desktop,no,mono,no,18,no,white,no,yes,768,legacy,74,74,/Users/Linzi/Desktop/LM-subject-2.csv,legacy,Kafkaesque Koffka,3.2.8,0,h,NA,s,NA,NA,h,485,NA,6701,NA,NA,485,2,legacy,1024,2,48000,-16,experiment,SSHSS,2,even,12392,NA,NA,119773,NA,NA,151301,150043,5673,NA,NA,151428,151919,151274,151428,5640,Flanker Test,70,31283,75,yes,1024
93.42105263,93.42105263,417.0394737,417.0394737,black,legacy,legacy,legacy,0,congruent,uniform,1,undefined,1,h,0,0,0,75,75,0,75,75,0,0,0,75,75,75,75,0,Fri Sep 27 14:02:28 2019,1500,The main experiment item,yes,FlankerTest.osexp,/Users/Linzi/Desktop,no,mono,no,18,no,white,no,yes,768,legacy,75,75,/Users/Linzi/Desktop/LM-subject-2.csv,legacy,Kafkaesque Koffka,3.2.8,0,h,NA,s,NA,NA,h,412,NA,6701,NA,NA,412,2,legacy,1024,2,48000,-16,experiment,HHHHH,2,even,12392,NA,NA,119773,NA,NA,153209,151950,5673,NA,NA,153336,153754,153182,153335,5640,Flanker Test,71,31695,76,yes,1024
93.50649351,93.50649351,418.0779221,418.0779221,black,legacy,legacy,legacy,0,incongruent,uniform,1,undefined,1,h,0,0,0,76,76,0,76,76,0,0,0,76,76,76,76,0,Fri Sep 27 14:02:28 2019,1500,The main experiment item,yes,FlankerTest.osexp,/Users/Linzi/Desktop,no,mono,no,18,no,white,no,yes,768,legacy,76,76,/Users/Linzi/Desktop/LM-subject-2.csv,legacy,Kafkaesque Koffka,3.2.8,0,h,NA,s,NA,NA,h,497,NA,6701,NA,NA,497,2,legacy,1024,2,48000,-16,experiment,SSHSS,2,even,12392,NA,NA,119773,NA,NA,155043,153786,5673,NA,NA,155169,155672,155016,155169,5640,Flanker Test,72,32192,77,yes,1024
93.58974359,93.58974359,417.8205128,417.8205128,black,legacy,legacy,legacy,0,congruent,uniform,1,undefined,1,s,0,0,0,77,77,0,77,77,0,0,0,77,77,77,77,0,Fri Sep 27 14:02:28 2019,1500,The main experiment item,yes,FlankerTest.osexp,/Users/Linzi/Desktop,no,mono,no,18,no,white,no,yes,768,legacy,77,77,/Users/Linzi/Desktop/LM-subject-2.csv,legacy,Kafkaesque Koffka,3.2.8,0,s,NA,s,NA,NA,s,398,NA,6701,NA,NA,398,2,legacy,1024,2,48000,-16,experiment,SSSSS,2,even,12392,NA,NA,119773,NA,NA,156963,155704,5673,NA,NA,157090,157494,156937,157090,5640,Flanker Test,73,32590,78,yes,1024
93.67088608,93.67088608,417.2911392,417.2911392,black,legacy,legacy,legacy,0,congruent,uniform,1,undefined,1,h,0,0,0,78,78,0,78,78,0,0,0,78,78,78,78,0,Fri Sep 27 14:02:28 2019,1500,The main experiment item,yes,FlankerTest.osexp,/Users/Linzi/Desktop,no,mono,no,18,no,white,no,yes,768,legacy,78,78,/Users/Linzi/Desktop/LM-subject-2.csv,legacy,Kafkaesque Koffka,3.2.8,0,h,NA,s,NA,NA,h,376,NA,6701,NA,NA,376,2,legacy,1024,2,48000,-16,experiment,HHHHH,2,even,12392,NA,NA,119773,NA,NA,158786,157526,5673,NA,NA,158913,159295,158759,158912,5640,Flanker Test,74,32966,79,yes,1024
93.75,93.75,417.6,417.6,black,legacy,legacy,legacy,0,incongruent,uniform,1,undefined,1,s,0,0,0,79,79,0,79,79,0,0,0,79,79,79,79,0,Fri Sep 27 14:02:28 2019,1500,The main experiment item,yes,FlankerTest.osexp,/Users/Linzi/Desktop,no,mono,no,18,no,white,no,yes,768,legacy,79,79,/Users/Linzi/Desktop/LM-subject-2.csv,legacy,Kafkaesque Koffka,3.2.8,0,s,NA,s,NA,NA,s,442,NA,6701,NA,NA,442,2,legacy,1024,2,48000,-16,experiment,HHSHH,2,even,12392,NA,NA,119773,NA,NA,160586,159326,5673,NA,NA,160713,161161,160559,160713,5640,Flanker Test,75,33408,80,yes,1024
93.82716049,93.82716049,419.962963,419.962963,black,legacy,legacy,legacy,0,incongruent,uniform,1,undefined,1,h,0,0,0,80,80,0,80,80,0,0,0,80,80,80,80,0,Fri Sep 27 14:02:28 2019,600,The main experiment item,yes,FlankerTest.osexp,/Users/Linzi/Desktop,no,mono,no,18,no,white,no,yes,768,legacy,0,79,/Users/Linzi/Desktop/LM-subject-2.csv,legacy,Kafkaesque Koffka,3.2.8,0,h,NA,s,h,NA,h,609,NA,6701,15916,NA,609,2,legacy,1024,2,48000,-16,experiment,SSHSS,2,even,12392,178190,NA,119773,NA,NA,178435,161193,5673,162267,NA,178563,179178,178408,178562,5640,Flanker Test,76,34017,81,yes,1024
93.90243902,93.90243902,419.695122,419.695122,black,legacy,legacy,legacy,0,incongruent,uniform,1,undefined,1,s,0,0,0,81,81,0,81,81,0,0,0,81,81,81,81,0,Fri Sep 27 14:02:28 2019,600,The main experiment item,yes,FlankerTest.osexp,/Users/Linzi/Desktop,no,mono,no,18,no,white,no,yes,768,legacy,1,79,/Users/Linzi/Desktop/LM-subject-2.csv,legacy,Kafkaesque Koffka,3.2.8,0,s,NA,s,h,NA,s,398,NA,6701,15916,NA,398,2,legacy,1024,2,48000,-16,experiment,HHSHH,2,even,12392,178190,NA,119773,179210,NA,181000,179736,5673,162267,NA,181126,181530,180973,181126,5640,Flanker Test,77,34415,82,yes,1024
93.97590361,93.97590361,419.3253012,419.3253012,black,legacy,legacy,legacy,0,congruent,uniform,1,undefined,1,s,0,0,0,82,82,0,82,82,0,0,0,82,82,82,82,0,Fri Sep 27 14:02:28 2019,600,The main experiment item,yes,FlankerTest.osexp,/Users/Linzi/Desktop,no,mono,no,18,no,white,no,yes,768,legacy,2,79,/Users/Linzi/Desktop/LM-subject-2.csv,legacy,Kafkaesque Koffka,3.2.8,0,s,NA,s,h,NA,s,389,NA,6701,15916,NA,389,2,legacy,1024,2,48000,-16,experiment,SSSSS,2,even,12392,178190,NA,119773,179210,NA,182822,181561,5673,162267,NA,182949,183344,182796,182948,5640,Flanker Test,78,34804,83,yes,1024
94.04761905,94.04761905,419.0357143,419.0357143,black,legacy,legacy,legacy,0,congruent,uniform,1,undefined,1,s,0,0,0,83,83,0,83,83,0,0,0,83,83,83,83,0,Fri Sep 27 14:02:28 2019,600,The main experiment item,yes,FlankerTest.osexp,/Users/Linzi/Desktop,no,mono,no,18,no,white,no,yes,768,legacy,3,79,/Users/Linzi/Desktop/LM-subject-2.csv,legacy,Kafkaesque Koffka,3.2.8,0,s,NA,s,h,NA,s,395,NA,6701,15916,NA,395,2,legacy,1024,2,48000,-16,experiment,SSSSS,2,even,12392,178190,NA,119773,179210,NA,184631,183375,5673,162267,NA,184759,185160,184605,184759,5640,Flanker Test,79,35199,84,yes,1024
94.11764706,94.11764706,418.3529412,418.3529412,black,legacy,legacy,legacy,0,congruent,uniform,1,undefined,1,s,0,0,0,84,84,0,84,84,0,0,0,84,84,84,84,0,Fri Sep 27 14:02:28 2019,600,The main experiment item,yes,FlankerTest.osexp,/Users/Linzi/Desktop,no,mono,no,18,no,white,no,yes,768,legacy,4,79,/Users/Linzi/Desktop/LM-subject-2.csv,legacy,Kafkaesque Koffka,3.2.8,0,s,NA,s,h,NA,s,361,NA,6701,15916,NA,361,2,legacy,1024,2,48000,-16,experiment,SSSSS,2,even,12392,178190,NA,119773,179210,NA,186447,185191,5673,162267,NA,186575,186942,186421,186574,5640,Flanker Test,80,35560,85,yes,1024
93.02325581,93.02325581,417.2093023,417.2093023,black,legacy,legacy,legacy,0,incongruent,uniform,0,undefined,0,s,0,0,0,85,85,0,85,85,0,0,0,85,85,85,85,0,Fri Sep 27 14:02:28 2019,600,The main experiment item,yes,FlankerTest.osexp,/Users/Linzi/Desktop,no,mono,no,18,no,white,no,yes,768,legacy,5,79,/Users/Linzi/Desktop/LM-subject-2.csv,legacy,Kafkaesque Koffka,3.2.8,0,h,NA,s,h,NA,h,320,NA,6701,15916,NA,320,2,legacy,1024,2,48000,-16,experiment,HHSHH,2,even,12392,178190,NA,119773,179210,NA,188230,186974,5673,162267,NA,188356,188682,188203,188356,5640,Flanker Test,80,35880,86,yes,1024
93.10344828,93.10344828,417.5402299,417.5402299,black,legacy,legacy,legacy,0,incongruent,uniform,1,undefined,1,s,0,0,0,86,86,0,86,86,0,0,0,86,86,86,86,0,Fri Sep 27 14:02:28 2019,600,The main experiment item,yes,FlankerTest.osexp,/Users/Linzi/Desktop,no,mono,no,18,no,white,no,yes,768,legacy,6,79,/Users/Linzi/Desktop/LM-subject-2.csv,legacy,Kafkaesque Koffka,3.2.8,0,s,NA,s,h,NA,s,446,NA,6701,15916,NA,446,2,legacy,1024,2,48000,-16,experiment,HHSHH,2,even,12392,178190,NA,188712,179210,NA,190500,189240,5673,162267,NA,190627,191079,190474,190626,5640,Flanker Test,81,36326,87,yes,1024
93.18181818,93.18181818,418.3522727,418.3522727,black,legacy,legacy,legacy,0,incongruent,uniform,1,undefined,1,h,0,0,0,87,87,0,87,87,0,0,0,87,87,87,87,0,Fri Sep 27 14:02:28 2019,600,The main experiment item,yes,FlankerTest.osexp,/Users/Linzi/Desktop,no,mono,no,18,no,white,no,yes,768,legacy,7,79,/Users/Linzi/Desktop/LM-subject-2.csv,legacy,Kafkaesque Koffka,3.2.8,0,h,NA,s,h,NA,h,489,NA,6701,15916,NA,489,2,legacy,1024,2,48000,-16,experiment,SSHSS,2,even,12392,178190,NA,188712,179210,NA,192368,191110,5673,162267,NA,192496,192991,192341,192495,5640,Flanker Test,82,36815,88,yes,1024
93.25842697,93.25842697,418.4719101,418.4719101,black,legacy,legacy,legacy,0,incongruent,uniform,1,undefined,1,s,0,0,0,88,88,0,88,88,0,0,0,88,88,88,88,0,Fri Sep 27 14:02:28 2019,600,The main experiment item,yes,FlankerTest.osexp,/Users/Linzi/Desktop,no,mono,no,18,no,white,no,yes,768,legacy,8,79,/Users/Linzi/Desktop/LM-subject-2.csv,legacy,Kafkaesque Koffka,3.2.8,0,s,NA,s,h,NA,s,429,NA,6701,15916,NA,429,2,legacy,1024,2,48000,-16,experiment,HHSHH,2,even,12392,178190,NA,188712,179210,NA,194280,193021,5673,162267,NA,194407,194842,194253,194406,5640,Flanker Test,83,37244,89,yes,1024
93.33333333,93.33333333,418.5888889,418.5888889,black,legacy,legacy,legacy,0,incongruent,uniform,1,undefined,1,h,0,0,0,89,89,0,89,89,0,0,0,89,89,89,89,0,Fri Sep 27 14:02:28 2019,600,The main experiment item,yes,FlankerTest.osexp,/Users/Linzi/Desktop,no,mono,no,18,no,white,no,yes,768,legacy,9,79,/Users/Linzi/Desktop/LM-subject-2.csv,legacy,Kafkaesque Koffka,3.2.8,0,h,NA,s,h,NA,h,429,NA,6701,15916,NA,429,2,legacy,1024,2,48000,-16,experiment,SSHSS,2,even,12392,178190,NA,188712,179210,NA,196131,194872,5673,162267,NA,196258,196693,196104,196257,5640,Flanker Test,84,37673,90,yes,1024
93.40659341,93.40659341,418.1098901,418.1098901,black,legacy,legacy,legacy,0,congruent,uniform,1,undefined,1,s,0,0,0,90,90,0,90,90,0,0,0,90,90,90,90,0,Fri Sep 27 14:02:28 2019,600,The main experiment item,yes,FlankerTest.osexp,/Users/Linzi/Desktop,no,mono,no,18,no,white,no,yes,768,legacy,10,79,/Users/Linzi/Desktop/LM-subject-2.csv,legacy,Kafkaesque Koffka,3.2.8,0,s,NA,s,h,NA,s,375,NA,6701,15916,NA,375,2,legacy,1024,2,48000,-16,experiment,SSSSS,2,even,12392,178190,NA,188712,179210,NA,197983,196724,5673,162267,NA,198109,198491,197956,198109,5640,Flanker Test,85,38048,91,yes,1024
93.47826087,93.47826087,417.076087,417.076087,black,legacy,legacy,legacy,0,congruent,uniform,1,undefined,1,h,0,0,0,91,91,0,91,91,0,0,0,91,91,91,91,0,Fri Sep 27 14:02:28 2019,600,The main experiment item,yes,FlankerTest.osexp,/Users/Linzi/Desktop,no,mono,no,18,no,white,no,yes,768,legacy,11,79,/Users/Linzi/Desktop/LM-subject-2.csv,legacy,Kafkaesque Koffka,3.2.8,0,h,NA,s,h,NA,h,323,NA,6701,15916,NA,323,2,legacy,1024,2,48000,-16,experiment,HHHHH,2,even,12392,178190,NA,188712,179210,NA,199782,198522,5673,162267,NA,199909,200239,199755,199908,5640,Flanker Test,86,38371,92,yes,1024
93.5483871,93.5483871,417.7634409,417.7634409,black,legacy,legacy,legacy,0,incongruent,uniform,1,undefined,1,h,0,0,0,92,92,0,92,92,0,0,0,92,92,92,92,0,Fri Sep 27 14:02:28 2019,600,The main experiment item,yes,FlankerTest.osexp,/Users/Linzi/Desktop,no,mono,no,18,no,white,no,yes,768,legacy,12,79,/Users/Linzi/Desktop/LM-subject-2.csv,legacy,Kafkaesque Koffka,3.2.8,0,h,NA,s,h,NA,h,481,NA,6701,15916,NA,481,2,legacy,1024,2,48000,-16,experiment,SSHSS,2,even,12392,178190,NA,188712,179210,NA,201527,200269,5673,162267,NA,201655,202142,201501,201655,5640,Flanker Test,87,38852,93,yes,1024
93.61702128,93.61702128,417.212766,417.212766,black,legacy,legacy,legacy,0,congruent,uniform,1,undefined,1,s,0,0,0,93,93,0,93,93,0,0,0,93,93,93,93,0,Fri Sep 27 14:02:28 2019,600,The main experiment item,yes,FlankerTest.osexp,/Users/Linzi/Desktop,no,mono,no,18,no,white,no,yes,768,legacy,13,79,/Users/Linzi/Desktop/LM-subject-2.csv,legacy,Kafkaesque Koffka,3.2.8,0,s,NA,s,h,NA,s,366,NA,6701,15916,NA,366,2,legacy,1024,2,48000,-16,experiment,SSSSS,2,even,12392,178190,NA,188712,179210,NA,203434,202174,5673,162267,NA,203561,203934,203406,203560,5640,Flanker Test,88,39218,94,yes,1024
93.68421053,93.68421053,417.1052632,417.1052632,black,legacy,legacy,legacy,0,incongruent,uniform,1,undefined,1,s,0,0,0,94,94,0,94,94,0,0,0,94,94,94,94,0,Fri Sep 27 14:02:28 2019,600,The main experiment item,yes,FlankerTest.osexp,/Users/Linzi/Desktop,no,mono,no,18,no,white,no,yes,768,legacy,14,79,/Users/Linzi/Desktop/LM-subject-2.csv,legacy,Kafkaesque Koffka,3.2.8,0,s,NA,s,h,NA,s,407,NA,6701,15916,NA,407,2,legacy,1024,2,48000,-16,experiment,HHSHH,2,even,12392,178190,NA,188712,179210,NA,205223,203965,5673,162267,NA,205350,205763,205196,205350,5640,Flanker Test,89,39625,95,yes,1024
93.75,93.75,416.78125,416.78125,black,legacy,legacy,legacy,0,incongruent,uniform,1,undefined,1,h,0,0,0,95,95,0,95,95,0,0,0,95,95,95,95,0,Fri Sep 27 14:02:28 2019,600,The main experiment item,yes,FlankerTest.osexp,/Users/Linzi/Desktop,no,mono,no,18,no,white,no,yes,768,legacy,15,79,/Users/Linzi/Desktop/LM-subject-2.csv,legacy,Kafkaesque Koffka,3.2.8,0,h,NA,s,h,NA,h,386,NA,6701,15916,NA,386,2,legacy,1024,2,48000,-16,experiment,SSHSS,2,even,12392,178190,NA,188712,179210,NA,207054,205795,5673,162267,NA,207181,207573,207027,207180,5640,Flanker Test,90,40011,96,yes,1024
93.81443299,93.81443299,416.8453608,416.8453608,black,legacy,legacy,legacy,0,incongruent,uniform,1,undefined,1,s,0,0,0,96,96,0,96,96,0,0,0,96,96,96,96,0,Fri Sep 27 14:02:28 2019,600,The main experiment item,yes,FlankerTest.osexp,/Users/Linzi/Desktop,no,mono,no,18,no,white,no,yes,768,legacy,16,79,/Users/Linzi/Desktop/LM-subject-2.csv,legacy,Kafkaesque Koffka,3.2.8,0,s,NA,s,h,NA,s,423,NA,6701,15916,NA,423,2,legacy,1024,2,48000,-16,experiment,HHSHH,2,even,12392,178190,NA,188712,179210,NA,208863,207604,5673,162267,NA,208991,209420,208837,208990,5640,Flanker Test,91,40434,97,yes,1024
93.87755102,93.87755102,418.2857143,418.2857143,black,legacy,legacy,legacy,0,congruent,uniform,1,undefined,1,s,0,0,0,97,97,0,97,97,0,0,0,97,97,97,97,0,Fri Sep 27 14:02:28 2019,600,The main experiment item,yes,FlankerTest.osexp,/Users/Linzi/Desktop,no,mono,no,18,no,white,no,yes,768,legacy,17,79,/Users/Linzi/Desktop/LM-subject-2.csv,legacy,Kafkaesque Koffka,3.2.8,0,s,NA,s,h,NA,s,558,NA,6701,15916,NA,558,2,legacy,1024,2,48000,-16,experiment,SSSSS,2,even,12392,178190,NA,188712,179210,NA,210710,209452,5673,162267,NA,210836,211400,210683,210836,5640,Flanker Test,92,40992,98,yes,1024
93.93939394,93.93939394,418.040404,418.040404,black,legacy,legacy,legacy,0,congruent,uniform,1,undefined,1,h,0,0,0,98,98,0,98,98,0,0,0,98,98,98,98,0,Fri Sep 27 14:02:28 2019,600,The main experiment item,yes,FlankerTest.osexp,/Users/Linzi/Desktop,no,mono,no,18,no,white,no,yes,768,legacy,18,79,/Users/Linzi/Desktop/LM-subject-2.csv,legacy,Kafkaesque Koffka,3.2.8,0,h,NA,s,h,NA,h,394,NA,6701,15916,NA,394,2,legacy,1024,2,48000,-16,experiment,HHHHH,2,even,12392,178190,NA,188712,179210,NA,212689,211431,5673,162267,NA,212815,213215,212663,212815,5640,Flanker Test,93,41386,99,yes,1024
94,94,418.11,418.11,black,legacy,legacy,legacy,0,congruent,uniform,1,undefined,1,s,0,0,0,99,99,0,99,99,0,0,0,99,99,99,99,0,Fri Sep 27 14:02:28 2019,600,The main experiment item,yes,FlankerTest.osexp,/Users/Linzi/Desktop,no,mono,no,18,no,white,no,yes,768,legacy,19,79,/Users/Linzi/Desktop/LM-subject-2.csv,legacy,Kafkaesque Koffka,3.2.8,0,s,NA,s,h,NA,s,425,NA,6701,15916,NA,425,2,legacy,1024,2,48000,-16,experiment,SSSSS,2,even,12392,178190,NA,188712,179210,NA,214504,213247,5673,162267,NA,214630,215061,214476,214629,5640,Flanker Test,94,41811,100,yes,1024
94.05940594,94.05940594,418.6039604,418.6039604,black,legacy,legacy,legacy,0,incongruent,uniform,1,undefined,1,h,0,0,0,100,100,0,100,100,0,0,0,100,100,100,100,0,Fri Sep 27 14:02:28 2019,600,The main experiment item,yes,FlankerTest.osexp,/Users/Linzi/Desktop,no,mono,no,18,no,white,no,yes,768,legacy,20,79,/Users/Linzi/Desktop/LM-subject-2.csv,legacy,Kafkaesque Koffka,3.2.8,0,h,NA,s,h,NA,h,468,NA,6701,15916,NA,468,2,legacy,1024,2,48000,-16,experiment,SSHSS,2,even,12392,178190,NA,188712,179210,NA,216356,215093,5673,162267,NA,216482,216956,216330,216482,5640,Flanker Test,95,42279,101,yes,1024
93.1372549,93.1372549,418.0490196,418.0490196,black,legacy,legacy,legacy,0,incongruent,uniform,0,undefined,0,s,0,0,0,101,101,0,101,101,0,0,0,101,101,101,101,0,Fri Sep 27 14:02:28 2019,600,The main experiment item,yes,FlankerTest.osexp,/Users/Linzi/Desktop,no,mono,no,18,no,white,no,yes,768,legacy,21,79,/Users/Linzi/Desktop/LM-subject-2.csv,legacy,Kafkaesque Koffka,3.2.8,0,h,NA,s,h,NA,h,362,NA,6701,15916,NA,362,2,legacy,1024,2,48000,-16,experiment,HHSHH,2,even,12392,178190,NA,188712,179210,NA,218250,216989,5673,162267,NA,218377,218745,218223,218376,5640,Flanker Test,95,42641,102,yes,1024
93.2038835,93.2038835,417.631068,417.631068,black,legacy,legacy,legacy,0,incongruent,uniform,1,undefined,1,s,0,0,0,102,102,0,102,102,0,0,0,102,102,102,102,0,Fri Sep 27 14:02:28 2019,600,The main experiment item,yes,FlankerTest.osexp,/Users/Linzi/Desktop,no,mono,no,18,no,white,no,yes,768,legacy,22,79,/Users/Linzi/Desktop/LM-subject-2.csv,legacy,Kafkaesque Koffka,3.2.8,0,s,NA,s,h,NA,s,375,NA,6701,15916,NA,375,2,legacy,1024,2,48000,-16,experiment,HHSHH,2,even,12392,178190,NA,218777,179210,NA,220566,219306,5673,162267,NA,220692,221073,220540,220692,5640,Flanker Test,96,43016,103,yes,1024
93.26923077,93.26923077,418.1153846,418.1153846,black,legacy,legacy,legacy,0,congruent,uniform,1,undefined,1,s,0,0,0,103,103,0,103,103,0,0,0,103,103,103,103,0,Fri Sep 27 14:02:28 2019,600,The main experiment item,yes,FlankerTest.osexp,/Users/Linzi/Desktop,no,mono,no,18,no,white,no,yes,768,legacy,23,79,/Users/Linzi/Desktop/LM-subject-2.csv,legacy,Kafkaesque Koffka,3.2.8,0,s,NA,s,h,NA,s,468,NA,6701,15916,NA,468,2,legacy,1024,2,48000,-16,experiment,SSSSS,2,even,12392,178190,NA,218777,179210,NA,222360,221105,5673,162267,NA,222487,222961,222334,222486,5640,Flanker Test,97,43484,104,yes,1024
93.33333333,93.33333333,418.0952381,418.0952381,black,legacy,legacy,legacy,0,congruent,uniform,1,undefined,1,s,0,0,0,104,104,0,104,104,0,0,0,104,104,104,104,0,Fri Sep 27 14:02:28 2019,600,The main experiment item,yes,FlankerTest.osexp,/Users/Linzi/Desktop,no,mono,no,18,no,white,no,yes,768,legacy,24,79,/Users/Linzi/Desktop/LM-subject-2.csv,legacy,Kafkaesque Koffka,3.2.8,0,s,NA,s,h,NA,s,416,NA,6701,15916,NA,416,2,legacy,1024,2,48000,-16,experiment,SSSSS,2,even,12392,178190,NA,218777,179210,NA,224250,222993,5673,162267,NA,224377,224799,224224,224376,5640,Flanker Test,98,43900,105,yes,1024
93.39622642,93.39622642,419.5377358,419.5377358,black,legacy,legacy,legacy,0,incongruent,uniform,1,undefined,1,h,0,0,0,105,105,0,105,105,0,0,0,105,105,105,105,0,Fri Sep 27 14:02:28 2019,600,The main experiment item,yes,FlankerTest.osexp,/Users/Linzi/Desktop,no,mono,no,18,no,white,no,yes,768,legacy,25,79,/Users/Linzi/Desktop/LM-subject-2.csv,legacy,Kafkaesque Koffka,3.2.8,0,h,NA,s,h,NA,h,571,NA,6701,15916,NA,571,2,legacy,1024,2,48000,-16,experiment,SSHSS,2,even,12392,178190,NA,218777,179210,NA,226089,224831,5673,162267,NA,226216,226794,226061,226215,5640,Flanker Test,99,44471,106,yes,1024
93.45794393,93.45794393,419.6542056,419.6542056,black,legacy,legacy,legacy,0,incongruent,uniform,1,undefined,1,s,0,0,0,106,106,0,106,106,0,0,0,106,106,106,106,0,Fri Sep 27 14:02:28 2019,600,The main experiment item,yes,FlankerTest.osexp,/Users/Linzi/Desktop,no,mono,no,18,no,white,no,yes,768,legacy,26,79,/Users/Linzi/Desktop/LM-subject-2.csv,legacy,Kafkaesque Koffka,3.2.8,0,s,NA,s,h,NA,s,432,NA,6701,15916,NA,432,2,legacy,1024,2,48000,-16,experiment,HHSHH,2,even,12392,178190,NA,218777,179210,NA,228081,226824,5673,162267,NA,228207,228645,228054,228207,5640,Flanker Test,100,44903,107,yes,1024
93.51851852,93.51851852,419.3703704,419.3703704,black,legacy,legacy,legacy,0,congruent,uniform,1,undefined,1,h,0,0,0,107,107,0,107,107,0,0,0,107,107,107,107,0,Fri Sep 27 14:02:28 2019,600,The main experiment item,yes,FlankerTest.osexp,/Users/Linzi/Desktop,no,mono,no,18,no,white,no,yes,768,legacy,27,79,/Users/Linzi/Desktop/LM-subject-2.csv,legacy,Kafkaesque Koffka,3.2.8,0,h,NA,s,h,NA,h,389,NA,6701,15916,NA,389,2,legacy,1024,2,48000,-16,experiment,HHHHH,2,even,12392,178190,NA,218777,179210,NA,229938,228678,5673,162267,NA,230065,230460,229912,230064,5640,Flanker Test,101,45292,108,yes,1024
93.57798165,93.57798165,418.4954128,418.4954128,black,legacy,legacy,legacy,0,congruent,uniform,1,undefined,1,s,0,0,0,108,108,0,108,108,0,0,0,108,108,108,108,0,Fri Sep 27 14:02:28 2019,600,The main experiment item,yes,FlankerTest.osexp,/Users/Linzi/Desktop,no,mono,no,18,no,white,no,yes,768,legacy,28,79,/Users/Linzi/Desktop/LM-subject-2.csv,legacy,Kafkaesque Koffka,3.2.8,0,s,NA,s,h,NA,s,324,NA,6701,15916,NA,324,2,legacy,1024,2,48000,-16,experiment,SSSSS,2,even,12392,178190,NA,218777,179210,NA,231751,230491,5673,162267,NA,231878,232208,231725,231877,5640,Flanker Test,102,45616,109,yes,1024
93.63636364,93.63636364,418.9636364,418.9636364,black,legacy,legacy,legacy,0,incongruent,uniform,1,undefined,1,s,0,0,0,109,109,0,109,109,0,0,0,109,109,109,109,0,Fri Sep 27 14:02:28 2019,600,The main experiment item,yes,FlankerTest.osexp,/Users/Linzi/Desktop,no,mono,no,18,no,white,no,yes,768,legacy,29,79,/Users/Linzi/Desktop/LM-subject-2.csv,legacy,Kafkaesque Koffka,3.2.8,0,s,NA,s,h,NA,s,470,NA,6701,15916,NA,470,2,legacy,1024,2,48000,-16,experiment,HHSHH,2,even,12392,178190,NA,218777,179210,NA,233499,232240,5673,162267,NA,233625,234101,233472,233625,5640,Flanker Test,103,46086,110,yes,1024
93.69369369,93.69369369,418.5405405,418.5405405,black,legacy,legacy,legacy,0,congruent,uniform,1,undefined,1,h,0,0,0,110,110,0,110,110,0,0,0,110,110,110,110,0,Fri Sep 27 14:02:28 2019,600,The main experiment item,yes,FlankerTest.osexp,/Users/Linzi/Desktop,no,mono,no,18,no,white,no,yes,768,legacy,30,79,/Users/Linzi/Desktop/LM-subject-2.csv,legacy,Kafkaesque Koffka,3.2.8,0,h,NA,s,h,NA,h,372,NA,6701,15916,NA,372,2,legacy,1024,2,48000,-16,experiment,HHHHH,2,even,12392,178190,NA,218777,179210,NA,235390,234132,5673,162267,NA,235516,235895,235364,235516,5640,Flanker Test,104,46458,111,yes,1024
93.75,93.75,418.5803571,418.5803571,black,legacy,legacy,legacy,0,incongruent,uniform,1,undefined,1,s,0,0,0,111,111,0,111,111,0,0,0,111,111,111,111,0,Fri Sep 27 14:02:28 2019,600,The main experiment item,yes,FlankerTest.osexp,/Users/Linzi/Desktop,no,mono,no,18,no,white,no,yes,768,legacy,31,79,/Users/Linzi/Desktop/LM-subject-2.csv,legacy,Kafkaesque Koffka,3.2.8,0,s,NA,s,h,NA,s,423,NA,6701,15916,NA,423,2,legacy,1024,2,48000,-16,experiment,HHSHH,2,even,12392,178190,NA,218777,179210,NA,237186,235927,5673,162267,NA,237313,237743,237159,237312,5640,Flanker Test,105,46881,112,yes,1024
93.80530973,93.80530973,418.2389381,418.2389381,black,legacy,legacy,legacy,0,incongruent,uniform,1,undefined,1,h,0,0,0,112,112,0,112,112,0,0,0,112,112,112,112,0,Fri Sep 27 14:02:28 2019,600,The main experiment item,yes,FlankerTest.osexp,/Users/Linzi/Desktop,no,mono,no,18,no,white,no,yes,768,legacy,32,79,/Users/Linzi/Desktop/LM-subject-2.csv,legacy,Kafkaesque Koffka,3.2.8,0,h,NA,s,h,NA,h,380,NA,6701,15916,NA,380,2,legacy,1024,2,48000,-16,experiment,SSHSS,2,even,12392,178190,NA,218777,179210,NA,239029,237774,5673,162267,NA,239156,239543,239003,239156,5640,Flanker Test,106,47261,113,yes,1024
93.85964912,93.85964912,418.377193,418.377193,black,legacy,legacy,legacy,0,incongruent,uniform,1,undefined,1,s,0,0,0,113,113,0,113,113,0,0,0,113,113,113,113,0,Fri Sep 27 14:02:28 2019,600,The main experiment item,yes,FlankerTest.osexp,/Users/Linzi/Desktop,no,mono,no,18,no,white,no,yes,768,legacy,33,79,/Users/Linzi/Desktop/LM-subject-2.csv,legacy,Kafkaesque Koffka,3.2.8,0,s,NA,s,h,NA,s,434,NA,6701,15916,NA,434,2,legacy,1024,2,48000,-16,experiment,HHSHH,2,even,12392,178190,NA,218777,179210,NA,240834,239574,5673,162267,NA,240960,241401,240807,240960,5640,Flanker Test,107,47695,114,yes,1024
93.91304348,93.91304348,417.6173913,417.6173913,black,legacy,legacy,legacy,0,congruent,uniform,1,undefined,1,s,0,0,0,114,114,0,114,114,0,0,0,114,114,114,114,0,Fri Sep 27 14:02:28 2019,600,The main experiment item,yes,FlankerTest.osexp,/Users/Linzi/Desktop,no,mono,no,18,no,white,no,yes,768,legacy,34,79,/Users/Linzi/Desktop/LM-subject-2.csv,legacy,Kafkaesque Koffka,3.2.8,0,s,NA,s,h,NA,s,331,NA,6701,15916,NA,331,2,legacy,1024,2,48000,-16,experiment,SSSSS,2,even,12392,178190,NA,218777,179210,NA,242692,241433,5673,162267,NA,242818,243156,242665,242818,5640,Flanker Test,108,48026,115,yes,1024
93.96551724,93.96551724,417.2327586,417.2327586,black,legacy,legacy,legacy,0,congruent,uniform,1,undefined,1,h,0,0,0,115,115,0,115,115,0,0,0,115,115,115,115,0,Fri Sep 27 14:02:28 2019,600,The main experiment item,yes,FlankerTest.osexp,/Users/Linzi/Desktop,no,mono,no,18,no,white,no,yes,768,legacy,35,79,/Users/Linzi/Desktop/LM-subject-2.csv,legacy,Kafkaesque Koffka,3.2.8,0,h,NA,s,h,NA,h,373,NA,6701,15916,NA,373,2,legacy,1024,2,48000,-16,experiment,HHHHH,2,even,12392,178190,NA,218777,179210,NA,244445,243188,5673,162267,NA,244572,244952,244419,244572,5640,Flanker Test,109,48399,116,yes,1024
94.01709402,94.01709402,416.982906,416.982906,black,legacy,legacy,legacy,0,congruent,uniform,1,undefined,1,h,0,0,0,116,116,0,116,116,0,0,0,116,116,116,116,0,Fri Sep 27 14:02:28 2019,600,The main experiment item,yes,FlankerTest.osexp,/Users/Linzi/Desktop,no,mono,no,18,no,white,no,yes,768,legacy,36,79,/Users/Linzi/Desktop/LM-subject-2.csv,legacy,Kafkaesque Koffka,3.2.8,0,h,NA,s,h,NA,h,388,NA,6701,15916,NA,388,2,legacy,1024,2,48000,-16,experiment,HHHHH,2,even,12392,178190,NA,218777,179210,NA,246241,244983,5673,162267,NA,246368,246763,246215,246368,5640,Flanker Test,110,48787,117,yes,1024
94.06779661,94.06779661,417.9661017,417.9661017,black,legacy,legacy,legacy,0,incongruent,uniform,1,undefined,1,h,0,0,0,117,117,0,117,117,0,0,0,117,117,117,117,0,Fri Sep 27 14:02:28 2019,600,The main experiment item,yes,FlankerTest.osexp,/Users/Linzi/Desktop,no,mono,no,18,no,white,no,yes,768,legacy,37,79,/Users/Linzi/Desktop/LM-subject-2.csv,legacy,Kafkaesque Koffka,3.2.8,0,h,NA,s,h,NA,h,533,NA,6701,15916,NA,533,2,legacy,1024,2,48000,-16,experiment,SSHSS,2,even,12392,178190,NA,218777,179210,NA,248052,246796,5673,162267,NA,248178,248718,248025,248178,5640,Flanker Test,111,49320,118,yes,1024
94.11764706,94.11764706,418.4705882,418.4705882,black,legacy,legacy,legacy,0,congruent,uniform,1,undefined,1,s,0,0,0,118,118,0,118,118,0,0,0,118,118,118,118,0,Fri Sep 27 14:02:28 2019,600,The main experiment item,yes,FlankerTest.osexp,/Users/Linzi/Desktop,no,mono,no,18,no,white,no,yes,768,legacy,38,79,/Users/Linzi/Desktop/LM-subject-2.csv,legacy,Kafkaesque Koffka,3.2.8,0,s,NA,s,h,NA,s,478,NA,6701,15916,NA,478,2,legacy,1024,2,48000,-16,experiment,SSSSS,2,even,12392,178190,NA,218777,179210,NA,250006,248749,5673,162267,NA,250133,250618,249980,250132,5640,Flanker Test,112,49798,119,yes,1024
94.16666667,94.16666667,418.4583333,418.4583333,black,legacy,legacy,legacy,0,incongruent,uniform,1,undefined,1,h,0,0,0,119,119,0,119,119,0,0,0,119,119,119,119,0,Fri Sep 27 14:02:28 2019,600,The main experiment item,yes,FlankerTest.osexp,/Users/Linzi/Desktop,no,mono,no,18,no,white,no,yes,768,legacy,39,79,/Users/Linzi/Desktop/LM-subject-2.csv,legacy,Kafkaesque Koffka,3.2.8,0,h,NA,s,h,NA,h,417,NA,6701,15916,NA,417,2,legacy,1024,2,48000,-16,experiment,SSHSS,2,even,12392,178190,NA,218777,179210,NA,251908,250650,5673,162267,NA,252034,252458,251881,252034,5640,Flanker Test,113,50215,120,yes,1024
94.21487603,94.21487603,418.0495868,418.0495868,black,legacy,legacy,legacy,0,congruent,uniform,1,undefined,1,s,0,0,0,120,120,0,120,120,0,0,0,120,120,120,120,0,Fri Sep 27 14:02:28 2019,600,The main experiment item,yes,FlankerTest.osexp,/Users/Linzi/Desktop,no,mono,no,18,no,white,no,yes,768,legacy,40,79,/Users/Linzi/Desktop/LM-subject-2.csv,legacy,Kafkaesque Koffka,3.2.8,0,s,NA,s,h,NA,s,369,NA,6701,15916,NA,369,2,legacy,1024,2,48000,-16,experiment,SSSSS,2,even,12392,178190,NA,218777,179210,NA,253747,252489,5673,162267,NA,253873,254249,253720,253873,5640,Flanker Test,114,50584,121,yes,1024
94.26229508,94.26229508,418.0245902,418.0245902,black,legacy,legacy,legacy,0,incongruent,uniform,1,undefined,1,s,0,0,0,121,121,0,121,121,0,0,0,121,121,121,121,0,Fri Sep 27 14:02:28 2019,600,The main experiment item,yes,FlankerTest.osexp,/Users/Linzi/Desktop,no,mono,no,18,no,white,no,yes,768,legacy,41,79,/Users/Linzi/Desktop/LM-subject-2.csv,legacy,Kafkaesque Koffka,3.2.8,0,s,NA,s,h,NA,s,415,NA,6701,15916,NA,415,2,legacy,1024,2,48000,-16,experiment,HHSHH,2,even,12392,178190,NA,218777,179210,NA,255539,254280,5673,162267,NA,255667,256089,255513,255667,5640,Flanker Test,115,50999,122,yes,1024
94.30894309,94.30894309,417.5284553,417.5284553,black,legacy,legacy,legacy,0,congruent,uniform,1,undefined,1,h,0,0,0,122,122,0,122,122,0,0,0,122,122,122,122,0,Fri Sep 27 14:02:28 2019,600,The main experiment item,yes,FlankerTest.osexp,/Users/Linzi/Desktop,no,mono,no,18,no,white,no,yes,768,legacy,42,79,/Users/Linzi/Desktop/LM-subject-2.csv,legacy,Kafkaesque Koffka,3.2.8,0,h,NA,s,h,NA,h,357,NA,6701,15916,NA,357,2,legacy,1024,2,48000,-16,experiment,HHHHH,2,even,12392,178190,NA,218777,179210,NA,257377,256120,5673,162267,NA,257504,257868,257350,257503,5640,Flanker Test,116,51356,123,yes,1024
94.35483871,94.35483871,417.9274194,417.9274194,black,legacy,legacy,legacy,0,incongruent,uniform,1,undefined,1,h,0,0,0,123,123,0,123,123,0,0,0,123,123,123,123,0,Fri Sep 27 14:02:28 2019,600,The main experiment item,yes,FlankerTest.osexp,/Users/Linzi/Desktop,no,mono,no,18,no,white,no,yes,768,legacy,43,79,/Users/Linzi/Desktop/LM-subject-2.csv,legacy,Kafkaesque Koffka,3.2.8,0,h,NA,s,h,NA,h,467,NA,6701,15916,NA,467,2,legacy,1024,2,48000,-16,experiment,SSHSS,2,even,12392,178190,NA,218777,179210,NA,259156,257899,5673,162267,NA,259284,259758,259129,259283,5640,Flanker Test,117,51823,124,yes,1024
94.4,94.4,418.392,418.392,black,legacy,legacy,legacy,0,incongruent,uniform,1,undefined,1,h,0,0,0,124,124,0,124,124,0,0,0,124,124,124,124,0,Fri Sep 27 14:02:28 2019,600,The main experiment item,yes,FlankerTest.osexp,/Users/Linzi/Desktop,no,mono,no,18,no,white,no,yes,768,legacy,44,79,/Users/Linzi/Desktop/LM-subject-2.csv,legacy,Kafkaesque Koffka,3.2.8,0,h,NA,s,h,NA,h,476,NA,6701,15916,NA,476,2,legacy,1024,2,48000,-16,experiment,SSHSS,2,even,12392,178190,NA,218777,179210,NA,261045,259789,5673,162267,NA,261172,261656,261019,261172,5640,Flanker Test,118,52299,125,yes,1024
94.44444444,94.44444444,418.7301587,418.7301587,black,legacy,legacy,legacy,0,incongruent,uniform,1,undefined,1,s,0,0,0,125,125,0,125,125,0,0,0,125,125,125,125,0,Fri Sep 27 14:02:28 2019,600,The main experiment item,yes,FlankerTest.osexp,/Users/Linzi/Desktop,no,mono,no,18,no,white,no,yes,768,legacy,45,79,/Users/Linzi/Desktop/LM-subject-2.csv,legacy,Kafkaesque Koffka,3.2.8,0,s,NA,s,h,NA,s,461,NA,6701,15916,NA,461,2,legacy,1024,2,48000,-16,experiment,HHSHH,2,even,12392,178190,NA,218777,179210,NA,262944,261687,5673,162267,NA,263071,263539,262918,263071,5640,Flanker Test,119,52760,126,yes,1024
94.48818898,94.48818898,418.8346457,418.8346457,black,legacy,legacy,legacy,0,congruent,uniform,1,undefined,1,h,0,0,0,126,126,0,126,126,0,0,0,126,126,126,126,0,Fri Sep 27 14:02:28 2019,600,The main experiment item,yes,FlankerTest.osexp,/Users/Linzi/Desktop,no,mono,no,18,no,white,no,yes,768,legacy,46,79,/Users/Linzi/Desktop/LM-subject-2.csv,legacy,Kafkaesque Koffka,3.2.8,0,h,NA,s,h,NA,h,432,NA,6701,15916,NA,432,2,legacy,1024,2,48000,-16,experiment,HHHHH,2,even,12392,178190,NA,218777,179210,NA,264829,263570,5673,162267,NA,264955,265394,264803,264955,5640,Flanker Test,120,53192,127,yes,1024
94.53125,94.53125,419.3359375,419.3359375,black,legacy,legacy,legacy,0,incongruent,uniform,1,undefined,1,h,0,0,0,127,127,0,127,127,0,0,0,127,127,127,127,0,Fri Sep 27 14:02:28 2019,600,The main experiment item,yes,FlankerTest.osexp,/Users/Linzi/Desktop,no,mono,no,18,no,white,no,yes,768,legacy,47,79,/Users/Linzi/Desktop/LM-subject-2.csv,legacy,Kafkaesque Koffka,3.2.8,0,h,NA,s,h,NA,h,483,NA,6701,15916,NA,483,2,legacy,1024,2,48000,-16,experiment,SSHSS,2,even,12392,178190,NA,218777,179210,NA,266683,265425,5673,162267,NA,266809,267299,266657,266809,5640,Flanker Test,121,53675,128,yes,1024
94.57364341,94.57364341,418.9147287,418.9147287,black,legacy,legacy,legacy,0,congruent,uniform,1,undefined,1,h,0,0,0,128,128,0,128,128,0,0,0,128,128,128,128,0,Fri Sep 27 14:02:28 2019,600,The main experiment item,yes,FlankerTest.osexp,/Users/Linzi/Desktop,no,mono,no,18,no,white,no,yes,768,legacy,48,79,/Users/Linzi/Desktop/LM-subject-2.csv,legacy,Kafkaesque Koffka,3.2.8,0,h,NA,s,h,NA,h,365,NA,6701,15916,NA,365,2,legacy,1024,2,48000,-16,experiment,HHHHH,2,even,12392,178190,NA,218777,179210,NA,268588,267330,5673,162267,NA,268714,269086,268562,268714,5640,Flanker Test,122,54040,129,yes,1024
94.61538462,94.61538462,418.8538462,418.8538462,black,legacy,legacy,legacy,0,congruent,uniform,1,undefined,1,s,0,0,0,129,129,0,129,129,0,0,0,129,129,129,129,0,Fri Sep 27 14:02:28 2019,600,The main experiment item,yes,FlankerTest.osexp,/Users/Linzi/Desktop,no,mono,no,18,no,white,no,yes,768,legacy,49,79,/Users/Linzi/Desktop/LM-subject-2.csv,legacy,Kafkaesque Koffka,3.2.8,0,s,NA,s,h,NA,s,411,NA,6701,15916,NA,411,2,legacy,1024,2,48000,-16,experiment,SSSSS,2,even,12392,178190,NA,218777,179210,NA,270378,269117,5673,162267,NA,270506,270924,270351,270505,5640,Flanker Test,123,54451,130,yes,1024
94.65648855,94.65648855,419.0687023,419.0687023,black,legacy,legacy,legacy,0,incongruent,uniform,1,undefined,1,h,0,0,0,130,130,0,130,130,0,0,0,130,130,130,130,0,Fri Sep 27 14:02:28 2019,600,The main experiment item,yes,FlankerTest.osexp,/Users/Linzi/Desktop,no,mono,no,18,no,white,no,yes,768,legacy,50,79,/Users/Linzi/Desktop/LM-subject-2.csv,legacy,Kafkaesque Koffka,3.2.8,0,h,NA,s,h,NA,h,447,NA,6701,15916,NA,447,2,legacy,1024,2,48000,-16,experiment,SSHSS,2,even,12392,178190,NA,218777,179210,NA,272212,270955,5673,162267,NA,272338,272792,272185,272338,5640,Flanker Test,124,54898,131,yes,1024
94.6969697,94.6969697,419.1287879,419.1287879,black,legacy,legacy,legacy,0,incongruent,uniform,1,undefined,1,s,0,0,0,131,131,0,131,131,0,0,0,131,131,131,131,0,Fri Sep 27 14:02:28 2019,600,The main experiment item,yes,FlankerTest.osexp,/Users/Linzi/Desktop,no,mono,no,18,no,white,no,yes,768,legacy,51,79,/Users/Linzi/Desktop/LM-subject-2.csv,legacy,Kafkaesque Koffka,3.2.8,0,s,NA,s,h,NA,s,427,NA,6701,15916,NA,427,2,legacy,1024,2,48000,-16,experiment,HHSHH,2,even,12392,178190,NA,218777,179210,NA,274080,272823,5673,162267,NA,274206,274641,274053,274205,5640,Flanker Test,125,55325,132,yes,1024
94.73684211,94.73684211,419.0827068,419.0827068,black,legacy,legacy,legacy,0,incongruent,uniform,1,undefined,1,s,0,0,0,132,132,0,132,132,0,0,0,132,132,132,132,0,Fri Sep 27 14:02:28 2019,600,The main experiment item,yes,FlankerTest.osexp,/Users/Linzi/Desktop,no,mono,no,18,no,white,no,yes,768,legacy,52,79,/Users/Linzi/Desktop/LM-subject-2.csv,legacy,Kafkaesque Koffka,3.2.8,0,s,NA,s,h,NA,s,413,NA,6701,15916,NA,413,2,legacy,1024,2,48000,-16,experiment,HHSHH,2,even,12392,178190,NA,218777,179210,NA,275933,274673,5673,162267,NA,276060,276480,275907,276060,5640,Flanker Test,126,55738,133,yes,1024
94.7761194,94.7761194,419.1268657,419.1268657,black,legacy,legacy,legacy,0,congruent,uniform,1,undefined,1,h,0,0,0,133,133,0,133,133,0,0,0,133,133,133,133,0,Fri Sep 27 14:02:28 2019,600,The main experiment item,yes,FlankerTest.osexp,/Users/Linzi/Desktop,no,mono,no,18,no,white,no,yes,768,legacy,53,79,/Users/Linzi/Desktop/LM-subject-2.csv,legacy,Kafkaesque Koffka,3.2.8,0,h,NA,s,h,NA,h,425,NA,6701,15916,NA,425,2,legacy,1024,2,48000,-16,experiment,HHHHH,2,even,12392,178190,NA,218777,179210,NA,277771,276511,5673,162267,NA,277898,278331,277744,277897,5640,Flanker Test,127,56163,134,yes,1024
94.81481481,94.81481481,420,420,black,legacy,legacy,legacy,0,incongruent,uniform,1,undefined,1,h,0,0,0,134,134,0,134,134,0,0,0,134,134,134,134,0,Fri Sep 27 14:02:28 2019,600,The main experiment item,yes,FlankerTest.osexp,/Users/Linzi/Desktop,no,mono,no,18,no,white,no,yes,768,legacy,54,79,/Users/Linzi/Desktop/LM-subject-2.csv,legacy,Kafkaesque Koffka,3.2.8,0,h,NA,s,h,NA,h,537,NA,6701,15916,NA,537,2,legacy,1024,2,48000,-16,experiment,SSHSS,2,even,12392,178190,NA,218777,179210,NA,279622,278362,5673,162267,NA,279749,280294,279596,279748,5640,Flanker Test,128,56700,135,yes,1024
94.85294118,94.85294118,419.6985294,419.6985294,black,legacy,legacy,legacy,0,incongruent,uniform,1,undefined,1,h,0,0,0,135,135,0,135,135,0,0,0,135,135,135,135,0,Fri Sep 27 14:02:28 2019,600,The main experiment item,yes,FlankerTest.osexp,/Users/Linzi/Desktop,no,mono,no,18,no,white,no,yes,768,legacy,55,79,/Users/Linzi/Desktop/LM-subject-2.csv,legacy,Kafkaesque Koffka,3.2.8,0,h,NA,s,h,NA,h,379,NA,6701,15916,NA,379,2,legacy,1024,2,48000,-16,experiment,SSHSS,2,even,12392,178190,NA,218777,179210,NA,281584,280324,5673,162267,NA,281712,282099,281557,281711,5640,Flanker Test,129,57079,136,yes,1024
94.89051095,94.89051095,419.1240876,419.1240876,black,legacy,legacy,legacy,0,incongruent,uniform,1,undefined,1,h,0,0,0,136,136,0,136,136,0,0,0,136,136,136,136,0,Fri Sep 27 14:02:28 2019,600,The main experiment item,yes,FlankerTest.osexp,/Users/Linzi/Desktop,no,mono,no,18,no,white,no,yes,768,legacy,56,79,/Users/Linzi/Desktop/LM-subject-2.csv,legacy,Kafkaesque Koffka,3.2.8,0,h,NA,s,h,NA,h,341,NA,6701,15916,NA,341,2,legacy,1024,2,48000,-16,experiment,SSHSS,2,even,12392,178190,NA,218777,179210,NA,283391,282129,5673,162267,NA,283517,283866,283363,283516,5640,Flanker Test,130,57420,137,yes,1024
94.92753623,94.92753623,418.7536232,418.7536232,black,legacy,legacy,legacy,0,congruent,uniform,1,undefined,1,h,0,0,0,137,137,0,137,137,0,0,0,137,137,137,137,0,Fri Sep 27 14:02:28 2019,600,The main experiment item,yes,FlankerTest.osexp,/Users/Linzi/Desktop,no,mono,no,18,no,white,no,yes,768,legacy,57,79,/Users/Linzi/Desktop/LM-subject-2.csv,legacy,Kafkaesque Koffka,3.2.8,0,h,NA,s,h,NA,h,368,NA,6701,15916,NA,368,2,legacy,1024,2,48000,-16,experiment,HHHHH,2,even,12392,178190,NA,218777,179210,NA,285157,283897,5673,162267,NA,285283,285660,285130,285283,5640,Flanker Test,131,57788,138,yes,1024
94.96402878,94.96402878,418.2805755,418.2805755,black,legacy,legacy,legacy,0,congruent,uniform,1,undefined,1,h,0,0,0,138,138,0,138,138,0,0,0,138,138,138,138,0,Fri Sep 27 14:02:28 2019,600,The main experiment item,yes,FlankerTest.osexp,/Users/Linzi/Desktop,no,mono,no,18,no,white,no,yes,768,legacy,58,79,/Users/Linzi/Desktop/LM-subject-2.csv,legacy,Kafkaesque Koffka,3.2.8,0,h,NA,s,h,NA,h,353,NA,6701,15916,NA,353,2,legacy,1024,2,48000,-16,experiment,HHHHH,2,even,12392,178190,NA,218777,179210,NA,286949,285691,5673,162267,NA,287075,287436,286922,287074,5640,Flanker Test,132,58141,139,yes,1024
95,95,417.3928571,417.3928571,black,legacy,legacy,legacy,0,congruent,uniform,1,undefined,1,h,0,0,0,139,139,0,139,139,0,0,0,139,139,139,139,0,Fri Sep 27 14:02:28 2019,600,The main experiment item,yes,FlankerTest.osexp,/Users/Linzi/Desktop,no,mono,no,18,no,white,no,yes,768,legacy,59,79,/Users/Linzi/Desktop/LM-subject-2.csv,legacy,Kafkaesque Koffka,3.2.8,0,h,NA,s,h,NA,h,294,NA,6701,15916,NA,294,2,legacy,1024,2,48000,-16,experiment,HHHHH,2,even,12392,178190,NA,218777,179210,NA,288726,287467,5673,162267,NA,288852,289154,288699,288851,5640,Flanker Test,133,58435,140,yes,1024
95.03546099,95.03546099,416.8865248,416.8865248,black,legacy,legacy,legacy,0,congruent,uniform,1,undefined,1,s,0,0,0,140,140,0,140,140,0,0,0,140,140,140,140,0,Fri Sep 27 14:02:28 2019,600,The main experiment item,yes,FlankerTest.osexp,/Users/Linzi/Desktop,no,mono,no,18,no,white,no,yes,768,legacy,60,79,/Users/Linzi/Desktop/LM-subject-2.csv,legacy,Kafkaesque Koffka,3.2.8,0,s,NA,s,h,NA,s,346,NA,6701,15916,NA,346,2,legacy,1024,2,48000,-16,experiment,SSSSS,2,even,12392,178190,NA,218777,179210,NA,290444,289185,5673,162267,NA,290571,290925,290418,290571,5640,Flanker Test,134,58781,141,yes,1024
95.07042254,95.07042254,416.6408451,416.6408451,black,legacy,legacy,legacy,0,congruent,uniform,1,undefined,1,h,0,0,0,141,141,0,141,141,0,0,0,141,141,141,141,0,Fri Sep 27 14:02:28 2019,600,The main experiment item,yes,FlankerTest.osexp,/Users/Linzi/Desktop,no,mono,no,18,no,white,no,yes,768,legacy,61,79,/Users/Linzi/Desktop/LM-subject-2.csv,legacy,Kafkaesque Koffka,3.2.8,0,h,NA,s,h,NA,h,382,NA,6701,15916,NA,382,2,legacy,1024,2,48000,-16,experiment,HHHHH,2,even,12392,178190,NA,218777,179210,NA,292215,290956,5673,162267,NA,292341,292731,292188,292341,5640,Flanker Test,135,59163,142,yes,1024
95.1048951,95.1048951,416.1258741,416.1258741,black,legacy,legacy,legacy,0,congruent,uniform,1,undefined,1,h,0,0,0,142,142,0,142,142,0,0,0,142,142,142,142,0,Fri Sep 27 14:02:28 2019,600,The main experiment item,yes,FlankerTest.osexp,/Users/Linzi/Desktop,no,mono,no,18,no,white,no,yes,768,legacy,62,79,/Users/Linzi/Desktop/LM-subject-2.csv,legacy,Kafkaesque Koffka,3.2.8,0,h,NA,s,h,NA,h,343,NA,6701,15916,NA,343,2,legacy,1024,2,48000,-16,experiment,HHHHH,2,even,12392,178190,NA,218777,179210,NA,294019,292762,5673,162267,NA,294146,294497,293994,294145,5640,Flanker Test,136,59506,143,yes,1024
95.13888889,95.13888889,415.6527778,415.6527778,black,legacy,legacy,legacy,0,congruent,uniform,1,undefined,1,h,0,0,0,143,143,0,143,143,0,0,0,143,143,143,143,0,Fri Sep 27 14:02:28 2019,600,The main experiment item,yes,FlankerTest.osexp,/Users/Linzi/Desktop,no,mono,no,18,no,white,no,yes,768,legacy,63,79,/Users/Linzi/Desktop/LM-subject-2.csv,legacy,Kafkaesque Koffka,3.2.8,0,h,NA,s,h,NA,h,348,NA,6701,15916,NA,348,2,legacy,1024,2,48000,-16,experiment,HHHHH,2,even,12392,178190,NA,218777,179210,NA,295791,294528,5673,162267,NA,295917,296273,295764,295917,5640,Flanker Test,137,59854,144,yes,1024
95.17241379,95.17241379,415.0551724,415.0551724,black,legacy,legacy,legacy,0,congruent,uniform,1,undefined,1,h,0,0,0,144,144,0,144,144,0,0,0,144,144,144,144,0,Fri Sep 27 14:02:28 2019,600,The main experiment item,yes,FlankerTest.osexp,/Users/Linzi/Desktop,no,mono,no,18,no,white,no,yes,768,legacy,64,79,/Users/Linzi/Desktop/LM-subject-2.csv,legacy,Kafkaesque Koffka,3.2.8,0,h,NA,s,h,NA,h,329,NA,6701,15916,NA,329,2,legacy,1024,2,48000,-16,experiment,HHHHH,2,even,12392,178190,NA,218777,179210,NA,297563,296304,5673,162267,NA,297690,298027,297537,297689,5640,Flanker Test,138,60183,145,yes,1024
94.52054795,94.52054795,414.7465753,414.7465753,black,legacy,legacy,legacy,0,incongruent,uniform,0,undefined,0,s,0,0,0,145,145,0,145,145,0,0,0,145,145,145,145,0,Fri Sep 27 14:02:28 2019,600,The main experiment item,yes,FlankerTest.osexp,/Users/Linzi/Desktop,no,mono,no,18,no,white,no,yes,768,legacy,65,79,/Users/Linzi/Desktop/LM-subject-2.csv,legacy,Kafkaesque Koffka,3.2.8,0,h,NA,s,h,NA,h,370,NA,6701,15916,NA,370,2,legacy,1024,2,48000,-16,experiment,HHSHH,2,even,12392,178190,NA,218777,179210,NA,299318,298058,5673,162267,NA,299444,299822,299291,299444,5640,Flanker Test,138,60553,146,yes,1024
94.55782313,94.55782313,414.6870748,414.6870748,black,legacy,legacy,legacy,0,congruent,uniform,1,undefined,1,s,0,0,0,146,146,0,146,146,0,0,0,146,146,146,146,0,Fri Sep 27 14:02:28 2019,600,The main experiment item,yes,FlankerTest.osexp,/Users/Linzi/Desktop,no,mono,no,18,no,white,no,yes,768,legacy,66,79,/Users/Linzi/Desktop/LM-subject-2.csv,legacy,Kafkaesque Koffka,3.2.8,0,s,NA,s,h,NA,s,406,NA,6701,15916,NA,406,2,legacy,1024,2,48000,-16,experiment,SSSSS,2,even,12392,178190,NA,299853,179210,NA,301639,300380,5673,162267,NA,301765,302179,301612,301765,5640,Flanker Test,139,60959,147,yes,1024
94.59459459,94.59459459,414.75,414.75,black,legacy,legacy,legacy,0,congruent,uniform,1,undefined,1,h,0,0,0,147,147,0,147,147,0,0,0,147,147,147,147,0,Fri Sep 27 14:02:28 2019,600,The main experiment item,yes,FlankerTest.osexp,/Users/Linzi/Desktop,no,mono,no,18,no,white,no,yes,768,legacy,67,79,/Users/Linzi/Desktop/LM-subject-2.csv,legacy,Kafkaesque Koffka,3.2.8,0,h,NA,s,h,NA,h,424,NA,6701,15916,NA,424,2,legacy,1024,2,48000,-16,experiment,HHHHH,2,even,12392,178190,NA,299853,179210,NA,303469,302210,5673,162267,NA,303595,304027,303441,303595,5640,Flanker Test,140,61383,148,yes,1024
94.63087248,94.63087248,416.3422819,416.3422819,black,legacy,legacy,legacy,0,incongruent,uniform,1,undefined,1,h,0,0,0,148,148,0,148,148,0,0,0,148,148,148,148,0,Fri Sep 27 14:02:28 2019,600,The main experiment item,yes,FlankerTest.osexp,/Users/Linzi/Desktop,no,mono,no,18,no,white,no,yes,768,legacy,68,79,/Users/Linzi/Desktop/LM-subject-2.csv,legacy,Kafkaesque Koffka,3.2.8,0,h,NA,s,h,NA,h,652,NA,6701,15916,NA,652,2,legacy,1024,2,48000,-16,experiment,SSHSS,2,even,12392,178190,NA,299853,179210,NA,305316,304058,5673,162267,NA,305443,306103,305290,305443,5640,Flanker Test,141,62035,149,yes,1024
94.66666667,94.66666667,415.9533333,415.9533333,black,legacy,legacy,legacy,0,congruent,uniform,1,undefined,1,s,0,0,0,149,149,0,149,149,0,0,0,149,149,149,149,0,Fri Sep 27 14:02:28 2019,600,The main experiment item,yes,FlankerTest.osexp,/Users/Linzi/Desktop,no,mono,no,18,no,white,no,yes,768,legacy,69,79,/Users/Linzi/Desktop/LM-subject-2.csv,legacy,Kafkaesque Koffka,3.2.8,0,s,NA,s,h,NA,s,358,NA,6701,15916,NA,358,2,legacy,1024,2,48000,-16,experiment,SSSSS,2,even,12392,178190,NA,299853,306134,NA,307919,306661,5673,162267,NA,308045,308410,307893,308044,5640,Flanker Test,142,62393,150,yes,1024
94.70198676,94.70198676,416.2450331,416.2450331,black,legacy,legacy,legacy,0,incongruent,uniform,1,undefined,1,s,0,0,0,150,150,0,150,150,0,0,0,150,150,150,150,0,Fri Sep 27 14:02:28 2019,600,The main experiment item,yes,FlankerTest.osexp,/Users/Linzi/Desktop,no,mono,no,18,no,white,no,yes,768,legacy,70,79,/Users/Linzi/Desktop/LM-subject-2.csv,legacy,Kafkaesque Koffka,3.2.8,0,s,NA,s,h,NA,s,460,NA,6701,15916,NA,460,2,legacy,1024,2,48000,-16,experiment,HHSHH,2,even,12392,178190,NA,299853,306134,NA,309705,308443,5673,162267,NA,309832,310300,309678,309831,5640,Flanker Test,143,62853,151,yes,1024
94.73684211,94.73684211,416.1776316,416.1776316,black,legacy,legacy,legacy,0,congruent,uniform,1,undefined,1,s,0,0,0,151,151,0,151,151,0,0,0,151,151,151,151,0,Fri Sep 27 14:02:28 2019,600,The main experiment item,yes,FlankerTest.osexp,/Users/Linzi/Desktop,no,mono,no,18,no,white,no,yes,768,legacy,71,79,/Users/Linzi/Desktop/LM-subject-2.csv,legacy,Kafkaesque Koffka,3.2.8,0,s,NA,s,h,NA,s,406,NA,6701,15916,NA,406,2,legacy,1024,2,48000,-16,experiment,SSSSS,2,even,12392,178190,NA,299853,306134,NA,311589,310331,5673,162267,NA,311716,312130,311562,311715,5640,Flanker Test,144,63259,152,yes,1024
94.77124183,94.77124183,415.7647059,415.7647059,black,legacy,legacy,legacy,0,congruent,uniform,1,undefined,1,s,0,0,0,152,152,0,152,152,0,0,0,152,152,152,152,0,Fri Sep 27 14:02:28 2019,600,The main experiment item,yes,FlankerTest.osexp,/Users/Linzi/Desktop,no,mono,no,18,no,white,no,yes,768,legacy,72,79,/Users/Linzi/Desktop/LM-subject-2.csv,legacy,Kafkaesque Koffka,3.2.8,0,s,NA,s,h,NA,s,353,NA,6701,15916,NA,353,2,legacy,1024,2,48000,-16,experiment,SSSSS,2,even,12392,178190,NA,299853,306134,NA,313419,312161,5673,162267,NA,313547,313908,313393,313546,5640,Flanker Test,145,63612,153,yes,1024
94.80519481,94.80519481,415.3896104,415.3896104,black,legacy,legacy,legacy,0,incongruent,uniform,1,undefined,1,h,0,0,0,153,153,0,153,153,0,0,0,153,153,153,153,0,Fri Sep 27 14:02:28 2019,600,The main experiment item,yes,FlankerTest.osexp,/Users/Linzi/Desktop,no,mono,no,18,no,white,no,yes,768,legacy,73,79,/Users/Linzi/Desktop/LM-subject-2.csv,legacy,Kafkaesque Koffka,3.2.8,0,h,NA,s,h,NA,h,358,NA,6701,15916,NA,358,2,legacy,1024,2,48000,-16,experiment,SSHSS,2,even,12392,178190,NA,299853,306134,NA,315198,313939,5673,162267,NA,315324,315690,315170,315324,5640,Flanker Test,146,63970,154,yes,1024
94.19354839,94.19354839,414.9290323,414.9290323,black,legacy,legacy,legacy,0,incongruent,uniform,0,undefined,0,h,0,0,0,154,154,0,154,154,0,0,0,154,154,154,154,0,Fri Sep 27 14:02:28 2019,600,The main experiment item,yes,FlankerTest.osexp,/Users/Linzi/Desktop,no,mono,no,18,no,white,no,yes,768,legacy,74,79,/Users/Linzi/Desktop/LM-subject-2.csv,legacy,Kafkaesque Koffka,3.2.8,0,s,NA,s,h,NA,s,344,NA,6701,15916,NA,344,2,legacy,1024,2,48000,-16,experiment,SSHSS,2,even,12392,178190,NA,299853,306134,NA,316983,315722,5673,162267,NA,317109,317461,316956,317109,5640,Flanker Test,146,64314,155,yes,1024
94.23076923,94.23076923,414.7179487,414.7179487,black,legacy,legacy,legacy,0,congruent,uniform,1,undefined,1,s,0,0,0,155,155,0,155,155,0,0,0,155,155,155,155,0,Fri Sep 27 14:02:28 2019,600,The main experiment item,yes,FlankerTest.osexp,/Users/Linzi/Desktop,no,mono,no,18,no,white,no,yes,768,legacy,75,79,/Users/Linzi/Desktop/LM-subject-2.csv,legacy,Kafkaesque Koffka,3.2.8,0,s,NA,s,h,NA,s,382,NA,6701,15916,NA,382,2,legacy,1024,2,48000,-16,experiment,SSSSS,2,even,12392,178190,NA,317492,306134,NA,319273,318017,5673,162267,NA,319399,319789,319247,319399,5640,Flanker Test,147,64696,156,yes,1024
94.26751592,94.26751592,414.5095541,414.5095541,black,legacy,legacy,legacy,0,congruent,uniform,1,undefined,1,h,0,0,0,156,156,0,156,156,0,0,0,156,156,156,156,0,Fri Sep 27 14:02:28 2019,600,The main experiment item,yes,FlankerTest.osexp,/Users/Linzi/Desktop,no,mono,no,18,no,white,no,yes,768,legacy,76,79,/Users/Linzi/Desktop/LM-subject-2.csv,legacy,Kafkaesque Koffka,3.2.8,0,h,NA,s,h,NA,h,382,NA,6701,15916,NA,382,2,legacy,1024,2,48000,-16,experiment,HHHHH,2,even,12392,178190,NA,317492,306134,NA,321083,319820,5673,162267,NA,321210,321600,321051,321209,5640,Flanker Test,148,65078,157,yes,1024
94.30379747,94.30379747,414.4556962,414.4556962,black,legacy,legacy,legacy,0,incongruent,uniform,1,undefined,1,s,0,0,0,157,157,0,157,157,0,0,0,157,157,157,157,0,Fri Sep 27 14:02:28 2019,600,The main experiment item,yes,FlankerTest.osexp,/Users/Linzi/Desktop,no,mono,no,18,no,white,no,yes,768,legacy,77,79,/Users/Linzi/Desktop/LM-subject-2.csv,legacy,Kafkaesque Koffka,3.2.8,0,s,NA,s,h,NA,s,406,NA,6701,15916,NA,406,2,legacy,1024,2,48000,-16,experiment,HHSHH,2,even,12392,178190,NA,317492,306134,NA,322892,321632,5673,162267,NA,323019,323433,322866,323018,5640,Flanker Test,149,65484,158,yes,1024
93.71069182,93.71069182,414.1761006,414.1761006,black,legacy,legacy,legacy,0,incongruent,uniform,0,undefined,0,s,0,0,0,158,158,0,158,158,0,0,0,158,158,158,158,0,Fri Sep 27 14:02:28 2019,600,The main experiment item,yes,FlankerTest.osexp,/Users/Linzi/Desktop,no,mono,no,18,no,white,no,yes,768,legacy,78,79,/Users/Linzi/Desktop/LM-subject-2.csv,legacy,Kafkaesque Koffka,3.2.8,0,h,NA,s,h,NA,h,370,NA,6701,15916,NA,370,2,legacy,1024,2,48000,-16,experiment,HHSHH,2,even,12392,178190,NA,317492,306134,NA,324724,323465,5673,162267,NA,324850,325229,324697,324850,5640,Flanker Test,149,65854,159,yes,1024
93.75,93.75,414.03125,414.03125,black,legacy,legacy,legacy,0,congruent,uniform,1,undefined,1,h,0,0,0,159,159,0,159,159,0,0,0,159,159,159,159,0,Fri Sep 27 14:02:28 2019,600,The main experiment item,yes,FlankerTest.osexp,/Users/Linzi/Desktop,no,mono,no,18,no,white,no,yes,768,legacy,79,79,/Users/Linzi/Desktop/LM-subject-2.csv,legacy,Kafkaesque Koffka,3.2.8,0,h,NA,s,h,NA,h,391,NA,6701,15916,NA,391,2,legacy,1024,2,48000,-16,experiment,HHHHH,2,even,12392,178190,NA,325260,306134,NA,327045,325786,5673,162267,NA,327171,327571,327018,327171,5640,Flanker Test,150,66245,160,yes,1024
93.78881988,93.78881988,414.9254658,414.9254658,black,legacy,legacy,legacy,0,incongruent,uniform,1,undefined,1,s,0,0,0,160,160,0,160,160,0,0,0,160,160,160,160,0,Fri Sep 27 14:02:28 2019,300,The main experiment item,yes,FlankerTest.osexp,/Users/Linzi/Desktop,no,mono,no,18,no,white,no,yes,768,legacy,0,79,/Users/Linzi/Desktop/LM-subject-2.csv,legacy,Kafkaesque Koffka,3.2.8,0,s,NA,s,h,h,s,558,NA,6701,15916,22575,558,2,legacy,1024,2,48000,-16,experiment,HHSHH,2,even,12392,178190,351262,325260,306134,NA,351507,327602,5673,162267,328678,351633,352199,351480,351633,5640,Flanker Test,151,66803,161,yes,1024
93.82716049,93.82716049,414.808642,414.808642,black,legacy,legacy,legacy,0,congruent,uniform,1,undefined,1,h,0,0,0,161,161,0,161,161,0,0,0,161,161,161,161,0,Fri Sep 27 14:02:28 2019,300,The main experiment item,yes,FlankerTest.osexp,/Users/Linzi/Desktop,no,mono,no,18,no,white,no,yes,768,legacy,1,79,/Users/Linzi/Desktop/LM-subject-2.csv,legacy,Kafkaesque Koffka,3.2.8,0,h,NA,s,h,h,h,396,NA,6701,15916,22575,396,2,legacy,1024,2,48000,-16,experiment,HHHHH,2,even,12392,178190,351262,325260,352231,NA,354014,352757,5673,162267,328678,354141,354545,353989,354141,5640,Flanker Test,152,67199,162,yes,1024
93.86503067,93.86503067,414.7239264,414.7239264,black,legacy,legacy,legacy,0,incongruent,uniform,1,undefined,1,s,0,0,0,162,162,0,162,162,0,0,0,162,162,162,162,0,Fri Sep 27 14:02:28 2019,300,The main experiment item,yes,FlankerTest.osexp,/Users/Linzi/Desktop,no,mono,no,18,no,white,no,yes,768,legacy,2,79,/Users/Linzi/Desktop/LM-subject-2.csv,legacy,Kafkaesque Koffka,3.2.8,0,s,NA,s,h,h,s,401,NA,6701,15916,22575,401,2,legacy,1024,2,48000,-16,experiment,HHSHH,2,even,12392,178190,351262,325260,354576,NA,356362,355103,5673,162267,328678,356488,356897,356335,356488,5640,Flanker Test,153,67600,163,yes,1024
93.29268293,93.29268293,413.9756098,413.9756098,black,legacy,legacy,legacy,0,incongruent,uniform,0,undefined,0,s,0,0,0,163,163,0,163,163,0,0,0,163,163,163,163,0,Fri Sep 27 14:02:28 2019,300,The main experiment item,yes,FlankerTest.osexp,/Users/Linzi/Desktop,no,mono,no,18,no,white,no,yes,768,legacy,3,79,/Users/Linzi/Desktop/LM-subject-2.csv,legacy,Kafkaesque Koffka,3.2.8,0,h,NA,s,h,h,h,292,NA,6701,15916,22575,292,2,legacy,1024,2,48000,-16,experiment,HHSHH,2,even,12392,178190,351262,325260,356928,NA,358715,357455,5673,162267,328678,358841,359142,358689,358841,5640,Flanker Test,153,67892,164,yes,1024
93.33333333,93.33333333,413.6,413.6,black,legacy,legacy,legacy,0,incongruent,uniform,1,undefined,1,h,0,0,0,164,164,0,164,164,0,0,0,164,164,164,164,0,Fri Sep 27 14:02:28 2019,300,The main experiment item,yes,FlankerTest.osexp,/Users/Linzi/Desktop,no,mono,no,18,no,white,no,yes,768,legacy,4,79,/Users/Linzi/Desktop/LM-subject-2.csv,legacy,Kafkaesque Koffka,3.2.8,0,h,NA,s,h,h,h,352,NA,6701,15916,22575,352,2,legacy,1024,2,48000,-16,experiment,SSHSS,2,even,12392,178190,351262,359173,356928,NA,360958,359700,5673,162267,328678,361084,361445,360931,361084,5640,Flanker Test,154,68244,165,yes,1024
93.37349398,93.37349398,413.4216867,413.4216867,black,legacy,legacy,legacy,0,congruent,uniform,1,undefined,1,s,0,0,0,165,165,0,165,165,0,0,0,165,165,165,165,0,Fri Sep 27 14:02:28 2019,300,The main experiment item,yes,FlankerTest.osexp,/Users/Linzi/Desktop,no,mono,no,18,no,white,no,yes,768,legacy,5,79,/Users/Linzi/Desktop/LM-subject-2.csv,legacy,Kafkaesque Koffka,3.2.8,0,s,NA,s,h,h,s,384,NA,6701,15916,22575,384,2,legacy,1024,2,48000,-16,experiment,SSSSS,2,even,12392,178190,351262,359173,361476,NA,363259,362001,5673,162267,328678,363385,363778,363232,363385,5640,Flanker Test,155,68628,166,yes,1024
93.41317365,93.41317365,412.988024,412.988024,black,legacy,legacy,legacy,0,congruent,uniform,1,undefined,1,s,0,0,0,166,166,0,166,166,0,0,0,166,166,166,166,0,Fri Sep 27 14:02:28 2019,300,The main experiment item,yes,FlankerTest.osexp,/Users/Linzi/Desktop,no,mono,no,18,no,white,no,yes,768,legacy,6,79,/Users/Linzi/Desktop/LM-subject-2.csv,legacy,Kafkaesque Koffka,3.2.8,0,s,NA,s,h,h,s,341,NA,6701,15916,22575,341,2,legacy,1024,2,48000,-16,experiment,SSSSS,2,even,12392,178190,351262,359173,363809,NA,365592,364335,5673,162267,328678,365719,366069,365565,365719,5640,Flanker Test,156,68969,167,yes,1024
93.45238095,93.45238095,412.8571429,412.8571429,black,legacy,legacy,legacy,0,congruent,uniform,1,undefined,1,h,0,0,0,167,167,0,167,167,0,0,0,167,167,167,167,0,Fri Sep 27 14:02:28 2019,300,The main experiment item,yes,FlankerTest.osexp,/Users/Linzi/Desktop,no,mono,no,18,no,white,no,yes,768,legacy,7,79,/Users/Linzi/Desktop/LM-subject-2.csv,legacy,Kafkaesque Koffka,3.2.8,0,h,NA,s,h,h,h,391,NA,6701,15916,22575,391,2,legacy,1024,2,48000,-16,experiment,HHHHH,2,even,12392,178190,351262,359173,366100,NA,367884,366626,5673,162267,328678,368011,368411,367858,368010,5640,Flanker Test,157,69360,168,yes,1024
92.89940828,92.89940828,412.1420118,412.1420118,black,legacy,legacy,legacy,0,incongruent,uniform,0,undefined,0,h,0,0,0,168,168,0,168,168,0,0,0,168,168,168,168,0,Fri Sep 27 14:02:28 2019,300,The main experiment item,yes,FlankerTest.osexp,/Users/Linzi/Desktop,no,mono,no,18,no,white,no,yes,768,legacy,8,79,/Users/Linzi/Desktop/LM-subject-2.csv,legacy,Kafkaesque Koffka,3.2.8,0,s,NA,s,h,h,s,292,NA,6701,15916,22575,292,2,legacy,1024,2,48000,-16,experiment,SSHSS,2,even,12392,178190,351262,359173,368443,NA,370229,368971,5673,162267,328678,370355,370657,370203,370354,5640,Flanker Test,157,69652,169,yes,1024
92.94117647,92.94117647,411.8470588,411.8470588,black,legacy,legacy,legacy,0,congruent,uniform,1,undefined,1,s,0,0,0,169,169,0,169,169,0,0,0,169,169,169,169,0,Fri Sep 27 14:02:28 2019,300,The main experiment item,yes,FlankerTest.osexp,/Users/Linzi/Desktop,no,mono,no,18,no,white,no,yes,768,legacy,9,79,/Users/Linzi/Desktop/LM-subject-2.csv,legacy,Kafkaesque Koffka,3.2.8,0,s,NA,s,h,h,s,362,NA,6701,15916,22575,362,2,legacy,1024,2,48000,-16,experiment,SSSSS,2,even,12392,178190,351262,370688,368443,NA,372470,371214,5673,162267,328678,372597,372968,372444,372596,5640,Flanker Test,158,70014,170,yes,1024
