acc,accuracy,average_response_time,avg_rt,background,canvas_backend,clock_backend,color_backend,compensation,condition,coordinates,correct,correct_Instruction1,correct_keyboard_response,correct_response,count_Block1,count_Block2,count_Block3,count_Faster,count_Finish,count_ISI,count_Instruction1,count_Instruction2,count_Instruction3,count_errorFeedback,count_experiment,count_fixation,count_keyboard_response,count_logger,count_sequence,count_stimulus,datetime,deadline,description,disable_garbage_collection,experiment_file,experiment_path,font_bold,font_family,font_italic,font_size,font_underline,foreground,form_clicks,fullscreen,height,keyboard_backend,live_row,live_row_Block1,logfile,mouse_backend,opensesame_codename,opensesame_version,repeat_cycle,response,response_Finish,response_Instruction1,response_Instruction2,response_Instruction3,response_keyboard_response,response_time,response_time_Finish,response_time_Instruction1,response_time_Instruction2,response_time_Instruction3,response_time_keyboard_response,round_decimals,sampler_backend,sound_buf_size,sound_channels,sound_freq,sound_sample_size,start,stimulus,subject_nr,subject_parity,time_Block1,time_Block2,time_Block3,time_Faster,time_Finish,time_ISI,time_Instruction1,time_Instruction2,time_Instruction3,time_errorFeedback,time_experiment,time_fixation,time_keyboard_response,time_logger,time_sequence,time_stimulus,title,total_correct,total_response_time,total_responses,uniform_coordinates,width
0,0,1500,1500,black,legacy,legacy,legacy,0,congruent,uniform,0,undefined,0,h,0,0,0,0,0,0,0,0,0,0,0,0,0,0,0,0,9/19/19 17:09,1500,The main experiment item,yes,Flankertask2.osexp,C:/Users/Carolyn/OneDrive,no,mono,no,18,no,white,no,yes,768,legacy,0,0,C:/Users/Carolyn/OneDrive/cp-subject-2.csv,legacy,Kafkaesque Koffka,3.2.8,0,None,NA,s,NA,NA,None,1500,NA,39850,NA,NA,1500,2,legacy,1024,2,48000,-16,experiment,HHHHH,2,even,44130,NA,NA,NA,NA,NA,4278,NA,NA,NA,4272,44435,44539,46039,44431,44538,Flankertask2,0,1500,1,yes,1024
50,50,1345.5,1345.5,black,legacy,legacy,legacy,0,incongruent,uniform,1,undefined,1,s,0,0,0,1,0,1,0,0,0,1,0,1,1,1,1,1,9/19/19 17:09,1500,The main experiment item,yes,Flankertask2.osexp,C:/Users/Carolyn/OneDrive,no,mono,no,18,no,white,no,yes,768,legacy,1,1,C:/Users/Carolyn/OneDrive/cp-subject-2.csv,legacy,Kafkaesque Koffka,3.2.8,0,s,NA,s,NA,NA,s,1191,NA,39850,NA,NA,1191,2,legacy,1024,2,48000,-16,experiment,HHSHH,2,even,44130,NA,NA,NA,NA,46596,4278,NA,NA,46093,4272,47746,47849,49041,47741,47849,Flankertask2,1,2691,2,yes,1024
66.66666667,66.66666667,1218,1218,black,legacy,legacy,legacy,0,incongruent,uniform,1,undefined,1,h,0,0,0,2,0,2,0,0,0,2,0,2,2,2,2,2,9/19/19 17:09,1500,The main experiment item,yes,Flankertask2.osexp,C:/Users/Carolyn/OneDrive,no,mono,no,18,no,white,no,yes,768,legacy,2,2,C:/Users/Carolyn/OneDrive/cp-subject-2.csv,legacy,Kafkaesque Koffka,3.2.8,0,h,NA,s,NA,NA,h,963,NA,39850,NA,NA,963,2,legacy,1024,2,48000,-16,experiment,SSHSS,2,even,44130,NA,NA,NA,NA,49068,4278,NA,NA,46093,4272,50214,50317,51281,50209,50317,Flankertask2,2,3654,3,yes,1024
75,75,1134,1134,black,legacy,legacy,legacy,0,congruent,uniform,1,undefined,1,h,0,0,0,3,0,3,0,0,0,3,0,3,3,3,3,3,9/19/19 17:09,1500,The main experiment item,yes,Flankertask2.osexp,C:/Users/Carolyn/OneDrive,no,mono,no,18,no,white,no,yes,768,legacy,3,3,C:/Users/Carolyn/OneDrive/cp-subject-2.csv,legacy,Kafkaesque Koffka,3.2.8,0,h,NA,s,NA,NA,h,882,NA,39850,NA,NA,882,2,legacy,1024,2,48000,-16,experiment,HHHHH,2,even,44130,NA,NA,NA,NA,51301,4278,NA,NA,46093,4272,52447,52550,53433,52442,52550,Flankertask2,3,4536,4,yes,1024
80,80,1066.4,1066.4,black,legacy,legacy,legacy,0,incongruent,uniform,1,undefined,1,h,0,0,0,4,0,4,0,0,0,4,0,4,4,4,4,4,9/19/19 17:09,1500,The main experiment item,yes,Flankertask2.osexp,C:/Users/Carolyn/OneDrive,no,mono,no,18,no,white,no,yes,768,legacy,4,4,C:/Users/Carolyn/OneDrive/cp-subject-2.csv,legacy,Kafkaesque Koffka,3.2.8,0,h,NA,s,NA,NA,h,796,NA,39850,NA,NA,796,2,legacy,1024,2,48000,-16,experiment,SSHSS,2,even,44130,NA,NA,NA,NA,53476,4278,NA,NA,46093,4272,54621,54724,55521,54616,54724,Flankertask2,4,5332,5,yes,1024
83.33333333,83.33333333,1018.166667,1018.166667,black,legacy,legacy,legacy,0,congruent,uniform,1,undefined,1,s,0,0,0,5,0,5,0,0,0,5,0,5,5,5,5,5,9/19/19 17:09,1500,The main experiment item,yes,Flankertask2.osexp,C:/Users/Carolyn/OneDrive,no,mono,no,18,no,white,no,yes,768,legacy,5,5,C:/Users/Carolyn/OneDrive/cp-subject-2.csv,legacy,Kafkaesque Koffka,3.2.8,0,s,NA,s,NA,NA,s,777,NA,39850,NA,NA,777,2,legacy,1024,2,48000,-16,experiment,SSSSS,2,even,44130,NA,NA,NA,NA,55560,4278,NA,NA,46093,4272,56704,56807,57585,56700,56807,Flankertask2,5,6109,6,yes,1024
85.71428571,85.71428571,991.4285714,991.4285714,black,legacy,legacy,legacy,0,congruent,uniform,1,undefined,1,s,0,0,0,6,0,6,0,0,0,6,0,6,6,6,6,6,9/19/19 17:09,1500,The main experiment item,yes,Flankertask2.osexp,C:/Users/Carolyn/OneDrive,no,mono,no,18,no,white,no,yes,768,legacy,6,6,C:/Users/Carolyn/OneDrive/cp-subject-2.csv,legacy,Kafkaesque Koffka,3.2.8,0,s,NA,s,NA,NA,s,831,NA,39850,NA,NA,831,2,legacy,1024,2,48000,-16,experiment,SSSSS,2,even,44130,NA,NA,NA,NA,57609,4278,NA,NA,46093,4272,58754,58857,59689,58749,58857,Flankertask2,6,6940,7,yes,1024
87.5,87.5,970.5,970.5,black,legacy,legacy,legacy,0,congruent,uniform,1,undefined,1,h,0,0,0,7,0,7,0,0,0,7,0,7,7,7,7,7,9/19/19 17:09,1500,The main experiment item,yes,Flankertask2.osexp,C:/Users/Carolyn/OneDrive,no,mono,no,18,no,white,no,yes,768,legacy,7,7,C:/Users/Carolyn/OneDrive/cp-subject-2.csv,legacy,Kafkaesque Koffka,3.2.8,0,h,NA,s,NA,NA,h,824,NA,39850,NA,NA,824,2,legacy,1024,2,48000,-16,experiment,HHHHH,2,even,44130,NA,NA,NA,NA,59726,4278,NA,NA,46093,4272,60872,60976,61801,60867,60975,Flankertask2,7,7764,8,yes,1024
88.88888889,88.88888889,926.2222222,926.2222222,black,legacy,legacy,legacy,0,congruent,uniform,1,undefined,1,s,0,0,0,8,0,8,0,0,0,8,0,8,8,8,8,8,9/19/19 17:09,1500,The main experiment item,yes,Flankertask2.osexp,C:/Users/Carolyn/OneDrive,no,mono,no,18,no,white,no,yes,768,legacy,8,8,C:/Users/Carolyn/OneDrive/cp-subject-2.csv,legacy,Kafkaesque Koffka,3.2.8,0,s,NA,s,NA,NA,s,572,NA,39850,NA,NA,572,2,legacy,1024,2,48000,-16,experiment,SSSSS,2,even,44130,NA,NA,NA,NA,61843,4278,NA,NA,46093,4272,62987,63092,63665,62983,63091,Flankertask2,8,8336,9,yes,1024
90,90,924.1,924.1,black,legacy,legacy,legacy,0,incongruent,uniform,1,undefined,1,h,0,0,0,9,0,9,0,0,0,9,0,9,9,9,9,9,9/19/19 17:09,1500,The main experiment item,yes,Flankertask2.osexp,C:/Users/Carolyn/OneDrive,no,mono,no,18,no,white,no,yes,768,legacy,9,9,C:/Users/Carolyn/OneDrive/cp-subject-2.csv,legacy,Kafkaesque Koffka,3.2.8,0,h,NA,s,NA,NA,h,905,NA,39850,NA,NA,905,2,legacy,1024,2,48000,-16,experiment,SSHSS,2,even,44130,NA,NA,NA,NA,63710,4278,NA,NA,46093,4272,64855,64959,65865,64850,64958,Flankertask2,9,9241,10,yes,1024
90.90909091,90.90909091,908,908,black,legacy,legacy,legacy,0,congruent,uniform,1,undefined,1,s,0,0,0,10,0,10,0,0,0,10,0,10,10,10,10,10,9/19/19 17:09,1500,The main experiment item,yes,Flankertask2.osexp,C:/Users/Carolyn/OneDrive,no,mono,no,18,no,white,no,yes,768,legacy,10,10,C:/Users/Carolyn/OneDrive/cp-subject-2.csv,legacy,Kafkaesque Koffka,3.2.8,0,s,NA,s,NA,NA,s,747,NA,39850,NA,NA,747,2,legacy,1024,2,48000,-16,experiment,SSSSS,2,even,44130,NA,NA,NA,NA,65901,4278,NA,NA,46093,4272,67045,67149,67897,67041,67148,Flankertask2,10,9988,11,yes,1024
91.66666667,91.66666667,910.9166667,910.9166667,black,legacy,legacy,legacy,0,incongruent,uniform,1,undefined,1,s,0,0,0,11,0,11,0,0,0,11,0,11,11,11,11,11,9/19/19 17:09,1500,The main experiment item,yes,Flankertask2.osexp,C:/Users/Carolyn/OneDrive,no,mono,no,18,no,white,no,yes,768,legacy,11,11,C:/Users/Carolyn/OneDrive/cp-subject-2.csv,legacy,Kafkaesque Koffka,3.2.8,0,s,NA,s,NA,NA,s,943,NA,39850,NA,NA,943,2,legacy,1024,2,48000,-16,experiment,HHSHH,2,even,44130,NA,NA,NA,NA,67968,4278,NA,NA,46093,4272,69113,69217,70161,69109,69216,Flankertask2,11,10931,12,yes,1024
92.30769231,92.30769231,888.6153846,888.6153846,black,legacy,legacy,legacy,0,incongruent,uniform,1,undefined,1,s,0,0,0,12,0,12,0,0,0,12,0,12,12,12,12,12,9/19/19 17:09,1500,The main experiment item,yes,Flankertask2.osexp,C:/Users/Carolyn/OneDrive,no,mono,no,18,no,white,no,yes,768,legacy,12,12,C:/Users/Carolyn/OneDrive/cp-subject-2.csv,legacy,Kafkaesque Koffka,3.2.8,0,s,NA,s,NA,NA,s,621,NA,39850,NA,NA,621,2,legacy,1024,2,48000,-16,experiment,HHSHH,2,even,44130,NA,NA,NA,NA,70218,4278,NA,NA,46093,4272,71363,71467,72089,71358,71466,Flankertask2,12,11552,13,yes,1024
92.85714286,92.85714286,872.7142857,872.7142857,black,legacy,legacy,legacy,0,incongruent,uniform,1,undefined,1,s,0,0,0,13,0,13,0,0,0,13,0,13,13,13,13,13,9/19/19 17:09,1500,The main experiment item,yes,Flankertask2.osexp,C:/Users/Carolyn/OneDrive,no,mono,no,18,no,white,no,yes,768,legacy,13,13,C:/Users/Carolyn/OneDrive/cp-subject-2.csv,legacy,Kafkaesque Koffka,3.2.8,0,s,NA,s,NA,NA,s,666,NA,39850,NA,NA,666,2,legacy,1024,2,48000,-16,experiment,HHSHH,2,even,44130,NA,NA,NA,NA,72126,4278,NA,NA,46093,4272,73271,73374,74041,73266,73374,Flankertask2,13,12218,14,yes,1024
93.33333333,93.33333333,861.6666667,861.6666667,black,legacy,legacy,legacy,0,congruent,uniform,1,undefined,1,h,0,0,0,14,0,14,0,0,0,14,0,14,14,14,14,14,9/19/19 17:09,1500,The main experiment item,yes,Flankertask2.osexp,C:/Users/Carolyn/OneDrive,no,mono,no,18,no,white,no,yes,768,legacy,14,14,C:/Users/Carolyn/OneDrive/cp-subject-2.csv,legacy,Kafkaesque Koffka,3.2.8,0,h,NA,s,NA,NA,h,707,NA,39850,NA,NA,707,2,legacy,1024,2,48000,-16,experiment,HHHHH,2,even,44130,NA,NA,NA,NA,74076,4278,NA,NA,46093,4272,75221,75325,76033,75217,75325,Flankertask2,14,12925,15,yes,1024
93.75,93.75,855.5625,855.5625,black,legacy,legacy,legacy,0,incongruent,uniform,1,undefined,1,h,0,0,0,15,0,15,0,0,0,15,0,15,15,15,15,15,9/19/19 17:09,1500,The main experiment item,yes,Flankertask2.osexp,C:/Users/Carolyn/OneDrive,no,mono,no,18,no,white,no,yes,768,legacy,15,15,C:/Users/Carolyn/OneDrive/cp-subject-2.csv,legacy,Kafkaesque Koffka,3.2.8,0,h,NA,s,NA,NA,h,764,NA,39850,NA,NA,764,2,legacy,1024,2,48000,-16,experiment,SSHSS,2,even,44130,NA,NA,NA,NA,76059,4278,NA,NA,46093,4272,77203,77308,78073,77199,77307,Flankertask2,15,13689,16,yes,1024
94.11764706,94.11764706,855.1764706,855.1764706,black,legacy,legacy,legacy,0,incongruent,uniform,1,undefined,1,s,0,0,0,16,0,16,0,0,0,16,0,16,16,16,16,16,9/19/19 17:09,1500,The main experiment item,yes,Flankertask2.osexp,C:/Users/Carolyn/OneDrive,no,mono,no,18,no,white,no,yes,768,legacy,16,16,C:/Users/Carolyn/OneDrive/cp-subject-2.csv,legacy,Kafkaesque Koffka,3.2.8,0,s,NA,s,NA,NA,s,849,NA,39850,NA,NA,849,2,legacy,1024,2,48000,-16,experiment,HHSHH,2,even,44130,NA,NA,NA,NA,78109,4278,NA,NA,46093,4272,79255,79359,80209,79250,79358,Flankertask2,16,14538,17,yes,1024
94.44444444,94.44444444,853.2777778,853.2777778,black,legacy,legacy,legacy,0,congruent,uniform,1,undefined,1,h,0,0,0,17,0,17,0,0,0,17,0,17,17,17,17,17,9/19/19 17:09,1500,The main experiment item,yes,Flankertask2.osexp,C:/Users/Carolyn/OneDrive,no,mono,no,18,no,white,no,yes,768,legacy,17,17,C:/Users/Carolyn/OneDrive/cp-subject-2.csv,legacy,Kafkaesque Koffka,3.2.8,0,h,NA,s,NA,NA,h,821,NA,39850,NA,NA,821,2,legacy,1024,2,48000,-16,experiment,HHHHH,2,even,44130,NA,NA,NA,NA,80243,4278,NA,NA,46093,4272,81388,81491,82313,81383,81491,Flankertask2,17,15359,18,yes,1024
94.73684211,94.73684211,839.9473684,839.9473684,black,legacy,legacy,legacy,0,congruent,uniform,1,undefined,1,h,0,0,0,18,0,18,0,0,0,18,0,18,18,18,18,18,9/19/19 17:09,1500,The main experiment item,yes,Flankertask2.osexp,C:/Users/Carolyn/OneDrive,no,mono,no,18,no,white,no,yes,768,legacy,18,18,C:/Users/Carolyn/OneDrive/cp-subject-2.csv,legacy,Kafkaesque Koffka,3.2.8,0,h,NA,s,NA,NA,h,600,NA,39850,NA,NA,600,2,legacy,1024,2,48000,-16,experiment,HHHHH,2,even,44130,NA,NA,NA,NA,82351,4278,NA,NA,46093,4272,83496,83600,84201,83491,83599,Flankertask2,18,15959,19,yes,1024
95,95,829.05,829.05,black,legacy,legacy,legacy,0,congruent,uniform,1,undefined,1,h,0,0,0,19,0,19,0,0,0,19,0,19,19,19,19,19,9/19/19 17:09,1500,The main experiment item,yes,Flankertask2.osexp,C:/Users/Carolyn/OneDrive,no,mono,no,18,no,white,no,yes,768,legacy,19,19,C:/Users/Carolyn/OneDrive/cp-subject-2.csv,legacy,Kafkaesque Koffka,3.2.8,0,h,NA,s,NA,NA,h,622,NA,39850,NA,NA,622,2,legacy,1024,2,48000,-16,experiment,HHHHH,2,even,44130,NA,NA,NA,NA,84234,4278,NA,NA,46093,4272,85379,85482,86105,85375,85482,Flankertask2,19,16581,20,yes,1024
95.23809524,95.23809524,816.3333333,816.3333333,black,legacy,legacy,legacy,0,congruent,uniform,1,undefined,1,h,0,0,0,20,0,20,0,0,0,20,0,20,20,20,20,20,9/19/19 17:09,1500,The main experiment item,yes,Flankertask2.osexp,C:/Users/Carolyn/OneDrive,no,mono,no,18,no,white,no,yes,768,legacy,20,20,C:/Users/Carolyn/OneDrive/cp-subject-2.csv,legacy,Kafkaesque Koffka,3.2.8,0,h,NA,s,NA,NA,h,562,NA,39850,NA,NA,562,2,legacy,1024,2,48000,-16,experiment,HHHHH,2,even,44130,NA,NA,NA,NA,86126,4278,NA,NA,46093,4272,87271,87374,87937,87266,87374,Flankertask2,20,17143,21,yes,1024
95.45454545,95.45454545,833,833,black,legacy,legacy,legacy,0,congruent,uniform,1,undefined,1,s,0,0,0,21,0,21,0,0,0,21,0,21,21,21,21,21,9/19/19 17:09,1500,The main experiment item,yes,Flankertask2.osexp,C:/Users/Carolyn/OneDrive,no,mono,no,18,no,white,no,yes,768,legacy,21,21,C:/Users/Carolyn/OneDrive/cp-subject-2.csv,legacy,Kafkaesque Koffka,3.2.8,0,s,NA,s,NA,NA,s,1183,NA,39850,NA,NA,1183,2,legacy,1024,2,48000,-16,experiment,SSSSS,2,even,44130,NA,NA,NA,NA,87959,4278,NA,NA,46093,4272,89105,89209,90393,89100,89208,Flankertask2,21,18326,22,yes,1024
95.65217391,95.65217391,832.826087,832.826087,black,legacy,legacy,legacy,0,incongruent,uniform,1,undefined,1,s,0,0,0,22,0,22,0,0,0,22,0,22,22,22,22,22,9/19/19 17:09,1500,The main experiment item,yes,Flankertask2.osexp,C:/Users/Carolyn/OneDrive,no,mono,no,18,no,white,no,yes,768,legacy,22,22,C:/Users/Carolyn/OneDrive/cp-subject-2.csv,legacy,Kafkaesque Koffka,3.2.8,0,s,NA,s,NA,NA,s,829,NA,39850,NA,NA,829,2,legacy,1024,2,48000,-16,experiment,HHSHH,2,even,44130,NA,NA,NA,NA,90417,4278,NA,NA,46093,4272,91563,91667,92497,91558,91666,Flankertask2,22,19155,23,yes,1024
95.83333333,95.83333333,829.8333333,829.8333333,black,legacy,legacy,legacy,0,incongruent,uniform,1,undefined,1,h,0,0,0,23,0,23,0,0,0,23,0,23,23,23,23,23,9/19/19 17:09,1500,The main experiment item,yes,Flankertask2.osexp,C:/Users/Carolyn/OneDrive,no,mono,no,18,no,white,no,yes,768,legacy,23,23,C:/Users/Carolyn/OneDrive/cp-subject-2.csv,legacy,Kafkaesque Koffka,3.2.8,0,h,NA,s,NA,NA,h,761,NA,39850,NA,NA,761,2,legacy,1024,2,48000,-16,experiment,SSHSS,2,even,44130,NA,NA,NA,NA,92526,4278,NA,NA,46093,4272,93671,93775,94537,93667,93775,Flankertask2,23,19916,24,yes,1024
96,96,823.84,823.84,black,legacy,legacy,legacy,0,congruent,uniform,1,undefined,1,s,0,0,0,24,0,24,0,0,0,24,0,24,24,24,24,24,9/19/19 17:09,1500,The main experiment item,yes,Flankertask2.osexp,C:/Users/Carolyn/OneDrive,no,mono,no,18,no,white,no,yes,768,legacy,24,24,C:/Users/Carolyn/OneDrive/cp-subject-2.csv,legacy,Kafkaesque Koffka,3.2.8,0,s,NA,s,NA,NA,s,680,NA,39850,NA,NA,680,2,legacy,1024,2,48000,-16,experiment,SSSSS,2,even,44130,NA,NA,NA,NA,94559,4278,NA,NA,46093,4272,95704,95808,96489,95699,95807,Flankertask2,24,20596,25,yes,1024
96.15384615,96.15384615,818.6153846,818.6153846,black,legacy,legacy,legacy,0,incongruent,uniform,1,undefined,1,h,0,0,0,25,0,25,0,0,0,25,0,25,25,25,25,25,9/19/19 17:09,1500,The main experiment item,yes,Flankertask2.osexp,C:/Users/Carolyn/OneDrive,no,mono,no,18,no,white,no,yes,768,legacy,25,25,C:/Users/Carolyn/OneDrive/cp-subject-2.csv,legacy,Kafkaesque Koffka,3.2.8,0,h,NA,s,NA,NA,h,688,NA,39850,NA,NA,688,2,legacy,1024,2,48000,-16,experiment,SSHSS,2,even,44130,NA,NA,NA,NA,96543,4278,NA,NA,46093,4272,97688,97792,98481,97684,97791,Flankertask2,25,21284,26,yes,1024
96.2962963,96.2962963,820.8888889,820.8888889,black,legacy,legacy,legacy,0,incongruent,uniform,1,undefined,1,h,0,0,0,26,0,26,0,0,0,26,0,26,26,26,26,26,9/19/19 17:09,1500,The main experiment item,yes,Flankertask2.osexp,C:/Users/Carolyn/OneDrive,no,mono,no,18,no,white,no,yes,768,legacy,26,26,C:/Users/Carolyn/OneDrive/cp-subject-2.csv,legacy,Kafkaesque Koffka,3.2.8,0,h,NA,s,NA,NA,h,880,NA,39850,NA,NA,880,2,legacy,1024,2,48000,-16,experiment,SSHSS,2,even,44130,NA,NA,NA,NA,98526,4278,NA,NA,46093,4272,99672,99776,100657,99667,99775,Flankertask2,26,22164,27,yes,1024
96.42857143,96.42857143,816.25,816.25,black,legacy,legacy,legacy,0,congruent,uniform,1,undefined,1,s,0,0,0,27,0,27,0,0,0,27,0,27,27,27,27,27,9/19/19 17:09,1500,The main experiment item,yes,Flankertask2.osexp,C:/Users/Carolyn/OneDrive,no,mono,no,18,no,white,no,yes,768,legacy,27,27,C:/Users/Carolyn/OneDrive/cp-subject-2.csv,legacy,Kafkaesque Koffka,3.2.8,0,s,NA,s,NA,NA,s,691,NA,39850,NA,NA,691,2,legacy,1024,2,48000,-16,experiment,SSSSS,2,even,44130,NA,NA,NA,NA,100693,4278,NA,NA,46093,4272,101838,101941,102633,101833,101941,Flankertask2,27,22855,28,yes,1024
96.55172414,96.55172414,812.5172414,812.5172414,black,legacy,legacy,legacy,0,incongruent,uniform,1,undefined,1,s,0,0,0,28,0,28,0,0,0,28,0,28,28,28,28,28,9/19/19 17:09,1500,The main experiment item,yes,Flankertask2.osexp,C:/Users/Carolyn/OneDrive,no,mono,no,18,no,white,no,yes,768,legacy,28,28,C:/Users/Carolyn/OneDrive/cp-subject-2.csv,legacy,Kafkaesque Koffka,3.2.8,0,s,NA,s,NA,NA,s,708,NA,39850,NA,NA,708,2,legacy,1024,2,48000,-16,experiment,HHSHH,2,even,44130,NA,NA,NA,NA,102667,4278,NA,NA,46093,4272,103813,103916,104625,103808,103916,Flankertask2,28,23563,29,yes,1024
96.66666667,96.66666667,807.7,807.7,black,legacy,legacy,legacy,0,congruent,uniform,1,undefined,1,h,0,0,0,29,0,29,0,0,0,29,0,29,29,29,29,29,9/19/19 17:09,1500,The main experiment item,yes,Flankertask2.osexp,C:/Users/Carolyn/OneDrive,no,mono,no,18,no,white,no,yes,768,legacy,29,29,C:/Users/Carolyn/OneDrive/cp-subject-2.csv,legacy,Kafkaesque Koffka,3.2.8,0,h,NA,s,NA,NA,h,668,NA,39850,NA,NA,668,2,legacy,1024,2,48000,-16,experiment,HHHHH,2,even,44130,NA,NA,NA,NA,104676,4278,NA,NA,46093,4272,105821,105924,106593,105816,105924,Flankertask2,29,24231,30,yes,1024
96.77419355,96.77419355,805,805,black,legacy,legacy,legacy,0,congruent,uniform,1,undefined,1,h,0,0,0,30,0,30,0,0,0,30,0,30,30,30,30,30,9/19/19 17:09,1500,The main experiment item,yes,Flankertask2.osexp,C:/Users/Carolyn/OneDrive,no,mono,no,18,no,white,no,yes,768,legacy,30,30,C:/Users/Carolyn/OneDrive/cp-subject-2.csv,legacy,Kafkaesque Koffka,3.2.8,0,h,NA,s,NA,NA,h,724,NA,39850,NA,NA,724,2,legacy,1024,2,48000,-16,experiment,HHHHH,2,even,44130,NA,NA,NA,NA,106642,4278,NA,NA,46093,4272,107788,107892,108617,107783,107891,Flankertask2,30,24955,31,yes,1024
96.875,96.875,803.96875,803.96875,black,legacy,legacy,legacy,0,incongruent,uniform,1,undefined,1,h,0,0,0,31,0,31,0,0,0,31,0,31,31,31,31,31,9/19/19 17:09,1500,The main experiment item,yes,Flankertask2.osexp,C:/Users/Carolyn/OneDrive,no,mono,no,18,no,white,no,yes,768,legacy,31,31,C:/Users/Carolyn/OneDrive/cp-subject-2.csv,legacy,Kafkaesque Koffka,3.2.8,0,h,NA,s,NA,NA,h,772,NA,39850,NA,NA,772,2,legacy,1024,2,48000,-16,experiment,SSHSS,2,even,44130,NA,NA,NA,NA,108659,4278,NA,NA,46093,4272,109804,109908,110681,109800,109907,Flankertask2,31,25727,32,yes,1024
96.96969697,96.96969697,801.2121212,801.2121212,black,legacy,legacy,legacy,0,congruent,uniform,1,undefined,1,s,0,0,0,32,0,32,0,0,0,32,0,32,32,32,32,32,9/19/19 17:09,1500,The main experiment item,yes,Flankertask2.osexp,C:/Users/Carolyn/OneDrive,no,mono,no,18,no,white,no,yes,768,legacy,32,32,C:/Users/Carolyn/OneDrive/cp-subject-2.csv,legacy,Kafkaesque Koffka,3.2.8,0,s,NA,s,NA,NA,s,713,NA,39850,NA,NA,713,2,legacy,1024,2,48000,-16,experiment,SSSSS,2,even,44130,NA,NA,NA,NA,110718,4278,NA,NA,46093,4272,111863,111967,112681,111858,111966,Flankertask2,32,26440,33,yes,1024
97.05882353,97.05882353,792.9705882,792.9705882,black,legacy,legacy,legacy,0,congruent,uniform,1,undefined,1,s,0,0,0,33,0,33,0,0,0,33,0,33,33,33,33,33,9/19/19 17:09,1500,The main experiment item,yes,Flankertask2.osexp,C:/Users/Carolyn/OneDrive,no,mono,no,18,no,white,no,yes,768,legacy,33,33,C:/Users/Carolyn/OneDrive/cp-subject-2.csv,legacy,Kafkaesque Koffka,3.2.8,0,s,NA,s,NA,NA,s,521,NA,39850,NA,NA,521,2,legacy,1024,2,48000,-16,experiment,SSSSS,2,even,44130,NA,NA,NA,NA,112742,4278,NA,NA,46093,4272,113888,113991,114513,113883,113991,Flankertask2,33,26961,34,yes,1024
97.14285714,97.14285714,786.8857143,786.8857143,black,legacy,legacy,legacy,0,congruent,uniform,1,undefined,1,s,0,0,0,34,0,34,0,0,0,34,0,34,34,34,34,34,9/19/19 17:09,1500,The main experiment item,yes,Flankertask2.osexp,C:/Users/Carolyn/OneDrive,no,mono,no,18,no,white,no,yes,768,legacy,34,34,C:/Users/Carolyn/OneDrive/cp-subject-2.csv,legacy,Kafkaesque Koffka,3.2.8,0,s,NA,s,NA,NA,s,580,NA,39850,NA,NA,580,2,legacy,1024,2,48000,-16,experiment,SSSSS,2,even,44130,NA,NA,NA,NA,114572,4278,NA,NA,46093,4272,115717,115820,116401,115712,115820,Flankertask2,34,27541,35,yes,1024
97.22222222,97.22222222,782.5,782.5,black,legacy,legacy,legacy,0,congruent,uniform,1,undefined,1,h,0,0,0,35,0,35,0,0,0,35,0,35,35,35,35,35,9/19/19 17:09,1500,The main experiment item,yes,Flankertask2.osexp,C:/Users/Carolyn/OneDrive,no,mono,no,18,no,white,no,yes,768,legacy,35,35,C:/Users/Carolyn/OneDrive/cp-subject-2.csv,legacy,Kafkaesque Koffka,3.2.8,0,h,NA,s,NA,NA,h,629,NA,39850,NA,NA,629,2,legacy,1024,2,48000,-16,experiment,HHHHH,2,even,44130,NA,NA,NA,NA,116450,4278,NA,NA,46093,4272,117596,117699,118329,117592,117699,Flankertask2,35,28170,36,yes,1024
97.2972973,97.2972973,784.9189189,784.9189189,black,legacy,legacy,legacy,0,incongruent,uniform,1,undefined,1,s,0,0,0,36,0,36,0,0,0,36,0,36,36,36,36,36,9/19/19 17:09,1500,The main experiment item,yes,Flankertask2.osexp,C:/Users/Carolyn/OneDrive,no,mono,no,18,no,white,no,yes,768,legacy,36,36,C:/Users/Carolyn/OneDrive/cp-subject-2.csv,legacy,Kafkaesque Koffka,3.2.8,0,s,NA,s,NA,NA,s,872,NA,39850,NA,NA,872,2,legacy,1024,2,48000,-16,experiment,HHSHH,2,even,44130,NA,NA,NA,NA,118367,4278,NA,NA,46093,4272,119513,119616,120490,119508,119616,Flankertask2,36,29042,37,yes,1024
97.36842105,97.36842105,785.3157895,785.3157895,black,legacy,legacy,legacy,0,incongruent,uniform,1,undefined,1,s,0,0,0,37,0,37,0,0,0,37,0,37,37,37,37,37,9/19/19 17:09,1500,The main experiment item,yes,Flankertask2.osexp,C:/Users/Carolyn/OneDrive,no,mono,no,18,no,white,no,yes,768,legacy,37,37,C:/Users/Carolyn/OneDrive/cp-subject-2.csv,legacy,Kafkaesque Koffka,3.2.8,0,s,NA,s,NA,NA,s,800,NA,39850,NA,NA,800,2,legacy,1024,2,48000,-16,experiment,HHSHH,2,even,44130,NA,NA,NA,NA,120534,4278,NA,NA,46093,4272,121680,121784,122586,121676,121783,Flankertask2,37,29842,38,yes,1024
97.43589744,97.43589744,783.5897436,783.5897436,black,legacy,legacy,legacy,0,incongruent,uniform,1,undefined,1,s,0,0,0,38,0,38,0,0,0,38,0,38,38,38,38,38,9/19/19 17:09,1500,The main experiment item,yes,Flankertask2.osexp,C:/Users/Carolyn/OneDrive,no,mono,no,18,no,white,no,yes,768,legacy,38,38,C:/Users/Carolyn/OneDrive/cp-subject-2.csv,legacy,Kafkaesque Koffka,3.2.8,0,s,NA,s,NA,NA,s,718,NA,39850,NA,NA,718,2,legacy,1024,2,48000,-16,experiment,HHSHH,2,even,44130,NA,NA,NA,NA,122625,4278,NA,NA,46093,4272,123770,123874,124594,123766,123874,Flankertask2,38,30560,39,yes,1024
97.5,97.5,781.125,781.125,black,legacy,legacy,legacy,0,congruent,uniform,1,undefined,1,h,0,0,0,39,0,39,0,0,0,39,0,39,39,39,39,39,9/19/19 17:09,1500,The main experiment item,yes,Flankertask2.osexp,C:/Users/Carolyn/OneDrive,no,mono,no,18,no,white,no,yes,768,legacy,39,39,C:/Users/Carolyn/OneDrive/cp-subject-2.csv,legacy,Kafkaesque Koffka,3.2.8,0,h,NA,s,NA,NA,h,685,NA,39850,NA,NA,685,2,legacy,1024,2,48000,-16,experiment,HHHHH,2,even,44130,NA,NA,NA,NA,124634,4278,NA,NA,46093,4272,125780,125883,126570,125775,125883,Flankertask2,39,31245,40,yes,1024
97.56097561,97.56097561,781.3658537,781.3658537,black,legacy,legacy,legacy,0,incongruent,uniform,1,undefined,1,h,0,0,0,40,0,40,0,0,0,40,0,40,40,40,40,40,9/19/19 17:09,1500,The main experiment item,yes,Flankertask2.osexp,C:/Users/Carolyn/OneDrive,no,mono,no,18,no,white,no,yes,768,legacy,40,40,C:/Users/Carolyn/OneDrive/cp-subject-2.csv,legacy,Kafkaesque Koffka,3.2.8,0,h,NA,s,NA,NA,h,791,NA,39850,NA,NA,791,2,legacy,1024,2,48000,-16,experiment,SSHSS,2,even,44130,NA,NA,NA,NA,126617,4278,NA,NA,46093,4272,127762,127865,128658,127757,127865,Flankertask2,40,32036,41,yes,1024
97.61904762,97.61904762,780.5714286,780.5714286,black,legacy,legacy,legacy,0,incongruent,uniform,1,undefined,1,h,0,0,0,41,0,41,0,0,0,41,0,41,41,41,41,41,9/19/19 17:09,1500,The main experiment item,yes,Flankertask2.osexp,C:/Users/Carolyn/OneDrive,no,mono,no,18,no,white,no,yes,768,legacy,41,41,C:/Users/Carolyn/OneDrive/cp-subject-2.csv,legacy,Kafkaesque Koffka,3.2.8,0,h,NA,s,NA,NA,h,748,NA,39850,NA,NA,748,2,legacy,1024,2,48000,-16,experiment,SSHSS,2,even,44130,NA,NA,NA,NA,128692,4278,NA,NA,46093,4272,129837,129940,130690,129833,129940,Flankertask2,41,32784,42,yes,1024
97.6744186,97.6744186,777.3255814,777.3255814,black,legacy,legacy,legacy,0,incongruent,uniform,1,undefined,1,h,0,0,0,42,0,42,0,0,0,42,0,42,42,42,42,42,9/19/19 17:09,1500,The main experiment item,yes,Flankertask2.osexp,C:/Users/Carolyn/OneDrive,no,mono,no,18,no,white,no,yes,768,legacy,42,42,C:/Users/Carolyn/OneDrive/cp-subject-2.csv,legacy,Kafkaesque Koffka,3.2.8,0,h,NA,s,NA,NA,h,641,NA,39850,NA,NA,641,2,legacy,1024,2,48000,-16,experiment,SSHSS,2,even,44130,NA,NA,NA,NA,130734,4278,NA,NA,46093,4272,131879,131983,132626,131874,131982,Flankertask2,42,33425,43,yes,1024
97.72727273,97.72727273,773.9772727,773.9772727,black,legacy,legacy,legacy,0,congruent,uniform,1,undefined,1,s,0,0,0,43,0,43,0,0,0,43,0,43,43,43,43,43,9/19/19 17:09,1500,The main experiment item,yes,Flankertask2.osexp,C:/Users/Carolyn/OneDrive,no,mono,no,18,no,white,no,yes,768,legacy,43,43,C:/Users/Carolyn/OneDrive/cp-subject-2.csv,legacy,Kafkaesque Koffka,3.2.8,0,s,NA,s,NA,NA,s,630,NA,39850,NA,NA,630,2,legacy,1024,2,48000,-16,experiment,SSSSS,2,even,44130,NA,NA,NA,NA,132658,4278,NA,NA,46093,4272,133803,133906,134538,133798,133906,Flankertask2,43,34055,44,yes,1024
97.77777778,97.77777778,774.7111111,774.7111111,black,legacy,legacy,legacy,0,incongruent,uniform,1,undefined,1,h,0,0,0,44,0,44,0,0,0,44,0,44,44,44,44,44,9/19/19 17:09,1500,The main experiment item,yes,Flankertask2.osexp,C:/Users/Carolyn/OneDrive,no,mono,no,18,no,white,no,yes,768,legacy,44,44,C:/Users/Carolyn/OneDrive/cp-subject-2.csv,legacy,Kafkaesque Koffka,3.2.8,0,h,NA,s,NA,NA,h,807,NA,39850,NA,NA,807,2,legacy,1024,2,48000,-16,experiment,SSHSS,2,even,44130,NA,NA,NA,NA,134568,4278,NA,NA,46093,4272,135713,135817,136626,135708,135816,Flankertask2,44,34862,45,yes,1024
97.82608696,97.82608696,773.6304348,773.6304348,black,legacy,legacy,legacy,0,congruent,uniform,1,undefined,1,s,0,0,0,45,0,45,0,0,0,45,0,45,45,45,45,45,9/19/19 17:09,1500,The main experiment item,yes,Flankertask2.osexp,C:/Users/Carolyn/OneDrive,no,mono,no,18,no,white,no,yes,768,legacy,45,45,C:/Users/Carolyn/OneDrive/cp-subject-2.csv,legacy,Kafkaesque Koffka,3.2.8,0,s,NA,s,NA,NA,s,725,NA,39850,NA,NA,725,2,legacy,1024,2,48000,-16,experiment,SSSSS,2,even,44130,NA,NA,NA,NA,136676,4278,NA,NA,46093,4272,137820,137923,138650,137816,137923,Flankertask2,45,35587,46,yes,1024
97.87234043,97.87234043,771.3617021,771.3617021,black,legacy,legacy,legacy,0,incongruent,uniform,1,undefined,1,h,0,0,0,46,0,46,0,0,0,46,0,46,46,46,46,46,9/19/19 17:09,1500,The main experiment item,yes,Flankertask2.osexp,C:/Users/Carolyn/OneDrive,no,mono,no,18,no,white,no,yes,768,legacy,46,46,C:/Users/Carolyn/OneDrive/cp-subject-2.csv,legacy,Kafkaesque Koffka,3.2.8,0,h,NA,s,NA,NA,h,667,NA,39850,NA,NA,667,2,legacy,1024,2,48000,-16,experiment,SSHSS,2,even,44130,NA,NA,NA,NA,138684,4278,NA,NA,46093,4272,139829,139933,140602,139824,139932,Flankertask2,46,36254,47,yes,1024
97.91666667,97.91666667,765.2083333,765.2083333,black,legacy,legacy,legacy,0,incongruent,uniform,1,undefined,1,h,0,0,0,47,0,47,0,0,0,47,0,47,47,47,47,47,9/19/19 17:09,1500,The main experiment item,yes,Flankertask2.osexp,C:/Users/Carolyn/OneDrive,no,mono,no,18,no,white,no,yes,768,legacy,47,47,C:/Users/Carolyn/OneDrive/cp-subject-2.csv,legacy,Kafkaesque Koffka,3.2.8,0,h,NA,s,NA,NA,h,476,NA,39850,NA,NA,476,2,legacy,1024,2,48000,-16,experiment,SSHSS,2,even,44130,NA,NA,NA,NA,140642,4278,NA,NA,46093,4272,141788,141892,142370,141784,141892,Flankertask2,47,36730,48,yes,1024
97.95918367,97.95918367,760.6530612,760.6530612,black,legacy,legacy,legacy,0,congruent,uniform,1,undefined,1,h,0,0,0,48,0,48,0,0,0,48,0,48,48,48,48,48,9/19/19 17:09,1500,The main experiment item,yes,Flankertask2.osexp,C:/Users/Carolyn/OneDrive,no,mono,no,18,no,white,no,yes,768,legacy,48,48,C:/Users/Carolyn/OneDrive/cp-subject-2.csv,legacy,Kafkaesque Koffka,3.2.8,0,h,NA,s,NA,NA,h,542,NA,39850,NA,NA,542,2,legacy,1024,2,48000,-16,experiment,HHHHH,2,even,44130,NA,NA,NA,NA,142409,4278,NA,NA,46093,4272,143555,143658,144202,143550,143658,Flankertask2,48,37272,49,yes,1024
98,98,759.12,759.12,black,legacy,legacy,legacy,0,incongruent,uniform,1,undefined,1,s,0,0,0,49,0,49,0,0,0,49,0,49,49,49,49,49,9/19/19 17:09,1500,The main experiment item,yes,Flankertask2.osexp,C:/Users/Carolyn/OneDrive,no,mono,no,18,no,white,no,yes,768,legacy,49,49,C:/Users/Carolyn/OneDrive/cp-subject-2.csv,legacy,Kafkaesque Koffka,3.2.8,0,s,NA,s,NA,NA,s,684,NA,39850,NA,NA,684,2,legacy,1024,2,48000,-16,experiment,HHSHH,2,even,44130,NA,NA,NA,NA,144242,4278,NA,NA,46093,4272,145388,145492,146178,145383,145491,Flankertask2,49,37956,50,yes,1024
98.03921569,98.03921569,755.6470588,755.6470588,black,legacy,legacy,legacy,0,congruent,uniform,1,undefined,1,s,0,0,0,50,0,50,0,0,0,50,0,50,50,50,50,50,9/19/19 17:09,1500,The main experiment item,yes,Flankertask2.osexp,C:/Users/Carolyn/OneDrive,no,mono,no,18,no,white,no,yes,768,legacy,50,50,C:/Users/Carolyn/OneDrive/cp-subject-2.csv,legacy,Kafkaesque Koffka,3.2.8,0,s,NA,s,NA,NA,s,582,NA,39850,NA,NA,582,2,legacy,1024,2,48000,-16,experiment,SSSSS,2,even,44130,NA,NA,NA,NA,146226,4278,NA,NA,46093,4272,147370,147474,148058,147366,147474,Flankertask2,50,38538,51,yes,1024
98.07692308,98.07692308,755.0384615,755.0384615,black,legacy,legacy,legacy,0,congruent,uniform,1,undefined,1,h,0,0,0,51,0,51,0,0,0,51,0,51,51,51,51,51,9/19/19 17:09,1500,The main experiment item,yes,Flankertask2.osexp,C:/Users/Carolyn/OneDrive,no,mono,no,18,no,white,no,yes,768,legacy,51,51,C:/Users/Carolyn/OneDrive/cp-subject-2.csv,legacy,Kafkaesque Koffka,3.2.8,0,h,NA,s,NA,NA,h,724,NA,39850,NA,NA,724,2,legacy,1024,2,48000,-16,experiment,HHHHH,2,even,44130,NA,NA,NA,NA,148092,4278,NA,NA,46093,4272,149237,149340,150066,149232,149340,Flankertask2,51,39262,52,yes,1024
98.11320755,98.11320755,753.0566038,753.0566038,black,legacy,legacy,legacy,0,incongruent,uniform,1,undefined,1,s,0,0,0,52,0,52,0,0,0,52,0,52,52,52,52,52,9/19/19 17:09,1500,The main experiment item,yes,Flankertask2.osexp,C:/Users/Carolyn/OneDrive,no,mono,no,18,no,white,no,yes,768,legacy,52,52,C:/Users/Carolyn/OneDrive/cp-subject-2.csv,legacy,Kafkaesque Koffka,3.2.8,0,s,NA,s,NA,NA,s,650,NA,39850,NA,NA,650,2,legacy,1024,2,48000,-16,experiment,HHSHH,2,even,44130,NA,NA,NA,NA,150100,4278,NA,NA,46093,4272,151246,151350,152002,151241,151349,Flankertask2,52,39912,53,yes,1024
98.14814815,98.14814815,752.2407407,752.2407407,black,legacy,legacy,legacy,0,incongruent,uniform,1,undefined,1,h,0,0,0,53,0,53,0,0,0,53,0,53,53,53,53,53,9/19/19 17:09,1500,The main experiment item,yes,Flankertask2.osexp,C:/Users/Carolyn/OneDrive,no,mono,no,18,no,white,no,yes,768,legacy,53,53,C:/Users/Carolyn/OneDrive/cp-subject-2.csv,legacy,Kafkaesque Koffka,3.2.8,0,h,NA,s,NA,NA,h,709,NA,39850,NA,NA,709,2,legacy,1024,2,48000,-16,experiment,SSHSS,2,even,44130,NA,NA,NA,NA,152042,4278,NA,NA,46093,4272,153187,153291,154002,153182,153290,Flankertask2,53,40621,54,yes,1024
98.18181818,98.18181818,748.6909091,748.6909091,black,legacy,legacy,legacy,0,congruent,uniform,1,undefined,1,h,0,0,0,54,0,54,0,0,0,54,0,54,54,54,54,54,9/19/19 17:09,1500,The main experiment item,yes,Flankertask2.osexp,C:/Users/Carolyn/OneDrive,no,mono,no,18,no,white,no,yes,768,legacy,54,54,C:/Users/Carolyn/OneDrive/cp-subject-2.csv,legacy,Kafkaesque Koffka,3.2.8,0,h,NA,s,NA,NA,h,557,NA,39850,NA,NA,557,2,legacy,1024,2,48000,-16,experiment,HHHHH,2,even,44130,NA,NA,NA,NA,154050,4278,NA,NA,46093,4272,155196,155299,155858,155191,155299,Flankertask2,54,41178,55,yes,1024
98.21428571,98.21428571,750.0535714,750.0535714,black,legacy,legacy,legacy,0,incongruent,uniform,1,undefined,1,s,0,0,0,55,0,55,0,0,0,55,0,55,55,55,55,55,9/19/19 17:09,1500,The main experiment item,yes,Flankertask2.osexp,C:/Users/Carolyn/OneDrive,no,mono,no,18,no,white,no,yes,768,legacy,55,55,C:/Users/Carolyn/OneDrive/cp-subject-2.csv,legacy,Kafkaesque Koffka,3.2.8,0,s,NA,s,NA,NA,s,825,NA,39850,NA,NA,825,2,legacy,1024,2,48000,-16,experiment,HHSHH,2,even,44130,NA,NA,NA,NA,155892,4278,NA,NA,46093,4272,157039,157143,157970,157034,157142,Flankertask2,55,42003,56,yes,1024
98.24561404,98.24561404,751.9649123,751.9649123,black,legacy,legacy,legacy,0,incongruent,uniform,1,undefined,1,s,0,0,0,56,0,56,0,0,0,56,0,56,56,56,56,56,9/19/19 17:09,1500,The main experiment item,yes,Flankertask2.osexp,C:/Users/Carolyn/OneDrive,no,mono,no,18,no,white,no,yes,768,legacy,56,56,C:/Users/Carolyn/OneDrive/cp-subject-2.csv,legacy,Kafkaesque Koffka,3.2.8,0,s,NA,s,NA,NA,s,859,NA,39850,NA,NA,859,2,legacy,1024,2,48000,-16,experiment,HHSHH,2,even,44130,NA,NA,NA,NA,158026,4278,NA,NA,46093,4272,159173,159277,160138,159168,159276,Flankertask2,56,42862,57,yes,1024
98.27586207,98.27586207,751.0689655,751.0689655,black,legacy,legacy,legacy,0,congruent,uniform,1,undefined,1,s,0,0,0,57,0,57,0,0,0,57,0,57,57,57,57,57,9/19/19 17:09,1500,The main experiment item,yes,Flankertask2.osexp,C:/Users/Carolyn/OneDrive,no,mono,no,18,no,white,no,yes,768,legacy,57,57,C:/Users/Carolyn/OneDrive/cp-subject-2.csv,legacy,Kafkaesque Koffka,3.2.8,0,s,NA,s,NA,NA,s,700,NA,39850,NA,NA,700,2,legacy,1024,2,48000,-16,experiment,SSSSS,2,even,44130,NA,NA,NA,NA,160209,4278,NA,NA,46093,4272,161356,161460,162162,161351,161459,Flankertask2,57,43562,58,yes,1024
98.30508475,98.30508475,748.7288136,748.7288136,black,legacy,legacy,legacy,0,congruent,uniform,1,undefined,1,h,0,0,0,58,0,58,0,0,0,58,0,58,58,58,58,58,9/19/19 17:09,1500,The main experiment item,yes,Flankertask2.osexp,C:/Users/Carolyn/OneDrive,no,mono,no,18,no,white,no,yes,768,legacy,58,58,C:/Users/Carolyn/OneDrive/cp-subject-2.csv,legacy,Kafkaesque Koffka,3.2.8,0,h,NA,s,NA,NA,h,613,NA,39850,NA,NA,613,2,legacy,1024,2,48000,-16,experiment,HHHHH,2,even,44130,NA,NA,NA,NA,162208,4278,NA,NA,46093,4272,163354,163459,164074,163350,163458,Flankertask2,58,44175,59,yes,1024
98.33333333,98.33333333,748.2666667,748.2666667,black,legacy,legacy,legacy,0,incongruent,uniform,1,undefined,1,h,0,0,0,59,0,59,0,0,0,59,0,59,59,59,59,59,9/19/19 17:09,1500,The main experiment item,yes,Flankertask2.osexp,C:/Users/Carolyn/OneDrive,no,mono,no,18,no,white,no,yes,768,legacy,59,59,C:/Users/Carolyn/OneDrive/cp-subject-2.csv,legacy,Kafkaesque Koffka,3.2.8,0,h,NA,s,NA,NA,h,721,NA,39850,NA,NA,721,2,legacy,1024,2,48000,-16,experiment,SSHSS,2,even,44130,NA,NA,NA,NA,164109,4278,NA,NA,46093,4272,165256,165359,166082,165251,165359,Flankertask2,59,44896,60,yes,1024
98.36065574,98.36065574,747.8032787,747.8032787,black,legacy,legacy,legacy,0,congruent,uniform,1,undefined,1,s,0,0,0,60,0,60,0,0,0,60,0,60,60,60,60,60,9/19/19 17:09,1500,The main experiment item,yes,Flankertask2.osexp,C:/Users/Carolyn/OneDrive,no,mono,no,18,no,white,no,yes,768,legacy,60,60,C:/Users/Carolyn/OneDrive/cp-subject-2.csv,legacy,Kafkaesque Koffka,3.2.8,0,s,NA,s,NA,NA,s,720,NA,39850,NA,NA,720,2,legacy,1024,2,48000,-16,experiment,SSSSS,2,even,44130,NA,NA,NA,NA,166116,4278,NA,NA,46093,4272,167264,167368,168090,167259,167367,Flankertask2,60,45616,61,yes,1024
98.38709677,98.38709677,747.5,747.5,black,legacy,legacy,legacy,0,congruent,uniform,1,undefined,1,h,0,0,0,61,0,61,0,0,0,61,0,61,61,61,61,61,9/19/19 17:09,1500,The main experiment item,yes,Flankertask2.osexp,C:/Users/Carolyn/OneDrive,no,mono,no,18,no,white,no,yes,768,legacy,61,61,C:/Users/Carolyn/OneDrive/cp-subject-2.csv,legacy,Kafkaesque Koffka,3.2.8,0,h,NA,s,NA,NA,h,729,NA,39850,NA,NA,729,2,legacy,1024,2,48000,-16,experiment,HHHHH,2,even,44130,NA,NA,NA,NA,168125,4278,NA,NA,46093,4272,169271,169375,170106,169267,169374,Flankertask2,61,46345,62,yes,1024
98.41269841,98.41269841,748.0634921,748.0634921,black,legacy,legacy,legacy,0,incongruent,uniform,1,undefined,1,h,0,0,0,62,0,62,0,0,0,62,0,62,62,62,62,62,9/19/19 17:09,1500,The main experiment item,yes,Flankertask2.osexp,C:/Users/Carolyn/OneDrive,no,mono,no,18,no,white,no,yes,768,legacy,62,62,C:/Users/Carolyn/OneDrive/cp-subject-2.csv,legacy,Kafkaesque Koffka,3.2.8,0,h,NA,s,NA,NA,h,783,NA,39850,NA,NA,783,2,legacy,1024,2,48000,-16,experiment,SSHSS,2,even,44130,NA,NA,NA,NA,170150,4278,NA,NA,46093,4272,171297,171401,172186,171292,171400,Flankertask2,62,47128,63,yes,1024
98.4375,98.4375,747.671875,747.671875,black,legacy,legacy,legacy,0,incongruent,uniform,1,undefined,1,s,0,0,0,63,0,63,0,0,0,63,0,63,63,63,63,63,9/19/19 17:09,1500,The main experiment item,yes,Flankertask2.osexp,C:/Users/Carolyn/OneDrive,no,mono,no,18,no,white,no,yes,768,legacy,63,63,C:/Users/Carolyn/OneDrive/cp-subject-2.csv,legacy,Kafkaesque Koffka,3.2.8,0,s,NA,s,NA,NA,s,723,NA,39850,NA,NA,723,2,legacy,1024,2,48000,-16,experiment,HHSHH,2,even,44130,NA,NA,NA,NA,172234,4278,NA,NA,46093,4272,173381,173485,174210,173376,173484,Flankertask2,63,47851,64,yes,1024
98.46153846,98.46153846,749.2769231,749.2769231,black,legacy,legacy,legacy,0,congruent,uniform,1,undefined,1,h,0,0,0,64,0,64,0,0,0,64,0,64,64,64,64,64,9/19/19 17:09,1500,The main experiment item,yes,Flankertask2.osexp,C:/Users/Carolyn/OneDrive,no,mono,no,18,no,white,no,yes,768,legacy,64,64,C:/Users/Carolyn/OneDrive/cp-subject-2.csv,legacy,Kafkaesque Koffka,3.2.8,0,h,NA,s,NA,NA,h,852,NA,39850,NA,NA,852,2,legacy,1024,2,48000,-16,experiment,HHHHH,2,even,44130,NA,NA,NA,NA,174258,4278,NA,NA,46093,4272,175405,175508,176362,175400,175508,Flankertask2,64,48703,65,yes,1024
98.48484848,98.48484848,748.9242424,748.9242424,black,legacy,legacy,legacy,0,congruent,uniform,1,undefined,1,s,0,0,0,65,0,65,0,0,0,65,0,65,65,65,65,65,9/19/19 17:09,1500,The main experiment item,yes,Flankertask2.osexp,C:/Users/Carolyn/OneDrive,no,mono,no,18,no,white,no,yes,768,legacy,65,65,C:/Users/Carolyn/OneDrive/cp-subject-2.csv,legacy,Kafkaesque Koffka,3.2.8,0,s,NA,s,NA,NA,s,726,NA,39850,NA,NA,726,2,legacy,1024,2,48000,-16,experiment,SSSSS,2,even,44130,NA,NA,NA,NA,176415,4278,NA,NA,46093,4272,177561,177666,178394,177557,177665,Flankertask2,65,49429,66,yes,1024
98.50746269,98.50746269,749.1492537,749.1492537,black,legacy,legacy,legacy,0,congruent,uniform,1,undefined,1,h,0,0,0,66,0,66,0,0,0,66,0,66,66,66,66,66,9/19/19 17:09,1500,The main experiment item,yes,Flankertask2.osexp,C:/Users/Carolyn/OneDrive,no,mono,no,18,no,white,no,yes,768,legacy,66,66,C:/Users/Carolyn/OneDrive/cp-subject-2.csv,legacy,Kafkaesque Koffka,3.2.8,0,h,NA,s,NA,NA,h,764,NA,39850,NA,NA,764,2,legacy,1024,2,48000,-16,experiment,HHHHH,2,even,44130,NA,NA,NA,NA,178434,4278,NA,NA,46093,4272,179580,179684,180450,179576,179683,Flankertask2,66,50193,67,yes,1024
98.52941176,98.52941176,748.8676471,748.8676471,black,legacy,legacy,legacy,0,incongruent,uniform,1,undefined,1,h,0,0,0,67,0,67,0,0,0,67,0,67,67,67,67,67,9/19/19 17:09,1500,The main experiment item,yes,Flankertask2.osexp,C:/Users/Carolyn/OneDrive,no,mono,no,18,no,white,no,yes,768,legacy,67,67,C:/Users/Carolyn/OneDrive/cp-subject-2.csv,legacy,Kafkaesque Koffka,3.2.8,0,h,NA,s,NA,NA,h,730,NA,39850,NA,NA,730,2,legacy,1024,2,48000,-16,experiment,SSHSS,2,even,44130,NA,NA,NA,NA,180500,4278,NA,NA,46093,4272,181647,181750,182482,181642,181750,Flankertask2,67,50923,68,yes,1024
98.55072464,98.55072464,747.5362319,747.5362319,black,legacy,legacy,legacy,0,incongruent,uniform,1,undefined,1,h,0,0,0,68,0,68,0,0,0,68,0,68,68,68,68,68,9/19/19 17:09,1500,The main experiment item,yes,Flankertask2.osexp,C:/Users/Carolyn/OneDrive,no,mono,no,18,no,white,no,yes,768,legacy,68,68,C:/Users/Carolyn/OneDrive/cp-subject-2.csv,legacy,Kafkaesque Koffka,3.2.8,0,h,NA,s,NA,NA,h,657,NA,39850,NA,NA,657,2,legacy,1024,2,48000,-16,experiment,SSHSS,2,even,44130,NA,NA,NA,NA,182525,4278,NA,NA,46093,4272,183671,183775,184434,183666,183774,Flankertask2,68,51580,69,yes,1024
98.57142857,98.57142857,746.7,746.7,black,legacy,legacy,legacy,0,congruent,uniform,1,undefined,1,s,0,0,0,69,0,69,0,0,0,69,0,69,69,69,69,69,9/19/19 17:09,1500,The main experiment item,yes,Flankertask2.osexp,C:/Users/Carolyn/OneDrive,no,mono,no,18,no,white,no,yes,768,legacy,69,69,C:/Users/Carolyn/OneDrive/cp-subject-2.csv,legacy,Kafkaesque Koffka,3.2.8,0,s,NA,s,NA,NA,s,689,NA,39850,NA,NA,689,2,legacy,1024,2,48000,-16,experiment,SSSSS,2,even,44130,NA,NA,NA,NA,184483,4278,NA,NA,46093,4272,185630,185735,186426,185625,185734,Flankertask2,69,52269,70,yes,1024
98.5915493,98.5915493,744.2394366,744.2394366,black,legacy,legacy,legacy,0,incongruent,uniform,1,undefined,1,s,0,0,0,70,0,70,0,0,0,70,0,70,70,70,70,70,9/19/19 17:09,1500,The main experiment item,yes,Flankertask2.osexp,C:/Users/Carolyn/OneDrive,no,mono,no,18,no,white,no,yes,768,legacy,70,70,C:/Users/Carolyn/OneDrive/cp-subject-2.csv,legacy,Kafkaesque Koffka,3.2.8,0,s,NA,s,NA,NA,s,572,NA,39850,NA,NA,572,2,legacy,1024,2,48000,-16,experiment,HHSHH,2,even,44130,NA,NA,NA,NA,186475,4278,NA,NA,46093,4272,187621,187724,188298,187616,187724,Flankertask2,70,52841,71,yes,1024
98.61111111,98.61111111,741.8333333,741.8333333,black,legacy,legacy,legacy,0,congruent,uniform,1,undefined,1,s,0,0,0,71,0,71,0,0,0,71,0,71,71,71,71,71,9/19/19 17:09,1500,The main experiment item,yes,Flankertask2.osexp,C:/Users/Carolyn/OneDrive,no,mono,no,18,no,white,no,yes,768,legacy,71,71,C:/Users/Carolyn/OneDrive/cp-subject-2.csv,legacy,Kafkaesque Koffka,3.2.8,0,s,NA,s,NA,NA,s,571,NA,39850,NA,NA,571,2,legacy,1024,2,48000,-16,experiment,SSSSS,2,even,44130,NA,NA,NA,NA,188333,4278,NA,NA,46093,4272,189477,189581,190154,189473,189580,Flankertask2,71,53412,72,yes,1024
98.63013699,98.63013699,741.7260274,741.7260274,black,legacy,legacy,legacy,0,incongruent,uniform,1,undefined,1,h,0,0,0,72,0,72,0,0,0,72,0,72,72,72,72,72,9/19/19 17:09,1500,The main experiment item,yes,Flankertask2.osexp,C:/Users/Carolyn/OneDrive,no,mono,no,18,no,white,no,yes,768,legacy,72,72,C:/Users/Carolyn/OneDrive/cp-subject-2.csv,legacy,Kafkaesque Koffka,3.2.8,0,h,NA,s,NA,NA,h,734,NA,39850,NA,NA,734,2,legacy,1024,2,48000,-16,experiment,SSHSS,2,even,44130,NA,NA,NA,NA,190191,4278,NA,NA,46093,4272,191338,191442,192179,191333,191441,Flankertask2,72,54146,73,yes,1024
98.64864865,98.64864865,739.972973,739.972973,black,legacy,legacy,legacy,0,congruent,uniform,1,undefined,1,s,0,0,0,73,0,73,0,0,0,73,0,73,73,73,73,73,9/19/19 17:09,1500,The main experiment item,yes,Flankertask2.osexp,C:/Users/Carolyn/OneDrive,no,mono,no,18,no,white,no,yes,768,legacy,73,73,C:/Users/Carolyn/OneDrive/cp-subject-2.csv,legacy,Kafkaesque Koffka,3.2.8,0,s,NA,s,NA,NA,s,612,NA,39850,NA,NA,612,2,legacy,1024,2,48000,-16,experiment,SSSSS,2,even,44130,NA,NA,NA,NA,192225,4278,NA,NA,46093,4272,193372,193476,194090,193367,193475,Flankertask2,73,54758,74,yes,1024
98.66666667,98.66666667,739.9333333,739.9333333,black,legacy,legacy,legacy,0,incongruent,uniform,1,undefined,1,s,0,0,0,74,0,74,0,0,0,74,0,74,74,74,74,74,9/19/19 17:09,1500,The main experiment item,yes,Flankertask2.osexp,C:/Users/Carolyn/OneDrive,no,mono,no,18,no,white,no,yes,768,legacy,74,74,C:/Users/Carolyn/OneDrive/cp-subject-2.csv,legacy,Kafkaesque Koffka,3.2.8,0,s,NA,s,NA,NA,s,737,NA,39850,NA,NA,737,2,legacy,1024,2,48000,-16,experiment,HHSHH,2,even,44130,NA,NA,NA,NA,194133,4278,NA,NA,46093,4272,195280,195383,196122,195275,195383,Flankertask2,74,55495,75,yes,1024
98.68421053,98.68421053,737.3421053,737.3421053,black,legacy,legacy,legacy,0,incongruent,uniform,1,undefined,1,s,0,0,0,75,0,75,0,0,0,75,0,75,75,75,75,75,9/19/19 17:09,1500,The main experiment item,yes,Flankertask2.osexp,C:/Users/Carolyn/OneDrive,no,mono,no,18,no,white,no,yes,768,legacy,75,75,C:/Users/Carolyn/OneDrive/cp-subject-2.csv,legacy,Kafkaesque Koffka,3.2.8,0,s,NA,s,NA,NA,s,543,NA,39850,NA,NA,543,2,legacy,1024,2,48000,-16,experiment,HHSHH,2,even,44130,NA,NA,NA,NA,196158,4278,NA,NA,46093,4272,197305,197409,197954,197300,197408,Flankertask2,75,56038,76,yes,1024
98.7012987,98.7012987,735.4155844,735.4155844,black,legacy,legacy,legacy,0,incongruent,uniform,1,undefined,1,s,0,0,0,76,0,76,0,0,0,76,0,76,76,76,76,76,9/19/19 17:09,1500,The main experiment item,yes,Flankertask2.osexp,C:/Users/Carolyn/OneDrive,no,mono,no,18,no,white,no,yes,768,legacy,76,76,C:/Users/Carolyn/OneDrive/cp-subject-2.csv,legacy,Kafkaesque Koffka,3.2.8,0,s,NA,s,NA,NA,s,589,NA,39850,NA,NA,589,2,legacy,1024,2,48000,-16,experiment,HHSHH,2,even,44130,NA,NA,NA,NA,197992,4278,NA,NA,46093,4272,199138,199243,199834,199134,199242,Flankertask2,76,56627,77,yes,1024
98.71794872,98.71794872,733.7307692,733.7307692,black,legacy,legacy,legacy,0,congruent,uniform,1,undefined,1,h,0,0,0,77,0,77,0,0,0,77,0,77,77,77,77,77,9/19/19 17:09,1500,The main experiment item,yes,Flankertask2.osexp,C:/Users/Carolyn/OneDrive,no,mono,no,18,no,white,no,yes,768,legacy,77,77,C:/Users/Carolyn/OneDrive/cp-subject-2.csv,legacy,Kafkaesque Koffka,3.2.8,0,h,NA,s,NA,NA,h,604,NA,39850,NA,NA,604,2,legacy,1024,2,48000,-16,experiment,HHHHH,2,even,44130,NA,NA,NA,NA,199883,4278,NA,NA,46093,4272,201029,201132,201738,201024,201132,Flankertask2,77,57231,78,yes,1024
98.73417722,98.73417722,732.7848101,732.7848101,black,legacy,legacy,legacy,0,congruent,uniform,1,undefined,1,s,0,0,0,78,0,78,0,0,0,78,0,78,78,78,78,78,9/19/19 17:09,1500,The main experiment item,yes,Flankertask2.osexp,C:/Users/Carolyn/OneDrive,no,mono,no,18,no,white,no,yes,768,legacy,78,78,C:/Users/Carolyn/OneDrive/cp-subject-2.csv,legacy,Kafkaesque Koffka,3.2.8,0,s,NA,s,NA,NA,s,659,NA,39850,NA,NA,659,2,legacy,1024,2,48000,-16,experiment,SSSSS,2,even,44130,NA,NA,NA,NA,201803,4278,NA,NA,46093,4272,202949,203053,203714,202944,203052,Flankertask2,78,57890,79,yes,1024
98.75,98.75,730.925,730.925,black,legacy,legacy,legacy,0,incongruent,uniform,1,undefined,1,s,0,0,0,79,0,79,0,0,0,79,0,79,79,79,79,79,9/19/19 17:09,1500,The main experiment item,yes,Flankertask2.osexp,C:/Users/Carolyn/OneDrive,no,mono,no,18,no,white,no,yes,768,legacy,79,79,C:/Users/Carolyn/OneDrive/cp-subject-2.csv,legacy,Kafkaesque Koffka,3.2.8,0,s,NA,s,NA,NA,s,584,NA,39850,NA,NA,584,2,legacy,1024,2,48000,-16,experiment,HHSHH,2,even,44130,NA,NA,NA,NA,203749,4278,NA,NA,46093,4272,204896,205000,205586,204892,205000,Flankertask2,79,58474,80,yes,1024
98.7654321,98.7654321,731.1975309,731.1975309,black,legacy,legacy,legacy,0,congruent,uniform,1,undefined,1,h,0,0,0,80,0,80,0,0,0,80,0,80,80,80,80,80,9/19/19 17:09,600,The main experiment item,yes,Flankertask2.osexp,C:/Users/Carolyn/OneDrive,no,mono,no,18,no,white,no,yes,768,legacy,0,79,C:/Users/Carolyn/OneDrive/cp-subject-2.csv,legacy,Kafkaesque Koffka,3.2.8,0,h,NA,s,s,NA,h,753,NA,39850,14099,NA,753,2,legacy,1024,2,48000,-16,experiment,HHHHH,2,even,44130,220754,NA,NA,NA,205625,4278,206653,NA,46093,4272,220895,220999,221754,220891,220998,Flankertask2,80,59227,81,yes,1024
98.7804878,98.7804878,727.7560976,727.7560976,black,legacy,legacy,legacy,0,congruent,uniform,1,undefined,1,h,0,0,0,81,0,81,0,0,0,81,0,81,81,81,81,81,9/19/19 17:09,600,The main experiment item,yes,Flankertask2.osexp,C:/Users/Carolyn/OneDrive,no,mono,no,18,no,white,no,yes,768,legacy,1,79,C:/Users/Carolyn/OneDrive/cp-subject-2.csv,legacy,Kafkaesque Koffka,3.2.8,0,h,NA,s,s,NA,h,449,NA,39850,14099,NA,449,2,legacy,1024,2,48000,-16,experiment,HHHHH,2,even,44130,220754,NA,221800,NA,222303,4278,206653,NA,46093,4272,223448,223551,224002,223443,223551,Flankertask2,81,59676,82,yes,1024
98.79518072,98.79518072,723.686747,723.686747,black,legacy,legacy,legacy,0,congruent,uniform,1,undefined,1,s,0,0,0,82,0,82,0,0,0,82,0,82,82,82,82,82,9/19/19 17:09,600,The main experiment item,yes,Flankertask2.osexp,C:/Users/Carolyn/OneDrive,no,mono,no,18,no,white,no,yes,768,legacy,2,79,C:/Users/Carolyn/OneDrive/cp-subject-2.csv,legacy,Kafkaesque Koffka,3.2.8,0,s,NA,s,s,NA,s,390,NA,39850,14099,NA,390,2,legacy,1024,2,48000,-16,experiment,SSSSS,2,even,44130,220754,NA,221800,NA,224050,4278,206653,NA,46093,4272,225195,225298,225690,225190,225298,Flankertask2,82,60066,83,yes,1024
97.61904762,97.61904762,719.6428571,719.6428571,black,legacy,legacy,legacy,0,incongruent,uniform,0,undefined,0,s,0,0,0,83,0,83,0,0,0,83,0,83,83,83,83,83,9/19/19 17:09,600,The main experiment item,yes,Flankertask2.osexp,C:/Users/Carolyn/OneDrive,no,mono,no,18,no,white,no,yes,768,legacy,3,79,C:/Users/Carolyn/OneDrive/cp-subject-2.csv,legacy,Kafkaesque Koffka,3.2.8,0,h,NA,s,s,NA,h,384,NA,39850,14099,NA,384,2,legacy,1024,2,48000,-16,experiment,HHSHH,2,even,44130,220754,NA,221800,NA,225733,4278,206653,NA,46093,4272,226880,226984,227370,226875,226983,Flankertask2,82,60450,84,yes,1024
97.64705882,97.64705882,719.6352941,719.6352941,black,legacy,legacy,legacy,0,incongruent,uniform,1,undefined,1,s,0,0,0,84,0,84,0,0,0,84,0,84,84,84,84,84,9/19/19 17:09,600,The main experiment item,yes,Flankertask2.osexp,C:/Users/Carolyn/OneDrive,no,mono,no,18,no,white,no,yes,768,legacy,4,79,C:/Users/Carolyn/OneDrive/cp-subject-2.csv,legacy,Kafkaesque Koffka,3.2.8,0,s,NA,s,s,NA,s,719,NA,39850,14099,NA,719,2,legacy,1024,2,48000,-16,experiment,HHSHH,2,even,44130,220754,NA,221800,NA,227919,4278,206653,NA,227416,4272,229065,229169,229890,229060,229168,Flankertask2,83,61169,85,yes,1024
97.6744186,97.6744186,716.9883721,716.9883721,black,legacy,legacy,legacy,0,congruent,uniform,1,undefined,1,h,0,0,0,85,0,85,0,0,0,85,0,85,85,85,85,85,9/19/19 17:09,600,The main experiment item,yes,Flankertask2.osexp,C:/Users/Carolyn/OneDrive,no,mono,no,18,no,white,no,yes,768,legacy,5,79,C:/Users/Carolyn/OneDrive/cp-subject-2.csv,legacy,Kafkaesque Koffka,3.2.8,0,h,NA,s,s,NA,h,492,NA,39850,14099,NA,492,2,legacy,1024,2,48000,-16,experiment,HHHHH,2,even,44130,220754,NA,229933,NA,230436,4278,206653,NA,227416,4272,231581,231684,232178,231576,231684,Flankertask2,84,61661,86,yes,1024
97.70114943,97.70114943,713.5172414,713.5172414,black,legacy,legacy,legacy,0,incongruent,uniform,1,undefined,1,s,0,0,0,86,0,86,0,0,0,86,0,86,86,86,86,86,9/19/19 17:09,600,The main experiment item,yes,Flankertask2.osexp,C:/Users/Carolyn/OneDrive,no,mono,no,18,no,white,no,yes,768,legacy,6,79,C:/Users/Carolyn/OneDrive/cp-subject-2.csv,legacy,Kafkaesque Koffka,3.2.8,0,s,NA,s,s,NA,s,415,NA,39850,14099,NA,415,2,legacy,1024,2,48000,-16,experiment,HHSHH,2,even,44130,220754,NA,229933,NA,232216,4278,206653,NA,227416,4272,233361,233465,233882,233357,233464,Flankertask2,85,62076,87,yes,1024
97.72727273,97.72727273,711,711,black,legacy,legacy,legacy,0,congruent,uniform,1,undefined,1,h,0,0,0,87,0,87,0,0,0,87,0,87,87,87,87,87,9/19/19 17:09,600,The main experiment item,yes,Flankertask2.osexp,C:/Users/Carolyn/OneDrive,no,mono,no,18,no,white,no,yes,768,legacy,7,79,C:/Users/Carolyn/OneDrive/cp-subject-2.csv,legacy,Kafkaesque Koffka,3.2.8,0,h,NA,s,s,NA,h,492,NA,39850,14099,NA,492,2,legacy,1024,2,48000,-16,experiment,HHHHH,2,even,44130,220754,NA,229933,NA,233916,4278,206653,NA,227416,4272,235061,235164,235658,235057,235164,Flankertask2,86,62568,88,yes,1024
96.62921348,96.62921348,708.1797753,708.1797753,black,legacy,legacy,legacy,0,incongruent,uniform,0,undefined,0,h,0,0,0,88,0,88,0,0,0,88,0,88,88,88,88,88,9/19/19 17:09,600,The main experiment item,yes,Flankertask2.osexp,C:/Users/Carolyn/OneDrive,no,mono,no,18,no,white,no,yes,768,legacy,8,79,C:/Users/Carolyn/OneDrive/cp-subject-2.csv,legacy,Kafkaesque Koffka,3.2.8,0,s,NA,s,s,NA,s,460,NA,39850,14099,NA,460,2,legacy,1024,2,48000,-16,experiment,SSHSS,2,even,44130,220754,NA,229933,NA,235699,4278,206653,NA,227416,4272,236845,236948,237410,236840,236948,Flankertask2,86,63028,89,yes,1024
96.66666667,96.66666667,708.9333333,708.9333333,black,legacy,legacy,legacy,0,incongruent,uniform,1,undefined,1,h,0,0,0,89,0,89,0,0,0,89,0,89,89,89,89,89,9/19/19 17:09,600,The main experiment item,yes,Flankertask2.osexp,C:/Users/Carolyn/OneDrive,no,mono,no,18,no,white,no,yes,768,legacy,9,79,C:/Users/Carolyn/OneDrive/cp-subject-2.csv,legacy,Kafkaesque Koffka,3.2.8,0,h,NA,s,s,NA,h,776,NA,39850,14099,NA,776,2,legacy,1024,2,48000,-16,experiment,SSHSS,2,even,44130,220754,NA,229933,NA,237952,4278,206653,NA,237449,4272,239097,239200,239978,239092,239200,Flankertask2,87,63804,90,yes,1024
96.7032967,96.7032967,708.7142857,708.7142857,black,legacy,legacy,legacy,0,incongruent,uniform,1,undefined,1,h,0,0,0,90,0,90,0,0,0,90,0,90,90,90,90,90,9/19/19 17:09,600,The main experiment item,yes,Flankertask2.osexp,C:/Users/Carolyn/OneDrive,no,mono,no,18,no,white,no,yes,768,legacy,10,79,C:/Users/Carolyn/OneDrive/cp-subject-2.csv,legacy,Kafkaesque Koffka,3.2.8,0,h,NA,s,s,NA,h,689,NA,39850,14099,NA,689,2,legacy,1024,2,48000,-16,experiment,SSHSS,2,even,44130,220754,NA,240024,NA,240527,4278,206653,NA,237449,4272,241671,241775,242466,241667,241774,Flankertask2,88,64493,91,yes,1024
96.73913043,96.73913043,706.8152174,706.8152174,black,legacy,legacy,legacy,0,incongruent,uniform,1,undefined,1,h,0,0,0,91,0,91,0,0,0,91,0,91,91,91,91,91,9/19/19 17:09,600,The main experiment item,yes,Flankertask2.osexp,C:/Users/Carolyn/OneDrive,no,mono,no,18,no,white,no,yes,768,legacy,11,79,C:/Users/Carolyn/OneDrive/cp-subject-2.csv,legacy,Kafkaesque Koffka,3.2.8,0,h,NA,s,s,NA,h,534,NA,39850,14099,NA,534,2,legacy,1024,2,48000,-16,experiment,SSHSS,2,even,44130,220754,NA,242516,NA,243019,4278,206653,NA,237449,4272,244163,244266,244802,244158,244266,Flankertask2,89,65027,92,yes,1024
96.77419355,96.77419355,703.2580645,703.2580645,black,legacy,legacy,legacy,0,incongruent,uniform,1,undefined,1,h,0,0,0,92,0,92,0,0,0,92,0,92,92,92,92,92,9/19/19 17:09,600,The main experiment item,yes,Flankertask2.osexp,C:/Users/Carolyn/OneDrive,no,mono,no,18,no,white,no,yes,768,legacy,12,79,C:/Users/Carolyn/OneDrive/cp-subject-2.csv,legacy,Kafkaesque Koffka,3.2.8,0,h,NA,s,s,NA,h,376,NA,39850,14099,NA,376,2,legacy,1024,2,48000,-16,experiment,SSHSS,2,even,44130,220754,NA,242516,NA,244841,4278,206653,NA,237449,4272,245985,246088,246466,245981,246088,Flankertask2,90,65403,93,yes,1024
96.80851064,96.80851064,702.1276596,702.1276596,black,legacy,legacy,legacy,0,incongruent,uniform,1,undefined,1,s,0,0,0,93,0,93,0,0,0,93,0,93,93,93,93,93,9/19/19 17:09,600,The main experiment item,yes,Flankertask2.osexp,C:/Users/Carolyn/OneDrive,no,mono,no,18,no,white,no,yes,768,legacy,13,79,C:/Users/Carolyn/OneDrive/cp-subject-2.csv,legacy,Kafkaesque Koffka,3.2.8,0,s,NA,s,s,NA,s,597,NA,39850,14099,NA,597,2,legacy,1024,2,48000,-16,experiment,HHSHH,2,even,44130,220754,NA,242516,NA,246507,4278,206653,NA,237449,4272,247651,247755,248354,247647,247755,Flankertask2,91,66000,94,yes,1024
96.84210526,96.84210526,702.1684211,702.1684211,black,legacy,legacy,legacy,0,congruent,uniform,1,undefined,1,s,0,0,0,94,0,94,0,0,0,94,0,94,94,94,94,94,9/19/19 17:09,600,The main experiment item,yes,Flankertask2.osexp,C:/Users/Carolyn/OneDrive,no,mono,no,18,no,white,no,yes,768,legacy,14,79,C:/Users/Carolyn/OneDrive/cp-subject-2.csv,legacy,Kafkaesque Koffka,3.2.8,0,s,NA,s,s,NA,s,706,NA,39850,14099,NA,706,2,legacy,1024,2,48000,-16,experiment,SSSSS,2,even,44130,220754,NA,242516,NA,248391,4278,206653,NA,237449,4272,249535,249638,250346,249530,249638,Flankertask2,92,66706,95,yes,1024
96.875,96.875,701.0520833,701.0520833,black,legacy,legacy,legacy,0,incongruent,uniform,1,undefined,1,h,0,0,0,95,0,95,0,0,0,95,0,95,95,95,95,95,9/19/19 17:09,600,The main experiment item,yes,Flankertask2.osexp,C:/Users/Carolyn/OneDrive,no,mono,no,18,no,white,no,yes,768,legacy,15,79,C:/Users/Carolyn/OneDrive/cp-subject-2.csv,legacy,Kafkaesque Koffka,3.2.8,0,h,NA,s,s,NA,h,595,NA,39850,14099,NA,595,2,legacy,1024,2,48000,-16,experiment,SSHSS,2,even,44130,220754,NA,250391,NA,250894,4278,206653,NA,237449,4272,252038,252141,252739,252033,252141,Flankertask2,93,67301,96,yes,1024
96.90721649,96.90721649,699.6082474,699.6082474,black,legacy,legacy,legacy,0,congruent,uniform,1,undefined,1,s,0,0,0,96,0,96,0,0,0,96,0,96,96,96,96,96,9/19/19 17:09,600,The main experiment item,yes,Flankertask2.osexp,C:/Users/Carolyn/OneDrive,no,mono,no,18,no,white,no,yes,768,legacy,16,79,C:/Users/Carolyn/OneDrive/cp-subject-2.csv,legacy,Kafkaesque Koffka,3.2.8,0,s,NA,s,s,NA,s,561,NA,39850,14099,NA,561,2,legacy,1024,2,48000,-16,experiment,SSSSS,2,even,44130,220754,NA,250391,NA,252782,4278,206653,NA,237449,4272,253927,254031,254594,253922,254030,Flankertask2,94,67862,97,yes,1024
96.93877551,96.93877551,698.4081633,698.4081633,black,legacy,legacy,legacy,0,incongruent,uniform,1,undefined,1,s,0,0,0,97,0,97,0,0,0,97,0,97,97,97,97,97,9/19/19 17:09,600,The main experiment item,yes,Flankertask2.osexp,C:/Users/Carolyn/OneDrive,no,mono,no,18,no,white,no,yes,768,legacy,17,79,C:/Users/Carolyn/OneDrive/cp-subject-2.csv,legacy,Kafkaesque Koffka,3.2.8,0,s,NA,s,s,NA,s,582,NA,39850,14099,NA,582,2,legacy,1024,2,48000,-16,experiment,HHSHH,2,even,44130,220754,NA,250391,NA,254641,4278,206653,NA,237449,4272,255787,255890,256474,255782,255890,Flankertask2,95,68444,98,yes,1024
96.96969697,96.96969697,697.6161616,697.6161616,black,legacy,legacy,legacy,0,incongruent,uniform,1,undefined,1,s,0,0,0,98,0,98,0,0,0,98,0,98,98,98,98,98,9/19/19 17:09,600,The main experiment item,yes,Flankertask2.osexp,C:/Users/Carolyn/OneDrive,no,mono,no,18,no,white,no,yes,768,legacy,18,79,C:/Users/Carolyn/OneDrive/cp-subject-2.csv,legacy,Kafkaesque Koffka,3.2.8,0,s,NA,s,s,NA,s,620,NA,39850,14099,NA,620,2,legacy,1024,2,48000,-16,experiment,HHSHH,2,even,44130,220754,NA,250391,NA,256524,4278,206653,NA,237449,4272,257669,257772,258394,257664,257772,Flankertask2,96,69064,99,yes,1024
97,97,695.85,695.85,black,legacy,legacy,legacy,0,congruent,uniform,1,undefined,1,s,0,0,0,99,0,99,0,0,0,99,0,99,99,99,99,99,9/19/19 17:09,600,The main experiment item,yes,Flankertask2.osexp,C:/Users/Carolyn/OneDrive,no,mono,no,18,no,white,no,yes,768,legacy,19,79,C:/Users/Carolyn/OneDrive/cp-subject-2.csv,legacy,Kafkaesque Koffka,3.2.8,0,s,NA,s,s,NA,s,521,NA,39850,14099,NA,521,2,legacy,1024,2,48000,-16,experiment,SSSSS,2,even,44130,220754,NA,258441,NA,258944,4278,206653,NA,237449,4272,260088,260191,260714,260083,260191,Flankertask2,97,69585,100,yes,1024
96.03960396,96.03960396,693.029703,693.029703,black,legacy,legacy,legacy,0,incongruent,uniform,0,undefined,0,h,0,0,0,100,0,100,0,0,0,100,0,100,100,100,100,100,9/19/19 17:09,600,The main experiment item,yes,Flankertask2.osexp,C:/Users/Carolyn/OneDrive,no,mono,no,18,no,white,no,yes,768,legacy,20,79,C:/Users/Carolyn/OneDrive/cp-subject-2.csv,legacy,Kafkaesque Koffka,3.2.8,0,s,NA,s,s,NA,s,411,NA,39850,14099,NA,411,2,legacy,1024,2,48000,-16,experiment,SSHSS,2,even,44130,220754,NA,258441,NA,260757,4278,206653,NA,237449,4272,261902,262005,262418,261898,262005,Flankertask2,97,69996,101,yes,1024
96.07843137,96.07843137,692.5686275,692.5686275,black,legacy,legacy,legacy,0,incongruent,uniform,1,undefined,1,s,0,0,0,101,0,101,0,0,0,101,0,101,101,101,101,101,9/19/19 17:09,600,The main experiment item,yes,Flankertask2.osexp,C:/Users/Carolyn/OneDrive,no,mono,no,18,no,white,no,yes,768,legacy,21,79,C:/Users/Carolyn/OneDrive/cp-subject-2.csv,legacy,Kafkaesque Koffka,3.2.8,0,s,NA,s,s,NA,s,646,NA,39850,14099,NA,646,2,legacy,1024,2,48000,-16,experiment,HHSHH,2,even,44130,220754,NA,258441,NA,262960,4278,206653,NA,262457,4272,264106,264210,264858,264101,264209,Flankertask2,98,70642,102,yes,1024
96.11650485,96.11650485,692.6601942,692.6601942,black,legacy,legacy,legacy,0,incongruent,uniform,1,undefined,1,s,0,0,0,102,0,102,0,0,0,102,0,102,102,102,102,102,9/19/19 17:09,600,The main experiment item,yes,Flankertask2.osexp,C:/Users/Carolyn/OneDrive,no,mono,no,18,no,white,no,yes,768,legacy,22,79,C:/Users/Carolyn/OneDrive/cp-subject-2.csv,legacy,Kafkaesque Koffka,3.2.8,0,s,NA,s,s,NA,s,702,NA,39850,14099,NA,702,2,legacy,1024,2,48000,-16,experiment,HHSHH,2,even,44130,220754,NA,264899,NA,265402,4278,206653,NA,262457,4272,266547,266650,267354,266542,266650,Flankertask2,99,71344,103,yes,1024
96.15384615,96.15384615,692.8653846,692.8653846,black,legacy,legacy,legacy,0,congruent,uniform,1,undefined,1,s,0,0,0,103,0,103,0,0,0,103,0,103,103,103,103,103,9/19/19 17:09,600,The main experiment item,yes,Flankertask2.osexp,C:/Users/Carolyn/OneDrive,no,mono,no,18,no,white,no,yes,768,legacy,23,79,C:/Users/Carolyn/OneDrive/cp-subject-2.csv,legacy,Kafkaesque Koffka,3.2.8,0,s,NA,s,s,NA,s,714,NA,39850,14099,NA,714,2,legacy,1024,2,48000,-16,experiment,SSSSS,2,even,44130,220754,NA,267399,NA,267902,4278,206653,NA,262457,4272,269046,269150,269866,269041,269149,Flankertask2,100,72058,104,yes,1024
96.19047619,96.19047619,691.8857143,691.8857143,black,legacy,legacy,legacy,0,incongruent,uniform,1,undefined,1,s,0,0,0,104,0,104,0,0,0,104,0,104,104,104,104,104,9/19/19 17:09,600,The main experiment item,yes,Flankertask2.osexp,C:/Users/Carolyn/OneDrive,no,mono,no,18,no,white,no,yes,768,legacy,24,79,C:/Users/Carolyn/OneDrive/cp-subject-2.csv,legacy,Kafkaesque Koffka,3.2.8,0,s,NA,s,s,NA,s,590,NA,39850,14099,NA,590,2,legacy,1024,2,48000,-16,experiment,HHSHH,2,even,44130,220754,NA,269907,NA,270410,4278,206653,NA,262457,4272,271554,271658,272250,271550,271658,Flankertask2,101,72648,105,yes,1024
96.22641509,96.22641509,691.0660377,691.0660377,black,legacy,legacy,legacy,0,congruent,uniform,1,undefined,1,s,0,0,0,105,0,105,0,0,0,105,0,105,105,105,105,105,9/19/19 17:09,600,The main experiment item,yes,Flankertask2.osexp,C:/Users/Carolyn/OneDrive,no,mono,no,18,no,white,no,yes,768,legacy,25,79,C:/Users/Carolyn/OneDrive/cp-subject-2.csv,legacy,Kafkaesque Koffka,3.2.8,0,s,NA,s,s,NA,s,605,NA,39850,14099,NA,605,2,legacy,1024,2,48000,-16,experiment,SSSSS,2,even,44130,220754,NA,269907,NA,272299,4278,206653,NA,262457,4272,273443,273547,274155,273438,273546,Flankertask2,102,73253,106,yes,1024
96.26168224,96.26168224,690.4579439,690.4579439,black,legacy,legacy,legacy,0,incongruent,uniform,1,undefined,1,h,0,0,0,106,0,106,0,0,0,106,0,106,106,106,106,106,9/19/19 17:09,600,The main experiment item,yes,Flankertask2.osexp,C:/Users/Carolyn/OneDrive,no,mono,no,18,no,white,no,yes,768,legacy,26,79,C:/Users/Carolyn/OneDrive/cp-subject-2.csv,legacy,Kafkaesque Koffka,3.2.8,0,h,NA,s,s,NA,h,626,NA,39850,14099,NA,626,2,legacy,1024,2,48000,-16,experiment,SSHSS,2,even,44130,220754,NA,274199,NA,274702,4278,206653,NA,262457,4272,275846,275950,276578,275842,275950,Flankertask2,103,73879,107,yes,1024
96.2962963,96.2962963,689.4814815,689.4814815,black,legacy,legacy,legacy,0,congruent,uniform,1,undefined,1,s,0,0,0,107,0,107,0,0,0,107,0,107,107,107,107,107,9/19/19 17:09,600,The main experiment item,yes,Flankertask2.osexp,C:/Users/Carolyn/OneDrive,no,mono,no,18,no,white,no,yes,768,legacy,27,79,C:/Users/Carolyn/OneDrive/cp-subject-2.csv,legacy,Kafkaesque Koffka,3.2.8,0,s,NA,s,s,NA,s,585,NA,39850,14099,NA,585,2,legacy,1024,2,48000,-16,experiment,SSSSS,2,even,44130,220754,NA,276645,NA,277148,4278,206653,NA,262457,4272,278294,278399,278986,278290,278398,Flankertask2,104,74464,108,yes,1024
96.33027523,96.33027523,687.6055046,687.6055046,black,legacy,legacy,legacy,0,congruent,uniform,1,undefined,1,h,0,0,0,108,0,108,0,0,0,108,0,108,108,108,108,108,9/19/19 17:09,600,The main experiment item,yes,Flankertask2.osexp,C:/Users/Carolyn/OneDrive,no,mono,no,18,no,white,no,yes,768,legacy,28,79,C:/Users/Carolyn/OneDrive/cp-subject-2.csv,legacy,Kafkaesque Koffka,3.2.8,0,h,NA,s,s,NA,h,485,NA,39850,14099,NA,485,2,legacy,1024,2,48000,-16,experiment,HHHHH,2,even,44130,220754,NA,276645,NA,279032,4278,206653,NA,262457,4272,280179,280283,280771,280174,280282,Flankertask2,105,74949,109,yes,1024
96.36363636,96.36363636,685.4909091,685.4909091,black,legacy,legacy,legacy,0,congruent,uniform,1,undefined,1,s,0,0,0,109,0,109,0,0,0,109,0,109,109,109,109,109,9/19/19 17:09,600,The main experiment item,yes,Flankertask2.osexp,C:/Users/Carolyn/OneDrive,no,mono,no,18,no,white,no,yes,768,legacy,29,79,C:/Users/Carolyn/OneDrive/cp-subject-2.csv,legacy,Kafkaesque Koffka,3.2.8,0,s,NA,s,s,NA,s,455,NA,39850,14099,NA,455,2,legacy,1024,2,48000,-16,experiment,SSSSS,2,even,44130,220754,NA,276645,NA,280816,4278,206653,NA,262457,4272,281961,282065,282522,281956,282064,Flankertask2,106,75404,110,yes,1024
96.3963964,96.3963964,684.1531532,684.1531532,black,legacy,legacy,legacy,0,congruent,uniform,1,undefined,1,h,0,0,0,110,0,110,0,0,0,110,0,110,110,110,110,110,9/19/19 17:09,600,The main experiment item,yes,Flankertask2.osexp,C:/Users/Carolyn/OneDrive,no,mono,no,18,no,white,no,yes,768,legacy,30,79,C:/Users/Carolyn/OneDrive/cp-subject-2.csv,legacy,Kafkaesque Koffka,3.2.8,0,h,NA,s,s,NA,h,537,NA,39850,14099,NA,537,2,legacy,1024,2,48000,-16,experiment,HHHHH,2,even,44130,220754,NA,276645,NA,282566,4278,206653,NA,262457,4272,283711,283815,284354,283706,283814,Flankertask2,107,75941,111,yes,1024
96.42857143,96.42857143,683.3482143,683.3482143,black,legacy,legacy,legacy,0,incongruent,uniform,1,undefined,1,h,0,0,0,111,0,111,0,0,0,111,0,111,111,111,111,111,9/19/19 17:09,600,The main experiment item,yes,Flankertask2.osexp,C:/Users/Carolyn/OneDrive,no,mono,no,18,no,white,no,yes,768,legacy,31,79,C:/Users/Carolyn/OneDrive/cp-subject-2.csv,legacy,Kafkaesque Koffka,3.2.8,0,h,NA,s,s,NA,h,594,NA,39850,14099,NA,594,2,legacy,1024,2,48000,-16,experiment,SSHSS,2,even,44130,220754,NA,276645,NA,284399,4278,206653,NA,262457,4272,285543,285646,286242,285539,285646,Flankertask2,108,76535,112,yes,1024
96.46017699,96.46017699,681.8053097,681.8053097,black,legacy,legacy,legacy,0,congruent,uniform,1,undefined,1,h,0,0,0,112,0,112,0,0,0,112,0,112,112,112,112,112,9/19/19 17:09,600,The main experiment item,yes,Flankertask2.osexp,C:/Users/Carolyn/OneDrive,no,mono,no,18,no,white,no,yes,768,legacy,32,79,C:/Users/Carolyn/OneDrive/cp-subject-2.csv,legacy,Kafkaesque Koffka,3.2.8,0,h,NA,s,s,NA,h,509,NA,39850,14099,NA,509,2,legacy,1024,2,48000,-16,experiment,HHHHH,2,even,44130,220754,NA,276645,NA,286291,4278,206653,NA,262457,4272,287436,287539,288050,287431,287539,Flankertask2,109,77044,113,yes,1024
96.49122807,96.49122807,680.2192982,680.2192982,black,legacy,legacy,legacy,0,congruent,uniform,1,undefined,1,h,0,0,0,113,0,113,0,0,0,113,0,113,113,113,113,113,9/19/19 17:09,600,The main experiment item,yes,Flankertask2.osexp,C:/Users/Carolyn/OneDrive,no,mono,no,18,no,white,no,yes,768,legacy,33,79,C:/Users/Carolyn/OneDrive/cp-subject-2.csv,legacy,Kafkaesque Koffka,3.2.8,0,h,NA,s,s,NA,h,501,NA,39850,14099,NA,501,2,legacy,1024,2,48000,-16,experiment,HHHHH,2,even,44130,220754,NA,276645,NA,288099,4278,206653,NA,262457,4272,289243,289347,289850,289238,289346,Flankertask2,110,77545,114,yes,1024
96.52173913,96.52173913,677.8434783,677.8434783,black,legacy,legacy,legacy,0,congruent,uniform,1,undefined,1,h,0,0,0,114,0,114,0,0,0,114,0,114,114,114,114,114,9/19/19 17:09,600,The main experiment item,yes,Flankertask2.osexp,C:/Users/Carolyn/OneDrive,no,mono,no,18,no,white,no,yes,768,legacy,34,79,C:/Users/Carolyn/OneDrive/cp-subject-2.csv,legacy,Kafkaesque Koffka,3.2.8,0,h,NA,s,s,NA,h,407,NA,39850,14099,NA,407,2,legacy,1024,2,48000,-16,experiment,HHHHH,2,even,44130,220754,NA,276645,NA,289898,4278,206653,NA,262457,4272,291042,291145,291554,291037,291145,Flankertask2,111,77952,115,yes,1024
96.55172414,96.55172414,677.25,677.25,black,legacy,legacy,legacy,0,incongruent,uniform,1,undefined,1,h,0,0,0,115,0,115,0,0,0,115,0,115,115,115,115,115,9/19/19 17:09,600,The main experiment item,yes,Flankertask2.osexp,C:/Users/Carolyn/OneDrive,no,mono,no,18,no,white,no,yes,768,legacy,35,79,C:/Users/Carolyn/OneDrive/cp-subject-2.csv,legacy,Kafkaesque Koffka,3.2.8,0,h,NA,s,s,NA,h,609,NA,39850,14099,NA,609,2,legacy,1024,2,48000,-16,experiment,SSHSS,2,even,44130,220754,NA,276645,NA,291599,4278,206653,NA,262457,4272,292744,292847,293458,292739,292847,Flankertask2,112,78561,116,yes,1024
96.58119658,96.58119658,676.7179487,676.7179487,black,legacy,legacy,legacy,0,congruent,uniform,1,undefined,1,s,0,0,0,116,0,116,0,0,0,116,0,116,116,116,116,116,9/19/19 17:09,600,The main experiment item,yes,Flankertask2.osexp,C:/Users/Carolyn/OneDrive,no,mono,no,18,no,white,no,yes,768,legacy,36,79,C:/Users/Carolyn/OneDrive/cp-subject-2.csv,legacy,Kafkaesque Koffka,3.2.8,0,s,NA,s,s,NA,s,615,NA,39850,14099,NA,615,2,legacy,1024,2,48000,-16,experiment,SSSSS,2,even,44130,220754,NA,293499,NA,294002,4278,206653,NA,262457,4272,295146,295249,295866,295142,295249,Flankertask2,113,79176,117,yes,1024
96.61016949,96.61016949,675.5762712,675.5762712,black,legacy,legacy,legacy,0,incongruent,uniform,1,undefined,1,s,0,0,0,117,0,117,0,0,0,117,0,117,117,117,117,117,9/19/19 17:09,600,The main experiment item,yes,Flankertask2.osexp,C:/Users/Carolyn/OneDrive,no,mono,no,18,no,white,no,yes,768,legacy,37,79,C:/Users/Carolyn/OneDrive/cp-subject-2.csv,legacy,Kafkaesque Koffka,3.2.8,0,s,NA,s,s,NA,s,542,NA,39850,14099,NA,542,2,legacy,1024,2,48000,-16,experiment,HHSHH,2,even,44130,220754,NA,295915,NA,296418,4278,206653,NA,262457,4272,297563,297666,298210,297558,297666,Flankertask2,114,79718,118,yes,1024
96.63865546,96.63865546,674.605042,674.605042,black,legacy,legacy,legacy,0,incongruent,uniform,1,undefined,1,h,0,0,0,118,0,118,0,0,0,118,0,118,118,118,118,118,9/19/19 17:09,600,The main experiment item,yes,Flankertask2.osexp,C:/Users/Carolyn/OneDrive,no,mono,no,18,no,white,no,yes,768,legacy,38,79,C:/Users/Carolyn/OneDrive/cp-subject-2.csv,legacy,Kafkaesque Koffka,3.2.8,0,h,NA,s,s,NA,h,560,NA,39850,14099,NA,560,2,legacy,1024,2,48000,-16,experiment,SSHSS,2,even,44130,220754,NA,295915,NA,298257,4278,206653,NA,262457,4272,299401,299504,300066,299397,299504,Flankertask2,115,80278,119,yes,1024
96.66666667,96.66666667,674.55,674.55,black,legacy,legacy,legacy,0,incongruent,uniform,1,undefined,1,h,0,0,0,119,0,119,0,0,0,119,0,119,119,119,119,119,9/19/19 17:09,600,The main experiment item,yes,Flankertask2.osexp,C:/Users/Carolyn/OneDrive,no,mono,no,18,no,white,no,yes,768,legacy,39,79,C:/Users/Carolyn/OneDrive/cp-subject-2.csv,legacy,Kafkaesque Koffka,3.2.8,0,h,NA,s,s,NA,h,668,NA,39850,14099,NA,668,2,legacy,1024,2,48000,-16,experiment,SSHSS,2,even,44130,220754,NA,295915,NA,300107,4278,206653,NA,262457,4272,301252,301356,302026,301247,301355,Flankertask2,116,80946,120,yes,1024
96.69421488,96.69421488,674.3966942,674.3966942,black,legacy,legacy,legacy,0,incongruent,uniform,1,undefined,1,s,0,0,0,120,0,120,0,0,0,120,0,120,120,120,120,120,9/19/19 17:09,600,The main experiment item,yes,Flankertask2.osexp,C:/Users/Carolyn/OneDrive,no,mono,no,18,no,white,no,yes,768,legacy,40,79,C:/Users/Carolyn/OneDrive/cp-subject-2.csv,legacy,Kafkaesque Koffka,3.2.8,0,s,NA,s,s,NA,s,656,NA,39850,14099,NA,656,2,legacy,1024,2,48000,-16,experiment,HHSHH,2,even,44130,220754,NA,302073,NA,302576,4278,206653,NA,262457,4272,303721,303824,304482,303716,303824,Flankertask2,117,81602,121,yes,1024
96.72131148,96.72131148,674.0819672,674.0819672,black,legacy,legacy,legacy,0,incongruent,uniform,1,undefined,1,h,0,0,0,121,0,121,0,0,0,121,0,121,121,121,121,121,9/19/19 17:09,600,The main experiment item,yes,Flankertask2.osexp,C:/Users/Carolyn/OneDrive,no,mono,no,18,no,white,no,yes,768,legacy,41,79,C:/Users/Carolyn/OneDrive/cp-subject-2.csv,legacy,Kafkaesque Koffka,3.2.8,0,h,NA,s,s,NA,h,636,NA,39850,14099,NA,636,2,legacy,1024,2,48000,-16,experiment,SSHSS,2,even,44130,220754,NA,304515,NA,305018,4278,206653,NA,262457,4272,306164,306268,306906,306159,306267,Flankertask2,118,82238,122,yes,1024
96.74796748,96.74796748,671.4146341,671.4146341,black,legacy,legacy,legacy,0,congruent,uniform,1,undefined,1,h,0,0,0,122,0,122,0,0,0,122,0,122,122,122,122,122,9/19/19 17:09,600,The main experiment item,yes,Flankertask2.osexp,C:/Users/Carolyn/OneDrive,no,mono,no,18,no,white,no,yes,768,legacy,42,79,C:/Users/Carolyn/OneDrive/cp-subject-2.csv,legacy,Kafkaesque Koffka,3.2.8,0,h,NA,s,s,NA,h,346,NA,39850,14099,NA,346,2,legacy,1024,2,48000,-16,experiment,HHHHH,2,even,44130,220754,NA,306948,NA,307451,4278,206653,NA,262457,4272,308598,308702,309050,308593,308701,Flankertask2,119,82584,123,yes,1024
96.77419355,96.77419355,669.8306452,669.8306452,black,legacy,legacy,legacy,0,congruent,uniform,1,undefined,1,h,0,0,0,123,0,123,0,0,0,123,0,123,123,123,123,123,9/19/19 17:09,600,The main experiment item,yes,Flankertask2.osexp,C:/Users/Carolyn/OneDrive,no,mono,no,18,no,white,no,yes,768,legacy,43,79,C:/Users/Carolyn/OneDrive/cp-subject-2.csv,legacy,Kafkaesque Koffka,3.2.8,0,h,NA,s,s,NA,h,475,NA,39850,14099,NA,475,2,legacy,1024,2,48000,-16,experiment,HHHHH,2,even,44130,220754,NA,306948,NA,309090,4278,206653,NA,262457,4272,310237,310341,310818,310232,310340,Flankertask2,120,83059,124,yes,1024
96.8,96.8,667.864,667.864,black,legacy,legacy,legacy,0,congruent,uniform,1,undefined,1,h,0,0,0,124,0,124,0,0,0,124,0,124,124,124,124,124,9/19/19 17:09,600,The main experiment item,yes,Flankertask2.osexp,C:/Users/Carolyn/OneDrive,no,mono,no,18,no,white,no,yes,768,legacy,44,79,C:/Users/Carolyn/OneDrive/cp-subject-2.csv,legacy,Kafkaesque Koffka,3.2.8,0,h,NA,s,s,NA,h,424,NA,39850,14099,NA,424,2,legacy,1024,2,48000,-16,experiment,HHHHH,2,even,44130,220754,NA,306948,NA,310887,4278,206653,NA,262457,4272,312033,312136,312562,312028,312136,Flankertask2,121,83483,125,yes,1024
96.82539683,96.82539683,666.3253968,666.3253968,black,legacy,legacy,legacy,0,incongruent,uniform,1,undefined,1,h,0,0,0,125,0,125,0,0,0,125,0,125,125,125,125,125,9/19/19 17:09,600,The main experiment item,yes,Flankertask2.osexp,C:/Users/Carolyn/OneDrive,no,mono,no,18,no,white,no,yes,768,legacy,45,79,C:/Users/Carolyn/OneDrive/cp-subject-2.csv,legacy,Kafkaesque Koffka,3.2.8,0,h,NA,s,s,NA,h,474,NA,39850,14099,NA,474,2,legacy,1024,2,48000,-16,experiment,SSHSS,2,even,44130,220754,NA,306948,NA,312606,4278,206653,NA,262457,4272,313751,313854,314330,313746,313854,Flankertask2,122,83957,126,yes,1024
96.8503937,96.8503937,665.1732283,665.1732283,black,legacy,legacy,legacy,0,congruent,uniform,1,undefined,1,s,0,0,0,126,0,126,0,0,0,126,0,126,126,126,126,126,9/19/19 17:09,600,The main experiment item,yes,Flankertask2.osexp,C:/Users/Carolyn/OneDrive,no,mono,no,18,no,white,no,yes,768,legacy,46,79,C:/Users/Carolyn/OneDrive/cp-subject-2.csv,legacy,Kafkaesque Koffka,3.2.8,0,s,NA,s,s,NA,s,520,NA,39850,14099,NA,520,2,legacy,1024,2,48000,-16,experiment,SSSSS,2,even,44130,220754,NA,306948,NA,314373,4278,206653,NA,262457,4272,315520,315624,316146,315515,315623,Flankertask2,123,84477,127,yes,1024
96.875,96.875,662.90625,662.90625,black,legacy,legacy,legacy,0,incongruent,uniform,1,undefined,1,s,0,0,0,127,0,127,0,0,0,127,0,127,127,127,127,127,9/19/19 17:09,600,The main experiment item,yes,Flankertask2.osexp,C:/Users/Carolyn/OneDrive,no,mono,no,18,no,white,no,yes,768,legacy,47,79,C:/Users/Carolyn/OneDrive/cp-subject-2.csv,legacy,Kafkaesque Koffka,3.2.8,0,s,NA,s,s,NA,s,375,NA,39850,14099,NA,375,2,legacy,1024,2,48000,-16,experiment,HHSHH,2,even,44130,220754,NA,306948,NA,316190,4278,206653,NA,262457,4272,317337,317441,317818,317332,317441,Flankertask2,124,84852,128,yes,1024
96.89922481,96.89922481,661.7751938,661.7751938,black,legacy,legacy,legacy,0,congruent,uniform,1,undefined,1,h,0,0,0,128,0,128,0,0,0,128,0,128,128,128,128,128,9/19/19 17:09,600,The main experiment item,yes,Flankertask2.osexp,C:/Users/Carolyn/OneDrive,no,mono,no,18,no,white,no,yes,768,legacy,48,79,C:/Users/Carolyn/OneDrive/cp-subject-2.csv,legacy,Kafkaesque Koffka,3.2.8,0,h,NA,s,s,NA,h,517,NA,39850,14099,NA,517,2,legacy,1024,2,48000,-16,experiment,HHHHH,2,even,44130,220754,NA,306948,NA,317865,4278,206653,NA,262457,4272,319011,319115,319634,319006,319114,Flankertask2,125,85369,129,yes,1024
96.92307692,96.92307692,660.8461538,660.8461538,black,legacy,legacy,legacy,0,incongruent,uniform,1,undefined,1,s,0,0,0,129,0,129,0,0,0,129,0,129,129,129,129,129,9/19/19 17:09,600,The main experiment item,yes,Flankertask2.osexp,C:/Users/Carolyn/OneDrive,no,mono,no,18,no,white,no,yes,768,legacy,49,79,C:/Users/Carolyn/OneDrive/cp-subject-2.csv,legacy,Kafkaesque Koffka,3.2.8,0,s,NA,s,s,NA,s,541,NA,39850,14099,NA,541,2,legacy,1024,2,48000,-16,experiment,HHSHH,2,even,44130,220754,NA,306948,NA,319681,4278,206653,NA,262457,4272,320827,320931,321474,320822,320930,Flankertask2,126,85910,130,yes,1024
96.94656489,96.94656489,660.0916031,660.0916031,black,legacy,legacy,legacy,0,congruent,uniform,1,undefined,1,s,0,0,0,130,0,130,0,0,0,130,0,130,130,130,130,130,9/19/19 17:09,600,The main experiment item,yes,Flankertask2.osexp,C:/Users/Carolyn/OneDrive,no,mono,no,18,no,white,no,yes,768,legacy,50,79,C:/Users/Carolyn/OneDrive/cp-subject-2.csv,legacy,Kafkaesque Koffka,3.2.8,0,s,NA,s,s,NA,s,562,NA,39850,14099,NA,562,2,legacy,1024,2,48000,-16,experiment,SSSSS,2,even,44130,220754,NA,306948,NA,321540,4278,206653,NA,262457,4272,322686,322790,323354,322681,322789,Flankertask2,127,86472,131,yes,1024
96.96969697,96.96969697,658.6666667,658.6666667,black,legacy,legacy,legacy,0,congruent,uniform,1,undefined,1,h,0,0,0,131,0,131,0,0,0,131,0,131,131,131,131,131,9/19/19 17:09,600,The main experiment item,yes,Flankertask2.osexp,C:/Users/Carolyn/OneDrive,no,mono,no,18,no,white,no,yes,768,legacy,51,79,C:/Users/Carolyn/OneDrive/cp-subject-2.csv,legacy,Kafkaesque Koffka,3.2.8,0,h,NA,s,s,NA,h,472,NA,39850,14099,NA,472,2,legacy,1024,2,48000,-16,experiment,HHHHH,2,even,44130,220754,NA,306948,NA,323398,4278,206653,NA,262457,4272,324544,324648,325122,324539,324647,Flankertask2,128,86944,132,yes,1024
96.2406015,96.2406015,658.0526316,658.0526316,black,legacy,legacy,legacy,0,incongruent,uniform,0,undefined,0,h,0,0,0,132,0,132,0,0,0,132,0,132,132,132,132,132,9/19/19 17:09,600,The main experiment item,yes,Flankertask2.osexp,C:/Users/Carolyn/OneDrive,no,mono,no,18,no,white,no,yes,768,legacy,52,79,C:/Users/Carolyn/OneDrive/cp-subject-2.csv,legacy,Kafkaesque Koffka,3.2.8,0,s,NA,s,s,NA,s,577,NA,39850,14099,NA,577,2,legacy,1024,2,48000,-16,experiment,SSHSS,2,even,44130,220754,NA,306948,NA,325165,4278,206653,NA,262457,4272,326311,326415,326995,326307,326414,Flankertask2,128,87521,133,yes,1024
96.26865672,96.26865672,656.3059701,656.3059701,black,legacy,legacy,legacy,0,incongruent,uniform,1,undefined,1,h,0,0,0,133,0,133,0,0,0,133,0,133,133,133,133,133,9/19/19 17:09,600,The main experiment item,yes,Flankertask2.osexp,C:/Users/Carolyn/OneDrive,no,mono,no,18,no,white,no,yes,768,legacy,53,79,C:/Users/Carolyn/OneDrive/cp-subject-2.csv,legacy,Kafkaesque Koffka,3.2.8,0,h,NA,s,s,NA,h,424,NA,39850,14099,NA,424,2,legacy,1024,2,48000,-16,experiment,SSHSS,2,even,44130,220754,NA,306948,NA,327543,4278,206653,NA,327040,4272,328689,328792,329218,328684,328792,Flankertask2,129,87945,134,yes,1024
95.55555556,95.55555556,654.5703704,654.5703704,black,legacy,legacy,legacy,0,congruent,uniform,0,undefined,0,s,0,0,0,134,0,134,0,0,0,134,0,134,134,134,134,134,9/19/19 17:09,600,The main experiment item,yes,Flankertask2.osexp,C:/Users/Carolyn/OneDrive,no,mono,no,18,no,white,no,yes,768,legacy,54,79,C:/Users/Carolyn/OneDrive/cp-subject-2.csv,legacy,Kafkaesque Koffka,3.2.8,0,h,NA,s,s,NA,h,422,NA,39850,14099,NA,422,2,legacy,1024,2,48000,-16,experiment,SSSSS,2,even,44130,220754,NA,306948,NA,329265,4278,206653,NA,327040,4272,330411,330514,330939,330406,330514,Flankertask2,129,88367,135,yes,1024
95.58823529,95.58823529,652.5441176,652.5441176,black,legacy,legacy,legacy,0,congruent,uniform,1,undefined,1,s,0,0,0,135,0,135,0,0,0,135,0,135,135,135,135,135,9/19/19 17:09,600,The main experiment item,yes,Flankertask2.osexp,C:/Users/Carolyn/OneDrive,no,mono,no,18,no,white,no,yes,768,legacy,55,79,C:/Users/Carolyn/OneDrive/cp-subject-2.csv,legacy,Kafkaesque Koffka,3.2.8,0,s,NA,s,s,NA,s,379,NA,39850,14099,NA,379,2,legacy,1024,2,48000,-16,experiment,SSSSS,2,even,44130,220754,NA,306948,NA,331484,4278,206653,NA,330981,4272,332630,332733,333115,332625,332733,Flankertask2,130,88746,136,yes,1024
95.62043796,95.62043796,651.8759124,651.8759124,black,legacy,legacy,legacy,0,incongruent,uniform,1,undefined,1,s,0,0,0,136,0,136,0,0,0,136,0,136,136,136,136,136,9/19/19 17:09,600,The main experiment item,yes,Flankertask2.osexp,C:/Users/Carolyn/OneDrive,no,mono,no,18,no,white,no,yes,768,legacy,56,79,C:/Users/Carolyn/OneDrive/cp-subject-2.csv,legacy,Kafkaesque Koffka,3.2.8,0,s,NA,s,s,NA,s,561,NA,39850,14099,NA,561,2,legacy,1024,2,48000,-16,experiment,HHSHH,2,even,44130,220754,NA,306948,NA,333156,4278,206653,NA,330981,4272,334303,334407,334971,334298,334406,Flankertask2,131,89307,137,yes,1024
94.92753623,94.92753623,649.9782609,649.9782609,black,legacy,legacy,legacy,0,congruent,uniform,0,undefined,0,h,0,0,0,137,0,137,0,0,0,137,0,137,137,137,137,137,9/19/19 17:09,600,The main experiment item,yes,Flankertask2.osexp,C:/Users/Carolyn/OneDrive,no,mono,no,18,no,white,no,yes,768,legacy,57,79,C:/Users/Carolyn/OneDrive/cp-subject-2.csv,legacy,Kafkaesque Koffka,3.2.8,0,s,NA,s,s,NA,s,390,NA,39850,14099,NA,390,2,legacy,1024,2,48000,-16,experiment,HHHHH,2,even,44130,220754,NA,306948,NA,335007,4278,206653,NA,330981,4272,336153,336258,336651,336149,336257,Flankertask2,131,89697,138,yes,1024
94.24460432,94.24460432,648.8345324,648.8345324,black,legacy,legacy,legacy,0,incongruent,uniform,0,undefined,0,s,0,0,0,138,0,138,0,0,0,138,0,138,138,138,138,138,9/19/19 17:09,600,The main experiment item,yes,Flankertask2.osexp,C:/Users/Carolyn/OneDrive,no,mono,no,18,no,white,no,yes,768,legacy,58,79,C:/Users/Carolyn/OneDrive/cp-subject-2.csv,legacy,Kafkaesque Koffka,3.2.8,0,h,NA,s,s,NA,h,491,NA,39850,14099,NA,491,2,legacy,1024,2,48000,-16,experiment,HHSHH,2,even,44130,220754,NA,306948,NA,337226,4278,206653,NA,336723,4272,338374,338477,338971,338369,338477,Flankertask2,131,90188,139,yes,1024
94.28571429,94.28571429,648.7071429,648.7071429,black,legacy,legacy,legacy,0,incongruent,uniform,1,undefined,1,h,0,0,0,139,0,139,0,0,0,139,0,139,139,139,139,139,9/19/19 17:09,600,The main experiment item,yes,Flankertask2.osexp,C:/Users/Carolyn/OneDrive,no,mono,no,18,no,white,no,yes,768,legacy,59,79,C:/Users/Carolyn/OneDrive/cp-subject-2.csv,legacy,Kafkaesque Koffka,3.2.8,0,h,NA,s,s,NA,h,631,NA,39850,14099,NA,631,2,legacy,1024,2,48000,-16,experiment,SSHSS,2,even,44130,220754,NA,306948,NA,339526,4278,206653,NA,339023,4272,340673,340777,341411,340668,340776,Flankertask2,132,90819,140,yes,1024
93.61702128,93.61702128,647.0851064,647.0851064,black,legacy,legacy,legacy,0,incongruent,uniform,0,undefined,0,s,0,0,0,140,0,140,0,0,0,140,0,140,140,140,140,140,9/19/19 17:09,600,The main experiment item,yes,Flankertask2.osexp,C:/Users/Carolyn/OneDrive,no,mono,no,18,no,white,no,yes,768,legacy,60,79,C:/Users/Carolyn/OneDrive/cp-subject-2.csv,legacy,Kafkaesque Koffka,3.2.8,0,h,NA,s,s,NA,h,420,NA,39850,14099,NA,420,2,legacy,1024,2,48000,-16,experiment,HHSHH,2,even,44130,220754,NA,341465,NA,341968,4278,206653,NA,339023,4272,343116,343220,343643,343111,343219,Flankertask2,132,91239,141,yes,1024
93.66197183,93.66197183,647.7605634,647.7605634,black,legacy,legacy,legacy,0,incongruent,uniform,1,undefined,1,h,0,0,0,141,0,141,0,0,0,141,0,141,141,141,141,141,9/19/19 17:09,600,The main experiment item,yes,Flankertask2.osexp,C:/Users/Carolyn/OneDrive,no,mono,no,18,no,white,no,yes,768,legacy,61,79,C:/Users/Carolyn/OneDrive/cp-subject-2.csv,legacy,Kafkaesque Koffka,3.2.8,0,h,NA,s,s,NA,h,743,NA,39850,14099,NA,743,2,legacy,1024,2,48000,-16,experiment,SSHSS,2,even,44130,220754,NA,341465,NA,344184,4278,206653,NA,343681,4272,345330,345433,346179,345325,345433,Flankertask2,133,91982,142,yes,1024
93.70629371,93.70629371,648.7552448,648.7552448,black,legacy,legacy,legacy,0,congruent,uniform,1,undefined,1,h,0,0,0,142,0,142,0,0,0,142,0,142,142,142,142,142,9/19/19 17:09,600,The main experiment item,yes,Flankertask2.osexp,C:/Users/Carolyn/OneDrive,no,mono,no,18,no,white,no,yes,768,legacy,62,79,C:/Users/Carolyn/OneDrive/cp-subject-2.csv,legacy,Kafkaesque Koffka,3.2.8,0,h,NA,s,s,NA,h,790,NA,39850,14099,NA,790,2,legacy,1024,2,48000,-16,experiment,HHHHH,2,even,44130,220754,NA,346215,NA,346718,4278,206653,NA,343681,4272,347867,347970,348763,347862,347970,Flankertask2,134,92772,143,yes,1024
93.75,93.75,647.3055556,647.3055556,black,legacy,legacy,legacy,0,incongruent,uniform,1,undefined,1,h,0,0,0,143,0,143,0,0,0,143,0,143,143,143,143,143,9/19/19 17:09,600,The main experiment item,yes,Flankertask2.osexp,C:/Users/Carolyn/OneDrive,no,mono,no,18,no,white,no,yes,768,legacy,63,79,C:/Users/Carolyn/OneDrive/cp-subject-2.csv,legacy,Kafkaesque Koffka,3.2.8,0,h,NA,s,s,NA,h,440,NA,39850,14099,NA,440,2,legacy,1024,2,48000,-16,experiment,SSHSS,2,even,44130,220754,NA,348831,NA,349334,4278,206653,NA,343681,4272,350480,350584,351027,350475,350583,Flankertask2,135,93212,144,yes,1024
93.79310345,93.79310345,645.8689655,645.8689655,black,legacy,legacy,legacy,0,congruent,uniform,1,undefined,1,h,0,0,0,144,0,144,0,0,0,144,0,144,144,144,144,144,9/19/19 17:09,600,The main experiment item,yes,Flankertask2.osexp,C:/Users/Carolyn/OneDrive,no,mono,no,18,no,white,no,yes,768,legacy,64,79,C:/Users/Carolyn/OneDrive/cp-subject-2.csv,legacy,Kafkaesque Koffka,3.2.8,0,h,NA,s,s,NA,h,439,NA,39850,14099,NA,439,2,legacy,1024,2,48000,-16,experiment,HHHHH,2,even,44130,220754,NA,348831,NA,351064,4278,206653,NA,343681,4272,352210,352313,352755,352205,352313,Flankertask2,136,93651,145,yes,1024
93.83561644,93.83561644,647.1575342,647.1575342,black,legacy,legacy,legacy,0,incongruent,uniform,1,undefined,1,s,0,0,0,145,0,145,0,0,0,145,0,145,145,145,145,145,9/19/19 17:09,600,The main experiment item,yes,Flankertask2.osexp,C:/Users/Carolyn/OneDrive,no,mono,no,18,no,white,no,yes,768,legacy,65,79,C:/Users/Carolyn/OneDrive/cp-subject-2.csv,legacy,Kafkaesque Koffka,3.2.8,0,s,NA,s,s,NA,s,834,NA,39850,14099,NA,834,2,legacy,1024,2,48000,-16,experiment,HHSHH,2,even,44130,220754,NA,348831,NA,352781,4278,206653,NA,343681,4272,353927,354030,354868,353922,354030,Flankertask2,137,94485,146,yes,1024
93.87755102,93.87755102,647.3741497,647.3741497,black,legacy,legacy,legacy,0,congruent,uniform,1,undefined,1,s,0,0,0,146,0,146,0,0,0,146,0,146,146,146,146,146,9/19/19 17:09,600,The main experiment item,yes,Flankertask2.osexp,C:/Users/Carolyn/OneDrive,no,mono,no,18,no,white,no,yes,768,legacy,66,79,C:/Users/Carolyn/OneDrive/cp-subject-2.csv,legacy,Kafkaesque Koffka,3.2.8,0,s,NA,s,s,NA,s,679,NA,39850,14099,NA,679,2,legacy,1024,2,48000,-16,experiment,SSSSS,2,even,44130,220754,NA,354906,NA,355409,4278,206653,NA,343681,4272,356554,356657,357339,356550,356657,Flankertask2,138,95164,147,yes,1024
93.91891892,93.91891892,646.7567568,646.7567568,black,legacy,legacy,legacy,0,incongruent,uniform,1,undefined,1,s,0,0,0,147,0,147,0,0,0,147,0,147,147,147,147,147,9/19/19 17:09,600,The main experiment item,yes,Flankertask2.osexp,C:/Users/Carolyn/OneDrive,no,mono,no,18,no,white,no,yes,768,legacy,67,79,C:/Users/Carolyn/OneDrive/cp-subject-2.csv,legacy,Kafkaesque Koffka,3.2.8,0,s,NA,s,s,NA,s,556,NA,39850,14099,NA,556,2,legacy,1024,2,48000,-16,experiment,HHSHH,2,even,44130,220754,NA,357373,NA,357876,4278,206653,NA,343681,4272,359021,359124,359683,359016,359124,Flankertask2,139,95720,148,yes,1024
93.95973154,93.95973154,645.4496644,645.4496644,black,legacy,legacy,legacy,0,congruent,uniform,1,undefined,1,s,0,0,0,148,0,148,0,0,0,148,0,148,148,148,148,148,9/19/19 17:09,600,The main experiment item,yes,Flankertask2.osexp,C:/Users/Carolyn/OneDrive,no,mono,no,18,no,white,no,yes,768,legacy,68,79,C:/Users/Carolyn/OneDrive/cp-subject-2.csv,legacy,Kafkaesque Koffka,3.2.8,0,s,NA,s,s,NA,s,452,NA,39850,14099,NA,452,2,legacy,1024,2,48000,-16,experiment,SSSSS,2,even,44130,220754,NA,357373,NA,359723,4278,206653,NA,343681,4272,360868,360972,361427,360864,360971,Flankertask2,140,96172,149,yes,1024
94,94,643.92,643.92,black,legacy,legacy,legacy,0,congruent,uniform,1,undefined,1,s,0,0,0,149,0,149,0,0,0,149,0,149,149,149,149,149,9/19/19 17:09,600,The main experiment item,yes,Flankertask2.osexp,C:/Users/Carolyn/OneDrive,no,mono,no,18,no,white,no,yes,768,legacy,69,79,C:/Users/Carolyn/OneDrive/cp-subject-2.csv,legacy,Kafkaesque Koffka,3.2.8,0,s,NA,s,s,NA,s,416,NA,39850,14099,NA,416,2,legacy,1024,2,48000,-16,experiment,SSSSS,2,even,44130,220754,NA,357373,NA,361465,4278,206653,NA,343681,4272,362609,362712,363131,362605,362712,Flankertask2,141,96588,150,yes,1024
93.37748344,93.37748344,642.1258278,642.1258278,black,legacy,legacy,legacy,0,congruent,uniform,0,undefined,0,h,0,0,0,150,0,150,0,0,0,150,0,150,150,150,150,150,9/19/19 17:09,600,The main experiment item,yes,Flankertask2.osexp,C:/Users/Carolyn/OneDrive,no,mono,no,18,no,white,no,yes,768,legacy,70,79,C:/Users/Carolyn/OneDrive/cp-subject-2.csv,legacy,Kafkaesque Koffka,3.2.8,0,s,NA,s,s,NA,s,373,NA,39850,14099,NA,373,2,legacy,1024,2,48000,-16,experiment,HHHHH,2,even,44130,220754,NA,357373,NA,363156,4278,206653,NA,343681,4272,364300,364403,364779,364295,364403,Flankertask2,141,96961,151,yes,1024
93.42105263,93.42105263,642.1578947,642.1578947,black,legacy,legacy,legacy,0,congruent,uniform,1,undefined,1,s,0,0,0,151,0,151,0,0,0,151,0,151,151,151,151,151,9/19/19 17:09,600,The main experiment item,yes,Flankertask2.osexp,C:/Users/Carolyn/OneDrive,no,mono,no,18,no,white,no,yes,768,legacy,71,79,C:/Users/Carolyn/OneDrive/cp-subject-2.csv,legacy,Kafkaesque Koffka,3.2.8,0,s,NA,s,s,NA,s,647,NA,39850,14099,NA,647,2,legacy,1024,2,48000,-16,experiment,SSSSS,2,even,44130,220754,NA,357373,NA,365318,4278,206653,NA,364814,4272,366464,366569,367219,366460,366568,Flankertask2,142,97608,152,yes,1024
93.46405229,93.46405229,640.9411765,640.9411765,black,legacy,legacy,legacy,0,congruent,uniform,1,undefined,1,s,0,0,0,152,0,152,0,0,0,152,0,152,152,152,152,152,9/19/19 17:09,600,The main experiment item,yes,Flankertask2.osexp,C:/Users/Carolyn/OneDrive,no,mono,no,18,no,white,no,yes,768,legacy,72,79,C:/Users/Carolyn/OneDrive/cp-subject-2.csv,legacy,Kafkaesque Koffka,3.2.8,0,s,NA,s,s,NA,s,456,NA,39850,14099,NA,456,2,legacy,1024,2,48000,-16,experiment,SSSSS,2,even,44130,220754,NA,367256,NA,367759,4278,206653,NA,364814,4272,368905,369008,369467,368900,369008,Flankertask2,143,98064,153,yes,1024
93.50649351,93.50649351,639.3961039,639.3961039,black,legacy,legacy,legacy,0,congruent,uniform,1,undefined,1,s,0,0,0,153,0,153,0,0,0,153,0,153,153,153,153,153,9/19/19 17:09,600,The main experiment item,yes,Flankertask2.osexp,C:/Users/Carolyn/OneDrive,no,mono,no,18,no,white,no,yes,768,legacy,73,79,C:/Users/Carolyn/OneDrive/cp-subject-2.csv,legacy,Kafkaesque Koffka,3.2.8,0,s,NA,s,s,NA,s,403,NA,39850,14099,NA,403,2,legacy,1024,2,48000,-16,experiment,SSSSS,2,even,44130,220754,NA,367256,NA,369510,4278,206653,NA,364814,4272,370654,370757,371163,370649,370757,Flankertask2,144,98467,154,yes,1024
93.5483871,93.5483871,639.3677419,639.3677419,black,legacy,legacy,legacy,0,congruent,uniform,1,undefined,1,h,0,0,0,154,0,154,0,0,0,154,0,154,154,154,154,154,9/19/19 17:09,600,The main experiment item,yes,Flankertask2.osexp,C:/Users/Carolyn/OneDrive,no,mono,no,18,no,white,no,yes,768,legacy,74,79,C:/Users/Carolyn/OneDrive/cp-subject-2.csv,legacy,Kafkaesque Koffka,3.2.8,0,h,NA,s,s,NA,h,635,NA,39850,14099,NA,635,2,legacy,1024,2,48000,-16,experiment,HHHHH,2,even,44130,220754,NA,367256,NA,371197,4278,206653,NA,364814,4272,372342,372445,373083,372337,372445,Flankertask2,145,99102,155,yes,1024
93.58974359,93.58974359,637.7115385,637.7115385,black,legacy,legacy,legacy,0,congruent,uniform,1,undefined,1,h,0,0,0,155,0,155,0,0,0,155,0,155,155,155,155,155,9/19/19 17:09,600,The main experiment item,yes,Flankertask2.osexp,C:/Users/Carolyn/OneDrive,no,mono,no,18,no,white,no,yes,768,legacy,75,79,C:/Users/Carolyn/OneDrive/cp-subject-2.csv,legacy,Kafkaesque Koffka,3.2.8,0,h,NA,s,s,NA,h,381,NA,39850,14099,NA,381,2,legacy,1024,2,48000,-16,experiment,HHHHH,2,even,44130,220754,NA,373106,NA,373609,4278,206653,NA,364814,4272,374755,374859,375243,374750,374858,Flankertask2,146,99483,156,yes,1024
93.63057325,93.63057325,636.7961783,636.7961783,black,legacy,legacy,legacy,0,congruent,uniform,1,undefined,1,s,0,0,0,156,0,156,0,0,0,156,0,156,156,156,156,156,9/19/19 17:09,600,The main experiment item,yes,Flankertask2.osexp,C:/Users/Carolyn/OneDrive,no,mono,no,18,no,white,no,yes,768,legacy,76,79,C:/Users/Carolyn/OneDrive/cp-subject-2.csv,legacy,Kafkaesque Koffka,3.2.8,0,s,NA,s,s,NA,s,494,NA,39850,14099,NA,494,2,legacy,1024,2,48000,-16,experiment,SSSSS,2,even,44130,220754,NA,373106,NA,375281,4278,206653,NA,364814,4272,376426,376530,377028,376421,376529,Flankertask2,147,99977,157,yes,1024
93.67088608,93.67088608,636.3544304,636.3544304,black,legacy,legacy,legacy,0,incongruent,uniform,1,undefined,1,h,0,0,0,157,0,157,0,0,0,157,0,157,157,157,157,157,9/19/19 17:09,600,The main experiment item,yes,Flankertask2.osexp,C:/Users/Carolyn/OneDrive,no,mono,no,18,no,white,no,yes,768,legacy,77,79,C:/Users/Carolyn/OneDrive/cp-subject-2.csv,legacy,Kafkaesque Koffka,3.2.8,0,h,NA,s,s,NA,h,567,NA,39850,14099,NA,567,2,legacy,1024,2,48000,-16,experiment,SSHSS,2,even,44130,220754,NA,373106,NA,377090,4278,206653,NA,364814,4272,378234,378337,378908,378230,378337,Flankertask2,148,100544,158,yes,1024
93.71069182,93.71069182,634.5974843,634.5974843,black,legacy,legacy,legacy,0,incongruent,uniform,1,undefined,1,s,0,0,0,158,0,158,0,0,0,158,0,158,158,158,158,158,9/19/19 17:09,600,The main experiment item,yes,Flankertask2.osexp,C:/Users/Carolyn/OneDrive,no,mono,no,18,no,white,no,yes,768,legacy,78,79,C:/Users/Carolyn/OneDrive/cp-subject-2.csv,legacy,Kafkaesque Koffka,3.2.8,0,s,NA,s,s,NA,s,357,NA,39850,14099,NA,357,2,legacy,1024,2,48000,-16,experiment,HHSHH,2,even,44130,220754,NA,373106,NA,378940,4278,206653,NA,364814,4272,380084,380187,380548,380080,380187,Flankertask2,149,100901,159,yes,1024
93.75,93.75,634.49375,634.49375,black,legacy,legacy,legacy,0,incongruent,uniform,1,undefined,1,s,0,0,0,159,0,159,0,0,0,159,0,159,159,159,159,159,9/19/19 17:09,600,The main experiment item,yes,Flankertask2.osexp,C:/Users/Carolyn/OneDrive,no,mono,no,18,no,white,no,yes,768,legacy,79,79,C:/Users/Carolyn/OneDrive/cp-subject-2.csv,legacy,Kafkaesque Koffka,3.2.8,0,s,NA,s,s,NA,s,618,NA,39850,14099,NA,618,2,legacy,1024,2,48000,-16,experiment,HHSHH,2,even,44130,220754,NA,373106,NA,380581,4278,206653,NA,364814,4272,381727,381830,382452,381722,381830,Flankertask2,150,101519,160,yes,1024
93.78881988,93.78881988,635.7329193,635.7329193,black,legacy,legacy,legacy,0,incongruent,uniform,1,undefined,1,s,0,0,0,160,0,160,0,0,0,160,0,160,160,160,160,160,9/19/19 17:09,300,The main experiment item,yes,Flankertask2.osexp,C:/Users/Carolyn/OneDrive,no,mono,no,18,no,white,no,yes,768,legacy,0,79,C:/Users/Carolyn/OneDrive/cp-subject-2.csv,legacy,Kafkaesque Koffka,3.2.8,0,s,NA,s,s,s,s,834,NA,39850,14099,9290,834,2,legacy,1024,2,48000,-16,experiment,HHSHH,2,even,44130,220754,393300,382474,NA,382977,4278,206653,384006,364814,4272,393438,393542,394380,393434,393541,Flankertask2,151,102353,161,yes,1024
93.82716049,93.82716049,635.0802469,635.0802469,black,legacy,legacy,legacy,0,congruent,uniform,1,undefined,1,s,0,0,0,161,0,161,0,0,0,161,0,161,161,161,161,161,9/19/19 17:09,300,The main experiment item,yes,Flankertask2.osexp,C:/Users/Carolyn/OneDrive,no,mono,no,18,no,white,no,yes,768,legacy,1,79,C:/Users/Carolyn/OneDrive/cp-subject-2.csv,legacy,Kafkaesque Koffka,3.2.8,0,s,NA,s,s,s,s,530,NA,39850,14099,9290,530,2,legacy,1024,2,48000,-16,experiment,SSSSS,2,even,44130,220754,393300,394398,NA,394901,4278,206653,384006,364814,4272,396047,396150,396684,396042,396150,Flankertask2,152,102883,162,yes,1024
93.25153374,93.25153374,633.0368098,633.0368098,black,legacy,legacy,legacy,0,congruent,uniform,0,undefined,0,h,0,0,0,162,0,162,0,0,0,162,0,162,162,162,162,162,9/19/19 17:09,300,The main experiment item,yes,Flankertask2.osexp,C:/Users/Carolyn/OneDrive,no,mono,no,18,no,white,no,yes,768,legacy,2,79,C:/Users/Carolyn/OneDrive/cp-subject-2.csv,legacy,Kafkaesque Koffka,3.2.8,0,s,NA,s,s,s,s,302,NA,39850,14099,9290,302,2,legacy,1024,2,48000,-16,experiment,HHHHH,2,even,44130,220754,393300,396706,NA,397209,4278,206653,384006,364814,4272,398355,398458,398764,398350,398458,Flankertask2,152,103185,163,yes,1024
93.29268293,93.29268293,633.2073171,633.2073171,black,legacy,legacy,legacy,0,incongruent,uniform,1,undefined,1,s,0,0,0,163,0,163,0,0,0,163,0,163,163,163,163,163,9/19/19 17:09,300,The main experiment item,yes,Flankertask2.osexp,C:/Users/Carolyn/OneDrive,no,mono,no,18,no,white,no,yes,768,legacy,3,79,C:/Users/Carolyn/OneDrive/cp-subject-2.csv,legacy,Kafkaesque Koffka,3.2.8,0,s,NA,s,s,s,s,661,NA,39850,14099,9290,661,2,legacy,1024,2,48000,-16,experiment,HHSHH,2,even,44130,220754,393300,399293,NA,399796,4278,206653,384006,398790,4272,400940,401043,401708,400936,401043,Flankertask2,153,103846,164,yes,1024
93.33333333,93.33333333,632.0666667,632.0666667,black,legacy,legacy,legacy,0,congruent,uniform,1,undefined,1,h,0,0,0,164,0,164,0,0,0,164,0,164,164,164,164,164,9/19/19 17:09,300,The main experiment item,yes,Flankertask2.osexp,C:/Users/Carolyn/OneDrive,no,mono,no,18,no,white,no,yes,768,legacy,4,79,C:/Users/Carolyn/OneDrive/cp-subject-2.csv,legacy,Kafkaesque Koffka,3.2.8,0,h,NA,s,s,s,h,445,NA,39850,14099,9290,445,2,legacy,1024,2,48000,-16,experiment,HHHHH,2,even,44130,220754,393300,401731,NA,402235,4278,206653,384006,398790,4272,403380,403483,403932,403375,403483,Flankertask2,154,104291,165,yes,1024
93.37349398,93.37349398,631.9879518,631.9879518,black,legacy,legacy,legacy,0,incongruent,uniform,1,undefined,1,s,0,0,0,165,0,165,0,0,0,165,0,165,165,165,165,165,9/19/19 17:09,300,The main experiment item,yes,Flankertask2.osexp,C:/Users/Carolyn/OneDrive,no,mono,no,18,no,white,no,yes,768,legacy,5,79,C:/Users/Carolyn/OneDrive/cp-subject-2.csv,legacy,Kafkaesque Koffka,3.2.8,0,s,NA,s,s,s,s,619,NA,39850,14099,9290,619,2,legacy,1024,2,48000,-16,experiment,HHSHH,2,even,44130,220754,393300,403973,NA,404476,4278,206653,384006,398790,4272,405621,405725,406348,405616,405724,Flankertask2,155,104910,166,yes,1024
93.41317365,93.41317365,632.3892216,632.3892216,black,legacy,legacy,legacy,0,congruent,uniform,1,undefined,1,s,0,0,0,166,0,166,0,0,0,166,0,166,166,166,166,166,9/19/19 17:09,300,The main experiment item,yes,Flankertask2.osexp,C:/Users/Carolyn/OneDrive,no,mono,no,18,no,white,no,yes,768,legacy,6,79,C:/Users/Carolyn/OneDrive/cp-subject-2.csv,legacy,Kafkaesque Koffka,3.2.8,0,s,NA,s,s,s,s,699,NA,39850,14099,9290,699,2,legacy,1024,2,48000,-16,experiment,SSSSS,2,even,44130,220754,393300,406381,NA,406884,4278,206653,384006,398790,4272,408030,408133,408836,408025,408133,Flankertask2,156,105609,167,yes,1024
93.45238095,93.45238095,631.702381,631.702381,black,legacy,legacy,legacy,0,congruent,uniform,1,undefined,1,h,0,0,0,167,0,167,0,0,0,167,0,167,167,167,167,167,9/19/19 17:09,300,The main experiment item,yes,Flankertask2.osexp,C:/Users/Carolyn/OneDrive,no,mono,no,18,no,white,no,yes,768,legacy,7,79,C:/Users/Carolyn/OneDrive/cp-subject-2.csv,legacy,Kafkaesque Koffka,3.2.8,0,h,NA,s,s,s,h,517,NA,39850,14099,9290,517,2,legacy,1024,2,48000,-16,experiment,HHHHH,2,even,44130,220754,393300,408856,NA,409359,4278,206653,384006,398790,4272,410506,410611,411132,410502,410610,Flankertask2,157,106126,168,yes,1024
93.49112426,93.49112426,631.4378698,631.4378698,black,legacy,legacy,legacy,0,incongruent,uniform,1,undefined,1,h,0,0,0,168,0,168,0,0,0,168,0,168,168,168,168,168,9/19/19 17:09,300,The main experiment item,yes,Flankertask2.osexp,C:/Users/Carolyn/OneDrive,no,mono,no,18,no,white,no,yes,768,legacy,8,79,C:/Users/Carolyn/OneDrive/cp-subject-2.csv,legacy,Kafkaesque Koffka,3.2.8,0,h,NA,s,s,s,h,587,NA,39850,14099,9290,587,2,legacy,1024,2,48000,-16,experiment,SSHSS,2,even,44130,220754,393300,411164,NA,411668,4278,206653,384006,398790,4272,412813,412917,413508,412808,412916,Flankertask2,158,106713,169,yes,1024
93.52941176,93.52941176,631.1647059,631.1647059,black,legacy,legacy,legacy,0,congruent,uniform,1,undefined,1,s,0,0,0,169,0,169,0,0,0,169,0,169,169,169,169,169,9/19/19 17:09,300,The main experiment item,yes,Flankertask2.osexp,C:/Users/Carolyn/OneDrive,no,mono,no,18,no,white,no,yes,768,legacy,9,79,C:/Users/Carolyn/OneDrive/cp-subject-2.csv,legacy,Kafkaesque Koffka,3.2.8,0,s,NA,s,s,s,s,585,NA,39850,14099,9290,585,2,legacy,1024,2,48000,-16,experiment,SSSSS,2,even,44130,220754,393300,413548,NA,414051,4278,206653,384006,398790,4272,415198,415303,415892,415194,415302,Flankertask2,159,107298,170,yes,1024
