acc,accuracy,average_response_time,avg_rt,background,canvas_backend,clock_backend,color_backend,compensation,condition,coordinates,correct,correct_instructions1,correct_keyboard_response,correct_response,count_ISI,count_block1,count_block2,count_block3,count_errorFeedback,count_experiment,count_faster,count_finish,count_fixation,count_instruction3,count_instructions1,count_instructions2,count_keyboard_response,count_logger,count_sequence,count_stimulus,datetime,deadline,description,disable_garbage_collection,experiment_file,experiment_path,font_bold,font_family,font_italic,font_size,font_underline,foreground,form_clicks,fullscreen,height,keyboard_backend,live_row,live_row_block1,logfile,mouse_backend,opensesame_codename,opensesame_version,repeat_cycle,response,response_finish,response_instruction3,response_instructions1,response_instructions2,response_keyboard_response,response_time,response_time_finish,response_time_instruction3,response_time_instructions1,response_time_instructions2,response_time_keyboard_response,round_decimals,sampler_backend,sound_buf_size,sound_channels,sound_freq,sound_sample_size,start,stimulus,subject_nr,subject_parity,time_ISI,time_block1,time_block2,time_block3,time_errorFeedback,time_experiment,time_faster,time_finish,time_fixation,time_instruction3,time_instructions1,time_instructions2,time_keyboard_response,time_logger,time_sequence,time_stimulus,title,total_correct,total_response_time,total_responses,uniform_coordinates,width
100,100,1020,1020,black,legacy,legacy,legacy,0,incongruent,uniform,1,undefined,1,s,0,0,0,0,0,0,0,0,0,0,0,0,0,0,0,0,9/20/19 18:01,1500,The main experiment item,yes,Flankertask.osexp,C:/Users/Edgar/Documents/Edgar School/Fall 2019/Lab 2-1,no,mono,no,18,no,white,no,yes,768,legacy,0,0,C:/Users/Edgar/Documents/Edgar School/Fall 2019/Lab 2-1/EJ-subject-1.csv,legacy,Kafkaesque Koffka,3.2.8,0,s,NA,NA,h,NA,s,1020,NA,NA,37427,NA,1020,2,legacy,1024,2,48000,-16,experiment,HHSHH,1,odd,NA,49436,NA,NA,NA,11987,NA,NA,50067,NA,12006,NA,50175,51196,50057,50175,Flanker task,1,1020,1,yes,1024
100,100,786.5,786.5,black,legacy,legacy,legacy,0,incongruent,uniform,1,undefined,1,h,1,0,0,0,1,0,1,0,1,0,0,0,1,1,1,1,9/20/19 18:01,1500,The main experiment item,yes,Flankertask.osexp,C:/Users/Edgar/Documents/Edgar School/Fall 2019/Lab 2-1,no,mono,no,18,no,white,no,yes,768,legacy,1,1,C:/Users/Edgar/Documents/Edgar School/Fall 2019/Lab 2-1/EJ-subject-1.csv,legacy,Kafkaesque Koffka,3.2.8,0,h,NA,NA,h,NA,h,553,NA,NA,37427,NA,553,2,legacy,1024,2,48000,-16,experiment,SSHSS,1,odd,51289,49436,NA,NA,NA,11987,NA,NA,52681,NA,12006,NA,52788,53342,52670,52787,Flanker task,2,1573,2,yes,1024
100,100,719,719,black,legacy,legacy,legacy,0,congruent,uniform,1,undefined,1,h,2,0,0,0,2,0,2,0,2,0,0,0,2,2,2,2,9/20/19 18:01,1500,The main experiment item,yes,Flankertask.osexp,C:/Users/Edgar/Documents/Edgar School/Fall 2019/Lab 2-1,no,mono,no,18,no,white,no,yes,768,legacy,2,2,C:/Users/Edgar/Documents/Edgar School/Fall 2019/Lab 2-1/EJ-subject-1.csv,legacy,Kafkaesque Koffka,3.2.8,0,h,NA,NA,h,NA,h,584,NA,NA,37427,NA,584,2,legacy,1024,2,48000,-16,experiment,HHHHH,1,odd,53412,49436,NA,NA,NA,11987,NA,NA,54736,NA,12006,NA,54844,55429,54725,54844,Flanker task,3,2157,3,yes,1024
75,75,687.25,687.25,black,legacy,legacy,legacy,0,incongruent,uniform,0,undefined,0,h,3,0,0,0,3,0,3,0,3,0,0,0,3,3,3,3,9/20/19 18:01,1500,The main experiment item,yes,Flankertask.osexp,C:/Users/Edgar/Documents/Edgar School/Fall 2019/Lab 2-1,no,mono,no,18,no,white,no,yes,768,legacy,3,3,C:/Users/Edgar/Documents/Edgar School/Fall 2019/Lab 2-1/EJ-subject-1.csv,legacy,Kafkaesque Koffka,3.2.8,0,s,NA,NA,h,NA,s,592,NA,NA,37427,NA,592,2,legacy,1024,2,48000,-16,experiment,SSHSS,1,odd,55486,49436,NA,NA,NA,11987,NA,NA,56802,NA,12006,NA,56910,57504,56792,56910,Flanker task,3,2749,4,yes,1024
80,80,664,664,black,legacy,legacy,legacy,0,congruent,uniform,1,undefined,1,s,4,0,0,0,4,0,4,0,4,0,0,0,4,4,4,4,9/20/19 18:01,1500,The main experiment item,yes,Flankertask.osexp,C:/Users/Edgar/Documents/Edgar School/Fall 2019/Lab 2-1,no,mono,no,18,no,white,no,yes,768,legacy,4,4,C:/Users/Edgar/Documents/Edgar School/Fall 2019/Lab 2-1/EJ-subject-1.csv,legacy,Kafkaesque Koffka,3.2.8,0,s,NA,NA,h,NA,s,571,NA,NA,37427,NA,571,2,legacy,1024,2,48000,-16,experiment,SSSSS,1,odd,58070,49436,NA,NA,57564,11987,NA,NA,59393,NA,12006,NA,59503,60076,59382,59503,Flanker task,4,3320,5,yes,1024
83.33333333,83.33333333,629.5,629.5,black,legacy,legacy,legacy,0,congruent,uniform,1,undefined,1,h,5,0,0,0,5,0,5,0,5,0,0,0,5,5,5,5,9/20/19 18:01,1500,The main experiment item,yes,Flankertask.osexp,C:/Users/Edgar/Documents/Edgar School/Fall 2019/Lab 2-1,no,mono,no,18,no,white,no,yes,768,legacy,5,5,C:/Users/Edgar/Documents/Edgar School/Fall 2019/Lab 2-1/EJ-subject-1.csv,legacy,Kafkaesque Koffka,3.2.8,0,h,NA,NA,h,NA,h,457,NA,NA,37427,NA,457,2,legacy,1024,2,48000,-16,experiment,HHHHH,1,odd,60135,49436,NA,NA,57564,11987,NA,NA,61459,NA,12006,NA,61566,62024,61448,61566,Flanker task,5,3777,6,yes,1024
85.71428571,85.71428571,612.8571429,612.8571429,black,legacy,legacy,legacy,0,congruent,uniform,1,undefined,1,s,6,0,0,0,6,0,6,0,6,0,0,0,6,6,6,6,9/20/19 18:01,1500,The main experiment item,yes,Flankertask.osexp,C:/Users/Edgar/Documents/Edgar School/Fall 2019/Lab 2-1,no,mono,no,18,no,white,no,yes,768,legacy,6,6,C:/Users/Edgar/Documents/Edgar School/Fall 2019/Lab 2-1/EJ-subject-1.csv,legacy,Kafkaesque Koffka,3.2.8,0,s,NA,NA,h,NA,s,513,NA,NA,37427,NA,513,2,legacy,1024,2,48000,-16,experiment,SSSSS,1,odd,62088,49436,NA,NA,57564,11987,NA,NA,63412,NA,12006,NA,63519,64034,63401,63519,Flanker task,6,4290,7,yes,1024
87.5,87.5,607.75,607.75,black,legacy,legacy,legacy,0,incongruent,uniform,1,undefined,1,s,7,0,0,0,7,0,7,0,7,0,0,0,7,7,7,7,9/20/19 18:01,1500,The main experiment item,yes,Flankertask.osexp,C:/Users/Edgar/Documents/Edgar School/Fall 2019/Lab 2-1,no,mono,no,18,no,white,no,yes,768,legacy,7,7,C:/Users/Edgar/Documents/Edgar School/Fall 2019/Lab 2-1/EJ-subject-1.csv,legacy,Kafkaesque Koffka,3.2.8,0,s,NA,NA,h,NA,s,572,NA,NA,37427,NA,572,2,legacy,1024,2,48000,-16,experiment,HHSHH,1,odd,64092,49436,NA,NA,57564,11987,NA,NA,65446,NA,12006,NA,65552,66125,65436,65552,Flanker task,7,4862,8,yes,1024
88.88888889,88.88888889,594.6666667,594.6666667,black,legacy,legacy,legacy,0,incongruent,uniform,1,undefined,1,h,8,0,0,0,8,0,8,0,8,0,0,0,8,8,8,8,9/20/19 18:01,1500,The main experiment item,yes,Flankertask.osexp,C:/Users/Edgar/Documents/Edgar School/Fall 2019/Lab 2-1,no,mono,no,18,no,white,no,yes,768,legacy,8,8,C:/Users/Edgar/Documents/Edgar School/Fall 2019/Lab 2-1/EJ-subject-1.csv,legacy,Kafkaesque Koffka,3.2.8,0,h,NA,NA,h,NA,h,490,NA,NA,37427,NA,490,2,legacy,1024,2,48000,-16,experiment,SSHSS,1,odd,66181,49436,NA,NA,57564,11987,NA,NA,67558,NA,12006,NA,67666,68158,67545,67665,Flanker task,8,5352,9,yes,1024
90,90,579,579,black,legacy,legacy,legacy,0,congruent,uniform,1,undefined,1,h,9,0,0,0,9,0,9,0,9,0,0,0,9,9,9,9,9/20/19 18:01,1500,The main experiment item,yes,Flankertask.osexp,C:/Users/Edgar/Documents/Edgar School/Fall 2019/Lab 2-1,no,mono,no,18,no,white,no,yes,768,legacy,9,9,C:/Users/Edgar/Documents/Edgar School/Fall 2019/Lab 2-1/EJ-subject-1.csv,legacy,Kafkaesque Koffka,3.2.8,0,h,NA,NA,h,NA,h,438,NA,NA,37427,NA,438,2,legacy,1024,2,48000,-16,experiment,HHHHH,1,odd,68222,49436,NA,NA,57564,11987,NA,NA,69541,NA,12006,NA,69648,70088,69531,69648,Flanker task,9,5790,10,yes,1024
90.90909091,90.90909091,574.7272727,574.7272727,black,legacy,legacy,legacy,0,incongruent,uniform,1,undefined,1,h,10,0,0,0,10,0,10,0,10,0,0,0,10,10,10,10,9/20/19 18:01,1500,The main experiment item,yes,Flankertask.osexp,C:/Users/Edgar/Documents/Edgar School/Fall 2019/Lab 2-1,no,mono,no,18,no,white,no,yes,768,legacy,10,10,C:/Users/Edgar/Documents/Edgar School/Fall 2019/Lab 2-1/EJ-subject-1.csv,legacy,Kafkaesque Koffka,3.2.8,0,h,NA,NA,h,NA,h,532,NA,NA,37427,NA,532,2,legacy,1024,2,48000,-16,experiment,SSHSS,1,odd,70142,49436,NA,NA,57564,11987,NA,NA,71470,NA,12006,NA,71578,72112,71460,71577,Flanker task,10,6322,11,yes,1024
83.33333333,83.33333333,568.25,568.25,black,legacy,legacy,legacy,0,congruent,uniform,0,undefined,0,s,11,0,0,0,11,0,11,0,11,0,0,0,11,11,11,11,9/20/19 18:01,1500,The main experiment item,yes,Flankertask.osexp,C:/Users/Edgar/Documents/Edgar School/Fall 2019/Lab 2-1,no,mono,no,18,no,white,no,yes,768,legacy,11,11,C:/Users/Edgar/Documents/Edgar School/Fall 2019/Lab 2-1/EJ-subject-1.csv,legacy,Kafkaesque Koffka,3.2.8,0,h,NA,NA,h,NA,h,497,NA,NA,37427,NA,497,2,legacy,1024,2,48000,-16,experiment,SSSSS,1,odd,72157,49436,NA,NA,57564,11987,NA,NA,73549,NA,12006,NA,73656,74155,73536,73656,Flanker task,10,6819,12,yes,1024
84.61538462,84.61538462,561,561,black,legacy,legacy,legacy,0,congruent,uniform,1,undefined,1,h,12,0,0,0,12,0,12,0,12,0,0,0,12,12,12,12,9/20/19 18:01,1500,The main experiment item,yes,Flankertask.osexp,C:/Users/Edgar/Documents/Edgar School/Fall 2019/Lab 2-1,no,mono,no,18,no,white,no,yes,768,legacy,12,12,C:/Users/Edgar/Documents/Edgar School/Fall 2019/Lab 2-1/EJ-subject-1.csv,legacy,Kafkaesque Koffka,3.2.8,0,h,NA,NA,h,NA,h,474,NA,NA,37427,NA,474,2,legacy,1024,2,48000,-16,experiment,HHHHH,1,odd,74709,49436,NA,NA,74200,11987,NA,NA,76122,NA,12006,NA,76229,76705,76111,76229,Flanker task,11,7293,13,yes,1024
85.71428571,85.71428571,558.9285714,558.9285714,black,legacy,legacy,legacy,0,incongruent,uniform,1,undefined,1,s,13,0,0,0,13,0,13,0,13,0,0,0,13,13,13,13,9/20/19 18:01,1500,The main experiment item,yes,Flankertask.osexp,C:/Users/Edgar/Documents/Edgar School/Fall 2019/Lab 2-1,no,mono,no,18,no,white,no,yes,768,legacy,13,13,C:/Users/Edgar/Documents/Edgar School/Fall 2019/Lab 2-1/EJ-subject-1.csv,legacy,Kafkaesque Koffka,3.2.8,0,s,NA,NA,h,NA,s,532,NA,NA,37427,NA,532,2,legacy,1024,2,48000,-16,experiment,HHSHH,1,odd,76765,49436,NA,NA,74200,11987,NA,NA,78134,NA,12006,NA,78241,78774,78123,78241,Flanker task,12,7825,14,yes,1024
86.66666667,86.66666667,549.4,549.4,black,legacy,legacy,legacy,0,congruent,uniform,1,undefined,1,h,14,0,0,0,14,0,14,0,14,0,0,0,14,14,14,14,9/20/19 18:01,1500,The main experiment item,yes,Flankertask.osexp,C:/Users/Edgar/Documents/Edgar School/Fall 2019/Lab 2-1,no,mono,no,18,no,white,no,yes,768,legacy,14,14,C:/Users/Edgar/Documents/Edgar School/Fall 2019/Lab 2-1/EJ-subject-1.csv,legacy,Kafkaesque Koffka,3.2.8,0,h,NA,NA,h,NA,h,416,NA,NA,37427,NA,416,2,legacy,1024,2,48000,-16,experiment,HHHHH,1,odd,78829,49436,NA,NA,74200,11987,NA,NA,80204,NA,12006,NA,80311,80729,80193,80311,Flanker task,13,8241,15,yes,1024
87.5,87.5,546.875,546.875,black,legacy,legacy,legacy,0,congruent,uniform,1,undefined,1,h,15,0,0,0,15,0,15,0,15,0,0,0,15,15,15,15,9/20/19 18:01,1500,The main experiment item,yes,Flankertask.osexp,C:/Users/Edgar/Documents/Edgar School/Fall 2019/Lab 2-1,no,mono,no,18,no,white,no,yes,768,legacy,15,15,C:/Users/Edgar/Documents/Edgar School/Fall 2019/Lab 2-1/EJ-subject-1.csv,legacy,Kafkaesque Koffka,3.2.8,0,h,NA,NA,h,NA,h,509,NA,NA,37427,NA,509,2,legacy,1024,2,48000,-16,experiment,HHHHH,1,odd,80789,49436,NA,NA,74200,11987,NA,NA,82123,NA,12006,NA,82229,82740,82113,82229,Flanker task,14,8750,16,yes,1024
88.23529412,88.23529412,547.4117647,547.4117647,black,legacy,legacy,legacy,0,incongruent,uniform,1,undefined,1,s,16,0,0,0,16,0,16,0,16,0,0,0,16,16,16,16,9/20/19 18:01,1500,The main experiment item,yes,Flankertask.osexp,C:/Users/Edgar/Documents/Edgar School/Fall 2019/Lab 2-1,no,mono,no,18,no,white,no,yes,768,legacy,16,16,C:/Users/Edgar/Documents/Edgar School/Fall 2019/Lab 2-1/EJ-subject-1.csv,legacy,Kafkaesque Koffka,3.2.8,0,s,NA,NA,h,NA,s,556,NA,NA,37427,NA,556,2,legacy,1024,2,48000,-16,experiment,HHSHH,1,odd,82778,49436,NA,NA,74200,11987,NA,NA,84146,NA,12006,NA,84253,84811,84135,84253,Flanker task,15,9306,17,yes,1024
88.88888889,88.88888889,542.4444444,542.4444444,black,legacy,legacy,legacy,0,incongruent,uniform,1,undefined,1,h,17,0,0,0,17,0,17,0,17,0,0,0,17,17,17,17,9/20/19 18:01,1500,The main experiment item,yes,Flankertask.osexp,C:/Users/Edgar/Documents/Edgar School/Fall 2019/Lab 2-1,no,mono,no,18,no,white,no,yes,768,legacy,17,17,C:/Users/Edgar/Documents/Edgar School/Fall 2019/Lab 2-1/EJ-subject-1.csv,legacy,Kafkaesque Koffka,3.2.8,0,h,NA,NA,h,NA,h,458,NA,NA,37427,NA,458,2,legacy,1024,2,48000,-16,experiment,SSHSS,1,odd,84854,49436,NA,NA,74200,11987,NA,NA,86185,NA,12006,NA,86294,86754,86175,86294,Flanker task,16,9764,18,yes,1024
89.47368421,89.47368421,540.8421053,540.8421053,black,legacy,legacy,legacy,0,congruent,uniform,1,undefined,1,h,18,0,0,0,18,0,18,0,18,0,0,0,18,18,18,18,9/20/19 18:01,1500,The main experiment item,yes,Flankertask.osexp,C:/Users/Edgar/Documents/Edgar School/Fall 2019/Lab 2-1,no,mono,no,18,no,white,no,yes,768,legacy,18,18,C:/Users/Edgar/Documents/Edgar School/Fall 2019/Lab 2-1/EJ-subject-1.csv,legacy,Kafkaesque Koffka,3.2.8,0,h,NA,NA,h,NA,h,512,NA,NA,37427,NA,512,2,legacy,1024,2,48000,-16,experiment,HHHHH,1,odd,86806,49436,NA,NA,74200,11987,NA,NA,88134,NA,12006,NA,88241,88756,88124,88241,Flanker task,17,10276,19,yes,1024
90,90,537.4,537.4,black,legacy,legacy,legacy,0,congruent,uniform,1,undefined,1,h,19,0,0,0,19,0,19,0,19,0,0,0,19,19,19,19,9/20/19 18:01,1500,The main experiment item,yes,Flankertask.osexp,C:/Users/Edgar/Documents/Edgar School/Fall 2019/Lab 2-1,no,mono,no,18,no,white,no,yes,768,legacy,19,19,C:/Users/Edgar/Documents/Edgar School/Fall 2019/Lab 2-1/EJ-subject-1.csv,legacy,Kafkaesque Koffka,3.2.8,0,h,NA,NA,h,NA,h,472,NA,NA,37427,NA,472,2,legacy,1024,2,48000,-16,experiment,HHHHH,1,odd,88828,49436,NA,NA,74200,11987,NA,NA,90184,NA,12006,NA,90291,90765,90173,90290,Flanker task,18,10748,20,yes,1024
90.47619048,90.47619048,533.2857143,533.2857143,black,legacy,legacy,legacy,0,congruent,uniform,1,undefined,1,h,20,0,0,0,20,0,20,0,20,0,0,0,20,20,20,20,9/20/19 18:01,1500,The main experiment item,yes,Flankertask.osexp,C:/Users/Edgar/Documents/Edgar School/Fall 2019/Lab 2-1,no,mono,no,18,no,white,no,yes,768,legacy,20,20,C:/Users/Edgar/Documents/Edgar School/Fall 2019/Lab 2-1/EJ-subject-1.csv,legacy,Kafkaesque Koffka,3.2.8,0,h,NA,NA,h,NA,h,451,NA,NA,37427,NA,451,2,legacy,1024,2,48000,-16,experiment,HHHHH,1,odd,90813,49436,NA,NA,74200,11987,NA,NA,92162,NA,12006,NA,92270,92723,92150,92269,Flanker task,19,11199,21,yes,1024
90.90909091,90.90909091,535.8636364,535.8636364,black,legacy,legacy,legacy,0,incongruent,uniform,1,undefined,1,h,21,0,0,0,21,0,21,0,21,0,0,0,21,21,21,21,9/20/19 18:01,1500,The main experiment item,yes,Flankertask.osexp,C:/Users/Edgar/Documents/Edgar School/Fall 2019/Lab 2-1,no,mono,no,18,no,white,no,yes,768,legacy,21,21,C:/Users/Edgar/Documents/Edgar School/Fall 2019/Lab 2-1/EJ-subject-1.csv,legacy,Kafkaesque Koffka,3.2.8,0,h,NA,NA,h,NA,h,590,NA,NA,37427,NA,590,2,legacy,1024,2,48000,-16,experiment,SSHSS,1,odd,92774,49436,NA,NA,74200,11987,NA,NA,94098,NA,12006,NA,94205,94797,94087,94205,Flanker task,20,11789,22,yes,1024
91.30434783,91.30434783,533.173913,533.173913,black,legacy,legacy,legacy,0,congruent,uniform,1,undefined,1,h,22,0,0,0,22,0,22,0,22,0,0,0,22,22,22,22,9/20/19 18:01,1500,The main experiment item,yes,Flankertask.osexp,C:/Users/Edgar/Documents/Edgar School/Fall 2019/Lab 2-1,no,mono,no,18,no,white,no,yes,768,legacy,22,22,C:/Users/Edgar/Documents/Edgar School/Fall 2019/Lab 2-1/EJ-subject-1.csv,legacy,Kafkaesque Koffka,3.2.8,0,h,NA,NA,h,NA,h,474,NA,NA,37427,NA,474,2,legacy,1024,2,48000,-16,experiment,HHHHH,1,odd,94850,49436,NA,NA,74200,11987,NA,NA,96171,NA,12006,NA,96277,96754,96161,96277,Flanker task,21,12263,23,yes,1024
91.66666667,91.66666667,530.875,530.875,black,legacy,legacy,legacy,0,congruent,uniform,1,undefined,1,s,23,0,0,0,23,0,23,0,23,0,0,0,23,23,23,23,9/20/19 18:01,1500,The main experiment item,yes,Flankertask.osexp,C:/Users/Edgar/Documents/Edgar School/Fall 2019/Lab 2-1,no,mono,no,18,no,white,no,yes,768,legacy,23,23,C:/Users/Edgar/Documents/Edgar School/Fall 2019/Lab 2-1/EJ-subject-1.csv,legacy,Kafkaesque Koffka,3.2.8,0,s,NA,NA,h,NA,s,478,NA,NA,37427,NA,478,2,legacy,1024,2,48000,-16,experiment,SSSSS,1,odd,96813,49436,NA,NA,74200,11987,NA,NA,98187,NA,12006,NA,98294,98774,98176,98293,Flanker task,22,12741,24,yes,1024
92,92,529,529,black,legacy,legacy,legacy,0,incongruent,uniform,1,undefined,1,h,24,0,0,0,24,0,24,0,24,0,0,0,24,24,24,24,9/20/19 18:01,1500,The main experiment item,yes,Flankertask.osexp,C:/Users/Edgar/Documents/Edgar School/Fall 2019/Lab 2-1,no,mono,no,18,no,white,no,yes,768,legacy,24,24,C:/Users/Edgar/Documents/Edgar School/Fall 2019/Lab 2-1/EJ-subject-1.csv,legacy,Kafkaesque Koffka,3.2.8,0,h,NA,NA,h,NA,h,484,NA,NA,37427,NA,484,2,legacy,1024,2,48000,-16,experiment,SSHSS,1,odd,98822,49436,NA,NA,74200,11987,NA,NA,100148,NA,12006,NA,100255,100741,100138,100255,Flanker task,23,13225,25,yes,1024
92.30769231,92.30769231,525.9230769,525.9230769,black,legacy,legacy,legacy,0,incongruent,uniform,1,undefined,1,h,25,0,0,0,25,0,25,0,25,0,0,0,25,25,25,25,9/20/19 18:01,1500,The main experiment item,yes,Flankertask.osexp,C:/Users/Edgar/Documents/Edgar School/Fall 2019/Lab 2-1,no,mono,no,18,no,white,no,yes,768,legacy,25,25,C:/Users/Edgar/Documents/Edgar School/Fall 2019/Lab 2-1/EJ-subject-1.csv,legacy,Kafkaesque Koffka,3.2.8,0,h,NA,NA,h,NA,h,449,NA,NA,37427,NA,449,2,legacy,1024,2,48000,-16,experiment,SSHSS,1,odd,100796,49436,NA,NA,74200,11987,NA,NA,102128,NA,12006,NA,102236,102688,102118,102236,Flanker task,24,13674,26,yes,1024
92.59259259,92.59259259,525.7777778,525.7777778,black,legacy,legacy,legacy,0,incongruent,uniform,1,undefined,1,s,26,0,0,0,26,0,26,0,26,0,0,0,26,26,26,26,9/20/19 18:01,1500,The main experiment item,yes,Flankertask.osexp,C:/Users/Edgar/Documents/Edgar School/Fall 2019/Lab 2-1,no,mono,no,18,no,white,no,yes,768,legacy,26,26,C:/Users/Edgar/Documents/Edgar School/Fall 2019/Lab 2-1/EJ-subject-1.csv,legacy,Kafkaesque Koffka,3.2.8,0,s,NA,NA,h,NA,s,522,NA,NA,37427,NA,522,2,legacy,1024,2,48000,-16,experiment,HHSHH,1,odd,102749,49436,NA,NA,74200,11987,NA,NA,104097,NA,12006,NA,104205,104729,104087,104204,Flanker task,25,14196,27,yes,1024
92.85714286,92.85714286,521.5357143,521.5357143,black,legacy,legacy,legacy,0,congruent,uniform,1,undefined,1,h,27,0,0,0,27,0,27,0,27,0,0,0,27,27,27,27,9/20/19 18:01,1500,The main experiment item,yes,Flankertask.osexp,C:/Users/Edgar/Documents/Edgar School/Fall 2019/Lab 2-1,no,mono,no,18,no,white,no,yes,768,legacy,27,27,C:/Users/Edgar/Documents/Edgar School/Fall 2019/Lab 2-1/EJ-subject-1.csv,legacy,Kafkaesque Koffka,3.2.8,0,h,NA,NA,h,NA,h,407,NA,NA,37427,NA,407,2,legacy,1024,2,48000,-16,experiment,HHHHH,1,odd,104790,49436,NA,NA,74200,11987,NA,NA,106113,NA,12006,NA,106220,106629,106102,106219,Flanker task,26,14603,28,yes,1024
93.10344828,93.10344828,520.1034483,520.1034483,black,legacy,legacy,legacy,0,incongruent,uniform,1,undefined,1,h,28,0,0,0,28,0,28,0,28,0,0,0,28,28,28,28,9/20/19 18:01,1500,The main experiment item,yes,Flankertask.osexp,C:/Users/Edgar/Documents/Edgar School/Fall 2019/Lab 2-1,no,mono,no,18,no,white,no,yes,768,legacy,28,28,C:/Users/Edgar/Documents/Edgar School/Fall 2019/Lab 2-1/EJ-subject-1.csv,legacy,Kafkaesque Koffka,3.2.8,0,h,NA,NA,h,NA,h,480,NA,NA,37427,NA,480,2,legacy,1024,2,48000,-16,experiment,SSHSS,1,odd,106711,49436,NA,NA,74200,11987,NA,NA,108034,NA,12006,NA,108141,108623,108023,108140,Flanker task,27,15083,29,yes,1024
93.33333333,93.33333333,518.0666667,518.0666667,black,legacy,legacy,legacy,0,incongruent,uniform,1,undefined,1,s,29,0,0,0,29,0,29,0,29,0,0,0,29,29,29,29,9/20/19 18:01,1500,The main experiment item,yes,Flankertask.osexp,C:/Users/Edgar/Documents/Edgar School/Fall 2019/Lab 2-1,no,mono,no,18,no,white,no,yes,768,legacy,29,29,C:/Users/Edgar/Documents/Edgar School/Fall 2019/Lab 2-1/EJ-subject-1.csv,legacy,Kafkaesque Koffka,3.2.8,0,s,NA,NA,h,NA,s,459,NA,NA,37427,NA,459,2,legacy,1024,2,48000,-16,experiment,HHSHH,1,odd,108668,49436,NA,NA,74200,11987,NA,NA,109994,NA,12006,NA,110100,110561,109985,110100,Flanker task,28,15542,30,yes,1024
93.5483871,93.5483871,519.483871,519.483871,black,legacy,legacy,legacy,0,incongruent,uniform,1,undefined,1,s,30,0,0,0,30,0,30,0,30,0,0,0,30,30,30,30,9/20/19 18:01,1500,The main experiment item,yes,Flankertask.osexp,C:/Users/Edgar/Documents/Edgar School/Fall 2019/Lab 2-1,no,mono,no,18,no,white,no,yes,768,legacy,30,30,C:/Users/Edgar/Documents/Edgar School/Fall 2019/Lab 2-1/EJ-subject-1.csv,legacy,Kafkaesque Koffka,3.2.8,0,s,NA,NA,h,NA,s,562,NA,NA,37427,NA,562,2,legacy,1024,2,48000,-16,experiment,HHSHH,1,odd,110615,49436,NA,NA,74200,11987,NA,NA,111953,NA,12006,NA,112059,112624,111940,112059,Flanker task,29,16104,31,yes,1024
93.75,93.75,515.9375,515.9375,black,legacy,legacy,legacy,0,congruent,uniform,1,undefined,1,h,31,0,0,0,31,0,31,0,31,0,0,0,31,31,31,31,9/20/19 18:01,1500,The main experiment item,yes,Flankertask.osexp,C:/Users/Edgar/Documents/Edgar School/Fall 2019/Lab 2-1,no,mono,no,18,no,white,no,yes,768,legacy,31,31,C:/Users/Edgar/Documents/Edgar School/Fall 2019/Lab 2-1/EJ-subject-1.csv,legacy,Kafkaesque Koffka,3.2.8,0,h,NA,NA,h,NA,h,406,NA,NA,37427,NA,406,2,legacy,1024,2,48000,-16,experiment,HHHHH,1,odd,112689,49436,NA,NA,74200,11987,NA,NA,114023,NA,12006,NA,114130,114539,114012,114130,Flanker task,30,16510,32,yes,1024
93.93939394,93.93939394,515.2727273,515.2727273,black,legacy,legacy,legacy,0,incongruent,uniform,1,undefined,1,h,32,0,0,0,32,0,32,0,32,0,0,0,32,32,32,32,9/20/19 18:01,1500,The main experiment item,yes,Flankertask.osexp,C:/Users/Edgar/Documents/Edgar School/Fall 2019/Lab 2-1,no,mono,no,18,no,white,no,yes,768,legacy,32,32,C:/Users/Edgar/Documents/Edgar School/Fall 2019/Lab 2-1/EJ-subject-1.csv,legacy,Kafkaesque Koffka,3.2.8,0,h,NA,NA,h,NA,h,494,NA,NA,37427,NA,494,2,legacy,1024,2,48000,-16,experiment,SSHSS,1,odd,114604,49436,NA,NA,74200,11987,NA,NA,115928,NA,12006,NA,116034,116532,115917,116034,Flanker task,31,17004,33,yes,1024
94.11764706,94.11764706,516.3235294,516.3235294,black,legacy,legacy,legacy,0,incongruent,uniform,1,undefined,1,s,33,0,0,0,33,0,33,0,33,0,0,0,33,33,33,33,9/20/19 18:01,1500,The main experiment item,yes,Flankertask.osexp,C:/Users/Edgar/Documents/Edgar School/Fall 2019/Lab 2-1,no,mono,no,18,no,white,no,yes,768,legacy,33,33,C:/Users/Edgar/Documents/Edgar School/Fall 2019/Lab 2-1/EJ-subject-1.csv,legacy,Kafkaesque Koffka,3.2.8,0,s,NA,NA,h,NA,s,551,NA,NA,37427,NA,551,2,legacy,1024,2,48000,-16,experiment,HHSHH,1,odd,116595,49436,NA,NA,74200,11987,NA,NA,117952,NA,12006,NA,118058,118611,117941,118058,Flanker task,32,17555,34,yes,1024
94.28571429,94.28571429,513.7428571,513.7428571,black,legacy,legacy,legacy,0,congruent,uniform,1,undefined,1,h,34,0,0,0,34,0,34,0,34,0,0,0,34,34,34,34,9/20/19 18:01,1500,The main experiment item,yes,Flankertask.osexp,C:/Users/Edgar/Documents/Edgar School/Fall 2019/Lab 2-1,no,mono,no,18,no,white,no,yes,768,legacy,34,34,C:/Users/Edgar/Documents/Edgar School/Fall 2019/Lab 2-1/EJ-subject-1.csv,legacy,Kafkaesque Koffka,3.2.8,0,h,NA,NA,h,NA,h,426,NA,NA,37427,NA,426,2,legacy,1024,2,48000,-16,experiment,HHHHH,1,odd,118681,49436,NA,NA,74200,11987,NA,NA,120014,NA,12006,NA,120122,120551,120003,120121,Flanker task,33,17981,35,yes,1024
94.44444444,94.44444444,516.5833333,516.5833333,black,legacy,legacy,legacy,0,incongruent,uniform,1,undefined,1,s,35,0,0,0,35,0,35,0,35,0,0,0,35,35,35,35,9/20/19 18:01,1500,The main experiment item,yes,Flankertask.osexp,C:/Users/Edgar/Documents/Edgar School/Fall 2019/Lab 2-1,no,mono,no,18,no,white,no,yes,768,legacy,35,35,C:/Users/Edgar/Documents/Edgar School/Fall 2019/Lab 2-1/EJ-subject-1.csv,legacy,Kafkaesque Koffka,3.2.8,0,s,NA,NA,h,NA,s,616,NA,NA,37427,NA,616,2,legacy,1024,2,48000,-16,experiment,HHSHH,1,odd,120600,49436,NA,NA,74200,11987,NA,NA,121919,NA,12006,NA,122027,122646,121908,122027,Flanker task,34,18597,36,yes,1024
94.59459459,94.59459459,515.5675676,515.5675676,black,legacy,legacy,legacy,0,congruent,uniform,1,undefined,1,h,36,0,0,0,36,0,36,0,36,0,0,0,36,36,36,36,9/20/19 18:01,1500,The main experiment item,yes,Flankertask.osexp,C:/Users/Edgar/Documents/Edgar School/Fall 2019/Lab 2-1,no,mono,no,18,no,white,no,yes,768,legacy,36,36,C:/Users/Edgar/Documents/Edgar School/Fall 2019/Lab 2-1/EJ-subject-1.csv,legacy,Kafkaesque Koffka,3.2.8,0,h,NA,NA,h,NA,h,479,NA,NA,37427,NA,479,2,legacy,1024,2,48000,-16,experiment,HHHHH,1,odd,122696,49436,NA,NA,74200,11987,NA,NA,124027,NA,12006,NA,124134,124616,124016,124133,Flanker task,35,19076,37,yes,1024
94.73684211,94.73684211,514.9473684,514.9473684,black,legacy,legacy,legacy,0,congruent,uniform,1,undefined,1,s,37,0,0,0,37,0,37,0,37,0,0,0,37,37,37,37,9/20/19 18:01,1500,The main experiment item,yes,Flankertask.osexp,C:/Users/Edgar/Documents/Edgar School/Fall 2019/Lab 2-1,no,mono,no,18,no,white,no,yes,768,legacy,37,37,C:/Users/Edgar/Documents/Edgar School/Fall 2019/Lab 2-1/EJ-subject-1.csv,legacy,Kafkaesque Koffka,3.2.8,0,s,NA,NA,h,NA,s,492,NA,NA,37427,NA,492,2,legacy,1024,2,48000,-16,experiment,SSSSS,1,odd,124679,49436,NA,NA,74200,11987,NA,NA,126043,NA,12006,NA,126149,126643,126032,126149,Flanker task,36,19568,38,yes,1024
94.87179487,94.87179487,512.6410256,512.6410256,black,legacy,legacy,legacy,0,incongruent,uniform,1,undefined,1,h,38,0,0,0,38,0,38,0,38,0,0,0,38,38,38,38,9/20/19 18:01,1500,The main experiment item,yes,Flankertask.osexp,C:/Users/Edgar/Documents/Edgar School/Fall 2019/Lab 2-1,no,mono,no,18,no,white,no,yes,768,legacy,38,38,C:/Users/Edgar/Documents/Edgar School/Fall 2019/Lab 2-1/EJ-subject-1.csv,legacy,Kafkaesque Koffka,3.2.8,0,h,NA,NA,h,NA,h,425,NA,NA,37427,NA,425,2,legacy,1024,2,48000,-16,experiment,SSHSS,1,odd,126707,49436,NA,NA,74200,11987,NA,NA,128044,NA,12006,NA,128153,128583,128032,128152,Flanker task,37,19993,39,yes,1024
95,95,510.925,510.925,black,legacy,legacy,legacy,0,congruent,uniform,1,undefined,1,s,39,0,0,0,39,0,39,0,39,0,0,0,39,39,39,39,9/20/19 18:01,1500,The main experiment item,yes,Flankertask.osexp,C:/Users/Edgar/Documents/Edgar School/Fall 2019/Lab 2-1,no,mono,no,18,no,white,no,yes,768,legacy,39,39,C:/Users/Edgar/Documents/Edgar School/Fall 2019/Lab 2-1/EJ-subject-1.csv,legacy,Kafkaesque Koffka,3.2.8,0,s,NA,NA,h,NA,s,444,NA,NA,37427,NA,444,2,legacy,1024,2,48000,-16,experiment,SSSSS,1,odd,128678,49436,NA,NA,74200,11987,NA,NA,129998,NA,12006,NA,130104,130552,129988,130104,Flanker task,38,20437,40,yes,1024
95.12195122,95.12195122,509.5853659,509.5853659,black,legacy,legacy,legacy,0,congruent,uniform,1,undefined,1,s,40,0,0,0,40,0,40,0,40,0,0,0,40,40,40,40,9/20/19 18:01,1500,The main experiment item,yes,Flankertask.osexp,C:/Users/Edgar/Documents/Edgar School/Fall 2019/Lab 2-1,no,mono,no,18,no,white,no,yes,768,legacy,40,40,C:/Users/Edgar/Documents/Edgar School/Fall 2019/Lab 2-1/EJ-subject-1.csv,legacy,Kafkaesque Koffka,3.2.8,0,s,NA,NA,h,NA,s,456,NA,NA,37427,NA,456,2,legacy,1024,2,48000,-16,experiment,SSSSS,1,odd,130618,49436,NA,NA,74200,11987,NA,NA,131943,NA,12006,NA,132050,132509,131931,132049,Flanker task,39,20893,41,yes,1024
95.23809524,95.23809524,508.9047619,508.9047619,black,legacy,legacy,legacy,0,congruent,uniform,1,undefined,1,h,41,0,0,0,41,0,41,0,41,0,0,0,41,41,41,41,9/20/19 18:01,1500,The main experiment item,yes,Flankertask.osexp,C:/Users/Edgar/Documents/Edgar School/Fall 2019/Lab 2-1,no,mono,no,18,no,white,no,yes,768,legacy,41,41,C:/Users/Edgar/Documents/Edgar School/Fall 2019/Lab 2-1/EJ-subject-1.csv,legacy,Kafkaesque Koffka,3.2.8,0,h,NA,NA,h,NA,h,481,NA,NA,37427,NA,481,2,legacy,1024,2,48000,-16,experiment,HHHHH,1,odd,132565,49436,NA,NA,74200,11987,NA,NA,133898,NA,12006,NA,134006,134490,133886,134006,Flanker task,40,21374,42,yes,1024
95.34883721,95.34883721,508.2325581,508.2325581,black,legacy,legacy,legacy,0,congruent,uniform,1,undefined,1,s,42,0,0,0,42,0,42,0,42,0,0,0,42,42,42,42,9/20/19 18:01,1500,The main experiment item,yes,Flankertask.osexp,C:/Users/Edgar/Documents/Edgar School/Fall 2019/Lab 2-1,no,mono,no,18,no,white,no,yes,768,legacy,42,42,C:/Users/Edgar/Documents/Edgar School/Fall 2019/Lab 2-1/EJ-subject-1.csv,legacy,Kafkaesque Koffka,3.2.8,0,s,NA,NA,h,NA,s,480,NA,NA,37427,NA,480,2,legacy,1024,2,48000,-16,experiment,SSSSS,1,odd,134541,49436,NA,NA,74200,11987,NA,NA,135855,NA,12006,NA,135962,136444,135845,135961,Flanker task,41,21854,43,yes,1024
95.45454545,95.45454545,508.6818182,508.6818182,black,legacy,legacy,legacy,0,incongruent,uniform,1,undefined,1,s,43,0,0,0,43,0,43,0,43,0,0,0,43,43,43,43,9/20/19 18:01,1500,The main experiment item,yes,Flankertask.osexp,C:/Users/Edgar/Documents/Edgar School/Fall 2019/Lab 2-1,no,mono,no,18,no,white,no,yes,768,legacy,43,43,C:/Users/Edgar/Documents/Edgar School/Fall 2019/Lab 2-1/EJ-subject-1.csv,legacy,Kafkaesque Koffka,3.2.8,0,s,NA,NA,h,NA,s,528,NA,NA,37427,NA,528,2,legacy,1024,2,48000,-16,experiment,HHSHH,1,odd,136508,49436,NA,NA,74200,11987,NA,NA,137829,NA,12006,NA,137936,138468,137818,137936,Flanker task,42,22382,44,yes,1024
95.55555556,95.55555556,508.3333333,508.3333333,black,legacy,legacy,legacy,0,incongruent,uniform,1,undefined,1,s,44,0,0,0,44,0,44,0,44,0,0,0,44,44,44,44,9/20/19 18:01,1500,The main experiment item,yes,Flankertask.osexp,C:/Users/Edgar/Documents/Edgar School/Fall 2019/Lab 2-1,no,mono,no,18,no,white,no,yes,768,legacy,44,44,C:/Users/Edgar/Documents/Edgar School/Fall 2019/Lab 2-1/EJ-subject-1.csv,legacy,Kafkaesque Koffka,3.2.8,0,s,NA,NA,h,NA,s,493,NA,NA,37427,NA,493,2,legacy,1024,2,48000,-16,experiment,HHSHH,1,odd,138535,49436,NA,NA,74200,11987,NA,NA,139873,NA,12006,NA,139980,140476,139862,139979,Flanker task,43,22875,45,yes,1024
95.65217391,95.65217391,512.173913,512.173913,black,legacy,legacy,legacy,0,incongruent,uniform,1,undefined,1,s,45,0,0,0,45,0,45,0,45,0,0,0,45,45,45,45,9/20/19 18:01,1500,The main experiment item,yes,Flankertask.osexp,C:/Users/Edgar/Documents/Edgar School/Fall 2019/Lab 2-1,no,mono,no,18,no,white,no,yes,768,legacy,45,45,C:/Users/Edgar/Documents/Edgar School/Fall 2019/Lab 2-1/EJ-subject-1.csv,legacy,Kafkaesque Koffka,3.2.8,0,s,NA,NA,h,NA,s,685,NA,NA,37427,NA,685,2,legacy,1024,2,48000,-16,experiment,HHSHH,1,odd,140521,49436,NA,NA,74200,11987,NA,NA,141861,NA,12006,NA,141970,142657,141851,141970,Flanker task,44,23560,46,yes,1024
95.74468085,95.74468085,511.4680851,511.4680851,black,legacy,legacy,legacy,0,congruent,uniform,1,undefined,1,s,46,0,0,0,46,0,46,0,46,0,0,0,46,46,46,46,9/20/19 18:01,1500,The main experiment item,yes,Flankertask.osexp,C:/Users/Edgar/Documents/Edgar School/Fall 2019/Lab 2-1,no,mono,no,18,no,white,no,yes,768,legacy,46,46,C:/Users/Edgar/Documents/Edgar School/Fall 2019/Lab 2-1/EJ-subject-1.csv,legacy,Kafkaesque Koffka,3.2.8,0,s,NA,NA,h,NA,s,479,NA,NA,37427,NA,479,2,legacy,1024,2,48000,-16,experiment,SSSSS,1,odd,142699,49436,NA,NA,74200,11987,NA,NA,144020,NA,12006,NA,144126,144608,144009,144126,Flanker task,45,24039,47,yes,1024
95.83333333,95.83333333,511.5625,511.5625,black,legacy,legacy,legacy,0,incongruent,uniform,1,undefined,1,h,47,0,0,0,47,0,47,0,47,0,0,0,47,47,47,47,9/20/19 18:01,1500,The main experiment item,yes,Flankertask.osexp,C:/Users/Edgar/Documents/Edgar School/Fall 2019/Lab 2-1,no,mono,no,18,no,white,no,yes,768,legacy,47,47,C:/Users/Edgar/Documents/Edgar School/Fall 2019/Lab 2-1/EJ-subject-1.csv,legacy,Kafkaesque Koffka,3.2.8,0,h,NA,NA,h,NA,h,516,NA,NA,37427,NA,516,2,legacy,1024,2,48000,-16,experiment,SSHSS,1,odd,144670,49436,NA,NA,74200,11987,NA,NA,145990,NA,12006,NA,146098,146618,145980,146097,Flanker task,46,24555,48,yes,1024
95.91836735,95.91836735,510.6326531,510.6326531,black,legacy,legacy,legacy,0,congruent,uniform,1,undefined,1,s,48,0,0,0,48,0,48,0,48,0,0,0,48,48,48,48,9/20/19 18:01,1500,The main experiment item,yes,Flankertask.osexp,C:/Users/Edgar/Documents/Edgar School/Fall 2019/Lab 2-1,no,mono,no,18,no,white,no,yes,768,legacy,48,48,C:/Users/Edgar/Documents/Edgar School/Fall 2019/Lab 2-1/EJ-subject-1.csv,legacy,Kafkaesque Koffka,3.2.8,0,s,NA,NA,h,NA,s,466,NA,NA,37427,NA,466,2,legacy,1024,2,48000,-16,experiment,SSSSS,1,odd,146693,49436,NA,NA,74200,11987,NA,NA,148039,NA,12006,NA,148146,148615,148029,148146,Flanker task,47,25021,49,yes,1024
96,96,508.64,508.64,black,legacy,legacy,legacy,0,incongruent,uniform,1,undefined,1,h,49,0,0,0,49,0,49,0,49,0,0,0,49,49,49,49,9/20/19 18:01,1500,The main experiment item,yes,Flankertask.osexp,C:/Users/Edgar/Documents/Edgar School/Fall 2019/Lab 2-1,no,mono,no,18,no,white,no,yes,768,legacy,49,49,C:/Users/Edgar/Documents/Edgar School/Fall 2019/Lab 2-1/EJ-subject-1.csv,legacy,Kafkaesque Koffka,3.2.8,0,h,NA,NA,h,NA,h,411,NA,NA,37427,NA,411,2,legacy,1024,2,48000,-16,experiment,SSHSS,1,odd,148675,49436,NA,NA,74200,11987,NA,NA,150012,NA,12006,NA,150119,150533,150001,150118,Flanker task,48,25432,50,yes,1024
94.11764706,94.11764706,507.4509804,507.4509804,black,legacy,legacy,legacy,0,incongruent,uniform,0,undefined,0,s,50,0,0,0,50,0,50,0,50,0,0,0,50,50,50,50,9/20/19 18:01,1500,The main experiment item,yes,Flankertask.osexp,C:/Users/Edgar/Documents/Edgar School/Fall 2019/Lab 2-1,no,mono,no,18,no,white,no,yes,768,legacy,50,50,C:/Users/Edgar/Documents/Edgar School/Fall 2019/Lab 2-1/EJ-subject-1.csv,legacy,Kafkaesque Koffka,3.2.8,0,h,NA,NA,h,NA,h,448,NA,NA,37427,NA,448,2,legacy,1024,2,48000,-16,experiment,HHSHH,1,odd,150588,49436,NA,NA,74200,11987,NA,NA,151904,NA,12006,NA,152011,152470,151894,152010,Flanker task,48,25880,51,yes,1024
94.23076923,94.23076923,507.5576923,507.5576923,black,legacy,legacy,legacy,0,congruent,uniform,1,undefined,1,s,51,0,0,0,51,0,51,0,51,0,0,0,51,51,51,51,9/20/19 18:01,1500,The main experiment item,yes,Flankertask.osexp,C:/Users/Edgar/Documents/Edgar School/Fall 2019/Lab 2-1,no,mono,no,18,no,white,no,yes,768,legacy,51,51,C:/Users/Edgar/Documents/Edgar School/Fall 2019/Lab 2-1/EJ-subject-1.csv,legacy,Kafkaesque Koffka,3.2.8,0,s,NA,NA,h,NA,s,513,NA,NA,37427,NA,513,2,legacy,1024,2,48000,-16,experiment,SSSSS,1,odd,153036,49436,NA,NA,152529,11987,NA,NA,154355,NA,12006,NA,154462,154977,154344,154461,Flanker task,49,26393,52,yes,1024
94.33962264,94.33962264,506.3396226,506.3396226,black,legacy,legacy,legacy,0,congruent,uniform,1,undefined,1,h,52,0,0,0,52,0,52,0,52,0,0,0,52,52,52,52,9/20/19 18:01,1500,The main experiment item,yes,Flankertask.osexp,C:/Users/Edgar/Documents/Edgar School/Fall 2019/Lab 2-1,no,mono,no,18,no,white,no,yes,768,legacy,52,52,C:/Users/Edgar/Documents/Edgar School/Fall 2019/Lab 2-1/EJ-subject-1.csv,legacy,Kafkaesque Koffka,3.2.8,0,h,NA,NA,h,NA,h,443,NA,NA,37427,NA,443,2,legacy,1024,2,48000,-16,experiment,HHHHH,1,odd,155036,49436,NA,NA,152529,11987,NA,NA,156351,NA,12006,NA,156459,156906,156341,156458,Flanker task,50,26836,53,yes,1024
94.44444444,94.44444444,504.9259259,504.9259259,black,legacy,legacy,legacy,0,congruent,uniform,1,undefined,1,s,53,0,0,0,53,0,53,0,53,0,0,0,53,53,53,53,9/20/19 18:01,1500,The main experiment item,yes,Flankertask.osexp,C:/Users/Edgar/Documents/Edgar School/Fall 2019/Lab 2-1,no,mono,no,18,no,white,no,yes,768,legacy,53,53,C:/Users/Edgar/Documents/Edgar School/Fall 2019/Lab 2-1/EJ-subject-1.csv,legacy,Kafkaesque Koffka,3.2.8,0,s,NA,NA,h,NA,s,430,NA,NA,37427,NA,430,2,legacy,1024,2,48000,-16,experiment,SSSSS,1,odd,156965,49436,NA,NA,152529,11987,NA,NA,158307,NA,12006,NA,158414,158846,158296,158413,Flanker task,51,27266,54,yes,1024
94.54545455,94.54545455,503.9272727,503.9272727,black,legacy,legacy,legacy,0,incongruent,uniform,1,undefined,1,h,54,0,0,0,54,0,54,0,54,0,0,0,54,54,54,54,9/20/19 18:01,1500,The main experiment item,yes,Flankertask.osexp,C:/Users/Edgar/Documents/Edgar School/Fall 2019/Lab 2-1,no,mono,no,18,no,white,no,yes,768,legacy,54,54,C:/Users/Edgar/Documents/Edgar School/Fall 2019/Lab 2-1/EJ-subject-1.csv,legacy,Kafkaesque Koffka,3.2.8,0,h,NA,NA,h,NA,h,450,NA,NA,37427,NA,450,2,legacy,1024,2,48000,-16,experiment,SSHSS,1,odd,158909,49436,NA,NA,152529,11987,NA,NA,160227,NA,12006,NA,160334,160787,160217,160333,Flanker task,52,27716,55,yes,1024
94.64285714,94.64285714,505.9464286,505.9464286,black,legacy,legacy,legacy,0,incongruent,uniform,1,undefined,1,h,55,0,0,0,55,0,55,0,55,0,0,0,55,55,55,55,9/20/19 18:01,1500,The main experiment item,yes,Flankertask.osexp,C:/Users/Edgar/Documents/Edgar School/Fall 2019/Lab 2-1,no,mono,no,18,no,white,no,yes,768,legacy,55,55,C:/Users/Edgar/Documents/Edgar School/Fall 2019/Lab 2-1/EJ-subject-1.csv,legacy,Kafkaesque Koffka,3.2.8,0,h,NA,NA,h,NA,h,617,NA,NA,37427,NA,617,2,legacy,1024,2,48000,-16,experiment,SSHSS,1,odd,160827,49436,NA,NA,152529,11987,NA,NA,162155,NA,12006,NA,162262,162882,162145,162261,Flanker task,53,28333,56,yes,1024
94.73684211,94.73684211,506.7894737,506.7894737,black,legacy,legacy,legacy,0,incongruent,uniform,1,undefined,1,s,56,0,0,0,56,0,56,0,56,0,0,0,56,56,56,56,9/20/19 18:01,1500,The main experiment item,yes,Flankertask.osexp,C:/Users/Edgar/Documents/Edgar School/Fall 2019/Lab 2-1,no,mono,no,18,no,white,no,yes,768,legacy,56,56,C:/Users/Edgar/Documents/Edgar School/Fall 2019/Lab 2-1/EJ-subject-1.csv,legacy,Kafkaesque Koffka,3.2.8,0,s,NA,NA,h,NA,s,554,NA,NA,37427,NA,554,2,legacy,1024,2,48000,-16,experiment,HHSHH,1,odd,162939,49436,NA,NA,152529,11987,NA,NA,164273,NA,12006,NA,164380,164939,164262,164379,Flanker task,54,28887,57,yes,1024
94.82758621,94.82758621,505.2068966,505.2068966,black,legacy,legacy,legacy,0,congruent,uniform,1,undefined,1,h,57,0,0,0,57,0,57,0,57,0,0,0,57,57,57,57,9/20/19 18:01,1500,The main experiment item,yes,Flankertask.osexp,C:/Users/Edgar/Documents/Edgar School/Fall 2019/Lab 2-1,no,mono,no,18,no,white,no,yes,768,legacy,57,57,C:/Users/Edgar/Documents/Edgar School/Fall 2019/Lab 2-1/EJ-subject-1.csv,legacy,Kafkaesque Koffka,3.2.8,0,h,NA,NA,h,NA,h,415,NA,NA,37427,NA,415,2,legacy,1024,2,48000,-16,experiment,HHHHH,1,odd,165000,49436,NA,NA,152529,11987,NA,NA,166336,NA,12006,NA,166443,166861,166326,166443,Flanker task,55,29302,58,yes,1024
94.91525424,94.91525424,504.1186441,504.1186441,black,legacy,legacy,legacy,0,incongruent,uniform,1,undefined,1,s,58,0,0,0,58,0,58,0,58,0,0,0,58,58,58,58,9/20/19 18:01,1500,The main experiment item,yes,Flankertask.osexp,C:/Users/Edgar/Documents/Edgar School/Fall 2019/Lab 2-1,no,mono,no,18,no,white,no,yes,768,legacy,58,58,C:/Users/Edgar/Documents/Edgar School/Fall 2019/Lab 2-1/EJ-subject-1.csv,legacy,Kafkaesque Koffka,3.2.8,0,s,NA,NA,h,NA,s,441,NA,NA,37427,NA,441,2,legacy,1024,2,48000,-16,experiment,HHSHH,1,odd,166914,49436,NA,NA,152529,11987,NA,NA,168240,NA,12006,NA,168347,168792,168228,168346,Flanker task,56,29743,59,yes,1024
95,95,503.4666667,503.4666667,black,legacy,legacy,legacy,0,congruent,uniform,1,undefined,1,h,59,0,0,0,59,0,59,0,59,0,0,0,59,59,59,59,9/20/19 18:01,1500,The main experiment item,yes,Flankertask.osexp,C:/Users/Edgar/Documents/Edgar School/Fall 2019/Lab 2-1,no,mono,no,18,no,white,no,yes,768,legacy,59,59,C:/Users/Edgar/Documents/Edgar School/Fall 2019/Lab 2-1/EJ-subject-1.csv,legacy,Kafkaesque Koffka,3.2.8,0,h,NA,NA,h,NA,h,465,NA,NA,37427,NA,465,2,legacy,1024,2,48000,-16,experiment,HHHHH,1,odd,168856,49436,NA,NA,152529,11987,NA,NA,170192,NA,12006,NA,170298,170767,170182,170298,Flanker task,57,30208,60,yes,1024
95.08196721,95.08196721,503.3606557,503.3606557,black,legacy,legacy,legacy,0,congruent,uniform,1,undefined,1,s,60,0,0,0,60,0,60,0,60,0,0,0,60,60,60,60,9/20/19 18:01,1500,The main experiment item,yes,Flankertask.osexp,C:/Users/Edgar/Documents/Edgar School/Fall 2019/Lab 2-1,no,mono,no,18,no,white,no,yes,768,legacy,60,60,C:/Users/Edgar/Documents/Edgar School/Fall 2019/Lab 2-1/EJ-subject-1.csv,legacy,Kafkaesque Koffka,3.2.8,0,s,NA,NA,h,NA,s,497,NA,NA,37427,NA,497,2,legacy,1024,2,48000,-16,experiment,SSSSS,1,odd,170824,49436,NA,NA,152529,11987,NA,NA,172191,NA,12006,NA,172298,172797,172181,172298,Flanker task,58,30705,61,yes,1024
95.16129032,95.16129032,503.0967742,503.0967742,black,legacy,legacy,legacy,0,incongruent,uniform,1,undefined,1,h,61,0,0,0,61,0,61,0,61,0,0,0,61,61,61,61,9/20/19 18:01,1500,The main experiment item,yes,Flankertask.osexp,C:/Users/Edgar/Documents/Edgar School/Fall 2019/Lab 2-1,no,mono,no,18,no,white,no,yes,768,legacy,61,61,C:/Users/Edgar/Documents/Edgar School/Fall 2019/Lab 2-1/EJ-subject-1.csv,legacy,Kafkaesque Koffka,3.2.8,0,h,NA,NA,h,NA,h,487,NA,NA,37427,NA,487,2,legacy,1024,2,48000,-16,experiment,SSHSS,1,odd,172832,49436,NA,NA,152529,11987,NA,NA,174156,NA,12006,NA,174263,174753,174146,174263,Flanker task,59,31192,62,yes,1024
95.23809524,95.23809524,501.952381,501.952381,black,legacy,legacy,legacy,0,congruent,uniform,1,undefined,1,s,62,0,0,0,62,0,62,0,62,0,0,0,62,62,62,62,9/20/19 18:01,1500,The main experiment item,yes,Flankertask.osexp,C:/Users/Edgar/Documents/Edgar School/Fall 2019/Lab 2-1,no,mono,no,18,no,white,no,yes,768,legacy,62,62,C:/Users/Edgar/Documents/Edgar School/Fall 2019/Lab 2-1/EJ-subject-1.csv,legacy,Kafkaesque Koffka,3.2.8,0,s,NA,NA,h,NA,s,431,NA,NA,37427,NA,431,2,legacy,1024,2,48000,-16,experiment,SSSSS,1,odd,174791,49436,NA,NA,152529,11987,NA,NA,176115,NA,12006,NA,176222,176656,176105,176221,Flanker task,60,31623,63,yes,1024
95.3125,95.3125,501.375,501.375,black,legacy,legacy,legacy,0,congruent,uniform,1,undefined,1,s,63,0,0,0,63,0,63,0,63,0,0,0,63,63,63,63,9/20/19 18:01,1500,The main experiment item,yes,Flankertask.osexp,C:/Users/Edgar/Documents/Edgar School/Fall 2019/Lab 2-1,no,mono,no,18,no,white,no,yes,768,legacy,63,63,C:/Users/Edgar/Documents/Edgar School/Fall 2019/Lab 2-1/EJ-subject-1.csv,legacy,Kafkaesque Koffka,3.2.8,0,s,NA,NA,h,NA,s,465,NA,NA,37427,NA,465,2,legacy,1024,2,48000,-16,experiment,SSSSS,1,odd,176720,49436,NA,NA,152529,11987,NA,NA,178058,NA,12006,NA,178165,178634,178048,178164,Flanker task,61,32088,64,yes,1024
95.38461538,95.38461538,501.6615385,501.6615385,black,legacy,legacy,legacy,0,incongruent,uniform,1,undefined,1,s,64,0,0,0,64,0,64,0,64,0,0,0,64,64,64,64,9/20/19 18:01,1500,The main experiment item,yes,Flankertask.osexp,C:/Users/Edgar/Documents/Edgar School/Fall 2019/Lab 2-1,no,mono,no,18,no,white,no,yes,768,legacy,64,64,C:/Users/Edgar/Documents/Edgar School/Fall 2019/Lab 2-1/EJ-subject-1.csv,legacy,Kafkaesque Koffka,3.2.8,0,s,NA,NA,h,NA,s,520,NA,NA,37427,NA,520,2,legacy,1024,2,48000,-16,experiment,HHSHH,1,odd,178668,49436,NA,NA,152529,11987,NA,NA,180000,NA,12006,NA,180107,180630,179990,180107,Flanker task,62,32608,65,yes,1024
93.93939394,93.93939394,502.0454545,502.0454545,black,legacy,legacy,legacy,0,incongruent,uniform,0,undefined,0,h,65,0,0,0,65,0,65,0,65,0,0,0,65,65,65,65,9/20/19 18:01,1500,The main experiment item,yes,Flankertask.osexp,C:/Users/Edgar/Documents/Edgar School/Fall 2019/Lab 2-1,no,mono,no,18,no,white,no,yes,768,legacy,65,65,C:/Users/Edgar/Documents/Edgar School/Fall 2019/Lab 2-1/EJ-subject-1.csv,legacy,Kafkaesque Koffka,3.2.8,0,s,NA,NA,h,NA,s,527,NA,NA,37427,NA,527,2,legacy,1024,2,48000,-16,experiment,SSHSS,1,odd,180686,49436,NA,NA,152529,11987,NA,NA,182014,NA,12006,NA,182122,182652,182004,182122,Flanker task,62,33135,66,yes,1024
94.02985075,94.02985075,503.0597015,503.0597015,black,legacy,legacy,legacy,0,congruent,uniform,1,undefined,1,s,66,0,0,0,66,0,66,0,66,0,0,0,66,66,66,66,9/20/19 18:01,1500,The main experiment item,yes,Flankertask.osexp,C:/Users/Edgar/Documents/Edgar School/Fall 2019/Lab 2-1,no,mono,no,18,no,white,no,yes,768,legacy,66,66,C:/Users/Edgar/Documents/Edgar School/Fall 2019/Lab 2-1/EJ-subject-1.csv,legacy,Kafkaesque Koffka,3.2.8,0,s,NA,NA,h,NA,s,570,NA,NA,37427,NA,570,2,legacy,1024,2,48000,-16,experiment,SSSSS,1,odd,183203,49436,NA,NA,182695,11987,NA,NA,184520,NA,12006,NA,184626,185199,184508,184626,Flanker task,63,33705,67,yes,1024
94.11764706,94.11764706,502.4117647,502.4117647,black,legacy,legacy,legacy,0,congruent,uniform,1,undefined,1,s,67,0,0,0,67,0,67,0,67,0,0,0,67,67,67,67,9/20/19 18:01,1500,The main experiment item,yes,Flankertask.osexp,C:/Users/Edgar/Documents/Edgar School/Fall 2019/Lab 2-1,no,mono,no,18,no,white,no,yes,768,legacy,67,67,C:/Users/Edgar/Documents/Edgar School/Fall 2019/Lab 2-1/EJ-subject-1.csv,legacy,Kafkaesque Koffka,3.2.8,0,s,NA,NA,h,NA,s,459,NA,NA,37427,NA,459,2,legacy,1024,2,48000,-16,experiment,SSSSS,1,odd,185247,49436,NA,NA,182695,11987,NA,NA,186563,NA,12006,NA,186669,187131,186553,186669,Flanker task,64,34164,68,yes,1024
94.20289855,94.20289855,501.826087,501.826087,black,legacy,legacy,legacy,0,congruent,uniform,1,undefined,1,s,68,0,0,0,68,0,68,0,68,0,0,0,68,68,68,68,9/20/19 18:01,1500,The main experiment item,yes,Flankertask.osexp,C:/Users/Edgar/Documents/Edgar School/Fall 2019/Lab 2-1,no,mono,no,18,no,white,no,yes,768,legacy,68,68,C:/Users/Edgar/Documents/Edgar School/Fall 2019/Lab 2-1/EJ-subject-1.csv,legacy,Kafkaesque Koffka,3.2.8,0,s,NA,NA,h,NA,s,462,NA,NA,37427,NA,462,2,legacy,1024,2,48000,-16,experiment,SSSSS,1,odd,187188,49436,NA,NA,182695,11987,NA,NA,188512,NA,12006,NA,188620,189085,188502,188619,Flanker task,65,34626,69,yes,1024
92.85714286,92.85714286,501.7285714,501.7285714,black,legacy,legacy,legacy,0,incongruent,uniform,0,undefined,0,s,69,0,0,0,69,0,69,0,69,0,0,0,69,69,69,69,9/20/19 18:01,1500,The main experiment item,yes,Flankertask.osexp,C:/Users/Edgar/Documents/Edgar School/Fall 2019/Lab 2-1,no,mono,no,18,no,white,no,yes,768,legacy,69,69,C:/Users/Edgar/Documents/Edgar School/Fall 2019/Lab 2-1/EJ-subject-1.csv,legacy,Kafkaesque Koffka,3.2.8,0,h,NA,NA,h,NA,h,495,NA,NA,37427,NA,495,2,legacy,1024,2,48000,-16,experiment,HHSHH,1,odd,189151,49436,NA,NA,182695,11987,NA,NA,190477,NA,12006,NA,190585,191084,190465,190585,Flanker task,65,35121,70,yes,1024
92.95774648,92.95774648,502.4084507,502.4084507,black,legacy,legacy,legacy,0,incongruent,uniform,1,undefined,1,h,70,0,0,0,70,0,70,0,70,0,0,0,70,70,70,70,9/20/19 18:01,1500,The main experiment item,yes,Flankertask.osexp,C:/Users/Edgar/Documents/Edgar School/Fall 2019/Lab 2-1,no,mono,no,18,no,white,no,yes,768,legacy,70,70,C:/Users/Edgar/Documents/Edgar School/Fall 2019/Lab 2-1/EJ-subject-1.csv,legacy,Kafkaesque Koffka,3.2.8,0,h,NA,NA,h,NA,h,550,NA,NA,37427,NA,550,2,legacy,1024,2,48000,-16,experiment,SSHSS,1,odd,191656,49436,NA,NA,191149,11987,NA,NA,193009,NA,12006,NA,193116,193669,192999,193116,Flanker task,66,35671,71,yes,1024
93.05555556,93.05555556,502.2638889,502.2638889,black,legacy,legacy,legacy,0,congruent,uniform,1,undefined,1,h,71,0,0,0,71,0,71,0,71,0,0,0,71,71,71,71,9/20/19 18:01,1500,The main experiment item,yes,Flankertask.osexp,C:/Users/Edgar/Documents/Edgar School/Fall 2019/Lab 2-1,no,mono,no,18,no,white,no,yes,768,legacy,71,71,C:/Users/Edgar/Documents/Edgar School/Fall 2019/Lab 2-1/EJ-subject-1.csv,legacy,Kafkaesque Koffka,3.2.8,0,h,NA,NA,h,NA,h,492,NA,NA,37427,NA,492,2,legacy,1024,2,48000,-16,experiment,HHHHH,1,odd,193707,49436,NA,NA,191149,11987,NA,NA,195027,NA,12006,NA,195134,195629,195016,195134,Flanker task,67,36163,72,yes,1024
93.15068493,93.15068493,503.2191781,503.2191781,black,legacy,legacy,legacy,0,incongruent,uniform,1,undefined,1,h,72,0,0,0,72,0,72,0,72,0,0,0,72,72,72,72,9/20/19 18:01,1500,The main experiment item,yes,Flankertask.osexp,C:/Users/Edgar/Documents/Edgar School/Fall 2019/Lab 2-1,no,mono,no,18,no,white,no,yes,768,legacy,72,72,C:/Users/Edgar/Documents/Edgar School/Fall 2019/Lab 2-1/EJ-subject-1.csv,legacy,Kafkaesque Koffka,3.2.8,0,h,NA,NA,h,NA,h,572,NA,NA,37427,NA,572,2,legacy,1024,2,48000,-16,experiment,SSHSS,1,odd,195687,49436,NA,NA,191149,11987,NA,NA,197025,NA,12006,NA,197132,197707,197013,197131,Flanker task,68,36735,73,yes,1024
93.24324324,93.24324324,503.5405405,503.5405405,black,legacy,legacy,legacy,0,congruent,uniform,1,undefined,1,s,73,0,0,0,73,0,73,0,73,0,0,0,73,73,73,73,9/20/19 18:01,1500,The main experiment item,yes,Flankertask.osexp,C:/Users/Edgar/Documents/Edgar School/Fall 2019/Lab 2-1,no,mono,no,18,no,white,no,yes,768,legacy,73,73,C:/Users/Edgar/Documents/Edgar School/Fall 2019/Lab 2-1/EJ-subject-1.csv,legacy,Kafkaesque Koffka,3.2.8,0,s,NA,NA,h,NA,s,527,NA,NA,37427,NA,527,2,legacy,1024,2,48000,-16,experiment,SSSSS,1,odd,197774,49436,NA,NA,191149,11987,NA,NA,199096,NA,12006,NA,199203,199734,199085,199203,Flanker task,69,37262,74,yes,1024
93.33333333,93.33333333,504.6533333,504.6533333,black,legacy,legacy,legacy,0,incongruent,uniform,1,undefined,1,s,74,0,0,0,74,0,74,0,74,0,0,0,74,74,74,74,9/20/19 18:01,1500,The main experiment item,yes,Flankertask.osexp,C:/Users/Edgar/Documents/Edgar School/Fall 2019/Lab 2-1,no,mono,no,18,no,white,no,yes,768,legacy,74,74,C:/Users/Edgar/Documents/Edgar School/Fall 2019/Lab 2-1/EJ-subject-1.csv,legacy,Kafkaesque Koffka,3.2.8,0,s,NA,NA,h,NA,s,587,NA,NA,37427,NA,587,2,legacy,1024,2,48000,-16,experiment,HHSHH,1,odd,199809,49436,NA,NA,191149,11987,NA,NA,201165,NA,12006,NA,201272,201863,201155,201272,Flanker task,70,37849,75,yes,1024
93.42105263,93.42105263,504.9078947,504.9078947,black,legacy,legacy,legacy,0,congruent,uniform,1,undefined,1,s,75,0,0,0,75,0,75,0,75,0,0,0,75,75,75,75,9/20/19 18:01,1500,The main experiment item,yes,Flankertask.osexp,C:/Users/Edgar/Documents/Edgar School/Fall 2019/Lab 2-1,no,mono,no,18,no,white,no,yes,768,legacy,75,75,C:/Users/Edgar/Documents/Edgar School/Fall 2019/Lab 2-1/EJ-subject-1.csv,legacy,Kafkaesque Koffka,3.2.8,0,s,NA,NA,h,NA,s,524,NA,NA,37427,NA,524,2,legacy,1024,2,48000,-16,experiment,SSSSS,1,odd,201901,49436,NA,NA,191149,11987,NA,NA,203231,NA,12006,NA,203337,203865,203220,203337,Flanker task,71,38373,76,yes,1024
93.50649351,93.50649351,504.8441558,504.8441558,black,legacy,legacy,legacy,0,congruent,uniform,1,undefined,1,h,76,0,0,0,76,0,76,0,76,0,0,0,76,76,76,76,9/20/19 18:01,1500,The main experiment item,yes,Flankertask.osexp,C:/Users/Edgar/Documents/Edgar School/Fall 2019/Lab 2-1,no,mono,no,18,no,white,no,yes,768,legacy,76,76,C:/Users/Edgar/Documents/Edgar School/Fall 2019/Lab 2-1/EJ-subject-1.csv,legacy,Kafkaesque Koffka,3.2.8,0,h,NA,NA,h,NA,h,500,NA,NA,37427,NA,500,2,legacy,1024,2,48000,-16,experiment,HHHHH,1,odd,203888,49436,NA,NA,191149,11987,NA,NA,205212,NA,12006,NA,205319,205822,205199,205318,Flanker task,72,38873,77,yes,1024
93.58974359,93.58974359,505.5384615,505.5384615,black,legacy,legacy,legacy,0,incongruent,uniform,1,undefined,1,s,77,0,0,0,77,0,77,0,77,0,0,0,77,77,77,77,9/20/19 18:01,1500,The main experiment item,yes,Flankertask.osexp,C:/Users/Edgar/Documents/Edgar School/Fall 2019/Lab 2-1,no,mono,no,18,no,white,no,yes,768,legacy,77,77,C:/Users/Edgar/Documents/Edgar School/Fall 2019/Lab 2-1/EJ-subject-1.csv,legacy,Kafkaesque Koffka,3.2.8,0,s,NA,NA,h,NA,s,559,NA,NA,37427,NA,559,2,legacy,1024,2,48000,-16,experiment,HHSHH,1,odd,205889,49436,NA,NA,191149,11987,NA,NA,207212,NA,12006,NA,207319,207882,207202,207318,Flanker task,73,39432,78,yes,1024
93.67088608,93.67088608,507.1898734,507.1898734,black,legacy,legacy,legacy,0,incongruent,uniform,1,undefined,1,h,78,0,0,0,78,0,78,0,78,0,0,0,78,78,78,78,9/20/19 18:01,1500,The main experiment item,yes,Flankertask.osexp,C:/Users/Edgar/Documents/Edgar School/Fall 2019/Lab 2-1,no,mono,no,18,no,white,no,yes,768,legacy,78,78,C:/Users/Edgar/Documents/Edgar School/Fall 2019/Lab 2-1/EJ-subject-1.csv,legacy,Kafkaesque Koffka,3.2.8,0,h,NA,NA,h,NA,h,636,NA,NA,37427,NA,636,2,legacy,1024,2,48000,-16,experiment,SSHSS,1,odd,207942,49436,NA,NA,191149,11987,NA,NA,209281,NA,12006,NA,209388,210028,209271,209387,Flanker task,74,40068,79,yes,1024
93.75,93.75,507.0875,507.0875,black,legacy,legacy,legacy,0,incongruent,uniform,1,undefined,1,s,79,0,0,0,79,0,79,0,79,0,0,0,79,79,79,79,9/20/19 18:01,1500,The main experiment item,yes,Flankertask.osexp,C:/Users/Edgar/Documents/Edgar School/Fall 2019/Lab 2-1,no,mono,no,18,no,white,no,yes,768,legacy,79,79,C:/Users/Edgar/Documents/Edgar School/Fall 2019/Lab 2-1/EJ-subject-1.csv,legacy,Kafkaesque Koffka,3.2.8,0,s,NA,NA,h,NA,s,499,NA,NA,37427,NA,499,2,legacy,1024,2,48000,-16,experiment,HHSHH,1,odd,210080,49436,NA,NA,191149,11987,NA,NA,211423,NA,12006,NA,211529,212031,211413,211529,Flanker task,75,40567,80,yes,1024
93.82716049,93.82716049,507.4320988,507.4320988,black,legacy,legacy,legacy,0,congruent,uniform,1,undefined,1,h,80,0,0,0,80,0,80,0,80,0,0,0,80,80,80,80,9/20/19 18:01,600,The main experiment item,yes,Flankertask.osexp,C:/Users/Edgar/Documents/Edgar School/Fall 2019/Lab 2-1,no,mono,no,18,no,white,no,yes,768,legacy,0,79,C:/Users/Edgar/Documents/Edgar School/Fall 2019/Lab 2-1/EJ-subject-1.csv,legacy,Kafkaesque Koffka,3.2.8,0,h,NA,NA,h,h,h,535,NA,NA,37427,21741,535,2,legacy,1024,2,48000,-16,experiment,HHHHH,1,odd,212089,49436,234881,NA,191149,11987,NA,NA,235291,NA,12006,213136,235398,235938,235283,235398,Flanker task,76,41102,81,yes,1024
93.90243902,93.90243902,506.5121951,506.5121951,black,legacy,legacy,legacy,0,incongruent,uniform,1,undefined,1,s,81,0,0,0,81,0,81,0,81,0,0,0,81,81,81,81,9/20/19 18:01,600,The main experiment item,yes,Flankertask.osexp,C:/Users/Edgar/Documents/Edgar School/Fall 2019/Lab 2-1,no,mono,no,18,no,white,no,yes,768,legacy,1,79,C:/Users/Edgar/Documents/Edgar School/Fall 2019/Lab 2-1/EJ-subject-1.csv,legacy,Kafkaesque Koffka,3.2.8,0,s,NA,NA,h,h,s,432,NA,NA,37427,21741,432,2,legacy,1024,2,48000,-16,experiment,HHSHH,1,odd,235979,49436,234881,NA,191149,11987,NA,NA,237383,NA,12006,213136,237491,237929,237372,237490,Flanker task,77,41534,82,yes,1024
93.97590361,93.97590361,506.060241,506.060241,black,legacy,legacy,legacy,0,congruent,uniform,1,undefined,1,s,82,0,0,0,82,0,82,0,82,0,0,0,82,82,82,82,9/20/19 18:01,600,The main experiment item,yes,Flankertask.osexp,C:/Users/Edgar/Documents/Edgar School/Fall 2019/Lab 2-1,no,mono,no,18,no,white,no,yes,768,legacy,2,79,C:/Users/Edgar/Documents/Edgar School/Fall 2019/Lab 2-1/EJ-subject-1.csv,legacy,Kafkaesque Koffka,3.2.8,0,s,NA,NA,h,h,s,469,NA,NA,37427,21741,469,2,legacy,1024,2,48000,-16,experiment,SSSSS,1,odd,237976,49436,234881,NA,191149,11987,NA,NA,239335,NA,12006,213136,239443,239917,239322,239442,Flanker task,78,42003,83,yes,1024
94.04761905,94.04761905,505.202381,505.202381,black,legacy,legacy,legacy,0,incongruent,uniform,1,undefined,1,h,83,0,0,0,83,0,83,0,83,0,0,0,83,83,83,83,9/20/19 18:01,600,The main experiment item,yes,Flankertask.osexp,C:/Users/Edgar/Documents/Edgar School/Fall 2019/Lab 2-1,no,mono,no,18,no,white,no,yes,768,legacy,3,79,C:/Users/Edgar/Documents/Edgar School/Fall 2019/Lab 2-1/EJ-subject-1.csv,legacy,Kafkaesque Koffka,3.2.8,0,h,NA,NA,h,h,h,434,NA,NA,37427,21741,434,2,legacy,1024,2,48000,-16,experiment,SSHSS,1,odd,239970,49436,234881,NA,191149,11987,NA,NA,241326,NA,12006,213136,241433,241875,241316,241432,Flanker task,79,42437,84,yes,1024
94.11764706,94.11764706,504.8235294,504.8235294,black,legacy,legacy,legacy,0,congruent,uniform,1,undefined,1,h,84,0,0,0,84,0,84,0,84,0,0,0,84,84,84,84,9/20/19 18:01,600,The main experiment item,yes,Flankertask.osexp,C:/Users/Edgar/Documents/Edgar School/Fall 2019/Lab 2-1,no,mono,no,18,no,white,no,yes,768,legacy,4,79,C:/Users/Edgar/Documents/Edgar School/Fall 2019/Lab 2-1/EJ-subject-1.csv,legacy,Kafkaesque Koffka,3.2.8,0,h,NA,NA,h,h,h,473,NA,NA,37427,21741,473,2,legacy,1024,2,48000,-16,experiment,HHHHH,1,odd,241924,49436,234881,NA,191149,11987,NA,NA,243247,NA,12006,213136,243354,243831,243237,243353,Flanker task,80,42910,85,yes,1024
94.18604651,94.18604651,504.5465116,504.5465116,black,legacy,legacy,legacy,0,incongruent,uniform,1,undefined,1,h,85,0,0,0,85,0,85,0,85,0,0,0,85,85,85,85,9/20/19 18:01,600,The main experiment item,yes,Flankertask.osexp,C:/Users/Edgar/Documents/Edgar School/Fall 2019/Lab 2-1,no,mono,no,18,no,white,no,yes,768,legacy,5,79,C:/Users/Edgar/Documents/Edgar School/Fall 2019/Lab 2-1/EJ-subject-1.csv,legacy,Kafkaesque Koffka,3.2.8,0,h,NA,NA,h,h,h,481,NA,NA,37427,21741,481,2,legacy,1024,2,48000,-16,experiment,SSHSS,1,odd,243895,49436,234881,NA,191149,11987,NA,NA,245249,NA,12006,213136,245356,245841,245238,245355,Flanker task,81,43391,86,yes,1024
94.25287356,94.25287356,504.045977,504.045977,black,legacy,legacy,legacy,0,congruent,uniform,1,undefined,1,h,86,0,0,0,86,0,86,0,86,0,0,0,86,86,86,86,9/20/19 18:01,600,The main experiment item,yes,Flankertask.osexp,C:/Users/Edgar/Documents/Edgar School/Fall 2019/Lab 2-1,no,mono,no,18,no,white,no,yes,768,legacy,6,79,C:/Users/Edgar/Documents/Edgar School/Fall 2019/Lab 2-1/EJ-subject-1.csv,legacy,Kafkaesque Koffka,3.2.8,0,h,NA,NA,h,h,h,461,NA,NA,37427,21741,461,2,legacy,1024,2,48000,-16,experiment,HHHHH,1,odd,245907,49436,234881,NA,191149,11987,NA,NA,247235,NA,12006,213136,247343,247808,247225,247342,Flanker task,82,43852,87,yes,1024
94.31818182,94.31818182,503.3977273,503.3977273,black,legacy,legacy,legacy,0,congruent,uniform,1,undefined,1,s,87,0,0,0,87,0,87,0,87,0,0,0,87,87,87,87,9/20/19 18:01,600,The main experiment item,yes,Flankertask.osexp,C:/Users/Edgar/Documents/Edgar School/Fall 2019/Lab 2-1,no,mono,no,18,no,white,no,yes,768,legacy,7,79,C:/Users/Edgar/Documents/Edgar School/Fall 2019/Lab 2-1/EJ-subject-1.csv,legacy,Kafkaesque Koffka,3.2.8,0,s,NA,NA,h,h,s,447,NA,NA,37427,21741,447,2,legacy,1024,2,48000,-16,experiment,SSSSS,1,odd,247866,49436,234881,NA,191149,11987,NA,NA,249186,NA,12006,213136,249293,249745,249175,249293,Flanker task,83,44299,88,yes,1024
93.25842697,93.25842697,503.741573,503.741573,black,legacy,legacy,legacy,0,incongruent,uniform,0,undefined,0,h,88,0,0,0,88,0,88,0,88,0,0,0,88,88,88,88,9/20/19 18:01,600,The main experiment item,yes,Flankertask.osexp,C:/Users/Edgar/Documents/Edgar School/Fall 2019/Lab 2-1,no,mono,no,18,no,white,no,yes,768,legacy,8,79,C:/Users/Edgar/Documents/Edgar School/Fall 2019/Lab 2-1/EJ-subject-1.csv,legacy,Kafkaesque Koffka,3.2.8,0,s,NA,NA,h,h,s,534,NA,NA,37427,21741,534,2,legacy,1024,2,48000,-16,experiment,SSHSS,1,odd,249809,49436,234881,NA,191149,11987,NA,NA,251156,NA,12006,213136,251264,251807,251145,251264,Flanker task,83,44833,89,yes,1024
93.33333333,93.33333333,503.6555556,503.6555556,black,legacy,legacy,legacy,0,congruent,uniform,1,undefined,1,h,89,0,0,0,89,0,89,0,89,0,0,0,89,89,89,89,9/20/19 18:01,600,The main experiment item,yes,Flankertask.osexp,C:/Users/Edgar/Documents/Edgar School/Fall 2019/Lab 2-1,no,mono,no,18,no,white,no,yes,768,legacy,9,79,C:/Users/Edgar/Documents/Edgar School/Fall 2019/Lab 2-1/EJ-subject-1.csv,legacy,Kafkaesque Koffka,3.2.8,0,h,NA,NA,h,h,h,496,NA,NA,37427,21741,496,2,legacy,1024,2,48000,-16,experiment,HHHHH,1,odd,252381,49436,234881,NA,251875,11987,NA,NA,253700,NA,12006,213136,253807,254307,253688,253806,Flanker task,84,45329,90,yes,1024
93.40659341,93.40659341,503.6813187,503.6813187,black,legacy,legacy,legacy,0,incongruent,uniform,1,undefined,1,h,90,0,0,0,90,0,90,0,90,0,0,0,90,90,90,90,9/20/19 18:01,600,The main experiment item,yes,Flankertask.osexp,C:/Users/Edgar/Documents/Edgar School/Fall 2019/Lab 2-1,no,mono,no,18,no,white,no,yes,768,legacy,10,79,C:/Users/Edgar/Documents/Edgar School/Fall 2019/Lab 2-1/EJ-subject-1.csv,legacy,Kafkaesque Koffka,3.2.8,0,h,NA,NA,h,h,h,506,NA,NA,37427,21741,506,2,legacy,1024,2,48000,-16,experiment,SSHSS,1,odd,254334,49436,234881,NA,251875,11987,NA,NA,255679,NA,12006,213136,255786,256296,255669,255785,Flanker task,85,45835,91,yes,1024
93.47826087,93.47826087,503.9021739,503.9021739,black,legacy,legacy,legacy,0,congruent,uniform,1,undefined,1,s,91,0,0,0,91,0,91,0,91,0,0,0,91,91,91,91,9/20/19 18:01,600,The main experiment item,yes,Flankertask.osexp,C:/Users/Edgar/Documents/Edgar School/Fall 2019/Lab 2-1,no,mono,no,18,no,white,no,yes,768,legacy,11,79,C:/Users/Edgar/Documents/Edgar School/Fall 2019/Lab 2-1/EJ-subject-1.csv,legacy,Kafkaesque Koffka,3.2.8,0,s,NA,NA,h,h,s,524,NA,NA,37427,21741,524,2,legacy,1024,2,48000,-16,experiment,SSSSS,1,odd,256345,49436,234881,NA,251875,11987,NA,NA,257888,NA,12006,213136,257996,258524,257877,257995,Flanker task,86,46359,92,yes,1024
93.5483871,93.5483871,503.0537634,503.0537634,black,legacy,legacy,legacy,0,incongruent,uniform,1,undefined,1,h,92,0,0,0,92,0,92,0,92,0,0,0,92,92,92,92,9/20/19 18:01,600,The main experiment item,yes,Flankertask.osexp,C:/Users/Edgar/Documents/Edgar School/Fall 2019/Lab 2-1,no,mono,no,18,no,white,no,yes,768,legacy,12,79,C:/Users/Edgar/Documents/Edgar School/Fall 2019/Lab 2-1/EJ-subject-1.csv,legacy,Kafkaesque Koffka,3.2.8,0,h,NA,NA,h,h,h,425,NA,NA,37427,21741,425,2,legacy,1024,2,48000,-16,experiment,SSHSS,1,odd,258588,49436,234881,NA,251875,11987,NA,NA,259905,NA,12006,213136,260012,260441,259895,260011,Flanker task,87,46784,93,yes,1024
93.61702128,93.61702128,502.7021277,502.7021277,black,legacy,legacy,legacy,0,congruent,uniform,1,undefined,1,s,93,0,0,0,93,0,93,0,93,0,0,0,93,93,93,93,9/20/19 18:01,600,The main experiment item,yes,Flankertask.osexp,C:/Users/Edgar/Documents/Edgar School/Fall 2019/Lab 2-1,no,mono,no,18,no,white,no,yes,768,legacy,13,79,C:/Users/Edgar/Documents/Edgar School/Fall 2019/Lab 2-1/EJ-subject-1.csv,legacy,Kafkaesque Koffka,3.2.8,0,s,NA,NA,h,h,s,470,NA,NA,37427,21741,470,2,legacy,1024,2,48000,-16,experiment,SSSSS,1,odd,260492,49436,234881,NA,251875,11987,NA,NA,261827,NA,12006,213136,261934,262411,261817,261934,Flanker task,88,47254,94,yes,1024
93.68421053,93.68421053,502.3894737,502.3894737,black,legacy,legacy,legacy,0,congruent,uniform,1,undefined,1,h,94,0,0,0,94,0,94,0,94,0,0,0,94,94,94,94,9/20/19 18:01,600,The main experiment item,yes,Flankertask.osexp,C:/Users/Edgar/Documents/Edgar School/Fall 2019/Lab 2-1,no,mono,no,18,no,white,no,yes,768,legacy,14,79,C:/Users/Edgar/Documents/Edgar School/Fall 2019/Lab 2-1/EJ-subject-1.csv,legacy,Kafkaesque Koffka,3.2.8,0,h,NA,NA,h,h,h,473,NA,NA,37427,21741,473,2,legacy,1024,2,48000,-16,experiment,HHHHH,1,odd,262470,49436,234881,NA,251875,11987,NA,NA,263814,NA,12006,213136,263921,264398,263804,263920,Flanker task,89,47727,95,yes,1024
92.70833333,92.70833333,502.2395833,502.2395833,black,legacy,legacy,legacy,0,incongruent,uniform,0,undefined,0,s,95,0,0,0,95,0,95,0,95,0,0,0,95,95,95,95,9/20/19 18:01,600,The main experiment item,yes,Flankertask.osexp,C:/Users/Edgar/Documents/Edgar School/Fall 2019/Lab 2-1,no,mono,no,18,no,white,no,yes,768,legacy,15,79,C:/Users/Edgar/Documents/Edgar School/Fall 2019/Lab 2-1/EJ-subject-1.csv,legacy,Kafkaesque Koffka,3.2.8,0,h,NA,NA,h,h,h,488,NA,NA,37427,21741,488,2,legacy,1024,2,48000,-16,experiment,HHSHH,1,odd,264478,49436,234881,NA,251875,11987,NA,NA,265796,NA,12006,213136,265903,266395,265785,265903,Flanker task,89,48215,96,yes,1024
92.78350515,92.78350515,503.0618557,503.0618557,black,legacy,legacy,legacy,0,congruent,uniform,1,undefined,1,s,96,0,0,0,96,0,96,0,96,0,0,0,96,96,96,96,9/20/19 18:01,600,The main experiment item,yes,Flankertask.osexp,C:/Users/Edgar/Documents/Edgar School/Fall 2019/Lab 2-1,no,mono,no,18,no,white,no,yes,768,legacy,16,79,C:/Users/Edgar/Documents/Edgar School/Fall 2019/Lab 2-1/EJ-subject-1.csv,legacy,Kafkaesque Koffka,3.2.8,0,s,NA,NA,h,h,s,582,NA,NA,37427,21741,582,2,legacy,1024,2,48000,-16,experiment,SSSSS,1,odd,266984,49436,234881,NA,266475,11987,NA,NA,268321,NA,12006,213136,268429,269016,268311,268429,Flanker task,90,48797,97,yes,1024
92.85714286,92.85714286,503.755102,503.755102,black,legacy,legacy,legacy,0,incongruent,uniform,1,undefined,1,h,97,0,0,0,97,0,97,0,97,0,0,0,97,97,97,97,9/20/19 18:01,600,The main experiment item,yes,Flankertask.osexp,C:/Users/Edgar/Documents/Edgar School/Fall 2019/Lab 2-1,no,mono,no,18,no,white,no,yes,768,legacy,17,79,C:/Users/Edgar/Documents/Edgar School/Fall 2019/Lab 2-1/EJ-subject-1.csv,legacy,Kafkaesque Koffka,3.2.8,0,h,NA,NA,h,h,h,571,NA,NA,37427,21741,571,2,legacy,1024,2,48000,-16,experiment,SSHSS,1,odd,269072,49436,234881,NA,266475,11987,NA,NA,270443,NA,12006,213136,270553,271128,270431,270552,Flanker task,91,49368,98,yes,1024
92.92929293,92.92929293,503.959596,503.959596,black,legacy,legacy,legacy,0,incongruent,uniform,1,undefined,1,h,98,0,0,0,98,0,98,0,98,0,0,0,98,98,98,98,9/20/19 18:01,600,The main experiment item,yes,Flankertask.osexp,C:/Users/Edgar/Documents/Edgar School/Fall 2019/Lab 2-1,no,mono,no,18,no,white,no,yes,768,legacy,18,79,C:/Users/Edgar/Documents/Edgar School/Fall 2019/Lab 2-1/EJ-subject-1.csv,legacy,Kafkaesque Koffka,3.2.8,0,h,NA,NA,h,h,h,524,NA,NA,37427,21741,524,2,legacy,1024,2,48000,-16,experiment,SSHSS,1,odd,271166,49436,234881,NA,266475,11987,NA,NA,272492,NA,12006,213136,272601,273129,272482,272601,Flanker task,92,49892,99,yes,1024
93,93,504.64,504.64,black,legacy,legacy,legacy,0,incongruent,uniform,1,undefined,1,s,99,0,0,0,99,0,99,0,99,0,0,0,99,99,99,99,9/20/19 18:01,600,The main experiment item,yes,Flankertask.osexp,C:/Users/Edgar/Documents/Edgar School/Fall 2019/Lab 2-1,no,mono,no,18,no,white,no,yes,768,legacy,19,79,C:/Users/Edgar/Documents/Edgar School/Fall 2019/Lab 2-1/EJ-subject-1.csv,legacy,Kafkaesque Koffka,3.2.8,0,s,NA,NA,h,h,s,572,NA,NA,37427,21741,572,2,legacy,1024,2,48000,-16,experiment,HHSHH,1,odd,273166,49436,234881,NA,266475,11987,NA,NA,274484,NA,12006,213136,274592,275168,274474,274591,Flanker task,93,50464,100,yes,1024
93.06930693,93.06930693,505.5841584,505.5841584,black,legacy,legacy,legacy,0,incongruent,uniform,1,undefined,1,s,100,0,0,0,100,0,100,0,100,0,0,0,100,100,100,100,9/20/19 18:01,600,The main experiment item,yes,Flankertask.osexp,C:/Users/Edgar/Documents/Edgar School/Fall 2019/Lab 2-1,no,mono,no,18,no,white,no,yes,768,legacy,20,79,C:/Users/Edgar/Documents/Edgar School/Fall 2019/Lab 2-1/EJ-subject-1.csv,legacy,Kafkaesque Koffka,3.2.8,0,s,NA,NA,h,h,s,600,NA,NA,37427,21741,600,2,legacy,1024,2,48000,-16,experiment,HHSHH,1,odd,275203,49436,234881,NA,266475,11987,NA,NA,276539,NA,12006,213136,276646,277250,276529,276645,Flanker task,94,51064,101,yes,1024
93.1372549,93.1372549,505.8333333,505.8333333,black,legacy,legacy,legacy,0,incongruent,uniform,1,undefined,1,h,101,0,0,0,101,0,101,0,101,0,0,0,101,101,101,101,9/20/19 18:01,600,The main experiment item,yes,Flankertask.osexp,C:/Users/Edgar/Documents/Edgar School/Fall 2019/Lab 2-1,no,mono,no,18,no,white,no,yes,768,legacy,21,79,C:/Users/Edgar/Documents/Edgar School/Fall 2019/Lab 2-1/EJ-subject-1.csv,legacy,Kafkaesque Koffka,3.2.8,0,h,NA,NA,h,h,h,531,NA,NA,37427,21741,531,2,legacy,1024,2,48000,-16,experiment,SSHSS,1,odd,277315,49436,234881,NA,266475,11987,NA,NA,278652,NA,12006,213136,278759,279294,278642,278759,Flanker task,95,51595,102,yes,1024
93.2038835,93.2038835,505.4563107,505.4563107,black,legacy,legacy,legacy,0,congruent,uniform,1,undefined,1,h,102,0,0,0,102,0,102,0,102,0,0,0,102,102,102,102,9/20/19 18:01,600,The main experiment item,yes,Flankertask.osexp,C:/Users/Edgar/Documents/Edgar School/Fall 2019/Lab 2-1,no,mono,no,18,no,white,no,yes,768,legacy,22,79,C:/Users/Edgar/Documents/Edgar School/Fall 2019/Lab 2-1/EJ-subject-1.csv,legacy,Kafkaesque Koffka,3.2.8,0,h,NA,NA,h,h,h,467,NA,NA,37427,21741,467,2,legacy,1024,2,48000,-16,experiment,HHHHH,1,odd,279345,49436,234881,NA,266475,11987,NA,NA,280687,NA,12006,213136,280797,281268,280676,280797,Flanker task,96,52062,103,yes,1024
93.26923077,93.26923077,506.1538462,506.1538462,black,legacy,legacy,legacy,0,incongruent,uniform,1,undefined,1,s,103,0,0,0,103,0,103,0,103,0,0,0,103,103,103,103,9/20/19 18:01,600,The main experiment item,yes,Flankertask.osexp,C:/Users/Edgar/Documents/Edgar School/Fall 2019/Lab 2-1,no,mono,no,18,no,white,no,yes,768,legacy,23,79,C:/Users/Edgar/Documents/Edgar School/Fall 2019/Lab 2-1/EJ-subject-1.csv,legacy,Kafkaesque Koffka,3.2.8,0,s,NA,NA,h,h,s,578,NA,NA,37427,21741,578,2,legacy,1024,2,48000,-16,experiment,HHSHH,1,odd,281309,49436,234881,NA,266475,11987,NA,NA,282642,NA,12006,213136,282749,283332,282628,282748,Flanker task,97,52640,104,yes,1024
93.33333333,93.33333333,506.6285714,506.6285714,black,legacy,legacy,legacy,0,incongruent,uniform,1,undefined,1,s,104,0,0,0,104,0,104,0,104,0,0,0,104,104,104,104,9/20/19 18:01,600,The main experiment item,yes,Flankertask.osexp,C:/Users/Edgar/Documents/Edgar School/Fall 2019/Lab 2-1,no,mono,no,18,no,white,no,yes,768,legacy,24,79,C:/Users/Edgar/Documents/Edgar School/Fall 2019/Lab 2-1/EJ-subject-1.csv,legacy,Kafkaesque Koffka,3.2.8,0,s,NA,NA,h,h,s,556,NA,NA,37427,21741,556,2,legacy,1024,2,48000,-16,experiment,HHSHH,1,odd,283391,49436,234881,NA,266475,11987,NA,NA,284707,NA,12006,213136,284814,285376,284696,284814,Flanker task,98,53196,105,yes,1024
93.39622642,93.39622642,506.8207547,506.8207547,black,legacy,legacy,legacy,0,congruent,uniform,1,undefined,1,s,105,0,0,0,105,0,105,0,105,0,0,0,105,105,105,105,9/20/19 18:01,600,The main experiment item,yes,Flankertask.osexp,C:/Users/Edgar/Documents/Edgar School/Fall 2019/Lab 2-1,no,mono,no,18,no,white,no,yes,768,legacy,25,79,C:/Users/Edgar/Documents/Edgar School/Fall 2019/Lab 2-1/EJ-subject-1.csv,legacy,Kafkaesque Koffka,3.2.8,0,s,NA,NA,h,h,s,527,NA,NA,37427,21741,527,2,legacy,1024,2,48000,-16,experiment,SSSSS,1,odd,285422,49436,234881,NA,266475,11987,NA,NA,286755,NA,12006,213136,286862,287393,286745,286861,Flanker task,99,53723,106,yes,1024
93.45794393,93.45794393,505.8411215,505.8411215,black,legacy,legacy,legacy,0,congruent,uniform,1,undefined,1,h,106,0,0,0,106,0,106,0,106,0,0,0,106,106,106,106,9/20/19 18:01,600,The main experiment item,yes,Flankertask.osexp,C:/Users/Edgar/Documents/Edgar School/Fall 2019/Lab 2-1,no,mono,no,18,no,white,no,yes,768,legacy,26,79,C:/Users/Edgar/Documents/Edgar School/Fall 2019/Lab 2-1/EJ-subject-1.csv,legacy,Kafkaesque Koffka,3.2.8,0,h,NA,NA,h,h,h,402,NA,NA,37427,21741,402,2,legacy,1024,2,48000,-16,experiment,HHHHH,1,odd,287457,49436,234881,NA,266475,11987,NA,NA,288810,NA,12006,213136,288918,289325,288798,288917,Flanker task,100,54125,107,yes,1024
93.51851852,93.51851852,505.25,505.25,black,legacy,legacy,legacy,0,congruent,uniform,1,undefined,1,h,107,0,0,0,107,0,107,0,107,0,0,0,107,107,107,107,9/20/19 18:01,600,The main experiment item,yes,Flankertask.osexp,C:/Users/Edgar/Documents/Edgar School/Fall 2019/Lab 2-1,no,mono,no,18,no,white,no,yes,768,legacy,27,79,C:/Users/Edgar/Documents/Edgar School/Fall 2019/Lab 2-1/EJ-subject-1.csv,legacy,Kafkaesque Koffka,3.2.8,0,h,NA,NA,h,h,h,442,NA,NA,37427,21741,442,2,legacy,1024,2,48000,-16,experiment,HHHHH,1,odd,289382,49436,234881,NA,266475,11987,NA,NA,290702,NA,12006,213136,290808,291255,290692,290808,Flanker task,101,54567,108,yes,1024
93.57798165,93.57798165,505.146789,505.146789,black,legacy,legacy,legacy,0,congruent,uniform,1,undefined,1,s,108,0,0,0,108,0,108,0,108,0,0,0,108,108,108,108,9/20/19 18:01,600,The main experiment item,yes,Flankertask.osexp,C:/Users/Edgar/Documents/Edgar School/Fall 2019/Lab 2-1,no,mono,no,18,no,white,no,yes,768,legacy,28,79,C:/Users/Edgar/Documents/Edgar School/Fall 2019/Lab 2-1/EJ-subject-1.csv,legacy,Kafkaesque Koffka,3.2.8,0,s,NA,NA,h,h,s,494,NA,NA,37427,21741,494,2,legacy,1024,2,48000,-16,experiment,SSSSS,1,odd,291327,49436,234881,NA,266475,11987,NA,NA,292704,NA,12006,213136,292811,293310,292693,292810,Flanker task,102,55061,109,yes,1024
93.63636364,93.63636364,505.3636364,505.3636364,black,legacy,legacy,legacy,0,incongruent,uniform,1,undefined,1,h,109,0,0,0,109,0,109,0,109,0,0,0,109,109,109,109,9/20/19 18:01,600,The main experiment item,yes,Flankertask.osexp,C:/Users/Edgar/Documents/Edgar School/Fall 2019/Lab 2-1,no,mono,no,18,no,white,no,yes,768,legacy,29,79,C:/Users/Edgar/Documents/Edgar School/Fall 2019/Lab 2-1/EJ-subject-1.csv,legacy,Kafkaesque Koffka,3.2.8,0,h,NA,NA,h,h,h,529,NA,NA,37427,21741,529,2,legacy,1024,2,48000,-16,experiment,SSHSS,1,odd,293380,49436,234881,NA,266475,11987,NA,NA,294715,NA,12006,213136,294822,295362,294704,294822,Flanker task,103,55590,110,yes,1024
93.69369369,93.69369369,505.1531532,505.1531532,black,legacy,legacy,legacy,0,congruent,uniform,1,undefined,1,s,110,0,0,0,110,0,110,0,110,0,0,0,110,110,110,110,9/20/19 18:01,600,The main experiment item,yes,Flankertask.osexp,C:/Users/Edgar/Documents/Edgar School/Fall 2019/Lab 2-1,no,mono,no,18,no,white,no,yes,768,legacy,30,79,C:/Users/Edgar/Documents/Edgar School/Fall 2019/Lab 2-1/EJ-subject-1.csv,legacy,Kafkaesque Koffka,3.2.8,0,s,NA,NA,h,h,s,482,NA,NA,37427,21741,482,2,legacy,1024,2,48000,-16,experiment,SSSSS,1,odd,295469,49436,234881,NA,266475,11987,NA,NA,296872,NA,12006,213136,296979,297467,296861,296978,Flanker task,104,56072,111,yes,1024
93.75,93.75,505.2946429,505.2946429,black,legacy,legacy,legacy,0,congruent,uniform,1,undefined,1,s,111,0,0,0,111,0,111,0,111,0,0,0,111,111,111,111,9/20/19 18:01,600,The main experiment item,yes,Flankertask.osexp,C:/Users/Edgar/Documents/Edgar School/Fall 2019/Lab 2-1,no,mono,no,18,no,white,no,yes,768,legacy,31,79,C:/Users/Edgar/Documents/Edgar School/Fall 2019/Lab 2-1/EJ-subject-1.csv,legacy,Kafkaesque Koffka,3.2.8,0,s,NA,NA,h,h,s,521,NA,NA,37427,21741,521,2,legacy,1024,2,48000,-16,experiment,SSSSS,1,odd,297539,49436,234881,NA,266475,11987,NA,NA,298942,NA,12006,213136,299050,299578,298931,299050,Flanker task,105,56593,112,yes,1024
93.80530973,93.80530973,505.4690265,505.4690265,black,legacy,legacy,legacy,0,incongruent,uniform,1,undefined,1,s,112,0,0,0,112,0,112,0,112,0,0,0,112,112,112,112,9/20/19 18:01,600,The main experiment item,yes,Flankertask.osexp,C:/Users/Edgar/Documents/Edgar School/Fall 2019/Lab 2-1,no,mono,no,18,no,white,no,yes,768,legacy,32,79,C:/Users/Edgar/Documents/Edgar School/Fall 2019/Lab 2-1/EJ-subject-1.csv,legacy,Kafkaesque Koffka,3.2.8,0,s,NA,NA,h,h,s,525,NA,NA,37427,21741,525,2,legacy,1024,2,48000,-16,experiment,HHSHH,1,odd,299646,49436,234881,NA,266475,11987,NA,NA,301071,NA,12006,213136,301179,301711,301061,301178,Flanker task,106,57118,113,yes,1024
93.85964912,93.85964912,504.9035088,504.9035088,black,legacy,legacy,legacy,0,incongruent,uniform,1,undefined,1,h,113,0,0,0,113,0,113,0,113,0,0,0,113,113,113,113,9/20/19 18:01,600,The main experiment item,yes,Flankertask.osexp,C:/Users/Edgar/Documents/Edgar School/Fall 2019/Lab 2-1,no,mono,no,18,no,white,no,yes,768,legacy,33,79,C:/Users/Edgar/Documents/Edgar School/Fall 2019/Lab 2-1/EJ-subject-1.csv,legacy,Kafkaesque Koffka,3.2.8,0,h,NA,NA,h,h,h,441,NA,NA,37427,21741,441,2,legacy,1024,2,48000,-16,experiment,SSHSS,1,odd,301775,49436,234881,NA,266475,11987,NA,NA,303164,NA,12006,213136,303273,303720,303152,303273,Flanker task,107,57559,114,yes,1024
93.91304348,93.91304348,504.7565217,504.7565217,black,legacy,legacy,legacy,0,congruent,uniform,1,undefined,1,h,114,0,0,0,114,0,114,0,114,0,0,0,114,114,114,114,9/20/19 18:01,600,The main experiment item,yes,Flankertask.osexp,C:/Users/Edgar/Documents/Edgar School/Fall 2019/Lab 2-1,no,mono,no,18,no,white,no,yes,768,legacy,34,79,C:/Users/Edgar/Documents/Edgar School/Fall 2019/Lab 2-1/EJ-subject-1.csv,legacy,Kafkaesque Koffka,3.2.8,0,h,NA,NA,h,h,h,488,NA,NA,37427,21741,488,2,legacy,1024,2,48000,-16,experiment,HHHHH,1,odd,303795,49436,234881,NA,266475,11987,NA,NA,305199,NA,12006,213136,305308,305805,305188,305307,Flanker task,108,58047,115,yes,1024
93.96551724,93.96551724,505.1982759,505.1982759,black,legacy,legacy,legacy,0,incongruent,uniform,1,undefined,1,h,115,0,0,0,115,0,115,0,115,0,0,0,115,115,115,115,9/20/19 18:01,600,The main experiment item,yes,Flankertask.osexp,C:/Users/Edgar/Documents/Edgar School/Fall 2019/Lab 2-1,no,mono,no,18,no,white,no,yes,768,legacy,35,79,C:/Users/Edgar/Documents/Edgar School/Fall 2019/Lab 2-1/EJ-subject-1.csv,legacy,Kafkaesque Koffka,3.2.8,0,h,NA,NA,h,h,h,556,NA,NA,37427,21741,556,2,legacy,1024,2,48000,-16,experiment,SSHSS,1,odd,305864,49436,234881,NA,266475,11987,NA,NA,307221,NA,12006,213136,307329,307895,307211,307328,Flanker task,109,58603,116,yes,1024
94.01709402,94.01709402,506.5897436,506.5897436,black,legacy,legacy,legacy,0,incongruent,uniform,1,undefined,1,s,116,0,0,0,116,0,116,0,116,0,0,0,116,116,116,116,9/20/19 18:01,600,The main experiment item,yes,Flankertask.osexp,C:/Users/Edgar/Documents/Edgar School/Fall 2019/Lab 2-1,no,mono,no,18,no,white,no,yes,768,legacy,36,79,C:/Users/Edgar/Documents/Edgar School/Fall 2019/Lab 2-1/EJ-subject-1.csv,legacy,Kafkaesque Koffka,3.2.8,0,s,NA,NA,h,h,s,668,NA,NA,37427,21741,668,2,legacy,1024,2,48000,-16,experiment,HHSHH,1,odd,308001,49436,234881,NA,266475,11987,NA,NA,309432,NA,12006,213136,309540,310214,309420,309540,Flanker task,110,59271,117,yes,1024
94.06779661,94.06779661,506.2881356,506.2881356,black,legacy,legacy,legacy,0,incongruent,uniform,1,undefined,1,h,117,0,0,0,117,0,117,0,117,0,0,0,117,117,117,117,9/20/19 18:01,600,The main experiment item,yes,Flankertask.osexp,C:/Users/Edgar/Documents/Edgar School/Fall 2019/Lab 2-1,no,mono,no,18,no,white,no,yes,768,legacy,37,79,C:/Users/Edgar/Documents/Edgar School/Fall 2019/Lab 2-1/EJ-subject-1.csv,legacy,Kafkaesque Koffka,3.2.8,0,h,NA,NA,h,h,h,471,NA,NA,37427,21741,471,2,legacy,1024,2,48000,-16,experiment,SSHSS,1,odd,310784,49436,234881,NA,266475,11987,310273,NA,312176,NA,12006,213136,312284,312764,312164,312284,Flanker task,111,59742,118,yes,1024
94.11764706,94.11764706,506.3361345,506.3361345,black,legacy,legacy,legacy,0,congruent,uniform,1,undefined,1,s,118,0,0,0,118,0,118,0,118,0,0,0,118,118,118,118,9/20/19 18:01,600,The main experiment item,yes,Flankertask.osexp,C:/Users/Edgar/Documents/Edgar School/Fall 2019/Lab 2-1,no,mono,no,18,no,white,no,yes,768,legacy,38,79,C:/Users/Edgar/Documents/Edgar School/Fall 2019/Lab 2-1/EJ-subject-1.csv,legacy,Kafkaesque Koffka,3.2.8,0,s,NA,NA,h,h,s,512,NA,NA,37427,21741,512,2,legacy,1024,2,48000,-16,experiment,SSSSS,1,odd,312841,49436,234881,NA,266475,11987,310273,NA,314256,NA,12006,213136,314363,314881,314244,314363,Flanker task,112,60254,119,yes,1024
94.16666667,94.16666667,505.5583333,505.5583333,black,legacy,legacy,legacy,0,congruent,uniform,1,undefined,1,h,119,0,0,0,119,0,119,0,119,0,0,0,119,119,119,119,9/20/19 18:01,600,The main experiment item,yes,Flankertask.osexp,C:/Users/Edgar/Documents/Edgar School/Fall 2019/Lab 2-1,no,mono,no,18,no,white,no,yes,768,legacy,39,79,C:/Users/Edgar/Documents/Edgar School/Fall 2019/Lab 2-1/EJ-subject-1.csv,legacy,Kafkaesque Koffka,3.2.8,0,h,NA,NA,h,h,h,413,NA,NA,37427,21741,413,2,legacy,1024,2,48000,-16,experiment,HHHHH,1,odd,314938,49436,234881,NA,266475,11987,310273,NA,316351,NA,12006,213136,316461,316879,316339,316460,Flanker task,113,60667,120,yes,1024
94.21487603,94.21487603,505.0826446,505.0826446,black,legacy,legacy,legacy,0,incongruent,uniform,1,undefined,1,h,120,0,0,0,120,0,120,0,120,0,0,0,120,120,120,120,9/20/19 18:01,600,The main experiment item,yes,Flankertask.osexp,C:/Users/Edgar/Documents/Edgar School/Fall 2019/Lab 2-1,no,mono,no,18,no,white,no,yes,768,legacy,40,79,C:/Users/Edgar/Documents/Edgar School/Fall 2019/Lab 2-1/EJ-subject-1.csv,legacy,Kafkaesque Koffka,3.2.8,0,h,NA,NA,h,h,h,448,NA,NA,37427,21741,448,2,legacy,1024,2,48000,-16,experiment,SSHSS,1,odd,316973,49436,234881,NA,266475,11987,310273,NA,318370,NA,12006,213136,318479,318934,318359,318478,Flanker task,114,61115,121,yes,1024
94.26229508,94.26229508,504.5327869,504.5327869,black,legacy,legacy,legacy,0,incongruent,uniform,1,undefined,1,h,121,0,0,0,121,0,121,0,121,0,0,0,121,121,121,121,9/20/19 18:01,600,The main experiment item,yes,Flankertask.osexp,C:/Users/Edgar/Documents/Edgar School/Fall 2019/Lab 2-1,no,mono,no,18,no,white,no,yes,768,legacy,41,79,C:/Users/Edgar/Documents/Edgar School/Fall 2019/Lab 2-1/EJ-subject-1.csv,legacy,Kafkaesque Koffka,3.2.8,0,h,NA,NA,h,h,h,438,NA,NA,37427,21741,438,2,legacy,1024,2,48000,-16,experiment,SSHSS,1,odd,318982,49436,234881,NA,266475,11987,310273,NA,320364,NA,12006,213136,320471,320914,320353,320471,Flanker task,115,61553,122,yes,1024
94.30894309,94.30894309,504.6910569,504.6910569,black,legacy,legacy,legacy,0,incongruent,uniform,1,undefined,1,s,122,0,0,0,122,0,122,0,122,0,0,0,122,122,122,122,9/20/19 18:01,600,The main experiment item,yes,Flankertask.osexp,C:/Users/Edgar/Documents/Edgar School/Fall 2019/Lab 2-1,no,mono,no,18,no,white,no,yes,768,legacy,42,79,C:/Users/Edgar/Documents/Edgar School/Fall 2019/Lab 2-1/EJ-subject-1.csv,legacy,Kafkaesque Koffka,3.2.8,0,s,NA,NA,h,h,s,524,NA,NA,37427,21741,524,2,legacy,1024,2,48000,-16,experiment,HHSHH,1,odd,320968,49436,234881,NA,266475,11987,310273,NA,322302,NA,12006,213136,322408,322938,322292,322408,Flanker task,116,62077,123,yes,1024
94.35483871,94.35483871,504.3064516,504.3064516,black,legacy,legacy,legacy,0,congruent,uniform,1,undefined,1,s,123,0,0,0,123,0,123,0,123,0,0,0,123,123,123,123,9/20/19 18:01,600,The main experiment item,yes,Flankertask.osexp,C:/Users/Edgar/Documents/Edgar School/Fall 2019/Lab 2-1,no,mono,no,18,no,white,no,yes,768,legacy,43,79,C:/Users/Edgar/Documents/Edgar School/Fall 2019/Lab 2-1/EJ-subject-1.csv,legacy,Kafkaesque Koffka,3.2.8,0,s,NA,NA,h,h,s,457,NA,NA,37427,21741,457,2,legacy,1024,2,48000,-16,experiment,SSSSS,1,odd,323009,49436,234881,NA,266475,11987,310273,NA,324330,NA,12006,213136,324437,324899,324319,324437,Flanker task,117,62534,124,yes,1024
94.4,94.4,504.232,504.232,black,legacy,legacy,legacy,0,congruent,uniform,1,undefined,1,s,124,0,0,0,124,0,124,0,124,0,0,0,124,124,124,124,9/20/19 18:01,600,The main experiment item,yes,Flankertask.osexp,C:/Users/Edgar/Documents/Edgar School/Fall 2019/Lab 2-1,no,mono,no,18,no,white,no,yes,768,legacy,44,79,C:/Users/Edgar/Documents/Edgar School/Fall 2019/Lab 2-1/EJ-subject-1.csv,legacy,Kafkaesque Koffka,3.2.8,0,s,NA,NA,h,h,s,495,NA,NA,37427,21741,495,2,legacy,1024,2,48000,-16,experiment,SSSSS,1,odd,325040,49436,234881,NA,266475,11987,310273,NA,326447,NA,12006,213136,326557,327063,326435,326557,Flanker task,118,63029,125,yes,1024
94.44444444,94.44444444,503.484127,503.484127,black,legacy,legacy,legacy,0,congruent,uniform,1,undefined,1,h,125,0,0,0,125,0,125,0,125,0,0,0,125,125,125,125,9/20/19 18:01,600,The main experiment item,yes,Flankertask.osexp,C:/Users/Edgar/Documents/Edgar School/Fall 2019/Lab 2-1,no,mono,no,18,no,white,no,yes,768,legacy,45,79,C:/Users/Edgar/Documents/Edgar School/Fall 2019/Lab 2-1/EJ-subject-1.csv,legacy,Kafkaesque Koffka,3.2.8,0,h,NA,NA,h,h,h,410,NA,NA,37427,21741,410,2,legacy,1024,2,48000,-16,experiment,HHHHH,1,odd,327141,49436,234881,NA,266475,11987,310273,NA,328547,NA,12006,213136,328655,329071,328535,328654,Flanker task,119,63439,126,yes,1024
94.48818898,94.48818898,503.0944882,503.0944882,black,legacy,legacy,legacy,0,congruent,uniform,1,undefined,1,h,126,0,0,0,126,0,126,0,126,0,0,0,126,126,126,126,9/20/19 18:01,600,The main experiment item,yes,Flankertask.osexp,C:/Users/Edgar/Documents/Edgar School/Fall 2019/Lab 2-1,no,mono,no,18,no,white,no,yes,768,legacy,46,79,C:/Users/Edgar/Documents/Edgar School/Fall 2019/Lab 2-1/EJ-subject-1.csv,legacy,Kafkaesque Koffka,3.2.8,0,h,NA,NA,h,h,h,454,NA,NA,37427,21741,454,2,legacy,1024,2,48000,-16,experiment,HHHHH,1,odd,329171,49436,234881,NA,266475,11987,310273,NA,330614,NA,12006,213136,330721,331183,330600,330721,Flanker task,120,63893,127,yes,1024
94.53125,94.53125,502.4921875,502.4921875,black,legacy,legacy,legacy,0,congruent,uniform,1,undefined,1,h,127,0,0,0,127,0,127,0,127,0,0,0,127,127,127,127,9/20/19 18:01,600,The main experiment item,yes,Flankertask.osexp,C:/Users/Edgar/Documents/Edgar School/Fall 2019/Lab 2-1,no,mono,no,18,no,white,no,yes,768,legacy,47,79,C:/Users/Edgar/Documents/Edgar School/Fall 2019/Lab 2-1/EJ-subject-1.csv,legacy,Kafkaesque Koffka,3.2.8,0,h,NA,NA,h,h,h,426,NA,NA,37427,21741,426,2,legacy,1024,2,48000,-16,experiment,HHHHH,1,odd,331220,49436,234881,NA,266475,11987,310273,NA,332618,NA,12006,213136,332727,333161,332597,332727,Flanker task,121,64319,128,yes,1024
94.57364341,94.57364341,502.3333333,502.3333333,black,legacy,legacy,legacy,0,incongruent,uniform,1,undefined,1,s,128,0,0,0,128,0,128,0,128,0,0,0,128,128,128,128,9/20/19 18:01,600,The main experiment item,yes,Flankertask.osexp,C:/Users/Edgar/Documents/Edgar School/Fall 2019/Lab 2-1,no,mono,no,18,no,white,no,yes,768,legacy,48,79,C:/Users/Edgar/Documents/Edgar School/Fall 2019/Lab 2-1/EJ-subject-1.csv,legacy,Kafkaesque Koffka,3.2.8,0,s,NA,NA,h,h,s,482,NA,NA,37427,21741,482,2,legacy,1024,2,48000,-16,experiment,HHSHH,1,odd,333231,49436,234881,NA,266475,11987,310273,NA,334634,NA,12006,213136,334743,335236,334622,334743,Flanker task,122,64801,129,yes,1024
94.61538462,94.61538462,502.5,502.5,black,legacy,legacy,legacy,0,incongruent,uniform,1,undefined,1,s,129,0,0,0,129,0,129,0,129,0,0,0,129,129,129,129,9/20/19 18:01,600,The main experiment item,yes,Flankertask.osexp,C:/Users/Edgar/Documents/Edgar School/Fall 2019/Lab 2-1,no,mono,no,18,no,white,no,yes,768,legacy,49,79,C:/Users/Edgar/Documents/Edgar School/Fall 2019/Lab 2-1/EJ-subject-1.csv,legacy,Kafkaesque Koffka,3.2.8,0,s,NA,NA,h,h,s,524,NA,NA,37427,21741,524,2,legacy,1024,2,48000,-16,experiment,HHSHH,1,odd,335308,49436,234881,NA,266475,11987,310273,NA,336719,NA,12006,213136,336826,337356,336708,336825,Flanker task,123,65325,130,yes,1024
94.65648855,94.65648855,502.2977099,502.2977099,black,legacy,legacy,legacy,0,incongruent,uniform,1,undefined,1,h,130,0,0,0,130,0,130,0,130,0,0,0,130,130,130,130,9/20/19 18:01,600,The main experiment item,yes,Flankertask.osexp,C:/Users/Edgar/Documents/Edgar School/Fall 2019/Lab 2-1,no,mono,no,18,no,white,no,yes,768,legacy,50,79,C:/Users/Edgar/Documents/Edgar School/Fall 2019/Lab 2-1/EJ-subject-1.csv,legacy,Kafkaesque Koffka,3.2.8,0,h,NA,NA,h,h,h,476,NA,NA,37427,21741,476,2,legacy,1024,2,48000,-16,experiment,SSHSS,1,odd,337401,49436,234881,NA,266475,11987,310273,NA,338783,NA,12006,213136,338894,339376,338772,338893,Flanker task,124,65801,131,yes,1024
94.6969697,94.6969697,501.8106061,501.8106061,black,legacy,legacy,legacy,0,congruent,uniform,1,undefined,1,s,131,0,0,0,131,0,131,0,131,0,0,0,131,131,131,131,9/20/19 18:01,600,The main experiment item,yes,Flankertask.osexp,C:/Users/Edgar/Documents/Edgar School/Fall 2019/Lab 2-1,no,mono,no,18,no,white,no,yes,768,legacy,51,79,C:/Users/Edgar/Documents/Edgar School/Fall 2019/Lab 2-1/EJ-subject-1.csv,legacy,Kafkaesque Koffka,3.2.8,0,s,NA,NA,h,h,s,438,NA,NA,37427,21741,438,2,legacy,1024,2,48000,-16,experiment,SSSSS,1,odd,339465,49436,234881,NA,266475,11987,310273,NA,340785,NA,12006,213136,340893,341339,340775,340892,Flanker task,125,66239,132,yes,1024
94.73684211,94.73684211,502.0902256,502.0902256,black,legacy,legacy,legacy,0,incongruent,uniform,1,undefined,1,s,132,0,0,0,132,0,132,0,132,0,0,0,132,132,132,132,9/20/19 18:01,600,The main experiment item,yes,Flankertask.osexp,C:/Users/Edgar/Documents/Edgar School/Fall 2019/Lab 2-1,no,mono,no,18,no,white,no,yes,768,legacy,52,79,C:/Users/Edgar/Documents/Edgar School/Fall 2019/Lab 2-1/EJ-subject-1.csv,legacy,Kafkaesque Koffka,3.2.8,0,s,NA,NA,h,h,s,539,NA,NA,37427,21741,539,2,legacy,1024,2,48000,-16,experiment,HHSHH,1,odd,341397,49436,234881,NA,266475,11987,310273,NA,342828,NA,12006,213136,342937,343482,342816,342937,Flanker task,126,66778,133,yes,1024
94.7761194,94.7761194,501.4552239,501.4552239,black,legacy,legacy,legacy,0,incongruent,uniform,1,undefined,1,h,133,0,0,0,133,0,133,0,133,0,0,0,133,133,133,133,9/20/19 18:01,600,The main experiment item,yes,Flankertask.osexp,C:/Users/Edgar/Documents/Edgar School/Fall 2019/Lab 2-1,no,mono,no,18,no,white,no,yes,768,legacy,53,79,C:/Users/Edgar/Documents/Edgar School/Fall 2019/Lab 2-1/EJ-subject-1.csv,legacy,Kafkaesque Koffka,3.2.8,0,h,NA,NA,h,h,h,417,NA,NA,37427,21741,417,2,legacy,1024,2,48000,-16,experiment,SSHSS,1,odd,343528,49436,234881,NA,266475,11987,310273,NA,344943,NA,12006,213136,345051,345476,344930,345050,Flanker task,127,67195,134,yes,1024
94.81481481,94.81481481,501.2518519,501.2518519,black,legacy,legacy,legacy,0,incongruent,uniform,1,undefined,1,s,134,0,0,0,134,0,134,0,134,0,0,0,134,134,134,134,9/20/19 18:01,600,The main experiment item,yes,Flankertask.osexp,C:/Users/Edgar/Documents/Edgar School/Fall 2019/Lab 2-1,no,mono,no,18,no,white,no,yes,768,legacy,54,79,C:/Users/Edgar/Documents/Edgar School/Fall 2019/Lab 2-1/EJ-subject-1.csv,legacy,Kafkaesque Koffka,3.2.8,0,s,NA,NA,h,h,s,474,NA,NA,37427,21741,474,2,legacy,1024,2,48000,-16,experiment,HHSHH,1,odd,345553,49436,234881,NA,266475,11987,310273,NA,346949,NA,12006,213136,347057,347536,346937,347056,Flanker task,128,67669,135,yes,1024
94.85294118,94.85294118,500.8014706,500.8014706,black,legacy,legacy,legacy,0,congruent,uniform,1,undefined,1,h,135,0,0,0,135,0,135,0,135,0,0,0,135,135,135,135,9/20/19 18:01,600,The main experiment item,yes,Flankertask.osexp,C:/Users/Edgar/Documents/Edgar School/Fall 2019/Lab 2-1,no,mono,no,18,no,white,no,yes,768,legacy,55,79,C:/Users/Edgar/Documents/Edgar School/Fall 2019/Lab 2-1/EJ-subject-1.csv,legacy,Kafkaesque Koffka,3.2.8,0,h,NA,NA,h,h,h,440,NA,NA,37427,21741,440,2,legacy,1024,2,48000,-16,experiment,HHHHH,1,odd,347630,49436,234881,NA,266475,11987,310273,NA,349016,NA,12006,213136,349123,349569,349004,349122,Flanker task,129,68109,136,yes,1024
94.89051095,94.89051095,500.6277372,500.6277372,black,legacy,legacy,legacy,0,congruent,uniform,1,undefined,1,s,136,0,0,0,136,0,136,0,136,0,0,0,136,136,136,136,9/20/19 18:01,600,The main experiment item,yes,Flankertask.osexp,C:/Users/Edgar/Documents/Edgar School/Fall 2019/Lab 2-1,no,mono,no,18,no,white,no,yes,768,legacy,56,79,C:/Users/Edgar/Documents/Edgar School/Fall 2019/Lab 2-1/EJ-subject-1.csv,legacy,Kafkaesque Koffka,3.2.8,0,s,NA,NA,h,h,s,477,NA,NA,37427,21741,477,2,legacy,1024,2,48000,-16,experiment,SSSSS,1,odd,349647,49436,234881,NA,266475,11987,310273,NA,350983,NA,12006,213136,351091,351573,350973,351090,Flanker task,130,68586,137,yes,1024
94.92753623,94.92753623,499.7608696,499.7608696,black,legacy,legacy,legacy,0,incongruent,uniform,1,undefined,1,h,137,0,0,0,137,0,137,0,137,0,0,0,137,137,137,137,9/20/19 18:01,600,The main experiment item,yes,Flankertask.osexp,C:/Users/Edgar/Documents/Edgar School/Fall 2019/Lab 2-1,no,mono,no,18,no,white,no,yes,768,legacy,57,79,C:/Users/Edgar/Documents/Edgar School/Fall 2019/Lab 2-1/EJ-subject-1.csv,legacy,Kafkaesque Koffka,3.2.8,0,h,NA,NA,h,h,h,381,NA,NA,37427,21741,381,2,legacy,1024,2,48000,-16,experiment,SSHSS,1,odd,351689,49436,234881,NA,266475,11987,310273,NA,353058,NA,12006,213136,353164,353550,353046,353164,Flanker task,131,68967,138,yes,1024
94.96402878,94.96402878,499.2158273,499.2158273,black,legacy,legacy,legacy,0,incongruent,uniform,1,undefined,1,h,138,0,0,0,138,0,138,0,138,0,0,0,138,138,138,138,9/20/19 18:01,600,The main experiment item,yes,Flankertask.osexp,C:/Users/Edgar/Documents/Edgar School/Fall 2019/Lab 2-1,no,mono,no,18,no,white,no,yes,768,legacy,58,79,C:/Users/Edgar/Documents/Edgar School/Fall 2019/Lab 2-1/EJ-subject-1.csv,legacy,Kafkaesque Koffka,3.2.8,0,h,NA,NA,h,h,h,424,NA,NA,37427,21741,424,2,legacy,1024,2,48000,-16,experiment,SSHSS,1,odd,353597,49436,234881,NA,266475,11987,310273,NA,354913,NA,12006,213136,355021,355451,354904,355021,Flanker task,132,69391,139,yes,1024
95,95,500.0357143,500.0357143,black,legacy,legacy,legacy,0,incongruent,uniform,1,undefined,1,s,139,0,0,0,139,0,139,0,139,0,0,0,139,139,139,139,9/20/19 18:01,600,The main experiment item,yes,Flankertask.osexp,C:/Users/Edgar/Documents/Edgar School/Fall 2019/Lab 2-1,no,mono,no,18,no,white,no,yes,768,legacy,59,79,C:/Users/Edgar/Documents/Edgar School/Fall 2019/Lab 2-1/EJ-subject-1.csv,legacy,Kafkaesque Koffka,3.2.8,0,s,NA,NA,h,h,s,614,NA,NA,37427,21741,614,2,legacy,1024,2,48000,-16,experiment,HHSHH,1,odd,355538,49436,234881,NA,266475,11987,310273,NA,356850,NA,12006,213136,356959,357588,356841,356959,Flanker task,133,70005,140,yes,1024
95.03546099,95.03546099,500.0638298,500.0638298,black,legacy,legacy,legacy,0,incongruent,uniform,1,undefined,1,s,140,0,0,0,140,0,140,0,140,0,0,0,140,140,140,140,9/20/19 18:01,600,The main experiment item,yes,Flankertask.osexp,C:/Users/Edgar/Documents/Edgar School/Fall 2019/Lab 2-1,no,mono,no,18,no,white,no,yes,768,legacy,60,79,C:/Users/Edgar/Documents/Edgar School/Fall 2019/Lab 2-1/EJ-subject-1.csv,legacy,Kafkaesque Koffka,3.2.8,0,s,NA,NA,h,h,s,504,NA,NA,37427,21741,504,2,legacy,1024,2,48000,-16,experiment,HHSHH,1,odd,358171,49436,234881,NA,266475,11987,357664,NA,359491,NA,12006,213136,359597,360106,359481,359597,Flanker task,134,70509,141,yes,1024
95.07042254,95.07042254,499.5774648,499.5774648,black,legacy,legacy,legacy,0,incongruent,uniform,1,undefined,1,h,141,0,0,0,141,0,141,0,141,0,0,0,141,141,141,141,9/20/19 18:01,600,The main experiment item,yes,Flankertask.osexp,C:/Users/Edgar/Documents/Edgar School/Fall 2019/Lab 2-1,no,mono,no,18,no,white,no,yes,768,legacy,61,79,C:/Users/Edgar/Documents/Edgar School/Fall 2019/Lab 2-1/EJ-subject-1.csv,legacy,Kafkaesque Koffka,3.2.8,0,h,NA,NA,h,h,h,431,NA,NA,37427,21741,431,2,legacy,1024,2,48000,-16,experiment,SSHSS,1,odd,360165,49436,234881,NA,266475,11987,357664,NA,361498,NA,12006,213136,361606,362042,361488,361605,Flanker task,135,70940,142,yes,1024
95.1048951,95.1048951,499.6363636,499.6363636,black,legacy,legacy,legacy,0,congruent,uniform,1,undefined,1,s,142,0,0,0,142,0,142,0,142,0,0,0,142,142,142,142,9/20/19 18:01,600,The main experiment item,yes,Flankertask.osexp,C:/Users/Edgar/Documents/Edgar School/Fall 2019/Lab 2-1,no,mono,no,18,no,white,no,yes,768,legacy,62,79,C:/Users/Edgar/Documents/Edgar School/Fall 2019/Lab 2-1/EJ-subject-1.csv,legacy,Kafkaesque Koffka,3.2.8,0,s,NA,NA,h,h,s,508,NA,NA,37427,21741,508,2,legacy,1024,2,48000,-16,experiment,SSSSS,1,odd,362098,49436,234881,NA,266475,11987,357664,NA,363428,NA,12006,213136,363536,364049,363417,363536,Flanker task,136,71448,143,yes,1024
95.13888889,95.13888889,498.7083333,498.7083333,black,legacy,legacy,legacy,0,congruent,uniform,1,undefined,1,h,143,0,0,0,143,0,143,0,143,0,0,0,143,143,143,143,9/20/19 18:01,600,The main experiment item,yes,Flankertask.osexp,C:/Users/Edgar/Documents/Edgar School/Fall 2019/Lab 2-1,no,mono,no,18,no,white,no,yes,768,legacy,63,79,C:/Users/Edgar/Documents/Edgar School/Fall 2019/Lab 2-1/EJ-subject-1.csv,legacy,Kafkaesque Koffka,3.2.8,0,h,NA,NA,h,h,h,366,NA,NA,37427,21741,366,2,legacy,1024,2,48000,-16,experiment,HHHHH,1,odd,364118,49436,234881,NA,266475,11987,357664,NA,365439,NA,12006,213136,365546,365917,365429,365546,Flanker task,137,71814,144,yes,1024
95.17241379,95.17241379,498.8206897,498.8206897,black,legacy,legacy,legacy,0,incongruent,uniform,1,undefined,1,s,144,0,0,0,144,0,144,0,144,0,0,0,144,144,144,144,9/20/19 18:01,600,The main experiment item,yes,Flankertask.osexp,C:/Users/Edgar/Documents/Edgar School/Fall 2019/Lab 2-1,no,mono,no,18,no,white,no,yes,768,legacy,64,79,C:/Users/Edgar/Documents/Edgar School/Fall 2019/Lab 2-1/EJ-subject-1.csv,legacy,Kafkaesque Koffka,3.2.8,0,s,NA,NA,h,h,s,515,NA,NA,37427,21741,515,2,legacy,1024,2,48000,-16,experiment,HHSHH,1,odd,365990,49436,234881,NA,266475,11987,357664,NA,367331,NA,12006,213136,367438,367959,367319,367438,Flanker task,138,72329,145,yes,1024
94.52054795,94.52054795,498.3013699,498.3013699,black,legacy,legacy,legacy,0,incongruent,uniform,0,undefined,0,s,145,0,0,0,145,0,145,0,145,0,0,0,145,145,145,145,9/20/19 18:01,600,The main experiment item,yes,Flankertask.osexp,C:/Users/Edgar/Documents/Edgar School/Fall 2019/Lab 2-1,no,mono,no,18,no,white,no,yes,768,legacy,65,79,C:/Users/Edgar/Documents/Edgar School/Fall 2019/Lab 2-1/EJ-subject-1.csv,legacy,Kafkaesque Koffka,3.2.8,0,h,NA,NA,h,h,h,423,NA,NA,37427,21741,423,2,legacy,1024,2,48000,-16,experiment,HHSHH,1,odd,368019,49436,234881,NA,266475,11987,357664,NA,369480,NA,12006,213136,369591,370022,369461,369590,Flanker task,138,72752,146,yes,1024
94.55782313,94.55782313,498.0816327,498.0816327,black,legacy,legacy,legacy,0,incongruent,uniform,1,undefined,1,h,146,0,0,0,146,0,146,0,146,0,0,0,146,146,146,146,9/20/19 18:01,600,The main experiment item,yes,Flankertask.osexp,C:/Users/Edgar/Documents/Edgar School/Fall 2019/Lab 2-1,no,mono,no,18,no,white,no,yes,768,legacy,66,79,C:/Users/Edgar/Documents/Edgar School/Fall 2019/Lab 2-1/EJ-subject-1.csv,legacy,Kafkaesque Koffka,3.2.8,0,h,NA,NA,h,h,h,466,NA,NA,37427,21741,466,2,legacy,1024,2,48000,-16,experiment,SSHSS,1,odd,370585,49436,234881,NA,370076,11987,357664,NA,371939,NA,12006,213136,372046,372519,371925,372045,Flanker task,139,73218,147,yes,1024
94.59459459,94.59459459,497.5608108,497.5608108,black,legacy,legacy,legacy,0,congruent,uniform,1,undefined,1,s,147,0,0,0,147,0,147,0,147,0,0,0,147,147,147,147,9/20/19 18:01,600,The main experiment item,yes,Flankertask.osexp,C:/Users/Edgar/Documents/Edgar School/Fall 2019/Lab 2-1,no,mono,no,18,no,white,no,yes,768,legacy,67,79,C:/Users/Edgar/Documents/Edgar School/Fall 2019/Lab 2-1/EJ-subject-1.csv,legacy,Kafkaesque Koffka,3.2.8,0,s,NA,NA,h,h,s,421,NA,NA,37427,21741,421,2,legacy,1024,2,48000,-16,experiment,SSSSS,1,odd,372582,49436,234881,NA,370076,11987,357664,NA,373901,NA,12006,213136,374009,374436,373890,374008,Flanker task,140,73639,148,yes,1024
94.63087248,94.63087248,497.5503356,497.5503356,black,legacy,legacy,legacy,0,congruent,uniform,1,undefined,1,s,148,0,0,0,148,0,148,0,148,0,0,0,148,148,148,148,9/20/19 18:01,600,The main experiment item,yes,Flankertask.osexp,C:/Users/Edgar/Documents/Edgar School/Fall 2019/Lab 2-1,no,mono,no,18,no,white,no,yes,768,legacy,68,79,C:/Users/Edgar/Documents/Edgar School/Fall 2019/Lab 2-1/EJ-subject-1.csv,legacy,Kafkaesque Koffka,3.2.8,0,s,NA,NA,h,h,s,496,NA,NA,37427,21741,496,2,legacy,1024,2,48000,-16,experiment,SSSSS,1,odd,374510,49436,234881,NA,370076,11987,357664,NA,375861,NA,12006,213136,375968,376469,375850,375968,Flanker task,141,74135,149,yes,1024
94.66666667,94.66666667,496.8466667,496.8466667,black,legacy,legacy,legacy,0,congruent,uniform,1,undefined,1,h,149,0,0,0,149,0,149,0,149,0,0,0,149,149,149,149,9/20/19 18:01,600,The main experiment item,yes,Flankertask.osexp,C:/Users/Edgar/Documents/Edgar School/Fall 2019/Lab 2-1,no,mono,no,18,no,white,no,yes,768,legacy,69,79,C:/Users/Edgar/Documents/Edgar School/Fall 2019/Lab 2-1/EJ-subject-1.csv,legacy,Kafkaesque Koffka,3.2.8,0,h,NA,NA,h,h,h,392,NA,NA,37427,21741,392,2,legacy,1024,2,48000,-16,experiment,HHHHH,1,odd,376532,49436,234881,NA,370076,11987,357664,NA,377905,NA,12006,213136,378012,378411,377894,378011,Flanker task,142,74527,150,yes,1024
94.70198676,94.70198676,496.4370861,496.4370861,black,legacy,legacy,legacy,0,congruent,uniform,1,undefined,1,h,150,0,0,0,150,0,150,0,150,0,0,0,150,150,150,150,9/20/19 18:01,600,The main experiment item,yes,Flankertask.osexp,C:/Users/Edgar/Documents/Edgar School/Fall 2019/Lab 2-1,no,mono,no,18,no,white,no,yes,768,legacy,70,79,C:/Users/Edgar/Documents/Edgar School/Fall 2019/Lab 2-1/EJ-subject-1.csv,legacy,Kafkaesque Koffka,3.2.8,0,h,NA,NA,h,h,h,435,NA,NA,37427,21741,435,2,legacy,1024,2,48000,-16,experiment,HHHHH,1,odd,378485,49436,234881,NA,370076,11987,357664,NA,379853,NA,12006,213136,379961,380401,379841,379961,Flanker task,143,74962,151,yes,1024
94.73684211,94.73684211,496.2105263,496.2105263,black,legacy,legacy,legacy,0,congruent,uniform,1,undefined,1,s,151,0,0,0,151,0,151,0,151,0,0,0,151,151,151,151,9/20/19 18:01,600,The main experiment item,yes,Flankertask.osexp,C:/Users/Edgar/Documents/Edgar School/Fall 2019/Lab 2-1,no,mono,no,18,no,white,no,yes,768,legacy,71,79,C:/Users/Edgar/Documents/Edgar School/Fall 2019/Lab 2-1/EJ-subject-1.csv,legacy,Kafkaesque Koffka,3.2.8,0,s,NA,NA,h,h,s,462,NA,NA,37427,21741,462,2,legacy,1024,2,48000,-16,experiment,SSSSS,1,odd,380456,49436,234881,NA,370076,11987,357664,NA,381804,NA,12006,213136,381911,382378,381793,381910,Flanker task,144,75424,152,yes,1024
94.77124183,94.77124183,496.0392157,496.0392157,black,legacy,legacy,legacy,0,congruent,uniform,1,undefined,1,s,152,0,0,0,152,0,152,0,152,0,0,0,152,152,152,152,9/20/19 18:01,600,The main experiment item,yes,Flankertask.osexp,C:/Users/Edgar/Documents/Edgar School/Fall 2019/Lab 2-1,no,mono,no,18,no,white,no,yes,768,legacy,72,79,C:/Users/Edgar/Documents/Edgar School/Fall 2019/Lab 2-1/EJ-subject-1.csv,legacy,Kafkaesque Koffka,3.2.8,0,s,NA,NA,h,h,s,470,NA,NA,37427,21741,470,2,legacy,1024,2,48000,-16,experiment,SSSSS,1,odd,382444,49436,234881,NA,370076,11987,357664,NA,383768,NA,12006,213136,383874,384350,383757,383874,Flanker task,145,75894,153,yes,1024
94.15584416,94.15584416,495.3116883,495.3116883,black,legacy,legacy,legacy,0,incongruent,uniform,0,undefined,0,s,153,0,0,0,153,0,153,0,153,0,0,0,153,153,153,153,9/20/19 18:01,600,The main experiment item,yes,Flankertask.osexp,C:/Users/Edgar/Documents/Edgar School/Fall 2019/Lab 2-1,no,mono,no,18,no,white,no,yes,768,legacy,73,79,C:/Users/Edgar/Documents/Edgar School/Fall 2019/Lab 2-1/EJ-subject-1.csv,legacy,Kafkaesque Koffka,3.2.8,0,h,NA,NA,h,h,h,384,NA,NA,37427,21741,384,2,legacy,1024,2,48000,-16,experiment,HHSHH,1,odd,384407,49436,234881,NA,370076,11987,357664,NA,385756,NA,12006,213136,385863,386252,385745,385863,Flanker task,145,76278,154,yes,1024
