acc,accuracy,average_response_time,avg_rt,background,canvas_backend,clock_backend,color_backend,compensation,condition,coordinates,correct,correct_instructions1,correct_keyboard_response,correct_response,count_Block1,count_Block2,count_Block3,count_ISI,count_errorFeedback,count_experiment,count_faster,count_finish,count_fixation,count_instruction2,count_instructions1,count_instructions3,count_keyboard_response,count_logger,count_sequence,count_stimulus,datetime,deadline,description,disable_garbage_collection,experiment_file,experiment_path,font_bold,font_family,font_italic,font_size,font_underline,foreground,form_clicks,fullscreen,height,keyboard_backend,live_row,live_row_Block1,logfile,mouse_backend,opensesame_codename,opensesame_version,repeat_cycle,response,response_finish,response_instruction2,response_instructions1,response_instructions3,response_keyboard_response,response_time,response_time_finish,response_time_instruction2,response_time_instructions1,response_time_instructions3,response_time_keyboard_response,round_decimals,sampler_backend,sound_buf_size,sound_channels,sound_freq,sound_sample_size,start,stimulus,subject_nr,subject_parity,time_Block1,time_Block2,time_Block3,time_ISI,time_errorFeedback,time_experiment,time_faster,time_finish,time_fixation,time_instruction2,time_instructions1,time_instructions3,time_keyboard_response,time_logger,time_sequence,time_stimulus,title,total_correct,total_response_time,total_responses,uniform_coordinates,width
100,100,797,797,black,legacy,legacy,legacy,0,congruent,uniform,1,undefined,1,s,0,0,0,0,0,0,0,0,0,0,0,0,0,0,0,0,Thu Sep 19 16:03:57 2019,1500,The main experiment item,yes,FlankerTask.osexp,/Users/cristianbotello/Desktop/Advanced Quant,no,mono,no,18,no,white,no,yes,768,legacy,0,0,/Users/cristianbotello/Desktop/Advanced Quant/CB-subject-1.csv,legacy,Kafkaesque Koffka,3.2.8,0,s,NA,NA,s,NA,s,797,NA,NA,39640,NA,797,2,legacy,1024,2,48000,-16,experiment,SSSSS,1,odd,42734,NA,NA,NA,NA,3064,NA,NA,42832,NA,3083,NA,42947,43745,42821,42947,Flanker Task,1,797,1,yes,1024
100,100,620.5,620.5,black,legacy,legacy,legacy,0,congruent,uniform,1,undefined,1,h,0,0,0,1,1,0,1,0,1,0,0,0,1,1,1,1,Thu Sep 19 16:03:57 2019,1500,The main experiment item,yes,FlankerTask.osexp,/Users/cristianbotello/Desktop/Advanced Quant,no,mono,no,18,no,white,no,yes,768,legacy,1,1,/Users/cristianbotello/Desktop/Advanced Quant/CB-subject-1.csv,legacy,Kafkaesque Koffka,3.2.8,0,h,NA,NA,s,NA,h,444,NA,NA,39640,NA,444,2,legacy,1024,2,48000,-16,experiment,HHHHH,1,odd,42734,NA,NA,43765,NA,3064,NA,NA,44872,NA,3083,NA,44986,45431,44861,44986,Flanker Task,2,1241,2,yes,1024
100,100,606.6666667,606.6666667,black,legacy,legacy,legacy,0,incongruent,uniform,1,undefined,1,h,0,0,0,2,2,0,2,0,2,0,0,0,2,2,2,2,Thu Sep 19 16:03:57 2019,1500,The main experiment item,yes,FlankerTask.osexp,/Users/cristianbotello/Desktop/Advanced Quant,no,mono,no,18,no,white,no,yes,768,legacy,2,2,/Users/cristianbotello/Desktop/Advanced Quant/CB-subject-1.csv,legacy,Kafkaesque Koffka,3.2.8,0,h,NA,NA,s,NA,h,579,NA,NA,39640,NA,579,2,legacy,1024,2,48000,-16,experiment,SSHSS,1,odd,42734,NA,NA,45446,NA,3064,NA,NA,46548,NA,3083,NA,46663,47243,46537,46663,Flanker Task,3,1820,3,yes,1024
100,100,563,563,black,legacy,legacy,legacy,0,congruent,uniform,1,undefined,1,h,0,0,0,3,3,0,3,0,3,0,0,0,3,3,3,3,Thu Sep 19 16:03:57 2019,1500,The main experiment item,yes,FlankerTask.osexp,/Users/cristianbotello/Desktop/Advanced Quant,no,mono,no,18,no,white,no,yes,768,legacy,3,3,/Users/cristianbotello/Desktop/Advanced Quant/CB-subject-1.csv,legacy,Kafkaesque Koffka,3.2.8,0,h,NA,NA,s,NA,h,432,NA,NA,39640,NA,432,2,legacy,1024,2,48000,-16,experiment,HHHHH,1,odd,42734,NA,NA,47257,NA,3064,NA,NA,48358,NA,3083,NA,48473,48906,48346,48473,Flanker Task,4,2252,4,yes,1024
100,100,544.2,544.2,black,legacy,legacy,legacy,0,incongruent,uniform,1,undefined,1,h,0,0,0,4,4,0,4,0,4,0,0,0,4,4,4,4,Thu Sep 19 16:03:57 2019,1500,The main experiment item,yes,FlankerTask.osexp,/Users/cristianbotello/Desktop/Advanced Quant,no,mono,no,18,no,white,no,yes,768,legacy,4,4,/Users/cristianbotello/Desktop/Advanced Quant/CB-subject-1.csv,legacy,Kafkaesque Koffka,3.2.8,0,h,NA,NA,s,NA,h,469,NA,NA,39640,NA,469,2,legacy,1024,2,48000,-16,experiment,SSHSS,1,odd,42734,NA,NA,48920,NA,3064,NA,NA,50018,NA,3083,NA,50133,50604,50007,50132,Flanker Task,5,2721,5,yes,1024
100,100,513.1666667,513.1666667,black,legacy,legacy,legacy,0,congruent,uniform,1,undefined,1,h,0,0,0,5,5,0,5,0,5,0,0,0,5,5,5,5,Thu Sep 19 16:03:57 2019,1500,The main experiment item,yes,FlankerTask.osexp,/Users/cristianbotello/Desktop/Advanced Quant,no,mono,no,18,no,white,no,yes,768,legacy,5,5,/Users/cristianbotello/Desktop/Advanced Quant/CB-subject-1.csv,legacy,Kafkaesque Koffka,3.2.8,0,h,NA,NA,s,NA,h,358,NA,NA,39640,NA,358,2,legacy,1024,2,48000,-16,experiment,HHHHH,1,odd,42734,NA,NA,50618,NA,3064,NA,NA,51717,NA,3083,NA,51830,52189,51706,51829,Flanker Task,6,3079,6,yes,1024
100,100,497.2857143,497.2857143,black,legacy,legacy,legacy,0,incongruent,uniform,1,undefined,1,s,0,0,0,6,6,0,6,0,6,0,0,0,6,6,6,6,Thu Sep 19 16:03:57 2019,1500,The main experiment item,yes,FlankerTask.osexp,/Users/cristianbotello/Desktop/Advanced Quant,no,mono,no,18,no,white,no,yes,768,legacy,6,6,/Users/cristianbotello/Desktop/Advanced Quant/CB-subject-1.csv,legacy,Kafkaesque Koffka,3.2.8,0,s,NA,NA,s,NA,s,402,NA,NA,39640,NA,402,2,legacy,1024,2,48000,-16,experiment,HHSHH,1,odd,42734,NA,NA,52203,NA,3064,NA,NA,53303,NA,3083,NA,53418,53822,53292,53418,Flanker Task,7,3481,7,yes,1024
100,100,486.75,486.75,black,legacy,legacy,legacy,0,congruent,uniform,1,undefined,1,h,0,0,0,7,7,0,7,0,7,0,0,0,7,7,7,7,Thu Sep 19 16:03:57 2019,1500,The main experiment item,yes,FlankerTask.osexp,/Users/cristianbotello/Desktop/Advanced Quant,no,mono,no,18,no,white,no,yes,768,legacy,7,7,/Users/cristianbotello/Desktop/Advanced Quant/CB-subject-1.csv,legacy,Kafkaesque Koffka,3.2.8,0,h,NA,NA,s,NA,h,413,NA,NA,39640,NA,413,2,legacy,1024,2,48000,-16,experiment,HHHHH,1,odd,42734,NA,NA,53836,NA,3064,NA,NA,54934,NA,3083,NA,55049,55464,54923,55049,Flanker Task,8,3894,8,yes,1024
100,100,472.5555556,472.5555556,black,legacy,legacy,legacy,0,congruent,uniform,1,undefined,1,s,0,0,0,8,8,0,8,0,8,0,0,0,8,8,8,8,Thu Sep 19 16:03:57 2019,1500,The main experiment item,yes,FlankerTask.osexp,/Users/cristianbotello/Desktop/Advanced Quant,no,mono,no,18,no,white,no,yes,768,legacy,8,8,/Users/cristianbotello/Desktop/Advanced Quant/CB-subject-1.csv,legacy,Kafkaesque Koffka,3.2.8,0,s,NA,NA,s,NA,s,359,NA,NA,39640,NA,359,2,legacy,1024,2,48000,-16,experiment,SSSSS,1,odd,42734,NA,NA,55478,NA,3064,NA,NA,56576,NA,3083,NA,56687,57048,56565,56687,Flanker Task,9,4253,9,yes,1024
100,100,466.7,466.7,black,legacy,legacy,legacy,0,congruent,uniform,1,undefined,1,s,0,0,0,9,9,0,9,0,9,0,0,0,9,9,9,9,Thu Sep 19 16:03:57 2019,1500,The main experiment item,yes,FlankerTask.osexp,/Users/cristianbotello/Desktop/Advanced Quant,no,mono,no,18,no,white,no,yes,768,legacy,9,9,/Users/cristianbotello/Desktop/Advanced Quant/CB-subject-1.csv,legacy,Kafkaesque Koffka,3.2.8,0,s,NA,NA,s,NA,s,414,NA,NA,39640,NA,414,2,legacy,1024,2,48000,-16,experiment,SSSSS,1,odd,42734,NA,NA,57062,NA,3064,NA,NA,58161,NA,3083,NA,58276,58692,58150,58275,Flanker Task,10,4667,10,yes,1024
100,100,462.1818182,462.1818182,black,legacy,legacy,legacy,0,congruent,uniform,1,undefined,1,s,0,0,0,10,10,0,10,0,10,0,0,0,10,10,10,10,Thu Sep 19 16:03:57 2019,1500,The main experiment item,yes,FlankerTask.osexp,/Users/cristianbotello/Desktop/Advanced Quant,no,mono,no,18,no,white,no,yes,768,legacy,10,10,/Users/cristianbotello/Desktop/Advanced Quant/CB-subject-1.csv,legacy,Kafkaesque Koffka,3.2.8,0,s,NA,NA,s,NA,s,417,NA,NA,39640,NA,417,2,legacy,1024,2,48000,-16,experiment,SSSSS,1,odd,42734,NA,NA,58707,NA,3064,NA,NA,59807,NA,3083,NA,59922,60341,59794,59922,Flanker Task,11,5084,11,yes,1024
100,100,463.9166667,463.9166667,black,legacy,legacy,legacy,0,incongruent,uniform,1,undefined,1,s,0,0,0,11,11,0,11,0,11,0,0,0,11,11,11,11,Thu Sep 19 16:03:57 2019,1500,The main experiment item,yes,FlankerTask.osexp,/Users/cristianbotello/Desktop/Advanced Quant,no,mono,no,18,no,white,no,yes,768,legacy,11,11,/Users/cristianbotello/Desktop/Advanced Quant/CB-subject-1.csv,legacy,Kafkaesque Koffka,3.2.8,0,s,NA,NA,s,NA,s,483,NA,NA,39640,NA,483,2,legacy,1024,2,48000,-16,experiment,HHSHH,1,odd,42734,NA,NA,60355,NA,3064,NA,NA,61455,NA,3083,NA,61566,62051,61443,61566,Flanker Task,12,5567,12,yes,1024
100,100,459.6923077,459.6923077,black,legacy,legacy,legacy,0,incongruent,uniform,1,undefined,1,s,0,0,0,12,12,0,12,0,12,0,0,0,12,12,12,12,Thu Sep 19 16:03:57 2019,1500,The main experiment item,yes,FlankerTask.osexp,/Users/cristianbotello/Desktop/Advanced Quant,no,mono,no,18,no,white,no,yes,768,legacy,12,12,/Users/cristianbotello/Desktop/Advanced Quant/CB-subject-1.csv,legacy,Kafkaesque Koffka,3.2.8,0,s,NA,NA,s,NA,s,409,NA,NA,39640,NA,409,2,legacy,1024,2,48000,-16,experiment,HHSHH,1,odd,42734,NA,NA,62064,NA,3064,NA,NA,63165,NA,3083,NA,63280,63690,63153,63280,Flanker Task,13,5976,13,yes,1024
100,100,455.6428571,455.6428571,black,legacy,legacy,legacy,0,incongruent,uniform,1,undefined,1,s,0,0,0,13,13,0,13,0,13,0,0,0,13,13,13,13,Thu Sep 19 16:03:57 2019,1500,The main experiment item,yes,FlankerTask.osexp,/Users/cristianbotello/Desktop/Advanced Quant,no,mono,no,18,no,white,no,yes,768,legacy,13,13,/Users/cristianbotello/Desktop/Advanced Quant/CB-subject-1.csv,legacy,Kafkaesque Koffka,3.2.8,0,s,NA,NA,s,NA,s,403,NA,NA,39640,NA,403,2,legacy,1024,2,48000,-16,experiment,HHSHH,1,odd,42734,NA,NA,63704,NA,3064,NA,NA,64806,NA,3083,NA,64917,65321,64793,64917,Flanker Task,14,6379,14,yes,1024
93.33333333,93.33333333,453.8,453.8,black,legacy,legacy,legacy,0,incongruent,uniform,0,undefined,0,h,0,0,0,14,14,0,14,0,14,0,0,0,14,14,14,14,Thu Sep 19 16:03:57 2019,1500,The main experiment item,yes,FlankerTask.osexp,/Users/cristianbotello/Desktop/Advanced Quant,no,mono,no,18,no,white,no,yes,768,legacy,14,14,/Users/cristianbotello/Desktop/Advanced Quant/CB-subject-1.csv,legacy,Kafkaesque Koffka,3.2.8,0,s,NA,NA,s,NA,s,428,NA,NA,39640,NA,428,2,legacy,1024,2,48000,-16,experiment,SSHSS,1,odd,42734,NA,NA,65336,NA,3064,NA,NA,66435,NA,3083,NA,66550,66980,66424,66550,Flanker Task,14,6807,15,yes,1024
93.75,93.75,453.1875,453.1875,black,legacy,legacy,legacy,0,congruent,uniform,1,undefined,1,s,0,0,0,15,15,0,15,0,15,0,0,0,15,15,15,15,Thu Sep 19 16:03:57 2019,1500,The main experiment item,yes,FlankerTask.osexp,/Users/cristianbotello/Desktop/Advanced Quant,no,mono,no,18,no,white,no,yes,768,legacy,15,15,/Users/cristianbotello/Desktop/Advanced Quant/CB-subject-1.csv,legacy,Kafkaesque Koffka,3.2.8,0,s,NA,NA,s,NA,s,444,NA,NA,39640,NA,444,2,legacy,1024,2,48000,-16,experiment,SSSSS,1,odd,42734,NA,NA,67507,66994,3064,NA,NA,68606,NA,3083,NA,68721,69166,68595,68721,Flanker Task,15,7251,16,yes,1024
94.11764706,94.11764706,449.8235294,449.8235294,black,legacy,legacy,legacy,0,incongruent,uniform,1,undefined,1,h,0,0,0,16,16,0,16,0,16,0,0,0,16,16,16,16,Thu Sep 19 16:03:57 2019,1500,The main experiment item,yes,FlankerTask.osexp,/Users/cristianbotello/Desktop/Advanced Quant,no,mono,no,18,no,white,no,yes,768,legacy,16,16,/Users/cristianbotello/Desktop/Advanced Quant/CB-subject-1.csv,legacy,Kafkaesque Koffka,3.2.8,0,h,NA,NA,s,NA,h,396,NA,NA,39640,NA,396,2,legacy,1024,2,48000,-16,experiment,SSHSS,1,odd,42734,NA,NA,69181,66994,3064,NA,NA,70280,NA,3083,NA,70395,70792,70269,70395,Flanker Task,16,7647,17,yes,1024
94.44444444,94.44444444,447.6666667,447.6666667,black,legacy,legacy,legacy,0,congruent,uniform,1,undefined,1,h,0,0,0,17,17,0,17,0,17,0,0,0,17,17,17,17,Thu Sep 19 16:03:57 2019,1500,The main experiment item,yes,FlankerTask.osexp,/Users/cristianbotello/Desktop/Advanced Quant,no,mono,no,18,no,white,no,yes,768,legacy,17,17,/Users/cristianbotello/Desktop/Advanced Quant/CB-subject-1.csv,legacy,Kafkaesque Koffka,3.2.8,0,h,NA,NA,s,NA,h,411,NA,NA,39640,NA,411,2,legacy,1024,2,48000,-16,experiment,HHHHH,1,odd,42734,NA,NA,70807,66994,3064,NA,NA,71907,NA,3083,NA,72021,72433,71895,72021,Flanker Task,17,8058,18,yes,1024
94.73684211,94.73684211,445.4736842,445.4736842,black,legacy,legacy,legacy,0,congruent,uniform,1,undefined,1,h,0,0,0,18,18,0,18,0,18,0,0,0,18,18,18,18,Thu Sep 19 16:03:57 2019,1500,The main experiment item,yes,FlankerTask.osexp,/Users/cristianbotello/Desktop/Advanced Quant,no,mono,no,18,no,white,no,yes,768,legacy,18,18,/Users/cristianbotello/Desktop/Advanced Quant/CB-subject-1.csv,legacy,Kafkaesque Koffka,3.2.8,0,h,NA,NA,s,NA,h,406,NA,NA,39640,NA,406,2,legacy,1024,2,48000,-16,experiment,HHHHH,1,odd,42734,NA,NA,72447,66994,3064,NA,NA,73546,NA,3083,NA,73661,74069,73534,73660,Flanker Task,18,8464,19,yes,1024
95,95,442.4,442.4,black,legacy,legacy,legacy,0,congruent,uniform,1,undefined,1,h,0,0,0,19,19,0,19,0,19,0,0,0,19,19,19,19,Thu Sep 19 16:03:57 2019,1500,The main experiment item,yes,FlankerTask.osexp,/Users/cristianbotello/Desktop/Advanced Quant,no,mono,no,18,no,white,no,yes,768,legacy,19,19,/Users/cristianbotello/Desktop/Advanced Quant/CB-subject-1.csv,legacy,Kafkaesque Koffka,3.2.8,0,h,NA,NA,s,NA,h,384,NA,NA,39640,NA,384,2,legacy,1024,2,48000,-16,experiment,HHHHH,1,odd,42734,NA,NA,74083,66994,3064,NA,NA,75182,NA,3083,NA,75297,75683,75170,75297,Flanker Task,19,8848,20,yes,1024
95.23809524,95.23809524,439.3809524,439.3809524,black,legacy,legacy,legacy,0,congruent,uniform,1,undefined,1,h,0,0,0,20,20,0,20,0,20,0,0,0,20,20,20,20,Thu Sep 19 16:03:57 2019,1500,The main experiment item,yes,FlankerTask.osexp,/Users/cristianbotello/Desktop/Advanced Quant,no,mono,no,18,no,white,no,yes,768,legacy,20,20,/Users/cristianbotello/Desktop/Advanced Quant/CB-subject-1.csv,legacy,Kafkaesque Koffka,3.2.8,0,h,NA,NA,s,NA,h,379,NA,NA,39640,NA,379,2,legacy,1024,2,48000,-16,experiment,HHHHH,1,odd,42734,NA,NA,75698,66994,3064,NA,NA,76798,NA,3083,NA,76913,77294,76786,76913,Flanker Task,20,9227,21,yes,1024
95.45454545,95.45454545,440.3181818,440.3181818,black,legacy,legacy,legacy,0,incongruent,uniform,1,undefined,1,s,0,0,0,21,21,0,21,0,21,0,0,0,21,21,21,21,Thu Sep 19 16:03:57 2019,1500,The main experiment item,yes,FlankerTask.osexp,/Users/cristianbotello/Desktop/Advanced Quant,no,mono,no,18,no,white,no,yes,768,legacy,21,21,/Users/cristianbotello/Desktop/Advanced Quant/CB-subject-1.csv,legacy,Kafkaesque Koffka,3.2.8,0,s,NA,NA,s,NA,s,460,NA,NA,39640,NA,460,2,legacy,1024,2,48000,-16,experiment,HHSHH,1,odd,42734,NA,NA,77308,66994,3064,NA,NA,78407,NA,3083,NA,78523,78985,78396,78522,Flanker Task,21,9687,22,yes,1024
95.65217391,95.65217391,438.6086957,438.6086957,black,legacy,legacy,legacy,0,incongruent,uniform,1,undefined,1,h,0,0,0,22,22,0,22,0,22,0,0,0,22,22,22,22,Thu Sep 19 16:03:57 2019,1500,The main experiment item,yes,FlankerTask.osexp,/Users/cristianbotello/Desktop/Advanced Quant,no,mono,no,18,no,white,no,yes,768,legacy,22,22,/Users/cristianbotello/Desktop/Advanced Quant/CB-subject-1.csv,legacy,Kafkaesque Koffka,3.2.8,0,h,NA,NA,s,NA,h,401,NA,NA,39640,NA,401,2,legacy,1024,2,48000,-16,experiment,SSHSS,1,odd,42734,NA,NA,79000,66994,3064,NA,NA,80098,NA,3083,NA,80213,80616,80087,80213,Flanker Task,22,10088,23,yes,1024
95.83333333,95.83333333,439,439,black,legacy,legacy,legacy,0,incongruent,uniform,1,undefined,1,s,0,0,0,23,23,0,23,0,23,0,0,0,23,23,23,23,Thu Sep 19 16:03:57 2019,1500,The main experiment item,yes,FlankerTask.osexp,/Users/cristianbotello/Desktop/Advanced Quant,no,mono,no,18,no,white,no,yes,768,legacy,23,23,/Users/cristianbotello/Desktop/Advanced Quant/CB-subject-1.csv,legacy,Kafkaesque Koffka,3.2.8,0,s,NA,NA,s,NA,s,448,NA,NA,39640,NA,448,2,legacy,1024,2,48000,-16,experiment,HHSHH,1,odd,42734,NA,NA,80630,66994,3064,NA,NA,81729,NA,3083,NA,81844,82294,81718,81844,Flanker Task,23,10536,24,yes,1024
96,96,438.48,438.48,black,legacy,legacy,legacy,0,congruent,uniform,1,undefined,1,s,0,0,0,24,24,0,24,0,24,0,0,0,24,24,24,24,Thu Sep 19 16:03:57 2019,1500,The main experiment item,yes,FlankerTask.osexp,/Users/cristianbotello/Desktop/Advanced Quant,no,mono,no,18,no,white,no,yes,768,legacy,24,24,/Users/cristianbotello/Desktop/Advanced Quant/CB-subject-1.csv,legacy,Kafkaesque Koffka,3.2.8,0,s,NA,NA,s,NA,s,426,NA,NA,39640,NA,426,2,legacy,1024,2,48000,-16,experiment,SSSSS,1,odd,42734,NA,NA,82308,66994,3064,NA,NA,83407,NA,3083,NA,83518,83946,83396,83518,Flanker Task,24,10962,25,yes,1024
96.15384615,96.15384615,439,439,black,legacy,legacy,legacy,0,incongruent,uniform,1,undefined,1,h,0,0,0,25,25,0,25,0,25,0,0,0,25,25,25,25,Thu Sep 19 16:03:57 2019,1500,The main experiment item,yes,FlankerTask.osexp,/Users/cristianbotello/Desktop/Advanced Quant,no,mono,no,18,no,white,no,yes,768,legacy,25,25,/Users/cristianbotello/Desktop/Advanced Quant/CB-subject-1.csv,legacy,Kafkaesque Koffka,3.2.8,0,h,NA,NA,s,NA,h,452,NA,NA,39640,NA,452,2,legacy,1024,2,48000,-16,experiment,SSHSS,1,odd,42734,NA,NA,83960,66994,3064,NA,NA,85059,NA,3083,NA,85172,85626,85047,85171,Flanker Task,25,11414,26,yes,1024
96.2962963,96.2962963,437.4444444,437.4444444,black,legacy,legacy,legacy,0,incongruent,uniform,1,undefined,1,h,0,0,0,26,26,0,26,0,26,0,0,0,26,26,26,26,Thu Sep 19 16:03:57 2019,1500,The main experiment item,yes,FlankerTask.osexp,/Users/cristianbotello/Desktop/Advanced Quant,no,mono,no,18,no,white,no,yes,768,legacy,26,26,/Users/cristianbotello/Desktop/Advanced Quant/CB-subject-1.csv,legacy,Kafkaesque Koffka,3.2.8,0,h,NA,NA,s,NA,h,397,NA,NA,39640,NA,397,2,legacy,1024,2,48000,-16,experiment,SSHSS,1,odd,42734,NA,NA,85640,66994,3064,NA,NA,86738,NA,3083,NA,86854,87253,86727,86854,Flanker Task,26,11811,27,yes,1024
96.42857143,96.42857143,438.8214286,438.8214286,black,legacy,legacy,legacy,0,congruent,uniform,1,undefined,1,s,0,0,0,27,27,0,27,0,27,0,0,0,27,27,27,27,Thu Sep 19 16:03:57 2019,1500,The main experiment item,yes,FlankerTask.osexp,/Users/cristianbotello/Desktop/Advanced Quant,no,mono,no,18,no,white,no,yes,768,legacy,27,27,/Users/cristianbotello/Desktop/Advanced Quant/CB-subject-1.csv,legacy,Kafkaesque Koffka,3.2.8,0,s,NA,NA,s,NA,s,476,NA,NA,39640,NA,476,2,legacy,1024,2,48000,-16,experiment,SSSSS,1,odd,42734,NA,NA,87266,66994,3064,NA,NA,88366,NA,3083,NA,88481,88959,88355,88481,Flanker Task,27,12287,28,yes,1024
96.55172414,96.55172414,440.3793103,440.3793103,black,legacy,legacy,legacy,0,congruent,uniform,1,undefined,1,h,0,0,0,28,28,0,28,0,28,0,0,0,28,28,28,28,Thu Sep 19 16:03:57 2019,1500,The main experiment item,yes,FlankerTask.osexp,/Users/cristianbotello/Desktop/Advanced Quant,no,mono,no,18,no,white,no,yes,768,legacy,28,28,/Users/cristianbotello/Desktop/Advanced Quant/CB-subject-1.csv,legacy,Kafkaesque Koffka,3.2.8,0,h,NA,NA,s,NA,h,484,NA,NA,39640,NA,484,2,legacy,1024,2,48000,-16,experiment,HHHHH,1,odd,42734,NA,NA,88983,66994,3064,NA,NA,90081,NA,3083,NA,90196,90681,90070,90196,Flanker Task,28,12771,29,yes,1024
96.66666667,96.66666667,438.5333333,438.5333333,black,legacy,legacy,legacy,0,congruent,uniform,1,undefined,1,h,0,0,0,29,29,0,29,0,29,0,0,0,29,29,29,29,Thu Sep 19 16:03:57 2019,1500,The main experiment item,yes,FlankerTask.osexp,/Users/cristianbotello/Desktop/Advanced Quant,no,mono,no,18,no,white,no,yes,768,legacy,29,29,/Users/cristianbotello/Desktop/Advanced Quant/CB-subject-1.csv,legacy,Kafkaesque Koffka,3.2.8,0,h,NA,NA,s,NA,h,385,NA,NA,39640,NA,385,2,legacy,1024,2,48000,-16,experiment,HHHHH,1,odd,42734,NA,NA,90696,66994,3064,NA,NA,91795,NA,3083,NA,91911,92297,91784,91911,Flanker Task,29,13156,30,yes,1024
96.77419355,96.77419355,437.8387097,437.8387097,black,legacy,legacy,legacy,0,congruent,uniform,1,undefined,1,s,0,0,0,30,30,0,30,0,30,0,0,0,30,30,30,30,Thu Sep 19 16:03:57 2019,1500,The main experiment item,yes,FlankerTask.osexp,/Users/cristianbotello/Desktop/Advanced Quant,no,mono,no,18,no,white,no,yes,768,legacy,30,30,/Users/cristianbotello/Desktop/Advanced Quant/CB-subject-1.csv,legacy,Kafkaesque Koffka,3.2.8,0,s,NA,NA,s,NA,s,417,NA,NA,39640,NA,417,2,legacy,1024,2,48000,-16,experiment,SSSSS,1,odd,42734,NA,NA,92312,66994,3064,NA,NA,93411,NA,3083,NA,93526,93944,93400,93526,Flanker Task,30,13573,31,yes,1024
96.875,96.875,440,440,black,legacy,legacy,legacy,0,incongruent,uniform,1,undefined,1,h,0,0,0,31,31,0,31,0,31,0,0,0,31,31,31,31,Thu Sep 19 16:03:57 2019,1500,The main experiment item,yes,FlankerTask.osexp,/Users/cristianbotello/Desktop/Advanced Quant,no,mono,no,18,no,white,no,yes,768,legacy,31,31,/Users/cristianbotello/Desktop/Advanced Quant/CB-subject-1.csv,legacy,Kafkaesque Koffka,3.2.8,0,h,NA,NA,s,NA,h,507,NA,NA,39640,NA,507,2,legacy,1024,2,48000,-16,experiment,SSHSS,1,odd,42734,NA,NA,93958,66994,3064,NA,NA,95058,NA,3083,NA,95173,95682,95046,95173,Flanker Task,31,14080,32,yes,1024
96.96969697,96.96969697,441.1212121,441.1212121,black,legacy,legacy,legacy,0,congruent,uniform,1,undefined,1,s,0,0,0,32,32,0,32,0,32,0,0,0,32,32,32,32,Thu Sep 19 16:03:57 2019,1500,The main experiment item,yes,FlankerTask.osexp,/Users/cristianbotello/Desktop/Advanced Quant,no,mono,no,18,no,white,no,yes,768,legacy,32,32,/Users/cristianbotello/Desktop/Advanced Quant/CB-subject-1.csv,legacy,Kafkaesque Koffka,3.2.8,0,s,NA,NA,s,NA,s,477,NA,NA,39640,NA,477,2,legacy,1024,2,48000,-16,experiment,SSSSS,1,odd,42734,NA,NA,95697,66994,3064,NA,NA,96795,NA,3083,NA,96910,97389,96784,96910,Flanker Task,32,14557,33,yes,1024
97.05882353,97.05882353,443.9411765,443.9411765,black,legacy,legacy,legacy,0,incongruent,uniform,1,undefined,1,h,0,0,0,33,33,0,33,0,33,0,0,0,33,33,33,33,Thu Sep 19 16:03:57 2019,1500,The main experiment item,yes,FlankerTask.osexp,/Users/cristianbotello/Desktop/Advanced Quant,no,mono,no,18,no,white,no,yes,768,legacy,33,33,/Users/cristianbotello/Desktop/Advanced Quant/CB-subject-1.csv,legacy,Kafkaesque Koffka,3.2.8,0,h,NA,NA,s,NA,h,537,NA,NA,39640,NA,537,2,legacy,1024,2,48000,-16,experiment,SSHSS,1,odd,42734,NA,NA,97404,66994,3064,NA,NA,98504,NA,3083,NA,98615,99154,98492,98615,Flanker Task,33,15094,34,yes,1024
97.14285714,97.14285714,443.6285714,443.6285714,black,legacy,legacy,legacy,0,incongruent,uniform,1,undefined,1,h,0,0,0,34,34,0,34,0,34,0,0,0,34,34,34,34,Thu Sep 19 16:03:57 2019,1500,The main experiment item,yes,FlankerTask.osexp,/Users/cristianbotello/Desktop/Advanced Quant,no,mono,no,18,no,white,no,yes,768,legacy,34,34,/Users/cristianbotello/Desktop/Advanced Quant/CB-subject-1.csv,legacy,Kafkaesque Koffka,3.2.8,0,h,NA,NA,s,NA,h,433,NA,NA,39640,NA,433,2,legacy,1024,2,48000,-16,experiment,SSHSS,1,odd,42734,NA,NA,99169,66994,3064,NA,NA,100268,NA,3083,NA,100382,100817,100256,100382,Flanker Task,34,15527,35,yes,1024
97.22222222,97.22222222,443.5555556,443.5555556,black,legacy,legacy,legacy,0,incongruent,uniform,1,undefined,1,s,0,0,0,35,35,0,35,0,35,0,0,0,35,35,35,35,Thu Sep 19 16:03:57 2019,1500,The main experiment item,yes,FlankerTask.osexp,/Users/cristianbotello/Desktop/Advanced Quant,no,mono,no,18,no,white,no,yes,768,legacy,35,35,/Users/cristianbotello/Desktop/Advanced Quant/CB-subject-1.csv,legacy,Kafkaesque Koffka,3.2.8,0,s,NA,NA,s,NA,s,441,NA,NA,39640,NA,441,2,legacy,1024,2,48000,-16,experiment,HHSHH,1,odd,42734,NA,NA,100836,66994,3064,NA,NA,101936,NA,3083,NA,102047,102490,101924,102047,Flanker Task,35,15968,36,yes,1024
97.2972973,97.2972973,441.7837838,441.7837838,black,legacy,legacy,legacy,0,incongruent,uniform,1,undefined,1,h,0,0,0,36,36,0,36,0,36,0,0,0,36,36,36,36,Thu Sep 19 16:03:57 2019,1500,The main experiment item,yes,FlankerTask.osexp,/Users/cristianbotello/Desktop/Advanced Quant,no,mono,no,18,no,white,no,yes,768,legacy,36,36,/Users/cristianbotello/Desktop/Advanced Quant/CB-subject-1.csv,legacy,Kafkaesque Koffka,3.2.8,0,h,NA,NA,s,NA,h,378,NA,NA,39640,NA,378,2,legacy,1024,2,48000,-16,experiment,SSHSS,1,odd,42734,NA,NA,102504,66994,3064,NA,NA,103603,NA,3083,NA,103718,104098,103591,103717,Flanker Task,36,16346,37,yes,1024
97.36842105,97.36842105,442.5263158,442.5263158,black,legacy,legacy,legacy,0,incongruent,uniform,1,undefined,1,s,0,0,0,37,37,0,37,0,37,0,0,0,37,37,37,37,Thu Sep 19 16:03:57 2019,1500,The main experiment item,yes,FlankerTask.osexp,/Users/cristianbotello/Desktop/Advanced Quant,no,mono,no,18,no,white,no,yes,768,legacy,37,37,/Users/cristianbotello/Desktop/Advanced Quant/CB-subject-1.csv,legacy,Kafkaesque Koffka,3.2.8,0,s,NA,NA,s,NA,s,470,NA,NA,39640,NA,470,2,legacy,1024,2,48000,-16,experiment,HHSHH,1,odd,42734,NA,NA,104112,66994,3064,NA,NA,105211,NA,3083,NA,105327,105799,105200,105327,Flanker Task,37,16816,38,yes,1024
97.43589744,97.43589744,442.6153846,442.6153846,black,legacy,legacy,legacy,0,congruent,uniform,1,undefined,1,s,0,0,0,38,38,0,38,0,38,0,0,0,38,38,38,38,Thu Sep 19 16:03:57 2019,1500,The main experiment item,yes,FlankerTask.osexp,/Users/cristianbotello/Desktop/Advanced Quant,no,mono,no,18,no,white,no,yes,768,legacy,38,38,/Users/cristianbotello/Desktop/Advanced Quant/CB-subject-1.csv,legacy,Kafkaesque Koffka,3.2.8,0,s,NA,NA,s,NA,s,446,NA,NA,39640,NA,446,2,legacy,1024,2,48000,-16,experiment,SSSSS,1,odd,42734,NA,NA,105814,66994,3064,NA,NA,106913,NA,3083,NA,107027,107475,106902,107027,Flanker Task,38,17262,39,yes,1024
97.5,97.5,441.175,441.175,black,legacy,legacy,legacy,0,incongruent,uniform,1,undefined,1,s,0,0,0,39,39,0,39,0,39,0,0,0,39,39,39,39,Thu Sep 19 16:03:57 2019,1500,The main experiment item,yes,FlankerTask.osexp,/Users/cristianbotello/Desktop/Advanced Quant,no,mono,no,18,no,white,no,yes,768,legacy,39,39,/Users/cristianbotello/Desktop/Advanced Quant/CB-subject-1.csv,legacy,Kafkaesque Koffka,3.2.8,0,s,NA,NA,s,NA,s,385,NA,NA,39640,NA,385,2,legacy,1024,2,48000,-16,experiment,HHSHH,1,odd,42734,NA,NA,107490,66994,3064,NA,NA,108589,NA,3083,NA,108704,109091,108577,108704,Flanker Task,39,17647,40,yes,1024
97.56097561,97.56097561,439.5365854,439.5365854,black,legacy,legacy,legacy,0,incongruent,uniform,1,undefined,1,s,0,0,0,40,40,0,40,0,40,0,0,0,40,40,40,40,Thu Sep 19 16:03:57 2019,1500,The main experiment item,yes,FlankerTask.osexp,/Users/cristianbotello/Desktop/Advanced Quant,no,mono,no,18,no,white,no,yes,768,legacy,40,40,/Users/cristianbotello/Desktop/Advanced Quant/CB-subject-1.csv,legacy,Kafkaesque Koffka,3.2.8,0,s,NA,NA,s,NA,s,374,NA,NA,39640,NA,374,2,legacy,1024,2,48000,-16,experiment,HHSHH,1,odd,42734,NA,NA,109105,66994,3064,NA,NA,110205,NA,3083,NA,110320,110696,110193,110320,Flanker Task,40,18021,41,yes,1024
97.61904762,97.61904762,439.2857143,439.2857143,black,legacy,legacy,legacy,0,congruent,uniform,1,undefined,1,h,0,0,0,41,41,0,41,0,41,0,0,0,41,41,41,41,Thu Sep 19 16:03:57 2019,1500,The main experiment item,yes,FlankerTask.osexp,/Users/cristianbotello/Desktop/Advanced Quant,no,mono,no,18,no,white,no,yes,768,legacy,41,41,/Users/cristianbotello/Desktop/Advanced Quant/CB-subject-1.csv,legacy,Kafkaesque Koffka,3.2.8,0,h,NA,NA,s,NA,h,429,NA,NA,39640,NA,429,2,legacy,1024,2,48000,-16,experiment,HHHHH,1,odd,42734,NA,NA,110710,66994,3064,NA,NA,111810,NA,3083,NA,111925,112356,111798,111925,Flanker Task,41,18450,42,yes,1024
97.6744186,97.6744186,437.8837209,437.8837209,black,legacy,legacy,legacy,0,incongruent,uniform,1,undefined,1,s,0,0,0,42,42,0,42,0,42,0,0,0,42,42,42,42,Thu Sep 19 16:03:57 2019,1500,The main experiment item,yes,FlankerTask.osexp,/Users/cristianbotello/Desktop/Advanced Quant,no,mono,no,18,no,white,no,yes,768,legacy,42,42,/Users/cristianbotello/Desktop/Advanced Quant/CB-subject-1.csv,legacy,Kafkaesque Koffka,3.2.8,0,s,NA,NA,s,NA,s,379,NA,NA,39640,NA,379,2,legacy,1024,2,48000,-16,experiment,HHSHH,1,odd,42734,NA,NA,112370,66994,3064,NA,NA,113470,NA,3083,NA,113585,113966,113458,113584,Flanker Task,42,18829,43,yes,1024
97.72727273,97.72727273,438.4545455,438.4545455,black,legacy,legacy,legacy,0,congruent,uniform,1,undefined,1,h,0,0,0,43,43,0,43,0,43,0,0,0,43,43,43,43,Thu Sep 19 16:03:57 2019,1500,The main experiment item,yes,FlankerTask.osexp,/Users/cristianbotello/Desktop/Advanced Quant,no,mono,no,18,no,white,no,yes,768,legacy,43,43,/Users/cristianbotello/Desktop/Advanced Quant/CB-subject-1.csv,legacy,Kafkaesque Koffka,3.2.8,0,h,NA,NA,s,NA,h,463,NA,NA,39640,NA,463,2,legacy,1024,2,48000,-16,experiment,HHHHH,1,odd,42734,NA,NA,113980,66994,3064,NA,NA,115079,NA,3083,NA,115194,115659,115067,115193,Flanker Task,43,19292,44,yes,1024
97.77777778,97.77777778,440.5555556,440.5555556,black,legacy,legacy,legacy,0,incongruent,uniform,1,undefined,1,h,0,0,0,44,44,0,44,0,44,0,0,0,44,44,44,44,Thu Sep 19 16:03:57 2019,1500,The main experiment item,yes,FlankerTask.osexp,/Users/cristianbotello/Desktop/Advanced Quant,no,mono,no,18,no,white,no,yes,768,legacy,44,44,/Users/cristianbotello/Desktop/Advanced Quant/CB-subject-1.csv,legacy,Kafkaesque Koffka,3.2.8,0,h,NA,NA,s,NA,h,533,NA,NA,39640,NA,533,2,legacy,1024,2,48000,-16,experiment,SSHSS,1,odd,42734,NA,NA,115673,66994,3064,NA,NA,116773,NA,3083,NA,116885,117420,116761,116884,Flanker Task,44,19825,45,yes,1024
97.82608696,97.82608696,442.1521739,442.1521739,black,legacy,legacy,legacy,0,congruent,uniform,1,undefined,1,h,0,0,0,45,45,0,45,0,45,0,0,0,45,45,45,45,Thu Sep 19 16:03:57 2019,1500,The main experiment item,yes,FlankerTask.osexp,/Users/cristianbotello/Desktop/Advanced Quant,no,mono,no,18,no,white,no,yes,768,legacy,45,45,/Users/cristianbotello/Desktop/Advanced Quant/CB-subject-1.csv,legacy,Kafkaesque Koffka,3.2.8,0,h,NA,NA,s,NA,h,514,NA,NA,39640,NA,514,2,legacy,1024,2,48000,-16,experiment,HHHHH,1,odd,42734,NA,NA,117434,66994,3064,NA,NA,118534,NA,3083,NA,118649,119165,118521,118649,Flanker Task,45,20339,46,yes,1024
97.87234043,97.87234043,443,443,black,legacy,legacy,legacy,0,congruent,uniform,1,undefined,1,s,0,0,0,46,46,0,46,0,46,0,0,0,46,46,46,46,Thu Sep 19 16:03:57 2019,1500,The main experiment item,yes,FlankerTask.osexp,/Users/cristianbotello/Desktop/Advanced Quant,no,mono,no,18,no,white,no,yes,768,legacy,46,46,/Users/cristianbotello/Desktop/Advanced Quant/CB-subject-1.csv,legacy,Kafkaesque Koffka,3.2.8,0,s,NA,NA,s,NA,s,482,NA,NA,39640,NA,482,2,legacy,1024,2,48000,-16,experiment,SSSSS,1,odd,42734,NA,NA,119183,66994,3064,NA,NA,120282,NA,3083,NA,120397,120881,120270,120397,Flanker Task,46,20821,47,yes,1024
97.91666667,97.91666667,444.7291667,444.7291667,black,legacy,legacy,legacy,0,congruent,uniform,1,undefined,1,h,0,0,0,47,47,0,47,0,47,0,0,0,47,47,47,47,Thu Sep 19 16:03:57 2019,1500,The main experiment item,yes,FlankerTask.osexp,/Users/cristianbotello/Desktop/Advanced Quant,no,mono,no,18,no,white,no,yes,768,legacy,47,47,/Users/cristianbotello/Desktop/Advanced Quant/CB-subject-1.csv,legacy,Kafkaesque Koffka,3.2.8,0,h,NA,NA,s,NA,h,526,NA,NA,39640,NA,526,2,legacy,1024,2,48000,-16,experiment,HHHHH,1,odd,42734,NA,NA,120895,66994,3064,NA,NA,121994,NA,3083,NA,122108,122636,121983,122108,Flanker Task,47,21347,48,yes,1024
97.95918367,97.95918367,442.9387755,442.9387755,black,legacy,legacy,legacy,0,congruent,uniform,1,undefined,1,s,0,0,0,48,48,0,48,0,48,0,0,0,48,48,48,48,Thu Sep 19 16:03:57 2019,1500,The main experiment item,yes,FlankerTask.osexp,/Users/cristianbotello/Desktop/Advanced Quant,no,mono,no,18,no,white,no,yes,768,legacy,48,48,/Users/cristianbotello/Desktop/Advanced Quant/CB-subject-1.csv,legacy,Kafkaesque Koffka,3.2.8,0,s,NA,NA,s,NA,s,357,NA,NA,39640,NA,357,2,legacy,1024,2,48000,-16,experiment,SSSSS,1,odd,42734,NA,NA,122650,66994,3064,NA,NA,123751,NA,3083,NA,123866,124225,123738,123866,Flanker Task,48,21704,49,yes,1024
98,98,442.48,442.48,black,legacy,legacy,legacy,0,congruent,uniform,1,undefined,1,h,0,0,0,49,49,0,49,0,49,0,0,0,49,49,49,49,Thu Sep 19 16:03:57 2019,1500,The main experiment item,yes,FlankerTask.osexp,/Users/cristianbotello/Desktop/Advanced Quant,no,mono,no,18,no,white,no,yes,768,legacy,49,49,/Users/cristianbotello/Desktop/Advanced Quant/CB-subject-1.csv,legacy,Kafkaesque Koffka,3.2.8,0,h,NA,NA,s,NA,h,420,NA,NA,39640,NA,420,2,legacy,1024,2,48000,-16,experiment,HHHHH,1,odd,42734,NA,NA,124239,66994,3064,NA,NA,125338,NA,3083,NA,125453,125875,125326,125452,Flanker Task,49,22124,50,yes,1024
98.03921569,98.03921569,443.3333333,443.3333333,black,legacy,legacy,legacy,0,incongruent,uniform,1,undefined,1,h,0,0,0,50,50,0,50,0,50,0,0,0,50,50,50,50,Thu Sep 19 16:03:57 2019,1500,The main experiment item,yes,FlankerTask.osexp,/Users/cristianbotello/Desktop/Advanced Quant,no,mono,no,18,no,white,no,yes,768,legacy,50,50,/Users/cristianbotello/Desktop/Advanced Quant/CB-subject-1.csv,legacy,Kafkaesque Koffka,3.2.8,0,h,NA,NA,s,NA,h,486,NA,NA,39640,NA,486,2,legacy,1024,2,48000,-16,experiment,SSHSS,1,odd,42734,NA,NA,125889,66994,3064,NA,NA,126988,NA,3083,NA,127102,127590,126976,127102,Flanker Task,50,22610,51,yes,1024
98.07692308,98.07692308,441.9038462,441.9038462,black,legacy,legacy,legacy,0,congruent,uniform,1,undefined,1,h,0,0,0,51,51,0,51,0,51,0,0,0,51,51,51,51,Thu Sep 19 16:03:57 2019,1500,The main experiment item,yes,FlankerTask.osexp,/Users/cristianbotello/Desktop/Advanced Quant,no,mono,no,18,no,white,no,yes,768,legacy,51,51,/Users/cristianbotello/Desktop/Advanced Quant/CB-subject-1.csv,legacy,Kafkaesque Koffka,3.2.8,0,h,NA,NA,s,NA,h,369,NA,NA,39640,NA,369,2,legacy,1024,2,48000,-16,experiment,HHHHH,1,odd,42734,NA,NA,127604,66994,3064,NA,NA,128703,NA,3083,NA,128819,129190,128692,128819,Flanker Task,51,22979,52,yes,1024
98.11320755,98.11320755,441.6792453,441.6792453,black,legacy,legacy,legacy,0,incongruent,uniform,1,undefined,1,h,0,0,0,52,52,0,52,0,52,0,0,0,52,52,52,52,Thu Sep 19 16:03:57 2019,1500,The main experiment item,yes,FlankerTask.osexp,/Users/cristianbotello/Desktop/Advanced Quant,no,mono,no,18,no,white,no,yes,768,legacy,52,52,/Users/cristianbotello/Desktop/Advanced Quant/CB-subject-1.csv,legacy,Kafkaesque Koffka,3.2.8,0,h,NA,NA,s,NA,h,430,NA,NA,39640,NA,430,2,legacy,1024,2,48000,-16,experiment,SSHSS,1,odd,42734,NA,NA,129204,66994,3064,NA,NA,130303,NA,3083,NA,130414,130846,130292,130414,Flanker Task,52,23409,53,yes,1024
98.14814815,98.14814815,441.3518519,441.3518519,black,legacy,legacy,legacy,0,incongruent,uniform,1,undefined,1,h,0,0,0,53,53,0,53,0,53,0,0,0,53,53,53,53,Thu Sep 19 16:03:57 2019,1500,The main experiment item,yes,FlankerTask.osexp,/Users/cristianbotello/Desktop/Advanced Quant,no,mono,no,18,no,white,no,yes,768,legacy,53,53,/Users/cristianbotello/Desktop/Advanced Quant/CB-subject-1.csv,legacy,Kafkaesque Koffka,3.2.8,0,h,NA,NA,s,NA,h,424,NA,NA,39640,NA,424,2,legacy,1024,2,48000,-16,experiment,SSHSS,1,odd,42734,NA,NA,130861,66994,3064,NA,NA,131960,NA,3083,NA,132071,132497,131949,132071,Flanker Task,53,23833,54,yes,1024
98.18181818,98.18181818,440.0545455,440.0545455,black,legacy,legacy,legacy,0,incongruent,uniform,1,undefined,1,h,0,0,0,54,54,0,54,0,54,0,0,0,54,54,54,54,Thu Sep 19 16:03:57 2019,1500,The main experiment item,yes,FlankerTask.osexp,/Users/cristianbotello/Desktop/Advanced Quant,no,mono,no,18,no,white,no,yes,768,legacy,54,54,/Users/cristianbotello/Desktop/Advanced Quant/CB-subject-1.csv,legacy,Kafkaesque Koffka,3.2.8,0,h,NA,NA,s,NA,h,370,NA,NA,39640,NA,370,2,legacy,1024,2,48000,-16,experiment,SSHSS,1,odd,42734,NA,NA,132511,66994,3064,NA,NA,133610,NA,3083,NA,133723,134095,133599,133723,Flanker Task,54,24203,55,yes,1024
96.42857143,96.42857143,438.8571429,438.8571429,black,legacy,legacy,legacy,0,incongruent,uniform,0,undefined,0,s,0,0,0,55,55,0,55,0,55,0,0,0,55,55,55,55,Thu Sep 19 16:03:57 2019,1500,The main experiment item,yes,FlankerTask.osexp,/Users/cristianbotello/Desktop/Advanced Quant,no,mono,no,18,no,white,no,yes,768,legacy,55,55,/Users/cristianbotello/Desktop/Advanced Quant/CB-subject-1.csv,legacy,Kafkaesque Koffka,3.2.8,0,h,NA,NA,s,NA,h,373,NA,NA,39640,NA,373,2,legacy,1024,2,48000,-16,experiment,HHSHH,1,odd,42734,NA,NA,134109,66994,3064,NA,NA,135208,NA,3083,NA,135323,135698,135197,135323,Flanker Task,54,24576,56,yes,1024
96.49122807,96.49122807,438.4912281,438.4912281,black,legacy,legacy,legacy,0,congruent,uniform,1,undefined,1,s,0,0,0,56,56,0,56,0,56,0,0,0,56,56,56,56,Thu Sep 19 16:03:57 2019,1500,The main experiment item,yes,FlankerTask.osexp,/Users/cristianbotello/Desktop/Advanced Quant,no,mono,no,18,no,white,no,yes,768,legacy,56,56,/Users/cristianbotello/Desktop/Advanced Quant/CB-subject-1.csv,legacy,Kafkaesque Koffka,3.2.8,0,s,NA,NA,s,NA,s,418,NA,NA,39640,NA,418,2,legacy,1024,2,48000,-16,experiment,SSSSS,1,odd,42734,NA,NA,136225,135712,3064,NA,NA,137324,NA,3083,NA,137438,137858,137312,137438,Flanker Task,55,24994,57,yes,1024
96.55172414,96.55172414,437.7586207,437.7586207,black,legacy,legacy,legacy,0,congruent,uniform,1,undefined,1,s,0,0,0,57,57,0,57,0,57,0,0,0,57,57,57,57,Thu Sep 19 16:03:57 2019,1500,The main experiment item,yes,FlankerTask.osexp,/Users/cristianbotello/Desktop/Advanced Quant,no,mono,no,18,no,white,no,yes,768,legacy,57,57,/Users/cristianbotello/Desktop/Advanced Quant/CB-subject-1.csv,legacy,Kafkaesque Koffka,3.2.8,0,s,NA,NA,s,NA,s,396,NA,NA,39640,NA,396,2,legacy,1024,2,48000,-16,experiment,SSSSS,1,odd,42734,NA,NA,137872,135712,3064,NA,NA,138970,NA,3083,NA,139084,139482,138958,139084,Flanker Task,56,25390,58,yes,1024
96.61016949,96.61016949,436.8305085,436.8305085,black,legacy,legacy,legacy,0,congruent,uniform,1,undefined,1,s,0,0,0,58,58,0,58,0,58,0,0,0,58,58,58,58,Thu Sep 19 16:03:57 2019,1500,The main experiment item,yes,FlankerTask.osexp,/Users/cristianbotello/Desktop/Advanced Quant,no,mono,no,18,no,white,no,yes,768,legacy,58,58,/Users/cristianbotello/Desktop/Advanced Quant/CB-subject-1.csv,legacy,Kafkaesque Koffka,3.2.8,0,s,NA,NA,s,NA,s,383,NA,NA,39640,NA,383,2,legacy,1024,2,48000,-16,experiment,SSSSS,1,odd,42734,NA,NA,139496,135712,3064,NA,NA,140596,NA,3083,NA,140711,141096,140584,140711,Flanker Task,57,25773,59,yes,1024
95,95,435.4833333,435.4833333,black,legacy,legacy,legacy,0,incongruent,uniform,0,undefined,0,h,0,0,0,59,59,0,59,0,59,0,0,0,59,59,59,59,Thu Sep 19 16:03:57 2019,1500,The main experiment item,yes,FlankerTask.osexp,/Users/cristianbotello/Desktop/Advanced Quant,no,mono,no,18,no,white,no,yes,768,legacy,59,59,/Users/cristianbotello/Desktop/Advanced Quant/CB-subject-1.csv,legacy,Kafkaesque Koffka,3.2.8,0,s,NA,NA,s,NA,s,356,NA,NA,39640,NA,356,2,legacy,1024,2,48000,-16,experiment,SSHSS,1,odd,42734,NA,NA,141110,135712,3064,NA,NA,142209,NA,3083,NA,142324,142682,142197,142323,Flanker Task,57,26129,60,yes,1024
95.08196721,95.08196721,438.295082,438.295082,black,legacy,legacy,legacy,0,incongruent,uniform,1,undefined,1,s,0,0,0,60,60,0,60,0,60,0,0,0,60,60,60,60,Thu Sep 19 16:03:57 2019,1500,The main experiment item,yes,FlankerTask.osexp,/Users/cristianbotello/Desktop/Advanced Quant,no,mono,no,18,no,white,no,yes,768,legacy,60,60,/Users/cristianbotello/Desktop/Advanced Quant/CB-subject-1.csv,legacy,Kafkaesque Koffka,3.2.8,0,s,NA,NA,s,NA,s,607,NA,NA,39640,NA,607,2,legacy,1024,2,48000,-16,experiment,HHSHH,1,odd,42734,NA,NA,143209,142696,3064,NA,NA,144309,NA,3083,NA,144421,145031,144297,144421,Flanker Task,58,26736,61,yes,1024
95.16129032,95.16129032,439.5,439.5,black,legacy,legacy,legacy,0,incongruent,uniform,1,undefined,1,s,0,0,0,61,61,0,61,0,61,0,0,0,61,61,61,61,Thu Sep 19 16:03:57 2019,1500,The main experiment item,yes,FlankerTask.osexp,/Users/cristianbotello/Desktop/Advanced Quant,no,mono,no,18,no,white,no,yes,768,legacy,61,61,/Users/cristianbotello/Desktop/Advanced Quant/CB-subject-1.csv,legacy,Kafkaesque Koffka,3.2.8,0,s,NA,NA,s,NA,s,513,NA,NA,39640,NA,513,2,legacy,1024,2,48000,-16,experiment,HHSHH,1,odd,42734,NA,NA,145045,142696,3064,NA,NA,146144,NA,3083,NA,146255,146771,146132,146255,Flanker Task,59,27249,62,yes,1024
95.23809524,95.23809524,439.1269841,439.1269841,black,legacy,legacy,legacy,0,congruent,uniform,1,undefined,1,s,0,0,0,62,62,0,62,0,62,0,0,0,62,62,62,62,Thu Sep 19 16:03:57 2019,1500,The main experiment item,yes,FlankerTask.osexp,/Users/cristianbotello/Desktop/Advanced Quant,no,mono,no,18,no,white,no,yes,768,legacy,62,62,/Users/cristianbotello/Desktop/Advanced Quant/CB-subject-1.csv,legacy,Kafkaesque Koffka,3.2.8,0,s,NA,NA,s,NA,s,416,NA,NA,39640,NA,416,2,legacy,1024,2,48000,-16,experiment,SSSSS,1,odd,42734,NA,NA,146785,142696,3064,NA,NA,147885,NA,3083,NA,148000,148418,147873,147999,Flanker Task,60,27665,63,yes,1024
95.3125,95.3125,440.171875,440.171875,black,legacy,legacy,legacy,0,congruent,uniform,1,undefined,1,h,0,0,0,63,63,0,63,0,63,0,0,0,63,63,63,63,Thu Sep 19 16:03:57 2019,1500,The main experiment item,yes,FlankerTask.osexp,/Users/cristianbotello/Desktop/Advanced Quant,no,mono,no,18,no,white,no,yes,768,legacy,63,63,/Users/cristianbotello/Desktop/Advanced Quant/CB-subject-1.csv,legacy,Kafkaesque Koffka,3.2.8,0,h,NA,NA,s,NA,h,506,NA,NA,39640,NA,506,2,legacy,1024,2,48000,-16,experiment,HHHHH,1,odd,42734,NA,NA,148436,142696,3064,NA,NA,149536,NA,3083,NA,149651,150159,149524,149651,Flanker Task,61,28171,64,yes,1024
95.38461538,95.38461538,440.0769231,440.0769231,black,legacy,legacy,legacy,0,congruent,uniform,1,undefined,1,h,0,0,0,64,64,0,64,0,64,0,0,0,64,64,64,64,Thu Sep 19 16:03:57 2019,1500,The main experiment item,yes,FlankerTask.osexp,/Users/cristianbotello/Desktop/Advanced Quant,no,mono,no,18,no,white,no,yes,768,legacy,64,64,/Users/cristianbotello/Desktop/Advanced Quant/CB-subject-1.csv,legacy,Kafkaesque Koffka,3.2.8,0,h,NA,NA,s,NA,h,434,NA,NA,39640,NA,434,2,legacy,1024,2,48000,-16,experiment,HHHHH,1,odd,42734,NA,NA,150174,142696,3064,NA,NA,151273,NA,3083,NA,151388,151824,151262,151388,Flanker Task,62,28605,65,yes,1024
95.45454545,95.45454545,441.5,441.5,black,legacy,legacy,legacy,0,incongruent,uniform,1,undefined,1,s,0,0,0,65,65,0,65,0,65,0,0,0,65,65,65,65,Thu Sep 19 16:03:57 2019,1500,The main experiment item,yes,FlankerTask.osexp,/Users/cristianbotello/Desktop/Advanced Quant,no,mono,no,18,no,white,no,yes,768,legacy,65,65,/Users/cristianbotello/Desktop/Advanced Quant/CB-subject-1.csv,legacy,Kafkaesque Koffka,3.2.8,0,s,NA,NA,s,NA,s,534,NA,NA,39640,NA,534,2,legacy,1024,2,48000,-16,experiment,HHSHH,1,odd,42734,NA,NA,151838,142696,3064,NA,NA,152937,NA,3083,NA,153052,153588,152926,153052,Flanker Task,63,29139,66,yes,1024
95.52238806,95.52238806,440.1641791,440.1641791,black,legacy,legacy,legacy,0,congruent,uniform,1,undefined,1,s,0,0,0,66,66,0,66,0,66,0,0,0,66,66,66,66,Thu Sep 19 16:03:57 2019,1500,The main experiment item,yes,FlankerTask.osexp,/Users/cristianbotello/Desktop/Advanced Quant,no,mono,no,18,no,white,no,yes,768,legacy,66,66,/Users/cristianbotello/Desktop/Advanced Quant/CB-subject-1.csv,legacy,Kafkaesque Koffka,3.2.8,0,s,NA,NA,s,NA,s,352,NA,NA,39640,NA,352,2,legacy,1024,2,48000,-16,experiment,SSSSS,1,odd,42734,NA,NA,153602,142696,3064,NA,NA,154702,NA,3083,NA,154817,155171,154690,154817,Flanker Task,64,29491,67,yes,1024
95.58823529,95.58823529,440.4558824,440.4558824,black,legacy,legacy,legacy,0,incongruent,uniform,1,undefined,1,s,0,0,0,67,67,0,67,0,67,0,0,0,67,67,67,67,Thu Sep 19 16:03:57 2019,1500,The main experiment item,yes,FlankerTask.osexp,/Users/cristianbotello/Desktop/Advanced Quant,no,mono,no,18,no,white,no,yes,768,legacy,67,67,/Users/cristianbotello/Desktop/Advanced Quant/CB-subject-1.csv,legacy,Kafkaesque Koffka,3.2.8,0,s,NA,NA,s,NA,s,460,NA,NA,39640,NA,460,2,legacy,1024,2,48000,-16,experiment,HHSHH,1,odd,42734,NA,NA,155185,142696,3064,NA,NA,156286,NA,3083,NA,156398,156860,156274,156398,Flanker Task,65,29951,68,yes,1024
95.65217391,95.65217391,438.5507246,438.5507246,black,legacy,legacy,legacy,0,congruent,uniform,1,undefined,1,s,0,0,0,68,68,0,68,0,68,0,0,0,68,68,68,68,Thu Sep 19 16:03:57 2019,1500,The main experiment item,yes,FlankerTask.osexp,/Users/cristianbotello/Desktop/Advanced Quant,no,mono,no,18,no,white,no,yes,768,legacy,68,68,/Users/cristianbotello/Desktop/Advanced Quant/CB-subject-1.csv,legacy,Kafkaesque Koffka,3.2.8,0,s,NA,NA,s,NA,s,309,NA,NA,39640,NA,309,2,legacy,1024,2,48000,-16,experiment,SSSSS,1,odd,42734,NA,NA,156874,142696,3064,NA,NA,157972,NA,3083,NA,158087,158398,157961,158087,Flanker Task,66,30260,69,yes,1024
95.71428571,95.71428571,437.4,437.4,black,legacy,legacy,legacy,0,incongruent,uniform,1,undefined,1,s,0,0,0,69,69,0,69,0,69,0,0,0,69,69,69,69,Thu Sep 19 16:03:57 2019,1500,The main experiment item,yes,FlankerTask.osexp,/Users/cristianbotello/Desktop/Advanced Quant,no,mono,no,18,no,white,no,yes,768,legacy,69,69,/Users/cristianbotello/Desktop/Advanced Quant/CB-subject-1.csv,legacy,Kafkaesque Koffka,3.2.8,0,s,NA,NA,s,NA,s,358,NA,NA,39640,NA,358,2,legacy,1024,2,48000,-16,experiment,HHSHH,1,odd,42734,NA,NA,158413,142696,3064,NA,NA,159512,NA,3083,NA,159625,159985,159500,159624,Flanker Task,67,30618,70,yes,1024
95.77464789,95.77464789,437.2112676,437.2112676,black,legacy,legacy,legacy,0,congruent,uniform,1,undefined,1,h,0,0,0,70,70,0,70,0,70,0,0,0,70,70,70,70,Thu Sep 19 16:03:57 2019,1500,The main experiment item,yes,FlankerTask.osexp,/Users/cristianbotello/Desktop/Advanced Quant,no,mono,no,18,no,white,no,yes,768,legacy,70,70,/Users/cristianbotello/Desktop/Advanced Quant/CB-subject-1.csv,legacy,Kafkaesque Koffka,3.2.8,0,h,NA,NA,s,NA,h,424,NA,NA,39640,NA,424,2,legacy,1024,2,48000,-16,experiment,HHHHH,1,odd,42734,NA,NA,159999,142696,3064,NA,NA,161097,NA,3083,NA,161212,161638,161086,161212,Flanker Task,68,31042,71,yes,1024
95.83333333,95.83333333,439.8055556,439.8055556,black,legacy,legacy,legacy,0,incongruent,uniform,1,undefined,1,h,0,0,0,71,71,0,71,0,71,0,0,0,71,71,71,71,Thu Sep 19 16:03:57 2019,1500,The main experiment item,yes,FlankerTask.osexp,/Users/cristianbotello/Desktop/Advanced Quant,no,mono,no,18,no,white,no,yes,768,legacy,71,71,/Users/cristianbotello/Desktop/Advanced Quant/CB-subject-1.csv,legacy,Kafkaesque Koffka,3.2.8,0,h,NA,NA,s,NA,h,624,NA,NA,39640,NA,624,2,legacy,1024,2,48000,-16,experiment,SSHSS,1,odd,42734,NA,NA,161652,142696,3064,NA,NA,162752,NA,3083,NA,162867,163493,162741,162867,Flanker Task,69,31666,72,yes,1024
95.89041096,95.89041096,439.7808219,439.7808219,black,legacy,legacy,legacy,0,congruent,uniform,1,undefined,1,s,0,0,0,72,72,0,72,0,72,0,0,0,72,72,72,72,Thu Sep 19 16:03:57 2019,1500,The main experiment item,yes,FlankerTask.osexp,/Users/cristianbotello/Desktop/Advanced Quant,no,mono,no,18,no,white,no,yes,768,legacy,72,72,/Users/cristianbotello/Desktop/Advanced Quant/CB-subject-1.csv,legacy,Kafkaesque Koffka,3.2.8,0,s,NA,NA,s,NA,s,438,NA,NA,39640,NA,438,2,legacy,1024,2,48000,-16,experiment,SSSSS,1,odd,42734,NA,NA,163507,142696,3064,NA,NA,164608,NA,3083,NA,164723,165163,164596,164723,Flanker Task,70,32104,73,yes,1024
95.94594595,95.94594595,440.5945946,440.5945946,black,legacy,legacy,legacy,0,incongruent,uniform,1,undefined,1,h,0,0,0,73,73,0,73,0,73,0,0,0,73,73,73,73,Thu Sep 19 16:03:57 2019,1500,The main experiment item,yes,FlankerTask.osexp,/Users/cristianbotello/Desktop/Advanced Quant,no,mono,no,18,no,white,no,yes,768,legacy,73,73,/Users/cristianbotello/Desktop/Advanced Quant/CB-subject-1.csv,legacy,Kafkaesque Koffka,3.2.8,0,h,NA,NA,s,NA,h,500,NA,NA,39640,NA,500,2,legacy,1024,2,48000,-16,experiment,SSHSS,1,odd,42734,NA,NA,165177,142696,3064,NA,NA,166276,NA,3083,NA,166391,166893,166264,166391,Flanker Task,71,32604,74,yes,1024
96,96,440.1733333,440.1733333,black,legacy,legacy,legacy,0,congruent,uniform,1,undefined,1,h,0,0,0,74,74,0,74,0,74,0,0,0,74,74,74,74,Thu Sep 19 16:03:57 2019,1500,The main experiment item,yes,FlankerTask.osexp,/Users/cristianbotello/Desktop/Advanced Quant,no,mono,no,18,no,white,no,yes,768,legacy,74,74,/Users/cristianbotello/Desktop/Advanced Quant/CB-subject-1.csv,legacy,Kafkaesque Koffka,3.2.8,0,h,NA,NA,s,NA,h,409,NA,NA,39640,NA,409,2,legacy,1024,2,48000,-16,experiment,HHHHH,1,odd,42734,NA,NA,166907,142696,3064,NA,NA,168006,NA,3083,NA,168121,168533,167995,168121,Flanker Task,72,33013,75,yes,1024
96.05263158,96.05263158,439.8026316,439.8026316,black,legacy,legacy,legacy,0,congruent,uniform,1,undefined,1,s,0,0,0,75,75,0,75,0,75,0,0,0,75,75,75,75,Thu Sep 19 16:03:57 2019,1500,The main experiment item,yes,FlankerTask.osexp,/Users/cristianbotello/Desktop/Advanced Quant,no,mono,no,18,no,white,no,yes,768,legacy,75,75,/Users/cristianbotello/Desktop/Advanced Quant/CB-subject-1.csv,legacy,Kafkaesque Koffka,3.2.8,0,s,NA,NA,s,NA,s,412,NA,NA,39640,NA,412,2,legacy,1024,2,48000,-16,experiment,SSSSS,1,odd,42734,NA,NA,168547,142696,3064,NA,NA,169645,NA,3083,NA,169761,170176,169634,169760,Flanker Task,73,33425,76,yes,1024
94.80519481,94.80519481,439.012987,439.012987,black,legacy,legacy,legacy,0,incongruent,uniform,0,undefined,0,s,0,0,0,76,76,0,76,0,76,0,0,0,76,76,76,76,Thu Sep 19 16:03:57 2019,1500,The main experiment item,yes,FlankerTask.osexp,/Users/cristianbotello/Desktop/Advanced Quant,no,mono,no,18,no,white,no,yes,768,legacy,76,76,/Users/cristianbotello/Desktop/Advanced Quant/CB-subject-1.csv,legacy,Kafkaesque Koffka,3.2.8,0,h,NA,NA,s,NA,h,379,NA,NA,39640,NA,379,2,legacy,1024,2,48000,-16,experiment,HHSHH,1,odd,42734,NA,NA,170190,142696,3064,NA,NA,171290,NA,3083,NA,171401,171783,171278,171401,Flanker Task,73,33804,77,yes,1024
94.87179487,94.87179487,440.0769231,440.0769231,black,legacy,legacy,legacy,0,incongruent,uniform,1,undefined,1,h,0,0,0,77,77,0,77,0,77,0,0,0,77,77,77,77,Thu Sep 19 16:03:57 2019,1500,The main experiment item,yes,FlankerTask.osexp,/Users/cristianbotello/Desktop/Advanced Quant,no,mono,no,18,no,white,no,yes,768,legacy,77,77,/Users/cristianbotello/Desktop/Advanced Quant/CB-subject-1.csv,legacy,Kafkaesque Koffka,3.2.8,0,h,NA,NA,s,NA,h,522,NA,NA,39640,NA,522,2,legacy,1024,2,48000,-16,experiment,SSHSS,1,odd,42734,NA,NA,172310,171797,3064,NA,NA,173410,NA,3083,NA,173524,174049,173398,173524,Flanker Task,74,34326,78,yes,1024
94.93670886,94.93670886,440.6455696,440.6455696,black,legacy,legacy,legacy,0,incongruent,uniform,1,undefined,1,s,0,0,0,78,78,0,78,0,78,0,0,0,78,78,78,78,Thu Sep 19 16:03:57 2019,1500,The main experiment item,yes,FlankerTask.osexp,/Users/cristianbotello/Desktop/Advanced Quant,no,mono,no,18,no,white,no,yes,768,legacy,78,78,/Users/cristianbotello/Desktop/Advanced Quant/CB-subject-1.csv,legacy,Kafkaesque Koffka,3.2.8,0,s,NA,NA,s,NA,s,485,NA,NA,39640,NA,485,2,legacy,1024,2,48000,-16,experiment,HHSHH,1,odd,42734,NA,NA,174063,171797,3064,NA,NA,175162,NA,3083,NA,175278,175765,175151,175278,Flanker Task,75,34811,79,yes,1024
95,95,439.825,439.825,black,legacy,legacy,legacy,0,incongruent,uniform,1,undefined,1,s,0,0,0,79,79,0,79,0,79,0,0,0,79,79,79,79,Thu Sep 19 16:03:57 2019,1500,The main experiment item,yes,FlankerTask.osexp,/Users/cristianbotello/Desktop/Advanced Quant,no,mono,no,18,no,white,no,yes,768,legacy,79,79,/Users/cristianbotello/Desktop/Advanced Quant/CB-subject-1.csv,legacy,Kafkaesque Koffka,3.2.8,0,s,NA,NA,s,NA,s,375,NA,NA,39640,NA,375,2,legacy,1024,2,48000,-16,experiment,HHSHH,1,odd,42734,NA,NA,175780,171797,3064,NA,NA,176881,NA,3083,NA,176995,177372,176869,176995,Flanker Task,76,35186,80,yes,1024
95.0617284,95.0617284,439.8024691,439.8024691,black,legacy,legacy,legacy,0,congruent,uniform,1,undefined,1,h,0,0,0,80,80,0,80,0,80,0,0,0,80,80,80,80,Thu Sep 19 16:03:57 2019,600,The main experiment item,yes,FlankerTask.osexp,/Users/cristianbotello/Desktop/Advanced Quant,no,mono,no,18,no,white,no,yes,768,legacy,0,79,/Users/cristianbotello/Desktop/Advanced Quant/CB-subject-1.csv,legacy,Kafkaesque Koffka,3.2.8,0,h,NA,h,s,NA,h,438,NA,124404,39640,NA,438,2,legacy,1024,2,48000,-16,experiment,HHHHH,1,odd,42734,302830,NA,177387,171797,3064,NA,NA,302919,178423,3083,NA,303033,303473,302908,303033,Flanker Task,77,35624,81,yes,1024
95.12195122,95.12195122,439.6829268,439.6829268,black,legacy,legacy,legacy,0,congruent,uniform,1,undefined,1,s,0,0,0,81,81,0,81,0,81,0,0,0,81,81,81,81,Thu Sep 19 16:03:57 2019,600,The main experiment item,yes,FlankerTask.osexp,/Users/cristianbotello/Desktop/Advanced Quant,no,mono,no,18,no,white,no,yes,768,legacy,1,79,/Users/cristianbotello/Desktop/Advanced Quant/CB-subject-1.csv,legacy,Kafkaesque Koffka,3.2.8,0,s,NA,h,s,NA,s,430,NA,124404,39640,NA,430,2,legacy,1024,2,48000,-16,experiment,SSSSS,1,odd,42734,302830,NA,303487,171797,3064,NA,NA,304587,178423,3083,NA,304702,305134,304575,304702,Flanker Task,78,36054,82,yes,1024
93.97590361,93.97590361,439.8795181,439.8795181,black,legacy,legacy,legacy,0,incongruent,uniform,0,undefined,0,h,0,0,0,82,82,0,82,0,82,0,0,0,82,82,82,82,Thu Sep 19 16:03:57 2019,600,The main experiment item,yes,FlankerTask.osexp,/Users/cristianbotello/Desktop/Advanced Quant,no,mono,no,18,no,white,no,yes,768,legacy,2,79,/Users/cristianbotello/Desktop/Advanced Quant/CB-subject-1.csv,legacy,Kafkaesque Koffka,3.2.8,0,s,NA,h,s,NA,s,456,NA,124404,39640,NA,456,2,legacy,1024,2,48000,-16,experiment,SSHSS,1,odd,42734,302830,NA,305148,171797,3064,NA,NA,306248,178423,3083,NA,306363,306821,306236,306363,Flanker Task,78,36510,83,yes,1024
94.04761905,94.04761905,439.452381,439.452381,black,legacy,legacy,legacy,0,congruent,uniform,1,undefined,1,s,0,0,0,83,83,0,83,0,83,0,0,0,83,83,83,83,Thu Sep 19 16:03:57 2019,600,The main experiment item,yes,FlankerTask.osexp,/Users/cristianbotello/Desktop/Advanced Quant,no,mono,no,18,no,white,no,yes,768,legacy,3,79,/Users/cristianbotello/Desktop/Advanced Quant/CB-subject-1.csv,legacy,Kafkaesque Koffka,3.2.8,0,s,NA,h,s,NA,s,404,NA,124404,39640,NA,404,2,legacy,1024,2,48000,-16,experiment,SSSSS,1,odd,42734,302830,NA,307348,306835,3064,NA,NA,308449,178423,3083,NA,308564,308971,308437,308563,Flanker Task,79,36914,84,yes,1024
94.11764706,94.11764706,438.7411765,438.7411765,black,legacy,legacy,legacy,0,congruent,uniform,1,undefined,1,h,0,0,0,84,84,0,84,0,84,0,0,0,84,84,84,84,Thu Sep 19 16:03:57 2019,600,The main experiment item,yes,FlankerTask.osexp,/Users/cristianbotello/Desktop/Advanced Quant,no,mono,no,18,no,white,no,yes,768,legacy,4,79,/Users/cristianbotello/Desktop/Advanced Quant/CB-subject-1.csv,legacy,Kafkaesque Koffka,3.2.8,0,h,NA,h,s,NA,h,379,NA,124404,39640,NA,379,2,legacy,1024,2,48000,-16,experiment,HHHHH,1,odd,42734,302830,NA,308985,306835,3064,NA,NA,310083,178423,3083,NA,310197,310579,310072,310197,Flanker Task,80,37293,85,yes,1024
94.18604651,94.18604651,439.4767442,439.4767442,black,legacy,legacy,legacy,0,incongruent,uniform,1,undefined,1,s,0,0,0,85,85,0,85,0,85,0,0,0,85,85,85,85,Thu Sep 19 16:03:57 2019,600,The main experiment item,yes,FlankerTask.osexp,/Users/cristianbotello/Desktop/Advanced Quant,no,mono,no,18,no,white,no,yes,768,legacy,5,79,/Users/cristianbotello/Desktop/Advanced Quant/CB-subject-1.csv,legacy,Kafkaesque Koffka,3.2.8,0,s,NA,h,s,NA,s,502,NA,124404,39640,NA,502,2,legacy,1024,2,48000,-16,experiment,HHSHH,1,odd,42734,302830,NA,310593,306835,3064,NA,NA,311692,178423,3083,NA,311808,312313,311681,311808,Flanker Task,81,37795,86,yes,1024
94.25287356,94.25287356,441.5057471,441.5057471,black,legacy,legacy,legacy,0,congruent,uniform,1,undefined,1,h,0,0,0,86,86,0,86,0,86,0,0,0,86,86,86,86,Thu Sep 19 16:03:57 2019,600,The main experiment item,yes,FlankerTask.osexp,/Users/cristianbotello/Desktop/Advanced Quant,no,mono,no,18,no,white,no,yes,768,legacy,6,79,/Users/cristianbotello/Desktop/Advanced Quant/CB-subject-1.csv,legacy,Kafkaesque Koffka,3.2.8,0,h,NA,h,s,NA,h,616,NA,124404,39640,NA,616,2,legacy,1024,2,48000,-16,experiment,HHHHH,1,odd,42734,302830,NA,312327,306835,3064,NA,NA,313426,178423,3083,NA,313538,314157,313415,313538,Flanker Task,82,38411,87,yes,1024
94.31818182,94.31818182,441.75,441.75,black,legacy,legacy,legacy,0,incongruent,uniform,1,undefined,1,h,0,0,0,87,87,0,87,0,87,0,0,0,87,87,87,87,Thu Sep 19 16:03:57 2019,600,The main experiment item,yes,FlankerTask.osexp,/Users/cristianbotello/Desktop/Advanced Quant,no,mono,no,18,no,white,no,yes,768,legacy,7,79,/Users/cristianbotello/Desktop/Advanced Quant/CB-subject-1.csv,legacy,Kafkaesque Koffka,3.2.8,0,h,NA,h,s,NA,h,463,NA,124404,39640,NA,463,2,legacy,1024,2,48000,-16,experiment,SSHSS,1,odd,42734,302830,NA,314683,306835,3064,314171,NA,315784,178423,3083,NA,315899,316365,315772,315899,Flanker Task,83,38874,88,yes,1024
94.38202247,94.38202247,440.9213483,440.9213483,black,legacy,legacy,legacy,0,incongruent,uniform,1,undefined,1,h,0,0,0,88,88,0,88,0,88,0,0,0,88,88,88,88,Thu Sep 19 16:03:57 2019,600,The main experiment item,yes,FlankerTask.osexp,/Users/cristianbotello/Desktop/Advanced Quant,no,mono,no,18,no,white,no,yes,768,legacy,8,79,/Users/cristianbotello/Desktop/Advanced Quant/CB-subject-1.csv,legacy,Kafkaesque Koffka,3.2.8,0,h,NA,h,s,NA,h,368,NA,124404,39640,NA,368,2,legacy,1024,2,48000,-16,experiment,SSHSS,1,odd,42734,302830,NA,316379,306835,3064,314171,NA,317479,178423,3083,NA,317594,317965,317468,317594,Flanker Task,84,39242,89,yes,1024
94.44444444,94.44444444,440.8111111,440.8111111,black,legacy,legacy,legacy,0,incongruent,uniform,1,undefined,1,h,0,0,0,89,89,0,89,0,89,0,0,0,89,89,89,89,Thu Sep 19 16:03:57 2019,600,The main experiment item,yes,FlankerTask.osexp,/Users/cristianbotello/Desktop/Advanced Quant,no,mono,no,18,no,white,no,yes,768,legacy,9,79,/Users/cristianbotello/Desktop/Advanced Quant/CB-subject-1.csv,legacy,Kafkaesque Koffka,3.2.8,0,h,NA,h,s,NA,h,431,NA,124404,39640,NA,431,2,legacy,1024,2,48000,-16,experiment,SSHSS,1,odd,42734,302830,NA,317979,306835,3064,314171,NA,319078,178423,3083,NA,319193,319626,319066,319193,Flanker Task,85,39673,90,yes,1024
94.50549451,94.50549451,439.8131868,439.8131868,black,legacy,legacy,legacy,0,congruent,uniform,1,undefined,1,h,0,0,0,90,90,0,90,0,90,0,0,0,90,90,90,90,Thu Sep 19 16:03:57 2019,600,The main experiment item,yes,FlankerTask.osexp,/Users/cristianbotello/Desktop/Advanced Quant,no,mono,no,18,no,white,no,yes,768,legacy,10,79,/Users/cristianbotello/Desktop/Advanced Quant/CB-subject-1.csv,legacy,Kafkaesque Koffka,3.2.8,0,h,NA,h,s,NA,h,350,NA,124404,39640,NA,350,2,legacy,1024,2,48000,-16,experiment,HHHHH,1,odd,42734,302830,NA,319641,306835,3064,314171,NA,320740,178423,3083,NA,320856,321208,320729,320856,Flanker Task,86,40023,91,yes,1024
93.47826087,93.47826087,438.6521739,438.6521739,black,legacy,legacy,legacy,0,incongruent,uniform,0,undefined,0,s,0,0,0,91,91,0,91,0,91,0,0,0,91,91,91,91,Thu Sep 19 16:03:57 2019,600,The main experiment item,yes,FlankerTask.osexp,/Users/cristianbotello/Desktop/Advanced Quant,no,mono,no,18,no,white,no,yes,768,legacy,11,79,/Users/cristianbotello/Desktop/Advanced Quant/CB-subject-1.csv,legacy,Kafkaesque Koffka,3.2.8,0,h,NA,h,s,NA,h,333,NA,124404,39640,NA,333,2,legacy,1024,2,48000,-16,experiment,HHSHH,1,odd,42734,302830,NA,321223,306835,3064,314171,NA,322322,178423,3083,NA,322437,322772,322311,322437,Flanker Task,86,40356,92,yes,1024
93.5483871,93.5483871,437.9677419,437.9677419,black,legacy,legacy,legacy,0,congruent,uniform,1,undefined,1,h,0,0,0,92,92,0,92,0,92,0,0,0,92,92,92,92,Thu Sep 19 16:03:57 2019,600,The main experiment item,yes,FlankerTask.osexp,/Users/cristianbotello/Desktop/Advanced Quant,no,mono,no,18,no,white,no,yes,768,legacy,12,79,/Users/cristianbotello/Desktop/Advanced Quant/CB-subject-1.csv,legacy,Kafkaesque Koffka,3.2.8,0,h,NA,h,s,NA,h,375,NA,124404,39640,NA,375,2,legacy,1024,2,48000,-16,experiment,HHHHH,1,odd,42734,302830,NA,323299,322786,3064,314171,NA,324399,178423,3083,NA,324510,324887,324387,324510,Flanker Task,87,40731,93,yes,1024
93.61702128,93.61702128,437.0957447,437.0957447,black,legacy,legacy,legacy,0,congruent,uniform,1,undefined,1,s,0,0,0,93,93,0,93,0,93,0,0,0,93,93,93,93,Thu Sep 19 16:03:57 2019,600,The main experiment item,yes,FlankerTask.osexp,/Users/cristianbotello/Desktop/Advanced Quant,no,mono,no,18,no,white,no,yes,768,legacy,13,79,/Users/cristianbotello/Desktop/Advanced Quant/CB-subject-1.csv,legacy,Kafkaesque Koffka,3.2.8,0,s,NA,h,s,NA,s,356,NA,124404,39640,NA,356,2,legacy,1024,2,48000,-16,experiment,SSSSS,1,odd,42734,302830,NA,324901,322786,3064,314171,NA,326000,178423,3083,NA,326114,326472,325989,326114,Flanker Task,88,41087,94,yes,1024
92.63157895,92.63157895,437.1157895,437.1157895,black,legacy,legacy,legacy,0,incongruent,uniform,0,undefined,0,h,0,0,0,94,94,0,94,0,94,0,0,0,94,94,94,94,Thu Sep 19 16:03:57 2019,600,The main experiment item,yes,FlankerTask.osexp,/Users/cristianbotello/Desktop/Advanced Quant,no,mono,no,18,no,white,no,yes,768,legacy,14,79,/Users/cristianbotello/Desktop/Advanced Quant/CB-subject-1.csv,legacy,Kafkaesque Koffka,3.2.8,0,s,NA,h,s,NA,s,439,NA,124404,39640,NA,439,2,legacy,1024,2,48000,-16,experiment,SSHSS,1,odd,42734,302830,NA,326487,322786,3064,314171,NA,327589,178423,3083,NA,327703,328144,327575,327703,Flanker Task,88,41526,95,yes,1024
92.70833333,92.70833333,437.8333333,437.8333333,black,legacy,legacy,legacy,0,congruent,uniform,1,undefined,1,h,0,0,0,95,95,0,95,0,95,0,0,0,95,95,95,95,Thu Sep 19 16:03:57 2019,600,The main experiment item,yes,FlankerTask.osexp,/Users/cristianbotello/Desktop/Advanced Quant,no,mono,no,18,no,white,no,yes,768,legacy,15,79,/Users/cristianbotello/Desktop/Advanced Quant/CB-subject-1.csv,legacy,Kafkaesque Koffka,3.2.8,0,h,NA,h,s,NA,h,506,NA,124404,39640,NA,506,2,legacy,1024,2,48000,-16,experiment,HHHHH,1,odd,42734,302830,NA,328676,328162,3064,314171,NA,329775,178423,3083,NA,329890,330398,329763,329890,Flanker Task,89,42032,96,yes,1024
92.78350515,92.78350515,437.9072165,437.9072165,black,legacy,legacy,legacy,0,incongruent,uniform,1,undefined,1,s,0,0,0,96,96,0,96,0,96,0,0,0,96,96,96,96,Thu Sep 19 16:03:57 2019,600,The main experiment item,yes,FlankerTask.osexp,/Users/cristianbotello/Desktop/Advanced Quant,no,mono,no,18,no,white,no,yes,768,legacy,16,79,/Users/cristianbotello/Desktop/Advanced Quant/CB-subject-1.csv,legacy,Kafkaesque Koffka,3.2.8,0,s,NA,h,s,NA,s,445,NA,124404,39640,NA,445,2,legacy,1024,2,48000,-16,experiment,HHSHH,1,odd,42734,302830,NA,330412,328162,3064,314171,NA,331516,178423,3083,NA,331632,332079,331503,331631,Flanker Task,90,42477,97,yes,1024
92.85714286,92.85714286,436.8265306,436.8265306,black,legacy,legacy,legacy,0,congruent,uniform,1,undefined,1,h,0,0,0,97,97,0,97,0,97,0,0,0,97,97,97,97,Thu Sep 19 16:03:57 2019,600,The main experiment item,yes,FlankerTask.osexp,/Users/cristianbotello/Desktop/Advanced Quant,no,mono,no,18,no,white,no,yes,768,legacy,17,79,/Users/cristianbotello/Desktop/Advanced Quant/CB-subject-1.csv,legacy,Kafkaesque Koffka,3.2.8,0,h,NA,h,s,NA,h,332,NA,124404,39640,NA,332,2,legacy,1024,2,48000,-16,experiment,HHHHH,1,odd,42734,302830,NA,332093,328162,3064,314171,NA,333193,178423,3083,NA,333308,333642,333182,333308,Flanker Task,91,42809,98,yes,1024
92.92929293,92.92929293,437.3333333,437.3333333,black,legacy,legacy,legacy,0,incongruent,uniform,1,undefined,1,s,0,0,0,98,98,0,98,0,98,0,0,0,98,98,98,98,Thu Sep 19 16:03:57 2019,600,The main experiment item,yes,FlankerTask.osexp,/Users/cristianbotello/Desktop/Advanced Quant,no,mono,no,18,no,white,no,yes,768,legacy,18,79,/Users/cristianbotello/Desktop/Advanced Quant/CB-subject-1.csv,legacy,Kafkaesque Koffka,3.2.8,0,s,NA,h,s,NA,s,487,NA,124404,39640,NA,487,2,legacy,1024,2,48000,-16,experiment,HHSHH,1,odd,42734,302830,NA,333656,328162,3064,314171,NA,334756,178423,3083,NA,334867,335357,334745,334867,Flanker Task,92,43296,99,yes,1024
93,93,436.94,436.94,black,legacy,legacy,legacy,0,congruent,uniform,1,undefined,1,s,0,0,0,99,99,0,99,0,99,0,0,0,99,99,99,99,Thu Sep 19 16:03:57 2019,600,The main experiment item,yes,FlankerTask.osexp,/Users/cristianbotello/Desktop/Advanced Quant,no,mono,no,18,no,white,no,yes,768,legacy,19,79,/Users/cristianbotello/Desktop/Advanced Quant/CB-subject-1.csv,legacy,Kafkaesque Koffka,3.2.8,0,s,NA,h,s,NA,s,398,NA,124404,39640,NA,398,2,legacy,1024,2,48000,-16,experiment,SSSSS,1,odd,42734,302830,NA,335371,328162,3064,314171,NA,336470,178423,3083,NA,336586,336987,336459,336586,Flanker Task,93,43694,100,yes,1024
93.06930693,93.06930693,437.7623762,437.7623762,black,legacy,legacy,legacy,0,incongruent,uniform,1,undefined,1,h,0,0,0,100,100,0,100,0,100,0,0,0,100,100,100,100,Thu Sep 19 16:03:57 2019,600,The main experiment item,yes,FlankerTask.osexp,/Users/cristianbotello/Desktop/Advanced Quant,no,mono,no,18,no,white,no,yes,768,legacy,20,79,/Users/cristianbotello/Desktop/Advanced Quant/CB-subject-1.csv,legacy,Kafkaesque Koffka,3.2.8,0,h,NA,h,s,NA,h,520,NA,124404,39640,NA,520,2,legacy,1024,2,48000,-16,experiment,SSHSS,1,odd,42734,302830,NA,337000,328162,3064,314171,NA,338099,178423,3083,NA,338214,338737,338087,338213,Flanker Task,94,44214,101,yes,1024
93.1372549,93.1372549,437.5,437.5,black,legacy,legacy,legacy,0,congruent,uniform,1,undefined,1,s,0,0,0,101,101,0,101,0,101,0,0,0,101,101,101,101,Thu Sep 19 16:03:57 2019,600,The main experiment item,yes,FlankerTask.osexp,/Users/cristianbotello/Desktop/Advanced Quant,no,mono,no,18,no,white,no,yes,768,legacy,21,79,/Users/cristianbotello/Desktop/Advanced Quant/CB-subject-1.csv,legacy,Kafkaesque Koffka,3.2.8,0,s,NA,h,s,NA,s,411,NA,124404,39640,NA,411,2,legacy,1024,2,48000,-16,experiment,SSSSS,1,odd,42734,302830,NA,338751,328162,3064,314171,NA,339851,178423,3083,NA,339962,340376,339839,339962,Flanker Task,95,44625,102,yes,1024
93.2038835,93.2038835,437.4368932,437.4368932,black,legacy,legacy,legacy,0,incongruent,uniform,1,undefined,1,s,0,0,0,102,102,0,102,0,102,0,0,0,102,102,102,102,Thu Sep 19 16:03:57 2019,600,The main experiment item,yes,FlankerTask.osexp,/Users/cristianbotello/Desktop/Advanced Quant,no,mono,no,18,no,white,no,yes,768,legacy,22,79,/Users/cristianbotello/Desktop/Advanced Quant/CB-subject-1.csv,legacy,Kafkaesque Koffka,3.2.8,0,s,NA,h,s,NA,s,431,NA,124404,39640,NA,431,2,legacy,1024,2,48000,-16,experiment,HHSHH,1,odd,42734,302830,NA,340390,328162,3064,314171,NA,341489,178423,3083,NA,341605,342039,341478,341605,Flanker Task,96,45056,103,yes,1024
93.26923077,93.26923077,437.0769231,437.0769231,black,legacy,legacy,legacy,0,congruent,uniform,1,undefined,1,s,0,0,0,103,103,0,103,0,103,0,0,0,103,103,103,103,Thu Sep 19 16:03:57 2019,600,The main experiment item,yes,FlankerTask.osexp,/Users/cristianbotello/Desktop/Advanced Quant,no,mono,no,18,no,white,no,yes,768,legacy,23,79,/Users/cristianbotello/Desktop/Advanced Quant/CB-subject-1.csv,legacy,Kafkaesque Koffka,3.2.8,0,s,NA,h,s,NA,s,400,NA,124404,39640,NA,400,2,legacy,1024,2,48000,-16,experiment,SSSSS,1,odd,42734,302830,NA,342053,328162,3064,314171,NA,343152,178423,3083,NA,343263,343666,343141,343263,Flanker Task,97,45456,104,yes,1024
93.33333333,93.33333333,436.552381,436.552381,black,legacy,legacy,legacy,0,congruent,uniform,1,undefined,1,s,0,0,0,104,104,0,104,0,104,0,0,0,104,104,104,104,Thu Sep 19 16:03:57 2019,600,The main experiment item,yes,FlankerTask.osexp,/Users/cristianbotello/Desktop/Advanced Quant,no,mono,no,18,no,white,no,yes,768,legacy,24,79,/Users/cristianbotello/Desktop/Advanced Quant/CB-subject-1.csv,legacy,Kafkaesque Koffka,3.2.8,0,s,NA,h,s,NA,s,382,NA,124404,39640,NA,382,2,legacy,1024,2,48000,-16,experiment,SSSSS,1,odd,42734,302830,NA,343680,328162,3064,314171,NA,344779,178423,3083,NA,344894,345279,344768,344894,Flanker Task,98,45838,105,yes,1024
93.39622642,93.39622642,436.4433962,436.4433962,black,legacy,legacy,legacy,0,incongruent,uniform,1,undefined,1,h,0,0,0,105,105,0,105,0,105,0,0,0,105,105,105,105,Thu Sep 19 16:03:57 2019,600,The main experiment item,yes,FlankerTask.osexp,/Users/cristianbotello/Desktop/Advanced Quant,no,mono,no,18,no,white,no,yes,768,legacy,25,79,/Users/cristianbotello/Desktop/Advanced Quant/CB-subject-1.csv,legacy,Kafkaesque Koffka,3.2.8,0,h,NA,h,s,NA,h,425,NA,124404,39640,NA,425,2,legacy,1024,2,48000,-16,experiment,SSHSS,1,odd,42734,302830,NA,345293,328162,3064,314171,NA,346391,178423,3083,NA,346506,346936,346380,346506,Flanker Task,99,46263,106,yes,1024
93.45794393,93.45794393,436.2803738,436.2803738,black,legacy,legacy,legacy,0,incongruent,uniform,1,undefined,1,s,0,0,0,106,106,0,106,0,106,0,0,0,106,106,106,106,Thu Sep 19 16:03:57 2019,600,The main experiment item,yes,FlankerTask.osexp,/Users/cristianbotello/Desktop/Advanced Quant,no,mono,no,18,no,white,no,yes,768,legacy,26,79,/Users/cristianbotello/Desktop/Advanced Quant/CB-subject-1.csv,legacy,Kafkaesque Koffka,3.2.8,0,s,NA,h,s,NA,s,419,NA,124404,39640,NA,419,2,legacy,1024,2,48000,-16,experiment,HHSHH,1,odd,42734,302830,NA,346955,328162,3064,314171,NA,348053,178423,3083,NA,348168,348590,348042,348167,Flanker Task,100,46682,107,yes,1024
92.59259259,92.59259259,435.1296296,435.1296296,black,legacy,legacy,legacy,0,congruent,uniform,0,undefined,0,s,0,0,0,107,107,0,107,0,107,0,0,0,107,107,107,107,Thu Sep 19 16:03:57 2019,600,The main experiment item,yes,FlankerTask.osexp,/Users/cristianbotello/Desktop/Advanced Quant,no,mono,no,18,no,white,no,yes,768,legacy,27,79,/Users/cristianbotello/Desktop/Advanced Quant/CB-subject-1.csv,legacy,Kafkaesque Koffka,3.2.8,0,h,NA,h,s,NA,h,312,NA,124404,39640,NA,312,2,legacy,1024,2,48000,-16,experiment,SSSSS,1,odd,42734,302830,NA,348604,328162,3064,314171,NA,349704,178423,3083,NA,349819,350134,349692,349819,Flanker Task,100,46994,108,yes,1024
92.66055046,92.66055046,435.146789,435.146789,black,legacy,legacy,legacy,0,incongruent,uniform,1,undefined,1,s,0,0,0,108,108,0,108,0,108,0,0,0,108,108,108,108,Thu Sep 19 16:03:57 2019,600,The main experiment item,yes,FlankerTask.osexp,/Users/cristianbotello/Desktop/Advanced Quant,no,mono,no,18,no,white,no,yes,768,legacy,28,79,/Users/cristianbotello/Desktop/Advanced Quant/CB-subject-1.csv,legacy,Kafkaesque Koffka,3.2.8,0,s,NA,h,s,NA,s,437,NA,124404,39640,NA,437,2,legacy,1024,2,48000,-16,experiment,HHSHH,1,odd,42734,302830,NA,350661,350148,3064,314171,NA,351761,178423,3083,NA,351876,352315,351749,351876,Flanker Task,101,47431,109,yes,1024
92.72727273,92.72727273,435.5363636,435.5363636,black,legacy,legacy,legacy,0,incongruent,uniform,1,undefined,1,h,0,0,0,109,109,0,109,0,109,0,0,0,109,109,109,109,Thu Sep 19 16:03:57 2019,600,The main experiment item,yes,FlankerTask.osexp,/Users/cristianbotello/Desktop/Advanced Quant,no,mono,no,18,no,white,no,yes,768,legacy,29,79,/Users/cristianbotello/Desktop/Advanced Quant/CB-subject-1.csv,legacy,Kafkaesque Koffka,3.2.8,0,h,NA,h,s,NA,h,478,NA,124404,39640,NA,478,2,legacy,1024,2,48000,-16,experiment,SSHSS,1,odd,42734,302830,NA,352329,350148,3064,314171,NA,353429,178423,3083,NA,353544,354024,353418,353543,Flanker Task,102,47909,110,yes,1024
92.79279279,92.79279279,434.8738739,434.8738739,black,legacy,legacy,legacy,0,incongruent,uniform,1,undefined,1,s,0,0,0,110,110,0,110,0,110,0,0,0,110,110,110,110,Thu Sep 19 16:03:57 2019,600,The main experiment item,yes,FlankerTask.osexp,/Users/cristianbotello/Desktop/Advanced Quant,no,mono,no,18,no,white,no,yes,768,legacy,30,79,/Users/cristianbotello/Desktop/Advanced Quant/CB-subject-1.csv,legacy,Kafkaesque Koffka,3.2.8,0,s,NA,h,s,NA,s,362,NA,124404,39640,NA,362,2,legacy,1024,2,48000,-16,experiment,HHSHH,1,odd,42734,302830,NA,354038,350148,3064,314171,NA,355148,178423,3083,NA,355262,355629,355136,355262,Flanker Task,103,48271,111,yes,1024
92.85714286,92.85714286,434.7142857,434.7142857,black,legacy,legacy,legacy,0,incongruent,uniform,1,undefined,1,h,0,0,0,111,111,0,111,0,111,0,0,0,111,111,111,111,Thu Sep 19 16:03:57 2019,600,The main experiment item,yes,FlankerTask.osexp,/Users/cristianbotello/Desktop/Advanced Quant,no,mono,no,18,no,white,no,yes,768,legacy,31,79,/Users/cristianbotello/Desktop/Advanced Quant/CB-subject-1.csv,legacy,Kafkaesque Koffka,3.2.8,0,h,NA,h,s,NA,h,417,NA,124404,39640,NA,417,2,legacy,1024,2,48000,-16,experiment,SSHSS,1,odd,42734,302830,NA,355647,350148,3064,314171,NA,356747,178423,3083,NA,356858,357278,356735,356858,Flanker Task,104,48688,112,yes,1024
92.92035398,92.92035398,434.1681416,434.1681416,black,legacy,legacy,legacy,0,incongruent,uniform,1,undefined,1,h,0,0,0,112,112,0,112,0,112,0,0,0,112,112,112,112,Thu Sep 19 16:03:57 2019,600,The main experiment item,yes,FlankerTask.osexp,/Users/cristianbotello/Desktop/Advanced Quant,no,mono,no,18,no,white,no,yes,768,legacy,32,79,/Users/cristianbotello/Desktop/Advanced Quant/CB-subject-1.csv,legacy,Kafkaesque Koffka,3.2.8,0,h,NA,h,s,NA,h,373,NA,124404,39640,NA,373,2,legacy,1024,2,48000,-16,experiment,SSHSS,1,odd,42734,302830,NA,357292,350148,3064,314171,NA,358391,178423,3083,NA,358506,358882,358380,358505,Flanker Task,105,49061,113,yes,1024
92.98245614,92.98245614,433.7105263,433.7105263,black,legacy,legacy,legacy,0,congruent,uniform,1,undefined,1,h,0,0,0,113,113,0,113,0,113,0,0,0,113,113,113,113,Thu Sep 19 16:03:57 2019,600,The main experiment item,yes,FlankerTask.osexp,/Users/cristianbotello/Desktop/Advanced Quant,no,mono,no,18,no,white,no,yes,768,legacy,33,79,/Users/cristianbotello/Desktop/Advanced Quant/CB-subject-1.csv,legacy,Kafkaesque Koffka,3.2.8,0,h,NA,h,s,NA,h,382,NA,124404,39640,NA,382,2,legacy,1024,2,48000,-16,experiment,HHHHH,1,odd,42734,302830,NA,358900,350148,3064,314171,NA,359999,178423,3083,NA,360113,360498,359988,360113,Flanker Task,106,49443,114,yes,1024
93.04347826,93.04347826,433.0521739,433.0521739,black,legacy,legacy,legacy,0,congruent,uniform,1,undefined,1,h,0,0,0,114,114,0,114,0,114,0,0,0,114,114,114,114,Thu Sep 19 16:03:57 2019,600,The main experiment item,yes,FlankerTask.osexp,/Users/cristianbotello/Desktop/Advanced Quant,no,mono,no,18,no,white,no,yes,768,legacy,34,79,/Users/cristianbotello/Desktop/Advanced Quant/CB-subject-1.csv,legacy,Kafkaesque Koffka,3.2.8,0,h,NA,h,s,NA,h,358,NA,124404,39640,NA,358,2,legacy,1024,2,48000,-16,experiment,HHHHH,1,odd,42734,302830,NA,360512,350148,3064,314171,NA,361619,178423,3083,NA,361734,362095,361608,361734,Flanker Task,107,49801,115,yes,1024
92.24137931,92.24137931,432.1551724,432.1551724,black,legacy,legacy,legacy,0,incongruent,uniform,0,undefined,0,s,0,0,0,115,115,0,115,0,115,0,0,0,115,115,115,115,Thu Sep 19 16:03:57 2019,600,The main experiment item,yes,FlankerTask.osexp,/Users/cristianbotello/Desktop/Advanced Quant,no,mono,no,18,no,white,no,yes,768,legacy,35,79,/Users/cristianbotello/Desktop/Advanced Quant/CB-subject-1.csv,legacy,Kafkaesque Koffka,3.2.8,0,h,NA,h,s,NA,h,329,NA,124404,39640,NA,329,2,legacy,1024,2,48000,-16,experiment,HHSHH,1,odd,42734,302830,NA,362110,350148,3064,314171,NA,363210,178423,3083,NA,363321,363653,363198,363321,Flanker Task,107,50130,116,yes,1024
92.30769231,92.30769231,432.2222222,432.2222222,black,legacy,legacy,legacy,0,incongruent,uniform,1,undefined,1,s,0,0,0,116,116,0,116,0,116,0,0,0,116,116,116,116,Thu Sep 19 16:03:57 2019,600,The main experiment item,yes,FlankerTask.osexp,/Users/cristianbotello/Desktop/Advanced Quant,no,mono,no,18,no,white,no,yes,768,legacy,36,79,/Users/cristianbotello/Desktop/Advanced Quant/CB-subject-1.csv,legacy,Kafkaesque Koffka,3.2.8,0,s,NA,h,s,NA,s,440,NA,124404,39640,NA,440,2,legacy,1024,2,48000,-16,experiment,HHSHH,1,odd,42734,302830,NA,364180,363667,3064,314171,NA,365280,178423,3083,NA,365395,365838,365269,365395,Flanker Task,108,50570,117,yes,1024
92.37288136,92.37288136,432.2881356,432.2881356,black,legacy,legacy,legacy,0,incongruent,uniform,1,undefined,1,s,0,0,0,117,117,0,117,0,117,0,0,0,117,117,117,117,Thu Sep 19 16:03:57 2019,600,The main experiment item,yes,FlankerTask.osexp,/Users/cristianbotello/Desktop/Advanced Quant,no,mono,no,18,no,white,no,yes,768,legacy,37,79,/Users/cristianbotello/Desktop/Advanced Quant/CB-subject-1.csv,legacy,Kafkaesque Koffka,3.2.8,0,s,NA,h,s,NA,s,440,NA,124404,39640,NA,440,2,legacy,1024,2,48000,-16,experiment,HHSHH,1,odd,42734,302830,NA,365852,363667,3064,314171,NA,366952,178423,3083,NA,367066,367509,366940,367066,Flanker Task,109,51010,118,yes,1024
91.59663866,91.59663866,431.3445378,431.3445378,black,legacy,legacy,legacy,0,incongruent,uniform,0,undefined,0,s,0,0,0,118,118,0,118,0,118,0,0,0,118,118,118,118,Thu Sep 19 16:03:57 2019,600,The main experiment item,yes,FlankerTask.osexp,/Users/cristianbotello/Desktop/Advanced Quant,no,mono,no,18,no,white,no,yes,768,legacy,38,79,/Users/cristianbotello/Desktop/Advanced Quant/CB-subject-1.csv,legacy,Kafkaesque Koffka,3.2.8,0,h,NA,h,s,NA,h,320,NA,124404,39640,NA,320,2,legacy,1024,2,48000,-16,experiment,HHSHH,1,odd,42734,302830,NA,367523,363667,3064,314171,NA,368622,178423,3083,NA,368738,369061,368611,368738,Flanker Task,109,51330,119,yes,1024
91.66666667,91.66666667,431.3166667,431.3166667,black,legacy,legacy,legacy,0,congruent,uniform,1,undefined,1,h,0,0,0,119,119,0,119,0,119,0,0,0,119,119,119,119,Thu Sep 19 16:03:57 2019,600,The main experiment item,yes,FlankerTask.osexp,/Users/cristianbotello/Desktop/Advanced Quant,no,mono,no,18,no,white,no,yes,768,legacy,39,79,/Users/cristianbotello/Desktop/Advanced Quant/CB-subject-1.csv,legacy,Kafkaesque Koffka,3.2.8,0,h,NA,h,s,NA,h,428,NA,124404,39640,NA,428,2,legacy,1024,2,48000,-16,experiment,HHHHH,1,odd,42734,302830,NA,369588,369075,3064,314171,NA,370687,178423,3083,NA,370802,371233,370676,370802,Flanker Task,110,51758,120,yes,1024
91.73553719,91.73553719,431.0661157,431.0661157,black,legacy,legacy,legacy,0,incongruent,uniform,1,undefined,1,s,0,0,0,120,120,0,120,0,120,0,0,0,120,120,120,120,Thu Sep 19 16:03:57 2019,600,The main experiment item,yes,FlankerTask.osexp,/Users/cristianbotello/Desktop/Advanced Quant,no,mono,no,18,no,white,no,yes,768,legacy,40,79,/Users/cristianbotello/Desktop/Advanced Quant/CB-subject-1.csv,legacy,Kafkaesque Koffka,3.2.8,0,s,NA,h,s,NA,s,401,NA,124404,39640,NA,401,2,legacy,1024,2,48000,-16,experiment,HHSHH,1,odd,42734,302830,NA,371247,369075,3064,314171,NA,372346,178423,3083,NA,372461,372865,372335,372460,Flanker Task,111,52159,121,yes,1024
91.80327869,91.80327869,430.557377,430.557377,black,legacy,legacy,legacy,0,congruent,uniform,1,undefined,1,s,0,0,0,121,121,0,121,0,121,0,0,0,121,121,121,121,Thu Sep 19 16:03:57 2019,600,The main experiment item,yes,FlankerTask.osexp,/Users/cristianbotello/Desktop/Advanced Quant,no,mono,no,18,no,white,no,yes,768,legacy,41,79,/Users/cristianbotello/Desktop/Advanced Quant/CB-subject-1.csv,legacy,Kafkaesque Koffka,3.2.8,0,s,NA,h,s,NA,s,369,NA,124404,39640,NA,369,2,legacy,1024,2,48000,-16,experiment,SSSSS,1,odd,42734,302830,NA,372878,369075,3064,314171,NA,373977,178423,3083,NA,374091,374462,373965,374091,Flanker Task,112,52528,122,yes,1024
91.8699187,91.8699187,430.6422764,430.6422764,black,legacy,legacy,legacy,0,congruent,uniform,1,undefined,1,h,0,0,0,122,122,0,122,0,122,0,0,0,122,122,122,122,Thu Sep 19 16:03:57 2019,600,The main experiment item,yes,FlankerTask.osexp,/Users/cristianbotello/Desktop/Advanced Quant,no,mono,no,18,no,white,no,yes,768,legacy,42,79,/Users/cristianbotello/Desktop/Advanced Quant/CB-subject-1.csv,legacy,Kafkaesque Koffka,3.2.8,0,h,NA,h,s,NA,h,441,NA,124404,39640,NA,441,2,legacy,1024,2,48000,-16,experiment,HHHHH,1,odd,42734,302830,NA,374477,369075,3064,314171,NA,375577,178423,3083,NA,375688,376131,375566,375688,Flanker Task,113,52969,123,yes,1024
91.93548387,91.93548387,431.2177419,431.2177419,black,legacy,legacy,legacy,0,incongruent,uniform,1,undefined,1,s,0,0,0,123,123,0,123,0,123,0,0,0,123,123,123,123,Thu Sep 19 16:03:57 2019,600,The main experiment item,yes,FlankerTask.osexp,/Users/cristianbotello/Desktop/Advanced Quant,no,mono,no,18,no,white,no,yes,768,legacy,43,79,/Users/cristianbotello/Desktop/Advanced Quant/CB-subject-1.csv,legacy,Kafkaesque Koffka,3.2.8,0,s,NA,h,s,NA,s,502,NA,124404,39640,NA,502,2,legacy,1024,2,48000,-16,experiment,HHSHH,1,odd,42734,302830,NA,376147,369075,3064,314171,NA,377246,178423,3083,NA,377361,377866,377235,377361,Flanker Task,114,53471,124,yes,1024
92,92,431.408,431.408,black,legacy,legacy,legacy,0,incongruent,uniform,1,undefined,1,h,0,0,0,124,124,0,124,0,124,0,0,0,124,124,124,124,Thu Sep 19 16:03:57 2019,600,The main experiment item,yes,FlankerTask.osexp,/Users/cristianbotello/Desktop/Advanced Quant,no,mono,no,18,no,white,no,yes,768,legacy,44,79,/Users/cristianbotello/Desktop/Advanced Quant/CB-subject-1.csv,legacy,Kafkaesque Koffka,3.2.8,0,h,NA,h,s,NA,h,455,NA,124404,39640,NA,455,2,legacy,1024,2,48000,-16,experiment,SSHSS,1,odd,42734,302830,NA,377880,369075,3064,314171,NA,378979,178423,3083,NA,379094,379551,378968,379094,Flanker Task,115,53926,125,yes,1024
92.06349206,92.06349206,430.5396825,430.5396825,black,legacy,legacy,legacy,0,congruent,uniform,1,undefined,1,h,0,0,0,125,125,0,125,0,125,0,0,0,125,125,125,125,Thu Sep 19 16:03:57 2019,600,The main experiment item,yes,FlankerTask.osexp,/Users/cristianbotello/Desktop/Advanced Quant,no,mono,no,18,no,white,no,yes,768,legacy,45,79,/Users/cristianbotello/Desktop/Advanced Quant/CB-subject-1.csv,legacy,Kafkaesque Koffka,3.2.8,0,h,NA,h,s,NA,h,322,NA,124404,39640,NA,322,2,legacy,1024,2,48000,-16,experiment,HHHHH,1,odd,42734,302830,NA,379566,369075,3064,314171,NA,380666,178423,3083,NA,380781,381106,380655,380781,Flanker Task,116,54248,126,yes,1024
92.12598425,92.12598425,429.3464567,429.3464567,black,legacy,legacy,legacy,0,congruent,uniform,1,undefined,1,s,0,0,0,126,126,0,126,0,126,0,0,0,126,126,126,126,Thu Sep 19 16:03:57 2019,600,The main experiment item,yes,FlankerTask.osexp,/Users/cristianbotello/Desktop/Advanced Quant,no,mono,no,18,no,white,no,yes,768,legacy,46,79,/Users/cristianbotello/Desktop/Advanced Quant/CB-subject-1.csv,legacy,Kafkaesque Koffka,3.2.8,0,s,NA,h,s,NA,s,279,NA,124404,39640,NA,279,2,legacy,1024,2,48000,-16,experiment,SSSSS,1,odd,42734,302830,NA,381121,369075,3064,314171,NA,382220,178423,3083,NA,382335,382617,382209,382335,Flanker Task,117,54527,127,yes,1024
92.1875,92.1875,429.40625,429.40625,black,legacy,legacy,legacy,0,incongruent,uniform,1,undefined,1,s,0,0,0,127,127,0,127,0,127,0,0,0,127,127,127,127,Thu Sep 19 16:03:57 2019,600,The main experiment item,yes,FlankerTask.osexp,/Users/cristianbotello/Desktop/Advanced Quant,no,mono,no,18,no,white,no,yes,768,legacy,47,79,/Users/cristianbotello/Desktop/Advanced Quant/CB-subject-1.csv,legacy,Kafkaesque Koffka,3.2.8,0,s,NA,h,s,NA,s,437,NA,124404,39640,NA,437,2,legacy,1024,2,48000,-16,experiment,HHSHH,1,odd,42734,302830,NA,382631,369075,3064,314171,NA,383732,178423,3083,NA,383848,384288,383721,383848,Flanker Task,118,54964,128,yes,1024
92.24806202,92.24806202,429.2015504,429.2015504,black,legacy,legacy,legacy,0,incongruent,uniform,1,undefined,1,s,0,0,0,128,128,0,128,0,128,0,0,0,128,128,128,128,Thu Sep 19 16:03:57 2019,600,The main experiment item,yes,FlankerTask.osexp,/Users/cristianbotello/Desktop/Advanced Quant,no,mono,no,18,no,white,no,yes,768,legacy,48,79,/Users/cristianbotello/Desktop/Advanced Quant/CB-subject-1.csv,legacy,Kafkaesque Koffka,3.2.8,0,s,NA,h,s,NA,s,403,NA,124404,39640,NA,403,2,legacy,1024,2,48000,-16,experiment,HHSHH,1,odd,42734,302830,NA,384302,369075,3064,314171,NA,385402,178423,3083,NA,385515,385921,385391,385515,Flanker Task,119,55367,129,yes,1024
92.30769231,92.30769231,429.2769231,429.2769231,black,legacy,legacy,legacy,0,congruent,uniform,1,undefined,1,h,0,0,0,129,129,0,129,0,129,0,0,0,129,129,129,129,Thu Sep 19 16:03:57 2019,600,The main experiment item,yes,FlankerTask.osexp,/Users/cristianbotello/Desktop/Advanced Quant,no,mono,no,18,no,white,no,yes,768,legacy,49,79,/Users/cristianbotello/Desktop/Advanced Quant/CB-subject-1.csv,legacy,Kafkaesque Koffka,3.2.8,0,h,NA,h,s,NA,h,439,NA,124404,39640,NA,439,2,legacy,1024,2,48000,-16,experiment,HHHHH,1,odd,42734,302830,NA,385935,369075,3064,314171,NA,387033,178423,3083,NA,387148,387593,387022,387147,Flanker Task,120,55806,130,yes,1024
92.36641221,92.36641221,428.8549618,428.8549618,black,legacy,legacy,legacy,0,incongruent,uniform,1,undefined,1,s,0,0,0,130,130,0,130,0,130,0,0,0,130,130,130,130,Thu Sep 19 16:03:57 2019,600,The main experiment item,yes,FlankerTask.osexp,/Users/cristianbotello/Desktop/Advanced Quant,no,mono,no,18,no,white,no,yes,768,legacy,50,79,/Users/cristianbotello/Desktop/Advanced Quant/CB-subject-1.csv,legacy,Kafkaesque Koffka,3.2.8,0,s,NA,h,s,NA,s,374,NA,124404,39640,NA,374,2,legacy,1024,2,48000,-16,experiment,HHSHH,1,odd,42734,302830,NA,387617,369075,3064,314171,NA,388717,178423,3083,NA,388832,389209,388706,388832,Flanker Task,121,56180,131,yes,1024
92.42424242,92.42424242,428.7878788,428.7878788,black,legacy,legacy,legacy,0,incongruent,uniform,1,undefined,1,h,0,0,0,131,131,0,131,0,131,0,0,0,131,131,131,131,Thu Sep 19 16:03:57 2019,600,The main experiment item,yes,FlankerTask.osexp,/Users/cristianbotello/Desktop/Advanced Quant,no,mono,no,18,no,white,no,yes,768,legacy,51,79,/Users/cristianbotello/Desktop/Advanced Quant/CB-subject-1.csv,legacy,Kafkaesque Koffka,3.2.8,0,h,NA,h,s,NA,h,420,NA,124404,39640,NA,420,2,legacy,1024,2,48000,-16,experiment,SSHSS,1,odd,42734,302830,NA,389230,369075,3064,314171,NA,390330,178423,3083,NA,390445,390868,390319,390445,Flanker Task,122,56600,132,yes,1024
92.48120301,92.48120301,428.7819549,428.7819549,black,legacy,legacy,legacy,0,incongruent,uniform,1,undefined,1,s,0,0,0,132,132,0,132,0,132,0,0,0,132,132,132,132,Thu Sep 19 16:03:57 2019,600,The main experiment item,yes,FlankerTask.osexp,/Users/cristianbotello/Desktop/Advanced Quant,no,mono,no,18,no,white,no,yes,768,legacy,52,79,/Users/cristianbotello/Desktop/Advanced Quant/CB-subject-1.csv,legacy,Kafkaesque Koffka,3.2.8,0,s,NA,h,s,NA,s,428,NA,124404,39640,NA,428,2,legacy,1024,2,48000,-16,experiment,HHSHH,1,odd,42734,302830,NA,390882,369075,3064,314171,NA,391981,178423,3083,NA,392095,392526,391969,392095,Flanker Task,123,57028,133,yes,1024
92.53731343,92.53731343,427.9477612,427.9477612,black,legacy,legacy,legacy,0,incongruent,uniform,1,undefined,1,h,0,0,0,133,133,0,133,0,133,0,0,0,133,133,133,133,Thu Sep 19 16:03:57 2019,600,The main experiment item,yes,FlankerTask.osexp,/Users/cristianbotello/Desktop/Advanced Quant,no,mono,no,18,no,white,no,yes,768,legacy,53,79,/Users/cristianbotello/Desktop/Advanced Quant/CB-subject-1.csv,legacy,Kafkaesque Koffka,3.2.8,0,h,NA,h,s,NA,h,317,NA,124404,39640,NA,317,2,legacy,1024,2,48000,-16,experiment,SSHSS,1,odd,42734,302830,NA,392540,369075,3064,314171,NA,393640,178423,3083,NA,393751,394071,393629,393751,Flanker Task,124,57345,134,yes,1024
92.59259259,92.59259259,427.9111111,427.9111111,black,legacy,legacy,legacy,0,congruent,uniform,1,undefined,1,s,0,0,0,134,134,0,134,0,134,0,0,0,134,134,134,134,Thu Sep 19 16:03:57 2019,600,The main experiment item,yes,FlankerTask.osexp,/Users/cristianbotello/Desktop/Advanced Quant,no,mono,no,18,no,white,no,yes,768,legacy,54,79,/Users/cristianbotello/Desktop/Advanced Quant/CB-subject-1.csv,legacy,Kafkaesque Koffka,3.2.8,0,s,NA,h,s,NA,s,423,NA,124404,39640,NA,423,2,legacy,1024,2,48000,-16,experiment,SSSSS,1,odd,42734,302830,NA,394085,369075,3064,314171,NA,395184,178423,3083,NA,395299,395725,395173,395299,Flanker Task,125,57768,135,yes,1024
92.64705882,92.64705882,427.5882353,427.5882353,black,legacy,legacy,legacy,0,congruent,uniform,1,undefined,1,s,0,0,0,135,135,0,135,0,135,0,0,0,135,135,135,135,Thu Sep 19 16:03:57 2019,600,The main experiment item,yes,FlankerTask.osexp,/Users/cristianbotello/Desktop/Advanced Quant,no,mono,no,18,no,white,no,yes,768,legacy,55,79,/Users/cristianbotello/Desktop/Advanced Quant/CB-subject-1.csv,legacy,Kafkaesque Koffka,3.2.8,0,s,NA,h,s,NA,s,384,NA,124404,39640,NA,384,2,legacy,1024,2,48000,-16,experiment,SSSSS,1,odd,42734,302830,NA,395739,369075,3064,314171,NA,396839,178423,3083,NA,396954,397341,396828,396954,Flanker Task,126,58152,136,yes,1024
92.70072993,92.70072993,427.6934307,427.6934307,black,legacy,legacy,legacy,0,incongruent,uniform,1,undefined,1,h,0,0,0,136,136,0,136,0,136,0,0,0,136,136,136,136,Thu Sep 19 16:03:57 2019,600,The main experiment item,yes,FlankerTask.osexp,/Users/cristianbotello/Desktop/Advanced Quant,no,mono,no,18,no,white,no,yes,768,legacy,56,79,/Users/cristianbotello/Desktop/Advanced Quant/CB-subject-1.csv,legacy,Kafkaesque Koffka,3.2.8,0,h,NA,h,s,NA,h,442,NA,124404,39640,NA,442,2,legacy,1024,2,48000,-16,experiment,SSHSS,1,odd,42734,302830,NA,397355,369075,3064,314171,NA,398454,178423,3083,NA,398569,399014,398443,398569,Flanker Task,127,58594,137,yes,1024
92.75362319,92.75362319,427.8768116,427.8768116,black,legacy,legacy,legacy,0,incongruent,uniform,1,undefined,1,h,0,0,0,137,137,0,137,0,137,0,0,0,137,137,137,137,Thu Sep 19 16:03:57 2019,600,The main experiment item,yes,FlankerTask.osexp,/Users/cristianbotello/Desktop/Advanced Quant,no,mono,no,18,no,white,no,yes,768,legacy,57,79,/Users/cristianbotello/Desktop/Advanced Quant/CB-subject-1.csv,legacy,Kafkaesque Koffka,3.2.8,0,h,NA,h,s,NA,h,453,NA,124404,39640,NA,453,2,legacy,1024,2,48000,-16,experiment,SSHSS,1,odd,42734,302830,NA,399028,369075,3064,314171,NA,400127,178423,3083,NA,400242,400697,400116,400242,Flanker Task,128,59047,138,yes,1024
92.8057554,92.8057554,427.1798561,427.1798561,black,legacy,legacy,legacy,0,congruent,uniform,1,undefined,1,s,0,0,0,138,138,0,138,0,138,0,0,0,138,138,138,138,Thu Sep 19 16:03:57 2019,600,The main experiment item,yes,FlankerTask.osexp,/Users/cristianbotello/Desktop/Advanced Quant,no,mono,no,18,no,white,no,yes,768,legacy,58,79,/Users/cristianbotello/Desktop/Advanced Quant/CB-subject-1.csv,legacy,Kafkaesque Koffka,3.2.8,0,s,NA,h,s,NA,s,331,NA,124404,39640,NA,331,2,legacy,1024,2,48000,-16,experiment,SSSSS,1,odd,42734,302830,NA,400711,369075,3064,314171,NA,401812,178423,3083,NA,401928,402262,401800,401928,Flanker Task,129,59378,139,yes,1024
92.85714286,92.85714286,426.4642857,426.4642857,black,legacy,legacy,legacy,0,congruent,uniform,1,undefined,1,h,0,0,0,139,139,0,139,0,139,0,0,0,139,139,139,139,Thu Sep 19 16:03:57 2019,600,The main experiment item,yes,FlankerTask.osexp,/Users/cristianbotello/Desktop/Advanced Quant,no,mono,no,18,no,white,no,yes,768,legacy,59,79,/Users/cristianbotello/Desktop/Advanced Quant/CB-subject-1.csv,legacy,Kafkaesque Koffka,3.2.8,0,h,NA,h,s,NA,h,327,NA,124404,39640,NA,327,2,legacy,1024,2,48000,-16,experiment,HHHHH,1,odd,42734,302830,NA,402277,369075,3064,314171,NA,403377,178423,3083,NA,403492,403822,403365,403491,Flanker Task,130,59705,140,yes,1024
92.90780142,92.90780142,426.3758865,426.3758865,black,legacy,legacy,legacy,0,incongruent,uniform,1,undefined,1,s,0,0,0,140,140,0,140,0,140,0,0,0,140,140,140,140,Thu Sep 19 16:03:57 2019,600,The main experiment item,yes,FlankerTask.osexp,/Users/cristianbotello/Desktop/Advanced Quant,no,mono,no,18,no,white,no,yes,768,legacy,60,79,/Users/cristianbotello/Desktop/Advanced Quant/CB-subject-1.csv,legacy,Kafkaesque Koffka,3.2.8,0,s,NA,h,s,NA,s,414,NA,124404,39640,NA,414,2,legacy,1024,2,48000,-16,experiment,HHSHH,1,odd,42734,302830,NA,403837,369075,3064,314171,NA,404937,178423,3083,NA,405049,405466,404925,405049,Flanker Task,131,60119,141,yes,1024
92.95774648,92.95774648,425.8169014,425.8169014,black,legacy,legacy,legacy,0,congruent,uniform,1,undefined,1,s,0,0,0,141,141,0,141,0,141,0,0,0,141,141,141,141,Thu Sep 19 16:03:57 2019,600,The main experiment item,yes,FlankerTask.osexp,/Users/cristianbotello/Desktop/Advanced Quant,no,mono,no,18,no,white,no,yes,768,legacy,61,79,/Users/cristianbotello/Desktop/Advanced Quant/CB-subject-1.csv,legacy,Kafkaesque Koffka,3.2.8,0,s,NA,h,s,NA,s,347,NA,124404,39640,NA,347,2,legacy,1024,2,48000,-16,experiment,SSSSS,1,odd,42734,302830,NA,405480,369075,3064,314171,NA,406580,178423,3083,NA,406695,407045,406568,406695,Flanker Task,132,60466,142,yes,1024
93.00699301,93.00699301,424.979021,424.979021,black,legacy,legacy,legacy,0,congruent,uniform,1,undefined,1,s,0,0,0,142,142,0,142,0,142,0,0,0,142,142,142,142,Thu Sep 19 16:03:57 2019,600,The main experiment item,yes,FlankerTask.osexp,/Users/cristianbotello/Desktop/Advanced Quant,no,mono,no,18,no,white,no,yes,768,legacy,62,79,/Users/cristianbotello/Desktop/Advanced Quant/CB-subject-1.csv,legacy,Kafkaesque Koffka,3.2.8,0,s,NA,h,s,NA,s,306,NA,124404,39640,NA,306,2,legacy,1024,2,48000,-16,experiment,SSSSS,1,odd,42734,302830,NA,407059,369075,3064,314171,NA,408159,178423,3083,NA,408270,408579,408147,408270,Flanker Task,133,60772,143,yes,1024
93.05555556,93.05555556,424.2569444,424.2569444,black,legacy,legacy,legacy,0,incongruent,uniform,1,undefined,1,h,0,0,0,143,143,0,143,0,143,0,0,0,143,143,143,143,Thu Sep 19 16:03:57 2019,600,The main experiment item,yes,FlankerTask.osexp,/Users/cristianbotello/Desktop/Advanced Quant,no,mono,no,18,no,white,no,yes,768,legacy,63,79,/Users/cristianbotello/Desktop/Advanced Quant/CB-subject-1.csv,legacy,Kafkaesque Koffka,3.2.8,0,h,NA,h,s,NA,h,321,NA,124404,39640,NA,321,2,legacy,1024,2,48000,-16,experiment,SSHSS,1,odd,42734,302830,NA,408593,369075,3064,314171,NA,409693,178423,3083,NA,409807,410131,409682,409806,Flanker Task,134,61093,144,yes,1024
93.10344828,93.10344828,423.5931034,423.5931034,black,legacy,legacy,legacy,0,congruent,uniform,1,undefined,1,h,0,0,0,144,144,0,144,0,144,0,0,0,144,144,144,144,Thu Sep 19 16:03:57 2019,600,The main experiment item,yes,FlankerTask.osexp,/Users/cristianbotello/Desktop/Advanced Quant,no,mono,no,18,no,white,no,yes,768,legacy,64,79,/Users/cristianbotello/Desktop/Advanced Quant/CB-subject-1.csv,legacy,Kafkaesque Koffka,3.2.8,0,h,NA,h,s,NA,h,328,NA,124404,39640,NA,328,2,legacy,1024,2,48000,-16,experiment,HHHHH,1,odd,42734,302830,NA,410147,369075,3064,314171,NA,411246,178423,3083,NA,411361,411692,411235,411361,Flanker Task,135,61421,145,yes,1024
93.15068493,93.15068493,422.9246575,422.9246575,black,legacy,legacy,legacy,0,congruent,uniform,1,undefined,1,s,0,0,0,145,145,0,145,0,145,0,0,0,145,145,145,145,Thu Sep 19 16:03:57 2019,600,The main experiment item,yes,FlankerTask.osexp,/Users/cristianbotello/Desktop/Advanced Quant,no,mono,no,18,no,white,no,yes,768,legacy,65,79,/Users/cristianbotello/Desktop/Advanced Quant/CB-subject-1.csv,legacy,Kafkaesque Koffka,3.2.8,0,s,NA,h,s,NA,s,326,NA,124404,39640,NA,326,2,legacy,1024,2,48000,-16,experiment,SSSSS,1,odd,42734,302830,NA,411707,369075,3064,314171,NA,412808,178423,3083,NA,412923,413252,412794,412923,Flanker Task,136,61747,146,yes,1024
93.19727891,93.19727891,421.7619048,421.7619048,black,legacy,legacy,legacy,0,congruent,uniform,1,undefined,1,h,0,0,0,146,146,0,146,0,146,0,0,0,146,146,146,146,Thu Sep 19 16:03:57 2019,600,The main experiment item,yes,FlankerTask.osexp,/Users/cristianbotello/Desktop/Advanced Quant,no,mono,no,18,no,white,no,yes,768,legacy,66,79,/Users/cristianbotello/Desktop/Advanced Quant/CB-subject-1.csv,legacy,Kafkaesque Koffka,3.2.8,0,h,NA,h,s,NA,h,252,NA,124404,39640,NA,252,2,legacy,1024,2,48000,-16,experiment,HHHHH,1,odd,42734,302830,NA,413267,369075,3064,314171,NA,414371,178423,3083,NA,414483,414738,414357,414483,Flanker Task,137,61999,147,yes,1024
92.56756757,92.56756757,420.7297297,420.7297297,black,legacy,legacy,legacy,0,incongruent,uniform,0,undefined,0,h,0,0,0,147,147,0,147,0,147,0,0,0,147,147,147,147,Thu Sep 19 16:03:57 2019,600,The main experiment item,yes,FlankerTask.osexp,/Users/cristianbotello/Desktop/Advanced Quant,no,mono,no,18,no,white,no,yes,768,legacy,67,79,/Users/cristianbotello/Desktop/Advanced Quant/CB-subject-1.csv,legacy,Kafkaesque Koffka,3.2.8,0,s,NA,h,s,NA,s,269,NA,124404,39640,NA,269,2,legacy,1024,2,48000,-16,experiment,SSHSS,1,odd,42734,302830,NA,414753,369075,3064,314171,NA,415853,178423,3083,NA,415968,416240,415842,415968,Flanker Task,137,62268,148,yes,1024
92.61744966,92.61744966,420.3758389,420.3758389,black,legacy,legacy,legacy,0,congruent,uniform,1,undefined,1,s,0,0,0,148,148,0,148,0,148,0,0,0,148,148,148,148,Thu Sep 19 16:03:57 2019,600,The main experiment item,yes,FlankerTask.osexp,/Users/cristianbotello/Desktop/Advanced Quant,no,mono,no,18,no,white,no,yes,768,legacy,68,79,/Users/cristianbotello/Desktop/Advanced Quant/CB-subject-1.csv,legacy,Kafkaesque Koffka,3.2.8,0,s,NA,h,s,NA,s,368,NA,124404,39640,NA,368,2,legacy,1024,2,48000,-16,experiment,SSSSS,1,odd,42734,302830,NA,416768,416255,3064,314171,NA,417866,178423,3083,NA,417979,418350,417855,417979,Flanker Task,138,62636,149,yes,1024
92.66666667,92.66666667,420.8333333,420.8333333,black,legacy,legacy,legacy,0,incongruent,uniform,1,undefined,1,s,0,0,0,149,149,0,149,0,149,0,0,0,149,149,149,149,Thu Sep 19 16:03:57 2019,600,The main experiment item,yes,FlankerTask.osexp,/Users/cristianbotello/Desktop/Advanced Quant,no,mono,no,18,no,white,no,yes,768,legacy,69,79,/Users/cristianbotello/Desktop/Advanced Quant/CB-subject-1.csv,legacy,Kafkaesque Koffka,3.2.8,0,s,NA,h,s,NA,s,489,NA,124404,39640,NA,489,2,legacy,1024,2,48000,-16,experiment,HHSHH,1,odd,42734,302830,NA,418366,416255,3064,314171,NA,419467,178423,3083,NA,419578,420070,419455,419578,Flanker Task,139,63125,150,yes,1024
92.05298013,92.05298013,420.1986755,420.1986755,black,legacy,legacy,legacy,0,incongruent,uniform,0,undefined,0,h,0,0,0,150,150,0,150,0,150,0,0,0,150,150,150,150,Thu Sep 19 16:03:57 2019,600,The main experiment item,yes,FlankerTask.osexp,/Users/cristianbotello/Desktop/Advanced Quant,no,mono,no,18,no,white,no,yes,768,legacy,70,79,/Users/cristianbotello/Desktop/Advanced Quant/CB-subject-1.csv,legacy,Kafkaesque Koffka,3.2.8,0,s,NA,h,s,NA,s,325,NA,124404,39640,NA,325,2,legacy,1024,2,48000,-16,experiment,SSHSS,1,odd,42734,302830,NA,420086,416255,3064,314171,NA,421185,178423,3083,NA,421301,421629,421174,421300,Flanker Task,139,63450,151,yes,1024
92.10526316,92.10526316,420.4605263,420.4605263,black,legacy,legacy,legacy,0,congruent,uniform,1,undefined,1,s,0,0,0,151,151,0,151,0,151,0,0,0,151,151,151,151,Thu Sep 19 16:03:57 2019,600,The main experiment item,yes,FlankerTask.osexp,/Users/cristianbotello/Desktop/Advanced Quant,no,mono,no,18,no,white,no,yes,768,legacy,71,79,/Users/cristianbotello/Desktop/Advanced Quant/CB-subject-1.csv,legacy,Kafkaesque Koffka,3.2.8,0,s,NA,h,s,NA,s,460,NA,124404,39640,NA,460,2,legacy,1024,2,48000,-16,experiment,SSSSS,1,odd,42734,302830,NA,422156,421643,3064,314171,NA,423255,178423,3083,NA,423371,423834,423244,423370,Flanker Task,140,63910,152,yes,1024
92.15686275,92.15686275,420,420,black,legacy,legacy,legacy,0,congruent,uniform,1,undefined,1,h,0,0,0,152,152,0,152,0,152,0,0,0,152,152,152,152,Thu Sep 19 16:03:57 2019,600,The main experiment item,yes,FlankerTask.osexp,/Users/cristianbotello/Desktop/Advanced Quant,no,mono,no,18,no,white,no,yes,768,legacy,72,79,/Users/cristianbotello/Desktop/Advanced Quant/CB-subject-1.csv,legacy,Kafkaesque Koffka,3.2.8,0,h,NA,h,s,NA,h,350,NA,124404,39640,NA,350,2,legacy,1024,2,48000,-16,experiment,HHHHH,1,odd,42734,302830,NA,423848,421643,3064,314171,NA,424947,178423,3083,NA,425062,425415,424936,425061,Flanker Task,141,64260,153,yes,1024
92.20779221,92.20779221,420.0454545,420.0454545,black,legacy,legacy,legacy,0,congruent,uniform,1,undefined,1,s,0,0,0,153,153,0,153,0,153,0,0,0,153,153,153,153,Thu Sep 19 16:03:57 2019,600,The main experiment item,yes,FlankerTask.osexp,/Users/cristianbotello/Desktop/Advanced Quant,no,mono,no,18,no,white,no,yes,768,legacy,73,79,/Users/cristianbotello/Desktop/Advanced Quant/CB-subject-1.csv,legacy,Kafkaesque Koffka,3.2.8,0,s,NA,h,s,NA,s,427,NA,124404,39640,NA,427,2,legacy,1024,2,48000,-16,experiment,SSSSS,1,odd,42734,302830,NA,425429,421643,3064,314171,NA,426528,178423,3083,NA,426641,427072,426516,426641,Flanker Task,142,64687,154,yes,1024
91.61290323,91.61290323,419.1354839,419.1354839,black,legacy,legacy,legacy,0,congruent,uniform,0,undefined,0,h,0,0,0,154,154,0,154,0,154,0,0,0,154,154,154,154,Thu Sep 19 16:03:57 2019,600,The main experiment item,yes,FlankerTask.osexp,/Users/cristianbotello/Desktop/Advanced Quant,no,mono,no,18,no,white,no,yes,768,legacy,74,79,/Users/cristianbotello/Desktop/Advanced Quant/CB-subject-1.csv,legacy,Kafkaesque Koffka,3.2.8,0,s,NA,h,s,NA,s,279,NA,124404,39640,NA,279,2,legacy,1024,2,48000,-16,experiment,HHHHH,1,odd,42734,302830,NA,427086,421643,3064,314171,NA,428186,178423,3083,NA,428299,428582,428174,428299,Flanker Task,142,64966,155,yes,1024
91.66666667,91.66666667,418.7115385,418.7115385,black,legacy,legacy,legacy,0,congruent,uniform,1,undefined,1,h,0,0,0,155,155,0,155,0,155,0,0,0,155,155,155,155,Thu Sep 19 16:03:57 2019,600,The main experiment item,yes,FlankerTask.osexp,/Users/cristianbotello/Desktop/Advanced Quant,no,mono,no,18,no,white,no,yes,768,legacy,75,79,/Users/cristianbotello/Desktop/Advanced Quant/CB-subject-1.csv,legacy,Kafkaesque Koffka,3.2.8,0,h,NA,h,s,NA,h,353,NA,124404,39640,NA,353,2,legacy,1024,2,48000,-16,experiment,HHHHH,1,odd,42734,302830,NA,429108,428595,3064,314171,NA,430208,178423,3083,NA,430323,430679,430197,430323,Flanker Task,143,65319,156,yes,1024
91.71974522,91.71974522,418.3375796,418.3375796,black,legacy,legacy,legacy,0,congruent,uniform,1,undefined,1,s,0,0,0,156,156,0,156,0,156,0,0,0,156,156,156,156,Thu Sep 19 16:03:57 2019,600,The main experiment item,yes,FlankerTask.osexp,/Users/cristianbotello/Desktop/Advanced Quant,no,mono,no,18,no,white,no,yes,768,legacy,76,79,/Users/cristianbotello/Desktop/Advanced Quant/CB-subject-1.csv,legacy,Kafkaesque Koffka,3.2.8,0,s,NA,h,s,NA,s,360,NA,124404,39640,NA,360,2,legacy,1024,2,48000,-16,experiment,SSSSS,1,odd,42734,302830,NA,430693,428595,3064,314171,NA,431793,178423,3083,NA,431905,432268,431781,431904,Flanker Task,144,65679,157,yes,1024
