acc,accuracy,average_response_time,avg_rt,background,canvas_backend,clock_backend,color_backend,compensation,condition,coordinates,correct,correct_Instruction1,correct_keyboard_response,correct_response,count_Block1,count_Block2,count_Block3,count_Faster,count_Finish,count_ISI,count_Instruction1,count_Instruction2,count_Instruction3,count_errorFeedback,count_experiment,count_fixation,count_keyboard_response,count_logger,count_sequence,count_stimulus,datetime,deadline,description,disable_garbage_collection,experiment_file,experiment_path,font_bold,font_family,font_italic,font_size,font_underline,foreground,form_clicks,fullscreen,height,keyboard_backend,live_row,live_row_Block1,logfile,mouse_backend,opensesame_codename,opensesame_version,repeat_cycle,response,response_Finish,response_Instruction1,response_Instruction2,response_Instruction3,response_keyboard_response,response_time,response_time_Finish,response_time_Instruction1,response_time_Instruction2,response_time_Instruction3,response_time_keyboard_response,round_decimals,sampler_backend,sound_buf_size,sound_channels,sound_freq,sound_sample_size,start,stimulus,subject_nr,subject_parity,time_Block1,time_Block2,time_Block3,time_Faster,time_Finish,time_ISI,time_Instruction1,time_Instruction2,time_Instruction3,time_errorFeedback,time_experiment,time_fixation,time_keyboard_response,time_logger,time_sequence,time_stimulus,title,total_correct,total_response_time,total_responses,uniform_coordinates,width
100,100,1155,1155,black,legacy,legacy,legacy,0,incongruent,uniform,1,undefined,1,h,0,0,0,0,0,0,0,0,0,0,0,0,0,0,0,0,9/19/19 17:20,1500,The main experiment item,yes,Flankertask2.osexp,C:/Users/Carolyn/OneDrive,no,mono,no,18,no,white,no,yes,768,legacy,0,0,C:/Users/Carolyn/OneDrive/cp-subject-3.csv,legacy,Kafkaesque Koffka,3.2.8,0,h,NA,s,NA,NA,h,1155,NA,42816,NA,NA,1155,2,legacy,1024,2,48000,-16,experiment,SSHSS,3,odd,46116,NA,NA,NA,NA,NA,3299,NA,NA,NA,3292,46273,46376,47531,46268,46376,Flankertask2,1,1155,1,yes,1024
100,100,970,970,black,legacy,legacy,legacy,0,incongruent,uniform,1,undefined,1,s,0,0,0,1,0,1,0,0,0,1,0,1,1,1,1,1,9/19/19 17:20,1500,The main experiment item,yes,Flankertask2.osexp,C:/Users/Carolyn/OneDrive,no,mono,no,18,no,white,no,yes,768,legacy,1,1,C:/Users/Carolyn/OneDrive/cp-subject-3.csv,legacy,Kafkaesque Koffka,3.2.8,0,s,NA,s,NA,NA,s,785,NA,42816,NA,NA,785,2,legacy,1024,2,48000,-16,experiment,HHSHH,3,odd,46116,NA,NA,NA,NA,47578,3299,NA,NA,NA,3292,48723,48826,49611,48719,48826,Flankertask2,2,1940,2,yes,1024
100,100,902,902,black,legacy,legacy,legacy,0,incongruent,uniform,1,undefined,1,s,0,0,0,2,0,2,0,0,0,2,0,2,2,2,2,2,9/19/19 17:20,1500,The main experiment item,yes,Flankertask2.osexp,C:/Users/Carolyn/OneDrive,no,mono,no,18,no,white,no,yes,768,legacy,2,2,C:/Users/Carolyn/OneDrive/cp-subject-3.csv,legacy,Kafkaesque Koffka,3.2.8,0,s,NA,s,NA,NA,s,766,NA,42816,NA,NA,766,2,legacy,1024,2,48000,-16,experiment,HHSHH,3,odd,46116,NA,NA,NA,NA,49636,3299,NA,NA,NA,3292,50781,50884,51651,50776,50884,Flankertask2,3,2706,3,yes,1024
100,100,839.75,839.75,black,legacy,legacy,legacy,0,congruent,uniform,1,undefined,1,s,0,0,0,3,0,3,0,0,0,3,0,3,3,3,3,3,9/19/19 17:20,1500,The main experiment item,yes,Flankertask2.osexp,C:/Users/Carolyn/OneDrive,no,mono,no,18,no,white,no,yes,768,legacy,3,3,C:/Users/Carolyn/OneDrive/cp-subject-3.csv,legacy,Kafkaesque Koffka,3.2.8,0,s,NA,s,NA,NA,s,653,NA,42816,NA,NA,653,2,legacy,1024,2,48000,-16,experiment,SSSSS,3,odd,46116,NA,NA,NA,NA,51686,3299,NA,NA,NA,3292,52830,52933,53588,52825,52933,Flankertask2,4,3359,4,yes,1024
100,100,781.8,781.8,black,legacy,legacy,legacy,0,congruent,uniform,1,undefined,1,h,0,0,0,4,0,4,0,0,0,4,0,4,4,4,4,4,9/19/19 17:20,1500,The main experiment item,yes,Flankertask2.osexp,C:/Users/Carolyn/OneDrive,no,mono,no,18,no,white,no,yes,768,legacy,4,4,C:/Users/Carolyn/OneDrive/cp-subject-3.csv,legacy,Kafkaesque Koffka,3.2.8,0,h,NA,s,NA,NA,h,550,NA,42816,NA,NA,550,2,legacy,1024,2,48000,-16,experiment,HHHHH,3,odd,46116,NA,NA,NA,NA,53628,3299,NA,NA,NA,3292,54772,54876,55427,54767,54875,Flankertask2,5,3909,5,yes,1024
100,100,748.6666667,748.6666667,black,legacy,legacy,legacy,0,congruent,uniform,1,undefined,1,s,0,0,0,5,0,5,0,0,0,5,0,5,5,5,5,5,9/19/19 17:20,1500,The main experiment item,yes,Flankertask2.osexp,C:/Users/Carolyn/OneDrive,no,mono,no,18,no,white,no,yes,768,legacy,5,5,C:/Users/Carolyn/OneDrive/cp-subject-3.csv,legacy,Kafkaesque Koffka,3.2.8,0,s,NA,s,NA,NA,s,583,NA,42816,NA,NA,583,2,legacy,1024,2,48000,-16,experiment,SSSSS,3,odd,46116,NA,NA,NA,NA,55452,3299,NA,NA,NA,3292,56596,56699,57283,56591,56699,Flankertask2,6,4492,6,yes,1024
100,100,713.1428571,713.1428571,black,legacy,legacy,legacy,0,congruent,uniform,1,undefined,1,h,0,0,0,6,0,6,0,0,0,6,0,6,6,6,6,6,9/19/19 17:20,1500,The main experiment item,yes,Flankertask2.osexp,C:/Users/Carolyn/OneDrive,no,mono,no,18,no,white,no,yes,768,legacy,6,6,C:/Users/Carolyn/OneDrive/cp-subject-3.csv,legacy,Kafkaesque Koffka,3.2.8,0,h,NA,s,NA,NA,h,500,NA,42816,NA,NA,500,2,legacy,1024,2,48000,-16,experiment,HHHHH,3,odd,46116,NA,NA,NA,NA,57311,3299,NA,NA,NA,3292,58455,58558,59059,58451,58558,Flankertask2,7,4992,7,yes,1024
100,100,684.5,684.5,black,legacy,legacy,legacy,0,congruent,uniform,1,undefined,1,s,0,0,0,7,0,7,0,0,0,7,0,7,7,7,7,7,9/19/19 17:20,1500,The main experiment item,yes,Flankertask2.osexp,C:/Users/Carolyn/OneDrive,no,mono,no,18,no,white,no,yes,768,legacy,7,7,C:/Users/Carolyn/OneDrive/cp-subject-3.csv,legacy,Kafkaesque Koffka,3.2.8,0,s,NA,s,NA,NA,s,484,NA,42816,NA,NA,484,2,legacy,1024,2,48000,-16,experiment,SSSSS,3,odd,46116,NA,NA,NA,NA,59094,3299,NA,NA,NA,3292,60238,60342,60827,60233,60341,Flankertask2,8,5476,8,yes,1024
100,100,676.6666667,676.6666667,black,legacy,legacy,legacy,0,incongruent,uniform,1,undefined,1,h,0,0,0,8,0,8,0,0,0,8,0,8,8,8,8,8,9/19/19 17:20,1500,The main experiment item,yes,Flankertask2.osexp,C:/Users/Carolyn/OneDrive,no,mono,no,18,no,white,no,yes,768,legacy,8,8,C:/Users/Carolyn/OneDrive/cp-subject-3.csv,legacy,Kafkaesque Koffka,3.2.8,0,h,NA,s,NA,NA,h,614,NA,42816,NA,NA,614,2,legacy,1024,2,48000,-16,experiment,SSHSS,3,odd,46116,NA,NA,NA,NA,60861,3299,NA,NA,NA,3292,62005,62109,62724,62000,62108,Flankertask2,9,6090,9,yes,1024
100,100,657.2,657.2,black,legacy,legacy,legacy,0,congruent,uniform,1,undefined,1,h,0,0,0,9,0,9,0,0,0,9,0,9,9,9,9,9,9/19/19 17:20,1500,The main experiment item,yes,Flankertask2.osexp,C:/Users/Carolyn/OneDrive,no,mono,no,18,no,white,no,yes,768,legacy,9,9,C:/Users/Carolyn/OneDrive/cp-subject-3.csv,legacy,Kafkaesque Koffka,3.2.8,0,h,NA,s,NA,NA,h,482,NA,42816,NA,NA,482,2,legacy,1024,2,48000,-16,experiment,HHHHH,3,odd,46116,NA,NA,NA,NA,62744,3299,NA,NA,NA,3292,63889,63993,64475,63884,63992,Flankertask2,10,6572,10,yes,1024
100,100,644.3636364,644.3636364,black,legacy,legacy,legacy,0,congruent,uniform,1,undefined,1,s,0,0,0,10,0,10,0,0,0,10,0,10,10,10,10,10,9/19/19 17:20,1500,The main experiment item,yes,Flankertask2.osexp,C:/Users/Carolyn/OneDrive,no,mono,no,18,no,white,no,yes,768,legacy,10,10,C:/Users/Carolyn/OneDrive/cp-subject-3.csv,legacy,Kafkaesque Koffka,3.2.8,0,s,NA,s,NA,NA,s,516,NA,42816,NA,NA,516,2,legacy,1024,2,48000,-16,experiment,SSSSS,3,odd,46116,NA,NA,NA,NA,64503,3299,NA,NA,NA,3292,65647,65750,66267,65643,65750,Flankertask2,11,7088,11,yes,1024
100,100,639.5,639.5,black,legacy,legacy,legacy,0,congruent,uniform,1,undefined,1,h,0,0,0,11,0,11,0,0,0,11,0,11,11,11,11,11,9/19/19 17:20,1500,The main experiment item,yes,Flankertask2.osexp,C:/Users/Carolyn/OneDrive,no,mono,no,18,no,white,no,yes,768,legacy,11,11,C:/Users/Carolyn/OneDrive/cp-subject-3.csv,legacy,Kafkaesque Koffka,3.2.8,0,h,NA,s,NA,NA,h,586,NA,42816,NA,NA,586,2,legacy,1024,2,48000,-16,experiment,HHHHH,3,odd,46116,NA,NA,NA,NA,66319,3299,NA,NA,NA,3292,67464,67568,68156,67459,67567,Flankertask2,12,7674,12,yes,1024
100,100,628.4615385,628.4615385,black,legacy,legacy,legacy,0,incongruent,uniform,1,undefined,1,s,0,0,0,12,0,12,0,0,0,12,0,12,12,12,12,12,9/19/19 17:20,1500,The main experiment item,yes,Flankertask2.osexp,C:/Users/Carolyn/OneDrive,no,mono,no,18,no,white,no,yes,768,legacy,12,12,C:/Users/Carolyn/OneDrive/cp-subject-3.csv,legacy,Kafkaesque Koffka,3.2.8,0,s,NA,s,NA,NA,s,496,NA,42816,NA,NA,496,2,legacy,1024,2,48000,-16,experiment,HHSHH,3,odd,46116,NA,NA,NA,NA,68194,3299,NA,NA,NA,3292,69339,69442,69939,69334,69442,Flankertask2,13,8170,13,yes,1024
100,100,620.2142857,620.2142857,black,legacy,legacy,legacy,0,congruent,uniform,1,undefined,1,s,0,0,0,13,0,13,0,0,0,13,0,13,13,13,13,13,9/19/19 17:20,1500,The main experiment item,yes,Flankertask2.osexp,C:/Users/Carolyn/OneDrive,no,mono,no,18,no,white,no,yes,768,legacy,13,13,C:/Users/Carolyn/OneDrive/cp-subject-3.csv,legacy,Kafkaesque Koffka,3.2.8,0,s,NA,s,NA,NA,s,513,NA,42816,NA,NA,513,2,legacy,1024,2,48000,-16,experiment,SSSSS,3,odd,46116,NA,NA,NA,NA,69977,3299,NA,NA,NA,3292,71121,71225,71740,71116,71224,Flankertask2,14,8683,14,yes,1024
100,100,615.1333333,615.1333333,black,legacy,legacy,legacy,0,incongruent,uniform,1,undefined,1,s,0,0,0,14,0,14,0,0,0,14,0,14,14,14,14,14,9/19/19 17:20,1500,The main experiment item,yes,Flankertask2.osexp,C:/Users/Carolyn/OneDrive,no,mono,no,18,no,white,no,yes,768,legacy,14,14,C:/Users/Carolyn/OneDrive/cp-subject-3.csv,legacy,Kafkaesque Koffka,3.2.8,0,s,NA,s,NA,NA,s,544,NA,42816,NA,NA,544,2,legacy,1024,2,48000,-16,experiment,HHSHH,3,odd,46116,NA,NA,NA,NA,71785,3299,NA,NA,NA,3292,72930,73034,73579,72926,73034,Flankertask2,15,9227,15,yes,1024
100,100,607.75,607.75,black,legacy,legacy,legacy,0,congruent,uniform,1,undefined,1,h,0,0,0,15,0,15,0,0,0,15,0,15,15,15,15,15,9/19/19 17:20,1500,The main experiment item,yes,Flankertask2.osexp,C:/Users/Carolyn/OneDrive,no,mono,no,18,no,white,no,yes,768,legacy,15,15,C:/Users/Carolyn/OneDrive/cp-subject-3.csv,legacy,Kafkaesque Koffka,3.2.8,0,h,NA,s,NA,NA,h,497,NA,42816,NA,NA,497,2,legacy,1024,2,48000,-16,experiment,HHHHH,3,odd,46116,NA,NA,NA,NA,73602,3299,NA,NA,NA,3292,74746,74849,75347,74741,74849,Flankertask2,16,9724,16,yes,1024
100,100,610.1764706,610.1764706,black,legacy,legacy,legacy,0,congruent,uniform,1,undefined,1,h,0,0,0,16,0,16,0,0,0,16,0,16,16,16,16,16,9/19/19 17:20,1500,The main experiment item,yes,Flankertask2.osexp,C:/Users/Carolyn/OneDrive,no,mono,no,18,no,white,no,yes,768,legacy,16,16,C:/Users/Carolyn/OneDrive/cp-subject-3.csv,legacy,Kafkaesque Koffka,3.2.8,0,h,NA,s,NA,NA,h,649,NA,42816,NA,NA,649,2,legacy,1024,2,48000,-16,experiment,HHHHH,3,odd,46116,NA,NA,NA,NA,75378,3299,NA,NA,NA,3292,76522,76625,77275,76517,76625,Flankertask2,17,10373,17,yes,1024
100,100,607.5,607.5,black,legacy,legacy,legacy,0,congruent,uniform,1,undefined,1,s,0,0,0,17,0,17,0,0,0,17,0,17,17,17,17,17,9/19/19 17:20,1500,The main experiment item,yes,Flankertask2.osexp,C:/Users/Carolyn/OneDrive,no,mono,no,18,no,white,no,yes,768,legacy,17,17,C:/Users/Carolyn/OneDrive/cp-subject-3.csv,legacy,Kafkaesque Koffka,3.2.8,0,s,NA,s,NA,NA,s,562,NA,42816,NA,NA,562,2,legacy,1024,2,48000,-16,experiment,SSSSS,3,odd,46116,NA,NA,NA,NA,77328,3299,NA,NA,NA,3292,78473,78576,79139,78469,78576,Flankertask2,18,10935,18,yes,1024
94.73684211,94.73684211,605.4736842,605.4736842,black,legacy,legacy,legacy,0,incongruent,uniform,0,undefined,0,h,0,0,0,18,0,18,0,0,0,18,0,18,18,18,18,18,9/19/19 17:20,1500,The main experiment item,yes,Flankertask2.osexp,C:/Users/Carolyn/OneDrive,no,mono,no,18,no,white,no,yes,768,legacy,18,18,C:/Users/Carolyn/OneDrive/cp-subject-3.csv,legacy,Kafkaesque Koffka,3.2.8,0,s,NA,s,NA,NA,s,569,NA,42816,NA,NA,569,2,legacy,1024,2,48000,-16,experiment,SSHSS,3,odd,46116,NA,NA,NA,NA,79186,3299,NA,NA,NA,3292,80330,80433,81004,80325,80433,Flankertask2,18,11504,19,yes,1024
95,95,608.25,608.25,black,legacy,legacy,legacy,0,congruent,uniform,1,undefined,1,s,0,0,0,19,0,19,0,0,0,19,0,19,19,19,19,19,9/19/19 17:20,1500,The main experiment item,yes,Flankertask2.osexp,C:/Users/Carolyn/OneDrive,no,mono,no,18,no,white,no,yes,768,legacy,19,19,C:/Users/Carolyn/OneDrive/cp-subject-3.csv,legacy,Kafkaesque Koffka,3.2.8,0,s,NA,s,NA,NA,s,661,NA,42816,NA,NA,661,2,legacy,1024,2,48000,-16,experiment,SSSSS,3,odd,46116,NA,NA,NA,NA,81539,3299,NA,NA,81036,3292,82685,82789,83451,82680,82788,Flankertask2,19,12165,20,yes,1024
95.23809524,95.23809524,609.5714286,609.5714286,black,legacy,legacy,legacy,0,congruent,uniform,1,undefined,1,s,0,0,0,20,0,20,0,0,0,20,0,20,20,20,20,20,9/19/19 17:20,1500,The main experiment item,yes,Flankertask2.osexp,C:/Users/Carolyn/OneDrive,no,mono,no,18,no,white,no,yes,768,legacy,20,20,C:/Users/Carolyn/OneDrive/cp-subject-3.csv,legacy,Kafkaesque Koffka,3.2.8,0,s,NA,s,NA,NA,s,636,NA,42816,NA,NA,636,2,legacy,1024,2,48000,-16,experiment,SSSSS,3,odd,46116,NA,NA,NA,NA,83485,3299,NA,NA,81036,3292,84630,84734,85371,84625,84733,Flankertask2,20,12801,21,yes,1024
95.45454545,95.45454545,611.9090909,611.9090909,black,legacy,legacy,legacy,0,incongruent,uniform,1,undefined,1,s,0,0,0,21,0,21,0,0,0,21,0,21,21,21,21,21,9/19/19 17:20,1500,The main experiment item,yes,Flankertask2.osexp,C:/Users/Carolyn/OneDrive,no,mono,no,18,no,white,no,yes,768,legacy,21,21,C:/Users/Carolyn/OneDrive/cp-subject-3.csv,legacy,Kafkaesque Koffka,3.2.8,0,s,NA,s,NA,NA,s,661,NA,42816,NA,NA,661,2,legacy,1024,2,48000,-16,experiment,HHSHH,3,odd,46116,NA,NA,NA,NA,85394,3299,NA,NA,81036,3292,86541,86645,87308,86536,86644,Flankertask2,21,13462,22,yes,1024
95.65217391,95.65217391,611.4347826,611.4347826,black,legacy,legacy,legacy,0,congruent,uniform,1,undefined,1,h,0,0,0,22,0,22,0,0,0,22,0,22,22,22,22,22,9/19/19 17:20,1500,The main experiment item,yes,Flankertask2.osexp,C:/Users/Carolyn/OneDrive,no,mono,no,18,no,white,no,yes,768,legacy,22,22,C:/Users/Carolyn/OneDrive/cp-subject-3.csv,legacy,Kafkaesque Koffka,3.2.8,0,h,NA,s,NA,NA,h,601,NA,42816,NA,NA,601,2,legacy,1024,2,48000,-16,experiment,HHHHH,3,odd,46116,NA,NA,NA,NA,87352,3299,NA,NA,81036,3292,88497,88601,89203,88492,88600,Flankertask2,22,14063,23,yes,1024
95.83333333,95.83333333,608.875,608.875,black,legacy,legacy,legacy,0,congruent,uniform,1,undefined,1,h,0,0,0,23,0,23,0,0,0,23,0,23,23,23,23,23,9/19/19 17:20,1500,The main experiment item,yes,Flankertask2.osexp,C:/Users/Carolyn/OneDrive,no,mono,no,18,no,white,no,yes,768,legacy,23,23,C:/Users/Carolyn/OneDrive/cp-subject-3.csv,legacy,Kafkaesque Koffka,3.2.8,0,h,NA,s,NA,NA,h,550,NA,42816,NA,NA,550,2,legacy,1024,2,48000,-16,experiment,HHHHH,3,odd,46116,NA,NA,NA,NA,89236,3299,NA,NA,81036,3292,90381,90484,91036,90376,90484,Flankertask2,23,14613,24,yes,1024
96,96,605.48,605.48,black,legacy,legacy,legacy,0,incongruent,uniform,1,undefined,1,s,0,0,0,24,0,24,0,0,0,24,0,24,24,24,24,24,9/19/19 17:20,1500,The main experiment item,yes,Flankertask2.osexp,C:/Users/Carolyn/OneDrive,no,mono,no,18,no,white,no,yes,768,legacy,24,24,C:/Users/Carolyn/OneDrive/cp-subject-3.csv,legacy,Kafkaesque Koffka,3.2.8,0,s,NA,s,NA,NA,s,524,NA,42816,NA,NA,524,2,legacy,1024,2,48000,-16,experiment,HHSHH,3,odd,46116,NA,NA,NA,NA,91077,3299,NA,NA,81036,3292,92223,92326,92851,92218,92326,Flankertask2,24,15137,25,yes,1024
96.15384615,96.15384615,608.1923077,608.1923077,black,legacy,legacy,legacy,0,incongruent,uniform,1,undefined,1,s,0,0,0,25,0,25,0,0,0,25,0,25,25,25,25,25,9/19/19 17:20,1500,The main experiment item,yes,Flankertask2.osexp,C:/Users/Carolyn/OneDrive,no,mono,no,18,no,white,no,yes,768,legacy,25,25,C:/Users/Carolyn/OneDrive/cp-subject-3.csv,legacy,Kafkaesque Koffka,3.2.8,0,s,NA,s,NA,NA,s,676,NA,42816,NA,NA,676,2,legacy,1024,2,48000,-16,experiment,HHSHH,3,odd,46116,NA,NA,NA,NA,92885,3299,NA,NA,81036,3292,94030,94134,94812,94026,94133,Flankertask2,25,15813,26,yes,1024
96.2962963,96.2962963,608.0740741,608.0740741,black,legacy,legacy,legacy,0,incongruent,uniform,1,undefined,1,s,0,0,0,26,0,26,0,0,0,26,0,26,26,26,26,26,9/19/19 17:20,1500,The main experiment item,yes,Flankertask2.osexp,C:/Users/Carolyn/OneDrive,no,mono,no,18,no,white,no,yes,768,legacy,26,26,C:/Users/Carolyn/OneDrive/cp-subject-3.csv,legacy,Kafkaesque Koffka,3.2.8,0,s,NA,s,NA,NA,s,605,NA,42816,NA,NA,605,2,legacy,1024,2,48000,-16,experiment,HHSHH,3,odd,46116,NA,NA,NA,NA,94869,3299,NA,NA,81036,3292,96013,96117,96724,96009,96117,Flankertask2,26,16418,27,yes,1024
96.42857143,96.42857143,610.4642857,610.4642857,black,legacy,legacy,legacy,0,incongruent,uniform,1,undefined,1,h,0,0,0,27,0,27,0,0,0,27,0,27,27,27,27,27,9/19/19 17:20,1500,The main experiment item,yes,Flankertask2.osexp,C:/Users/Carolyn/OneDrive,no,mono,no,18,no,white,no,yes,768,legacy,27,27,C:/Users/Carolyn/OneDrive/cp-subject-3.csv,legacy,Kafkaesque Koffka,3.2.8,0,h,NA,s,NA,NA,h,675,NA,42816,NA,NA,675,2,legacy,1024,2,48000,-16,experiment,SSHSS,3,odd,46116,NA,NA,NA,NA,96743,3299,NA,NA,81036,3292,97888,97991,98668,97883,97991,Flankertask2,27,17093,28,yes,1024
96.55172414,96.55172414,615.5172414,615.5172414,black,legacy,legacy,legacy,0,incongruent,uniform,1,undefined,1,s,0,0,0,28,0,28,0,0,0,28,0,28,28,28,28,28,9/19/19 17:20,1500,The main experiment item,yes,Flankertask2.osexp,C:/Users/Carolyn/OneDrive,no,mono,no,18,no,white,no,yes,768,legacy,28,28,C:/Users/Carolyn/OneDrive/cp-subject-3.csv,legacy,Kafkaesque Koffka,3.2.8,0,s,NA,s,NA,NA,s,757,NA,42816,NA,NA,757,2,legacy,1024,2,48000,-16,experiment,HHSHH,3,odd,46116,NA,NA,NA,NA,98702,3299,NA,NA,81036,3292,99846,99949,100708,99841,99949,Flankertask2,28,17850,29,yes,1024
96.66666667,96.66666667,614.2333333,614.2333333,black,legacy,legacy,legacy,0,incongruent,uniform,1,undefined,1,s,0,0,0,29,0,29,0,0,0,29,0,29,29,29,29,29,9/19/19 17:20,1500,The main experiment item,yes,Flankertask2.osexp,C:/Users/Carolyn/OneDrive,no,mono,no,18,no,white,no,yes,768,legacy,29,29,C:/Users/Carolyn/OneDrive/cp-subject-3.csv,legacy,Kafkaesque Koffka,3.2.8,0,s,NA,s,NA,NA,s,577,NA,42816,NA,NA,577,2,legacy,1024,2,48000,-16,experiment,HHSHH,3,odd,46116,NA,NA,NA,NA,100752,3299,NA,NA,81036,3292,101896,102001,102580,101892,102000,Flankertask2,29,18427,30,yes,1024
93.5483871,93.5483871,642.8064516,642.8064516,black,legacy,legacy,legacy,0,congruent,uniform,0,undefined,0,h,0,0,0,30,0,30,0,0,0,30,0,30,30,30,30,30,9/19/19 17:20,1500,The main experiment item,yes,Flankertask2.osexp,C:/Users/Carolyn/OneDrive,no,mono,no,18,no,white,no,yes,768,legacy,30,30,C:/Users/Carolyn/OneDrive/cp-subject-3.csv,legacy,Kafkaesque Koffka,3.2.8,0,None,NA,s,NA,NA,None,1500,NA,42816,NA,NA,1500,2,legacy,1024,2,48000,-16,experiment,HHHHH,3,odd,46116,NA,NA,NA,NA,102610,3299,NA,NA,81036,3292,103755,103858,105358,103750,103858,Flankertask2,29,19927,31,yes,1024
90.625,90.625,669.59375,669.59375,black,legacy,legacy,legacy,0,congruent,uniform,0,undefined,0,h,0,0,0,31,0,31,0,0,0,31,0,31,31,31,31,31,9/19/19 17:20,1500,The main experiment item,yes,Flankertask2.osexp,C:/Users/Carolyn/OneDrive,no,mono,no,18,no,white,no,yes,768,legacy,31,31,C:/Users/Carolyn/OneDrive/cp-subject-3.csv,legacy,Kafkaesque Koffka,3.2.8,0,None,NA,s,NA,NA,None,1500,NA,42816,NA,NA,1500,2,legacy,1024,2,48000,-16,experiment,HHHHH,3,odd,46116,NA,NA,NA,NA,105889,3299,NA,NA,105385,3292,107035,107139,108639,107030,107138,Flankertask2,29,21427,32,yes,1024
90.90909091,90.90909091,671.0606061,671.0606061,black,legacy,legacy,legacy,0,congruent,uniform,1,undefined,1,s,0,0,0,32,0,32,0,0,0,32,0,32,32,32,32,32,9/19/19 17:20,1500,The main experiment item,yes,Flankertask2.osexp,C:/Users/Carolyn/OneDrive,no,mono,no,18,no,white,no,yes,768,legacy,32,32,C:/Users/Carolyn/OneDrive/cp-subject-3.csv,legacy,Kafkaesque Koffka,3.2.8,0,s,NA,s,NA,NA,s,718,NA,42816,NA,NA,718,2,legacy,1024,2,48000,-16,experiment,SSSSS,3,odd,46116,NA,NA,NA,NA,109163,3299,NA,NA,108660,3292,110308,110412,111132,110303,110411,Flankertask2,30,22145,33,yes,1024
91.17647059,91.17647059,667.6176471,667.6176471,black,legacy,legacy,legacy,0,incongruent,uniform,1,undefined,1,s,0,0,0,33,0,33,0,0,0,33,0,33,33,33,33,33,9/19/19 17:20,1500,The main experiment item,yes,Flankertask2.osexp,C:/Users/Carolyn/OneDrive,no,mono,no,18,no,white,no,yes,768,legacy,33,33,C:/Users/Carolyn/OneDrive/cp-subject-3.csv,legacy,Kafkaesque Koffka,3.2.8,0,s,NA,s,NA,NA,s,554,NA,42816,NA,NA,554,2,legacy,1024,2,48000,-16,experiment,HHSHH,3,odd,46116,NA,NA,NA,NA,111168,3299,NA,NA,108660,3292,112313,112416,112972,112308,112416,Flankertask2,31,22699,34,yes,1024
91.42857143,91.42857143,666.3714286,666.3714286,black,legacy,legacy,legacy,0,incongruent,uniform,1,undefined,1,h,0,0,0,34,0,34,0,0,0,34,0,34,34,34,34,34,9/19/19 17:20,1500,The main experiment item,yes,Flankertask2.osexp,C:/Users/Carolyn/OneDrive,no,mono,no,18,no,white,no,yes,768,legacy,34,34,C:/Users/Carolyn/OneDrive/cp-subject-3.csv,legacy,Kafkaesque Koffka,3.2.8,0,h,NA,s,NA,NA,h,624,NA,42816,NA,NA,624,2,legacy,1024,2,48000,-16,experiment,SSHSS,3,odd,46116,NA,NA,NA,NA,112994,3299,NA,NA,108660,3292,114139,114242,114868,114134,114242,Flankertask2,32,23323,35,yes,1024
91.66666667,91.66666667,663.7777778,663.7777778,black,legacy,legacy,legacy,0,incongruent,uniform,1,undefined,1,h,0,0,0,35,0,35,0,0,0,35,0,35,35,35,35,35,9/19/19 17:20,1500,The main experiment item,yes,Flankertask2.osexp,C:/Users/Carolyn/OneDrive,no,mono,no,18,no,white,no,yes,768,legacy,35,35,C:/Users/Carolyn/OneDrive/cp-subject-3.csv,legacy,Kafkaesque Koffka,3.2.8,0,h,NA,s,NA,NA,h,573,NA,42816,NA,NA,573,2,legacy,1024,2,48000,-16,experiment,SSHSS,3,odd,46116,NA,NA,NA,NA,114902,3299,NA,NA,108660,3292,116046,116149,116724,116041,116149,Flankertask2,33,23896,36,yes,1024
91.89189189,91.89189189,660.8108108,660.8108108,black,legacy,legacy,legacy,0,congruent,uniform,1,undefined,1,s,0,0,0,36,0,36,0,0,0,36,0,36,36,36,36,36,9/19/19 17:20,1500,The main experiment item,yes,Flankertask2.osexp,C:/Users/Carolyn/OneDrive,no,mono,no,18,no,white,no,yes,768,legacy,36,36,C:/Users/Carolyn/OneDrive/cp-subject-3.csv,legacy,Kafkaesque Koffka,3.2.8,0,s,NA,s,NA,NA,s,554,NA,42816,NA,NA,554,2,legacy,1024,2,48000,-16,experiment,SSSSS,3,odd,46116,NA,NA,NA,NA,116760,3299,NA,NA,108660,3292,117904,118008,118564,117899,118007,Flankertask2,34,24450,37,yes,1024
92.10526316,92.10526316,660.2631579,660.2631579,black,legacy,legacy,legacy,0,incongruent,uniform,1,undefined,1,s,0,0,0,37,0,37,0,0,0,37,0,37,37,37,37,37,9/19/19 17:20,1500,The main experiment item,yes,Flankertask2.osexp,C:/Users/Carolyn/OneDrive,no,mono,no,18,no,white,no,yes,768,legacy,37,37,C:/Users/Carolyn/OneDrive/cp-subject-3.csv,legacy,Kafkaesque Koffka,3.2.8,0,s,NA,s,NA,NA,s,640,NA,42816,NA,NA,640,2,legacy,1024,2,48000,-16,experiment,HHSHH,3,odd,46116,NA,NA,NA,NA,118602,3299,NA,NA,108660,3292,119746,119850,120492,119742,119849,Flankertask2,35,25090,38,yes,1024
92.30769231,92.30769231,659.2051282,659.2051282,black,legacy,legacy,legacy,0,congruent,uniform,1,undefined,1,s,0,0,0,38,0,38,0,0,0,38,0,38,38,38,38,38,9/19/19 17:20,1500,The main experiment item,yes,Flankertask2.osexp,C:/Users/Carolyn/OneDrive,no,mono,no,18,no,white,no,yes,768,legacy,38,38,C:/Users/Carolyn/OneDrive/cp-subject-3.csv,legacy,Kafkaesque Koffka,3.2.8,0,s,NA,s,NA,NA,s,619,NA,42816,NA,NA,619,2,legacy,1024,2,48000,-16,experiment,SSSSS,3,odd,46116,NA,NA,NA,NA,120526,3299,NA,NA,108660,3292,121671,121775,122396,121666,121774,Flankertask2,36,25709,39,yes,1024
92.5,92.5,656.325,656.325,black,legacy,legacy,legacy,0,incongruent,uniform,1,undefined,1,h,0,0,0,39,0,39,0,0,0,39,0,39,39,39,39,39,9/19/19 17:20,1500,The main experiment item,yes,Flankertask2.osexp,C:/Users/Carolyn/OneDrive,no,mono,no,18,no,white,no,yes,768,legacy,39,39,C:/Users/Carolyn/OneDrive/cp-subject-3.csv,legacy,Kafkaesque Koffka,3.2.8,0,h,NA,s,NA,NA,h,544,NA,42816,NA,NA,544,2,legacy,1024,2,48000,-16,experiment,SSHSS,3,odd,46116,NA,NA,NA,NA,122418,3299,NA,NA,108660,3292,123563,123666,124212,123559,123666,Flankertask2,37,26253,40,yes,1024
92.68292683,92.68292683,654.5121951,654.5121951,black,legacy,legacy,legacy,0,congruent,uniform,1,undefined,1,s,0,0,0,40,0,40,0,0,0,40,0,40,40,40,40,40,9/19/19 17:20,1500,The main experiment item,yes,Flankertask2.osexp,C:/Users/Carolyn/OneDrive,no,mono,no,18,no,white,no,yes,768,legacy,40,40,C:/Users/Carolyn/OneDrive/cp-subject-3.csv,legacy,Kafkaesque Koffka,3.2.8,0,s,NA,s,NA,NA,s,582,NA,42816,NA,NA,582,2,legacy,1024,2,48000,-16,experiment,SSSSS,3,odd,46116,NA,NA,NA,NA,124244,3299,NA,NA,108660,3292,125389,125492,126076,125384,125492,Flankertask2,38,26835,41,yes,1024
92.85714286,92.85714286,649.6428571,649.6428571,black,legacy,legacy,legacy,0,congruent,uniform,1,undefined,1,h,0,0,0,41,0,41,0,0,0,41,0,41,41,41,41,41,9/19/19 17:20,1500,The main experiment item,yes,Flankertask2.osexp,C:/Users/Carolyn/OneDrive,no,mono,no,18,no,white,no,yes,768,legacy,41,41,C:/Users/Carolyn/OneDrive/cp-subject-3.csv,legacy,Kafkaesque Koffka,3.2.8,0,h,NA,s,NA,NA,h,450,NA,42816,NA,NA,450,2,legacy,1024,2,48000,-16,experiment,HHHHH,3,odd,46116,NA,NA,NA,NA,126119,3299,NA,NA,108660,3292,127263,127368,127820,127259,127367,Flankertask2,39,27285,42,yes,1024
93.02325581,93.02325581,645.6046512,645.6046512,black,legacy,legacy,legacy,0,incongruent,uniform,1,undefined,1,h,0,0,0,42,0,42,0,0,0,42,0,42,42,42,42,42,9/19/19 17:20,1500,The main experiment item,yes,Flankertask2.osexp,C:/Users/Carolyn/OneDrive,no,mono,no,18,no,white,no,yes,768,legacy,42,42,C:/Users/Carolyn/OneDrive/cp-subject-3.csv,legacy,Kafkaesque Koffka,3.2.8,0,h,NA,s,NA,NA,h,476,NA,42816,NA,NA,476,2,legacy,1024,2,48000,-16,experiment,SSHSS,3,odd,46116,NA,NA,NA,NA,127910,3299,NA,NA,108660,3292,129055,129158,129636,129051,129158,Flankertask2,40,27761,43,yes,1024
93.18181818,93.18181818,642.5,642.5,black,legacy,legacy,legacy,0,congruent,uniform,1,undefined,1,h,0,0,0,43,0,43,0,0,0,43,0,43,43,43,43,43,9/19/19 17:20,1500,The main experiment item,yes,Flankertask2.osexp,C:/Users/Carolyn/OneDrive,no,mono,no,18,no,white,no,yes,768,legacy,43,43,C:/Users/Carolyn/OneDrive/cp-subject-3.csv,legacy,Kafkaesque Koffka,3.2.8,0,h,NA,s,NA,NA,h,509,NA,42816,NA,NA,509,2,legacy,1024,2,48000,-16,experiment,HHHHH,3,odd,46116,NA,NA,NA,NA,129677,3299,NA,NA,108660,3292,130821,130925,131436,130816,130924,Flankertask2,41,28270,44,yes,1024
93.33333333,93.33333333,638.6444444,638.6444444,black,legacy,legacy,legacy,0,incongruent,uniform,1,undefined,1,s,0,0,0,44,0,44,0,0,0,44,0,44,44,44,44,44,9/19/19 17:20,1500,The main experiment item,yes,Flankertask2.osexp,C:/Users/Carolyn/OneDrive,no,mono,no,18,no,white,no,yes,768,legacy,44,44,C:/Users/Carolyn/OneDrive/cp-subject-3.csv,legacy,Kafkaesque Koffka,3.2.8,0,s,NA,s,NA,NA,s,469,NA,42816,NA,NA,469,2,legacy,1024,2,48000,-16,experiment,HHSHH,3,odd,46116,NA,NA,NA,NA,131477,3299,NA,NA,108660,3292,132621,132725,133196,132616,132724,Flankertask2,42,28739,45,yes,1024
93.47826087,93.47826087,636.8913043,636.8913043,black,legacy,legacy,legacy,0,incongruent,uniform,1,undefined,1,s,0,0,0,45,0,45,0,0,0,45,0,45,45,45,45,45,9/19/19 17:20,1500,The main experiment item,yes,Flankertask2.osexp,C:/Users/Carolyn/OneDrive,no,mono,no,18,no,white,no,yes,768,legacy,45,45,C:/Users/Carolyn/OneDrive/cp-subject-3.csv,legacy,Kafkaesque Koffka,3.2.8,0,s,NA,s,NA,NA,s,558,NA,42816,NA,NA,558,2,legacy,1024,2,48000,-16,experiment,HHSHH,3,odd,46116,NA,NA,NA,NA,133243,3299,NA,NA,108660,3292,134389,134492,135052,134384,134492,Flankertask2,43,29297,46,yes,1024
93.61702128,93.61702128,633.8297872,633.8297872,black,legacy,legacy,legacy,0,congruent,uniform,1,undefined,1,s,0,0,0,46,0,46,0,0,0,46,0,46,46,46,46,46,9/19/19 17:20,1500,The main experiment item,yes,Flankertask2.osexp,C:/Users/Carolyn/OneDrive,no,mono,no,18,no,white,no,yes,768,legacy,46,46,C:/Users/Carolyn/OneDrive/cp-subject-3.csv,legacy,Kafkaesque Koffka,3.2.8,0,s,NA,s,NA,NA,s,493,NA,42816,NA,NA,493,2,legacy,1024,2,48000,-16,experiment,SSSSS,3,odd,46116,NA,NA,NA,NA,135077,3299,NA,NA,108660,3292,136221,136325,136820,136216,136324,Flankertask2,44,29790,47,yes,1024
93.75,93.75,631.7708333,631.7708333,black,legacy,legacy,legacy,0,incongruent,uniform,1,undefined,1,h,0,0,0,47,0,47,0,0,0,47,0,47,47,47,47,47,9/19/19 17:20,1500,The main experiment item,yes,Flankertask2.osexp,C:/Users/Carolyn/OneDrive,no,mono,no,18,no,white,no,yes,768,legacy,47,47,C:/Users/Carolyn/OneDrive/cp-subject-3.csv,legacy,Kafkaesque Koffka,3.2.8,0,h,NA,s,NA,NA,h,535,NA,42816,NA,NA,535,2,legacy,1024,2,48000,-16,experiment,SSHSS,3,odd,46116,NA,NA,NA,NA,136851,3299,NA,NA,108660,3292,137996,138099,138636,137991,138099,Flankertask2,45,30325,48,yes,1024
93.87755102,93.87755102,630.4489796,630.4489796,black,legacy,legacy,legacy,0,incongruent,uniform,1,undefined,1,s,0,0,0,48,0,48,0,0,0,48,0,48,48,48,48,48,9/19/19 17:20,1500,The main experiment item,yes,Flankertask2.osexp,C:/Users/Carolyn/OneDrive,no,mono,no,18,no,white,no,yes,768,legacy,48,48,C:/Users/Carolyn/OneDrive/cp-subject-3.csv,legacy,Kafkaesque Koffka,3.2.8,0,s,NA,s,NA,NA,s,567,NA,42816,NA,NA,567,2,legacy,1024,2,48000,-16,experiment,HHSHH,3,odd,46116,NA,NA,NA,NA,138660,3299,NA,NA,108660,3292,139805,139908,140476,139800,139908,Flankertask2,46,30892,49,yes,1024
94,94,627.08,627.08,black,legacy,legacy,legacy,0,incongruent,uniform,1,undefined,1,h,0,0,0,49,0,49,0,0,0,49,0,49,49,49,49,49,9/19/19 17:20,1500,The main experiment item,yes,Flankertask2.osexp,C:/Users/Carolyn/OneDrive,no,mono,no,18,no,white,no,yes,768,legacy,49,49,C:/Users/Carolyn/OneDrive/cp-subject-3.csv,legacy,Kafkaesque Koffka,3.2.8,0,h,NA,s,NA,NA,h,462,NA,42816,NA,NA,462,2,legacy,1024,2,48000,-16,experiment,SSHSS,3,odd,46116,NA,NA,NA,NA,140539,3299,NA,NA,108660,3292,141685,141788,142252,141680,141788,Flankertask2,47,31354,50,yes,1024
94.11764706,94.11764706,625.3921569,625.3921569,black,legacy,legacy,legacy,0,congruent,uniform,1,undefined,1,h,0,0,0,50,0,50,0,0,0,50,0,50,50,50,50,50,9/19/19 17:20,1500,The main experiment item,yes,Flankertask2.osexp,C:/Users/Carolyn/OneDrive,no,mono,no,18,no,white,no,yes,768,legacy,50,50,C:/Users/Carolyn/OneDrive/cp-subject-3.csv,legacy,Kafkaesque Koffka,3.2.8,0,h,NA,s,NA,NA,h,541,NA,42816,NA,NA,541,2,legacy,1024,2,48000,-16,experiment,HHHHH,3,odd,46116,NA,NA,NA,NA,142293,3299,NA,NA,108660,3292,143438,143541,144084,143433,143541,Flankertask2,48,31895,51,yes,1024
94.23076923,94.23076923,624.2307692,624.2307692,black,legacy,legacy,legacy,0,incongruent,uniform,1,undefined,1,h,0,0,0,51,0,51,0,0,0,51,0,51,51,51,51,51,9/19/19 17:20,1500,The main experiment item,yes,Flankertask2.osexp,C:/Users/Carolyn/OneDrive,no,mono,no,18,no,white,no,yes,768,legacy,51,51,C:/Users/Carolyn/OneDrive/cp-subject-3.csv,legacy,Kafkaesque Koffka,3.2.8,0,h,NA,s,NA,NA,h,565,NA,42816,NA,NA,565,2,legacy,1024,2,48000,-16,experiment,SSHSS,3,odd,46116,NA,NA,NA,NA,144110,3299,NA,NA,108660,3292,145254,145357,145924,145249,145357,Flankertask2,49,32460,52,yes,1024
94.33962264,94.33962264,622.0754717,622.0754717,black,legacy,legacy,legacy,0,congruent,uniform,1,undefined,1,h,0,0,0,52,0,52,0,0,0,52,0,52,52,52,52,52,9/19/19 17:20,1500,The main experiment item,yes,Flankertask2.osexp,C:/Users/Carolyn/OneDrive,no,mono,no,18,no,white,no,yes,768,legacy,52,52,C:/Users/Carolyn/OneDrive/cp-subject-3.csv,legacy,Kafkaesque Koffka,3.2.8,0,h,NA,s,NA,NA,h,510,NA,42816,NA,NA,510,2,legacy,1024,2,48000,-16,experiment,HHHHH,3,odd,46116,NA,NA,NA,NA,145989,3299,NA,NA,108660,3292,147133,147236,147748,147128,147236,Flankertask2,50,32970,53,yes,1024
94.44444444,94.44444444,620.0555556,620.0555556,black,legacy,legacy,legacy,0,incongruent,uniform,1,undefined,1,h,0,0,0,53,0,53,0,0,0,53,0,53,53,53,53,53,9/19/19 17:20,1500,The main experiment item,yes,Flankertask2.osexp,C:/Users/Carolyn/OneDrive,no,mono,no,18,no,white,no,yes,768,legacy,53,53,C:/Users/Carolyn/OneDrive/cp-subject-3.csv,legacy,Kafkaesque Koffka,3.2.8,0,h,NA,s,NA,NA,h,513,NA,42816,NA,NA,513,2,legacy,1024,2,48000,-16,experiment,SSHSS,3,odd,46116,NA,NA,NA,NA,147777,3299,NA,NA,108660,3292,148921,149025,149540,148917,149025,Flankertask2,51,33483,54,yes,1024
94.54545455,94.54545455,617.7090909,617.7090909,black,legacy,legacy,legacy,0,congruent,uniform,1,undefined,1,h,0,0,0,54,0,54,0,0,0,54,0,54,54,54,54,54,9/19/19 17:20,1500,The main experiment item,yes,Flankertask2.osexp,C:/Users/Carolyn/OneDrive,no,mono,no,18,no,white,no,yes,768,legacy,54,54,C:/Users/Carolyn/OneDrive/cp-subject-3.csv,legacy,Kafkaesque Koffka,3.2.8,0,h,NA,s,NA,NA,h,491,NA,42816,NA,NA,491,2,legacy,1024,2,48000,-16,experiment,HHHHH,3,odd,46116,NA,NA,NA,NA,149576,3299,NA,NA,108660,3292,150720,150823,151316,150715,150823,Flankertask2,52,33974,55,yes,1024
94.64285714,94.64285714,615.875,615.875,black,legacy,legacy,legacy,0,congruent,uniform,1,undefined,1,s,0,0,0,55,0,55,0,0,0,55,0,55,55,55,55,55,9/19/19 17:20,1500,The main experiment item,yes,Flankertask2.osexp,C:/Users/Carolyn/OneDrive,no,mono,no,18,no,white,no,yes,768,legacy,55,55,C:/Users/Carolyn/OneDrive/cp-subject-3.csv,legacy,Kafkaesque Koffka,3.2.8,0,s,NA,s,NA,NA,s,515,NA,42816,NA,NA,515,2,legacy,1024,2,48000,-16,experiment,SSSSS,3,odd,46116,NA,NA,NA,NA,151360,3299,NA,NA,108660,3292,152504,152607,153124,152499,152607,Flankertask2,53,34489,56,yes,1024
94.73684211,94.73684211,612.9824561,612.9824561,black,legacy,legacy,legacy,0,congruent,uniform,1,undefined,1,h,0,0,0,56,0,56,0,0,0,56,0,56,56,56,56,56,9/19/19 17:20,1500,The main experiment item,yes,Flankertask2.osexp,C:/Users/Carolyn/OneDrive,no,mono,no,18,no,white,no,yes,768,legacy,56,56,C:/Users/Carolyn/OneDrive/cp-subject-3.csv,legacy,Kafkaesque Koffka,3.2.8,0,h,NA,s,NA,NA,h,451,NA,42816,NA,NA,451,2,legacy,1024,2,48000,-16,experiment,HHHHH,3,odd,46116,NA,NA,NA,NA,153152,3299,NA,NA,108660,3292,154295,154399,154852,154291,154398,Flankertask2,54,34940,57,yes,1024
94.82758621,94.82758621,611.2068966,611.2068966,black,legacy,legacy,legacy,0,congruent,uniform,1,undefined,1,s,0,0,0,57,0,57,0,0,0,57,0,57,57,57,57,57,9/19/19 17:20,1500,The main experiment item,yes,Flankertask2.osexp,C:/Users/Carolyn/OneDrive,no,mono,no,18,no,white,no,yes,768,legacy,57,57,C:/Users/Carolyn/OneDrive/cp-subject-3.csv,legacy,Kafkaesque Koffka,3.2.8,0,s,NA,s,NA,NA,s,510,NA,42816,NA,NA,510,2,legacy,1024,2,48000,-16,experiment,SSSSS,3,odd,46116,NA,NA,NA,NA,154876,3299,NA,NA,108660,3292,156020,156124,156636,156015,156123,Flankertask2,55,35450,58,yes,1024
94.91525424,94.91525424,608.9322034,608.9322034,black,legacy,legacy,legacy,0,incongruent,uniform,1,undefined,1,h,0,0,0,58,0,58,0,0,0,58,0,58,58,58,58,58,9/19/19 17:20,1500,The main experiment item,yes,Flankertask2.osexp,C:/Users/Carolyn/OneDrive,no,mono,no,18,no,white,no,yes,768,legacy,58,58,C:/Users/Carolyn/OneDrive/cp-subject-3.csv,legacy,Kafkaesque Koffka,3.2.8,0,h,NA,s,NA,NA,h,477,NA,42816,NA,NA,477,2,legacy,1024,2,48000,-16,experiment,SSHSS,3,odd,46116,NA,NA,NA,NA,156676,3299,NA,NA,108660,3292,157821,157925,158404,157817,157925,Flankertask2,56,35927,59,yes,1024
95,95,607.5833333,607.5833333,black,legacy,legacy,legacy,0,congruent,uniform,1,undefined,1,h,0,0,0,59,0,59,0,0,0,59,0,59,59,59,59,59,9/19/19 17:20,1500,The main experiment item,yes,Flankertask2.osexp,C:/Users/Carolyn/OneDrive,no,mono,no,18,no,white,no,yes,768,legacy,59,59,C:/Users/Carolyn/OneDrive/cp-subject-3.csv,legacy,Kafkaesque Koffka,3.2.8,0,h,NA,s,NA,NA,h,528,NA,42816,NA,NA,528,2,legacy,1024,2,48000,-16,experiment,HHHHH,3,odd,46116,NA,NA,NA,NA,158435,3299,NA,NA,108660,3292,159579,159682,160212,159574,159682,Flankertask2,57,36455,60,yes,1024
95.08196721,95.08196721,605.7540984,605.7540984,black,legacy,legacy,legacy,0,congruent,uniform,1,undefined,1,s,0,0,0,60,0,60,0,0,0,60,0,60,60,60,60,60,9/19/19 17:20,1500,The main experiment item,yes,Flankertask2.osexp,C:/Users/Carolyn/OneDrive,no,mono,no,18,no,white,no,yes,768,legacy,60,60,C:/Users/Carolyn/OneDrive/cp-subject-3.csv,legacy,Kafkaesque Koffka,3.2.8,0,s,NA,s,NA,NA,s,496,NA,42816,NA,NA,496,2,legacy,1024,2,48000,-16,experiment,SSSSS,3,odd,46116,NA,NA,NA,NA,160243,3299,NA,NA,108660,3292,161387,161490,161989,161382,161490,Flankertask2,58,36951,61,yes,1024
95.16129032,95.16129032,604.1290323,604.1290323,black,legacy,legacy,legacy,0,congruent,uniform,1,undefined,1,h,0,0,0,61,0,61,0,0,0,61,0,61,61,61,61,61,9/19/19 17:20,1500,The main experiment item,yes,Flankertask2.osexp,C:/Users/Carolyn/OneDrive,no,mono,no,18,no,white,no,yes,768,legacy,61,61,C:/Users/Carolyn/OneDrive/cp-subject-3.csv,legacy,Kafkaesque Koffka,3.2.8,0,h,NA,s,NA,NA,h,505,NA,42816,NA,NA,505,2,legacy,1024,2,48000,-16,experiment,HHHHH,3,odd,46116,NA,NA,NA,NA,162018,3299,NA,NA,108660,3292,163162,163265,163772,163158,163265,Flankertask2,59,37456,62,yes,1024
95.23809524,95.23809524,603.1904762,603.1904762,black,legacy,legacy,legacy,0,incongruent,uniform,1,undefined,1,h,0,0,0,62,0,62,0,0,0,62,0,62,62,62,62,62,9/19/19 17:20,1500,The main experiment item,yes,Flankertask2.osexp,C:/Users/Carolyn/OneDrive,no,mono,no,18,no,white,no,yes,768,legacy,62,62,C:/Users/Carolyn/OneDrive/cp-subject-3.csv,legacy,Kafkaesque Koffka,3.2.8,0,h,NA,s,NA,NA,h,545,NA,42816,NA,NA,545,2,legacy,1024,2,48000,-16,experiment,SSHSS,3,odd,46116,NA,NA,NA,NA,163801,3299,NA,NA,108660,3292,164945,165049,165596,164940,165048,Flankertask2,60,38001,63,yes,1024
95.3125,95.3125,601.640625,601.640625,black,legacy,legacy,legacy,0,congruent,uniform,1,undefined,1,h,0,0,0,63,0,63,0,0,0,63,0,63,63,63,63,63,9/19/19 17:20,1500,The main experiment item,yes,Flankertask2.osexp,C:/Users/Carolyn/OneDrive,no,mono,no,18,no,white,no,yes,768,legacy,63,63,C:/Users/Carolyn/OneDrive/cp-subject-3.csv,legacy,Kafkaesque Koffka,3.2.8,0,h,NA,s,NA,NA,h,504,NA,42816,NA,NA,504,2,legacy,1024,2,48000,-16,experiment,HHHHH,3,odd,46116,NA,NA,NA,NA,165635,3299,NA,NA,108660,3292,166779,166882,167389,166774,166882,Flankertask2,61,38505,64,yes,1024
95.38461538,95.38461538,599.7076923,599.7076923,black,legacy,legacy,legacy,0,congruent,uniform,1,undefined,1,h,0,0,0,64,0,64,0,0,0,64,0,64,64,64,64,64,9/19/19 17:20,1500,The main experiment item,yes,Flankertask2.osexp,C:/Users/Carolyn/OneDrive,no,mono,no,18,no,white,no,yes,768,legacy,64,64,C:/Users/Carolyn/OneDrive/cp-subject-3.csv,legacy,Kafkaesque Koffka,3.2.8,0,h,NA,s,NA,NA,h,476,NA,42816,NA,NA,476,2,legacy,1024,2,48000,-16,experiment,HHHHH,3,odd,46116,NA,NA,NA,NA,167418,3299,NA,NA,108660,3292,168567,168670,169148,168562,168670,Flankertask2,62,38981,65,yes,1024
95.45454545,95.45454545,597.8181818,597.8181818,black,legacy,legacy,legacy,0,congruent,uniform,1,undefined,1,s,0,0,0,65,0,65,0,0,0,65,0,65,65,65,65,65,9/19/19 17:20,1500,The main experiment item,yes,Flankertask2.osexp,C:/Users/Carolyn/OneDrive,no,mono,no,18,no,white,no,yes,768,legacy,65,65,C:/Users/Carolyn/OneDrive/cp-subject-3.csv,legacy,Kafkaesque Koffka,3.2.8,0,s,NA,s,NA,NA,s,475,NA,42816,NA,NA,475,2,legacy,1024,2,48000,-16,experiment,SSSSS,3,odd,46116,NA,NA,NA,NA,169176,3299,NA,NA,108660,3292,170320,170423,170900,170315,170423,Flankertask2,63,39456,66,yes,1024
95.52238806,95.52238806,595.5223881,595.5223881,black,legacy,legacy,legacy,0,congruent,uniform,1,undefined,1,s,0,0,0,66,0,66,0,0,0,66,0,66,66,66,66,66,9/19/19 17:20,1500,The main experiment item,yes,Flankertask2.osexp,C:/Users/Carolyn/OneDrive,no,mono,no,18,no,white,no,yes,768,legacy,66,66,C:/Users/Carolyn/OneDrive/cp-subject-3.csv,legacy,Kafkaesque Koffka,3.2.8,0,s,NA,s,NA,NA,s,444,NA,42816,NA,NA,444,2,legacy,1024,2,48000,-16,experiment,SSSSS,3,odd,46116,NA,NA,NA,NA,170927,3299,NA,NA,108660,3292,172070,172174,172620,172066,172174,Flankertask2,64,39900,67,yes,1024
95.58823529,95.58823529,595.4558824,595.4558824,black,legacy,legacy,legacy,0,incongruent,uniform,1,undefined,1,s,0,0,0,67,0,67,0,0,0,67,0,67,67,67,67,67,9/19/19 17:20,1500,The main experiment item,yes,Flankertask2.osexp,C:/Users/Carolyn/OneDrive,no,mono,no,18,no,white,no,yes,768,legacy,67,67,C:/Users/Carolyn/OneDrive/cp-subject-3.csv,legacy,Kafkaesque Koffka,3.2.8,0,s,NA,s,NA,NA,s,591,NA,42816,NA,NA,591,2,legacy,1024,2,48000,-16,experiment,HHSHH,3,odd,46116,NA,NA,NA,NA,172651,3299,NA,NA,108660,3292,173795,173899,174492,173791,173899,Flankertask2,65,40491,68,yes,1024
95.65217391,95.65217391,594.8985507,594.8985507,black,legacy,legacy,legacy,0,incongruent,uniform,1,undefined,1,h,0,0,0,68,0,68,0,0,0,68,0,68,68,68,68,68,9/19/19 17:20,1500,The main experiment item,yes,Flankertask2.osexp,C:/Users/Carolyn/OneDrive,no,mono,no,18,no,white,no,yes,768,legacy,68,68,C:/Users/Carolyn/OneDrive/cp-subject-3.csv,legacy,Kafkaesque Koffka,3.2.8,0,h,NA,s,NA,NA,h,557,NA,42816,NA,NA,557,2,legacy,1024,2,48000,-16,experiment,SSHSS,3,odd,46116,NA,NA,NA,NA,174518,3299,NA,NA,108660,3292,175662,175765,176324,175657,175765,Flankertask2,66,41048,69,yes,1024
95.71428571,95.71428571,594.8,594.8,black,legacy,legacy,legacy,0,incongruent,uniform,1,undefined,1,s,0,0,0,69,0,69,0,0,0,69,0,69,69,69,69,69,9/19/19 17:20,1500,The main experiment item,yes,Flankertask2.osexp,C:/Users/Carolyn/OneDrive,no,mono,no,18,no,white,no,yes,768,legacy,69,69,C:/Users/Carolyn/OneDrive/cp-subject-3.csv,legacy,Kafkaesque Koffka,3.2.8,0,s,NA,s,NA,NA,s,588,NA,42816,NA,NA,588,2,legacy,1024,2,48000,-16,experiment,HHSHH,3,odd,46116,NA,NA,NA,NA,176351,3299,NA,NA,108660,3292,177496,177599,178188,177491,177599,Flankertask2,67,41636,70,yes,1024
95.77464789,95.77464789,593.8450704,593.8450704,black,legacy,legacy,legacy,0,congruent,uniform,1,undefined,1,s,0,0,0,70,0,70,0,0,0,70,0,70,70,70,70,70,9/19/19 17:20,1500,The main experiment item,yes,Flankertask2.osexp,C:/Users/Carolyn/OneDrive,no,mono,no,18,no,white,no,yes,768,legacy,70,70,C:/Users/Carolyn/OneDrive/cp-subject-3.csv,legacy,Kafkaesque Koffka,3.2.8,0,s,NA,s,NA,NA,s,527,NA,42816,NA,NA,527,2,legacy,1024,2,48000,-16,experiment,SSSSS,3,odd,46116,NA,NA,NA,NA,178218,3299,NA,NA,108660,3292,179363,179467,179996,179358,179466,Flankertask2,68,42163,71,yes,1024
95.83333333,95.83333333,593.5833333,593.5833333,black,legacy,legacy,legacy,0,incongruent,uniform,1,undefined,1,h,0,0,0,71,0,71,0,0,0,71,0,71,71,71,71,71,9/19/19 17:20,1500,The main experiment item,yes,Flankertask2.osexp,C:/Users/Carolyn/OneDrive,no,mono,no,18,no,white,no,yes,768,legacy,71,71,C:/Users/Carolyn/OneDrive/cp-subject-3.csv,legacy,Kafkaesque Koffka,3.2.8,0,h,NA,s,NA,NA,h,575,NA,42816,NA,NA,575,2,legacy,1024,2,48000,-16,experiment,SSHSS,3,odd,46116,NA,NA,NA,NA,180026,3299,NA,NA,108660,3292,181172,181275,181852,181167,181275,Flankertask2,69,42738,72,yes,1024
95.89041096,95.89041096,591.9726027,591.9726027,black,legacy,legacy,legacy,0,congruent,uniform,1,undefined,1,s,0,0,0,72,0,72,0,0,0,72,0,72,72,72,72,72,9/19/19 17:20,1500,The main experiment item,yes,Flankertask2.osexp,C:/Users/Carolyn/OneDrive,no,mono,no,18,no,white,no,yes,768,legacy,72,72,C:/Users/Carolyn/OneDrive/cp-subject-3.csv,legacy,Kafkaesque Koffka,3.2.8,0,s,NA,s,NA,NA,s,476,NA,42816,NA,NA,476,2,legacy,1024,2,48000,-16,experiment,SSSSS,3,odd,46116,NA,NA,NA,NA,181885,3299,NA,NA,108660,3292,183030,183134,183612,183026,183133,Flankertask2,70,43214,73,yes,1024
95.94594595,95.94594595,590.1081081,590.1081081,black,legacy,legacy,legacy,0,incongruent,uniform,1,undefined,1,s,0,0,0,73,0,73,0,0,0,73,0,73,73,73,73,73,9/19/19 17:20,1500,The main experiment item,yes,Flankertask2.osexp,C:/Users/Carolyn/OneDrive,no,mono,no,18,no,white,no,yes,768,legacy,73,73,C:/Users/Carolyn/OneDrive/cp-subject-3.csv,legacy,Kafkaesque Koffka,3.2.8,0,s,NA,s,NA,NA,s,454,NA,42816,NA,NA,454,2,legacy,1024,2,48000,-16,experiment,HHSHH,3,odd,46116,NA,NA,NA,NA,183643,3299,NA,NA,108660,3292,184787,184892,185348,184783,184891,Flankertask2,71,43668,74,yes,1024
96,96,589.4133333,589.4133333,black,legacy,legacy,legacy,0,incongruent,uniform,1,undefined,1,h,0,0,0,74,0,74,0,0,0,74,0,74,74,74,74,74,9/19/19 17:20,1500,The main experiment item,yes,Flankertask2.osexp,C:/Users/Carolyn/OneDrive,no,mono,no,18,no,white,no,yes,768,legacy,74,74,C:/Users/Carolyn/OneDrive/cp-subject-3.csv,legacy,Kafkaesque Koffka,3.2.8,0,h,NA,s,NA,NA,h,538,NA,42816,NA,NA,538,2,legacy,1024,2,48000,-16,experiment,SSHSS,3,odd,46116,NA,NA,NA,NA,185376,3299,NA,NA,108660,3292,186521,186624,187164,186516,186624,Flankertask2,72,44206,75,yes,1024
96.05263158,96.05263158,588.3947368,588.3947368,black,legacy,legacy,legacy,0,incongruent,uniform,1,undefined,1,h,0,0,0,75,0,75,0,0,0,75,0,75,75,75,75,75,9/19/19 17:20,1500,The main experiment item,yes,Flankertask2.osexp,C:/Users/Carolyn/OneDrive,no,mono,no,18,no,white,no,yes,768,legacy,75,75,C:/Users/Carolyn/OneDrive/cp-subject-3.csv,legacy,Kafkaesque Koffka,3.2.8,0,h,NA,s,NA,NA,h,512,NA,42816,NA,NA,512,2,legacy,1024,2,48000,-16,experiment,SSHSS,3,odd,46116,NA,NA,NA,NA,187201,3299,NA,NA,108660,3292,188347,188450,188964,188342,188450,Flankertask2,73,44718,76,yes,1024
96.1038961,96.1038961,588.2207792,588.2207792,black,legacy,legacy,legacy,0,incongruent,uniform,1,undefined,1,s,0,0,0,76,0,76,0,0,0,76,0,76,76,76,76,76,9/19/19 17:20,1500,The main experiment item,yes,Flankertask2.osexp,C:/Users/Carolyn/OneDrive,no,mono,no,18,no,white,no,yes,768,legacy,76,76,C:/Users/Carolyn/OneDrive/cp-subject-3.csv,legacy,Kafkaesque Koffka,3.2.8,0,s,NA,s,NA,NA,s,575,NA,42816,NA,NA,575,2,legacy,1024,2,48000,-16,experiment,HHSHH,3,odd,46116,NA,NA,NA,NA,189002,3299,NA,NA,108660,3292,190147,190251,190828,190143,190250,Flankertask2,74,45293,77,yes,1024
96.15384615,96.15384615,586.1923077,586.1923077,black,legacy,legacy,legacy,0,incongruent,uniform,1,undefined,1,s,0,0,0,77,0,77,0,0,0,77,0,77,77,77,77,77,9/19/19 17:20,1500,The main experiment item,yes,Flankertask2.osexp,C:/Users/Carolyn/OneDrive,no,mono,no,18,no,white,no,yes,768,legacy,77,77,C:/Users/Carolyn/OneDrive/cp-subject-3.csv,legacy,Kafkaesque Koffka,3.2.8,0,s,NA,s,NA,NA,s,430,NA,42816,NA,NA,430,2,legacy,1024,2,48000,-16,experiment,HHSHH,3,odd,46116,NA,NA,NA,NA,190868,3299,NA,NA,108660,3292,192012,192116,192548,192008,192116,Flankertask2,75,45723,78,yes,1024
96.20253165,96.20253165,585.4936709,585.4936709,black,legacy,legacy,legacy,0,incongruent,uniform,1,undefined,1,h,0,0,0,78,0,78,0,0,0,78,0,78,78,78,78,78,9/19/19 17:20,1500,The main experiment item,yes,Flankertask2.osexp,C:/Users/Carolyn/OneDrive,no,mono,no,18,no,white,no,yes,768,legacy,78,78,C:/Users/Carolyn/OneDrive/cp-subject-3.csv,legacy,Kafkaesque Koffka,3.2.8,0,h,NA,s,NA,NA,h,531,NA,42816,NA,NA,531,2,legacy,1024,2,48000,-16,experiment,SSHSS,3,odd,46116,NA,NA,NA,NA,192576,3299,NA,NA,108660,3292,193720,193823,194357,193716,193823,Flankertask2,76,46254,79,yes,1024
96.25,96.25,585.3875,585.3875,black,legacy,legacy,legacy,0,incongruent,uniform,1,undefined,1,h,0,0,0,79,0,79,0,0,0,79,0,79,79,79,79,79,9/19/19 17:20,1500,The main experiment item,yes,Flankertask2.osexp,C:/Users/Carolyn/OneDrive,no,mono,no,18,no,white,no,yes,768,legacy,79,79,C:/Users/Carolyn/OneDrive/cp-subject-3.csv,legacy,Kafkaesque Koffka,3.2.8,0,h,NA,s,NA,NA,h,577,NA,42816,NA,NA,577,2,legacy,1024,2,48000,-16,experiment,SSHSS,3,odd,46116,NA,NA,NA,NA,194385,3299,NA,NA,108660,3292,195530,195633,196213,195525,195633,Flankertask2,77,46831,80,yes,1024
96.2962963,96.2962963,588.4197531,588.4197531,black,legacy,legacy,legacy,0,incongruent,uniform,1,undefined,1,s,0,0,0,80,0,80,0,0,0,80,0,80,80,80,80,80,9/19/19 17:20,600,The main experiment item,yes,Flankertask2.osexp,C:/Users/Carolyn/OneDrive,no,mono,no,18,no,white,no,yes,768,legacy,0,79,C:/Users/Carolyn/OneDrive/cp-subject-3.csv,legacy,Kafkaesque Koffka,3.2.8,0,s,NA,s,h,NA,s,831,NA,42816,71187,NA,831,2,legacy,1024,2,48000,-16,experiment,HHSHH,3,odd,46116,268469,NA,NA,NA,196251,3299,197279,NA,108660,3292,268611,268715,269549,268607,268714,Flankertask2,78,47662,81,yes,1024
96.34146341,96.34146341,586.7195122,586.7195122,black,legacy,legacy,legacy,0,congruent,uniform,1,undefined,1,s,0,0,0,81,0,81,0,0,0,81,0,81,81,81,81,81,9/19/19 17:20,600,The main experiment item,yes,Flankertask2.osexp,C:/Users/Carolyn/OneDrive,no,mono,no,18,no,white,no,yes,768,legacy,1,79,C:/Users/Carolyn/OneDrive/cp-subject-3.csv,legacy,Kafkaesque Koffka,3.2.8,0,s,NA,s,h,NA,s,449,NA,42816,71187,NA,449,2,legacy,1024,2,48000,-16,experiment,SSSSS,3,odd,46116,268469,NA,269592,NA,270095,3299,197279,NA,108660,3292,271242,271345,271796,271237,271345,Flankertask2,79,48111,82,yes,1024
96.38554217,96.38554217,585.3373494,585.3373494,black,legacy,legacy,legacy,0,congruent,uniform,1,undefined,1,s,0,0,0,82,0,82,0,0,0,82,0,82,82,82,82,82,9/19/19 17:20,600,The main experiment item,yes,Flankertask2.osexp,C:/Users/Carolyn/OneDrive,no,mono,no,18,no,white,no,yes,768,legacy,2,79,C:/Users/Carolyn/OneDrive/cp-subject-3.csv,legacy,Kafkaesque Koffka,3.2.8,0,s,NA,s,h,NA,s,472,NA,42816,71187,NA,472,2,legacy,1024,2,48000,-16,experiment,SSSSS,3,odd,46116,268469,NA,269592,NA,271834,3299,197279,NA,108660,3292,272980,273083,273557,272975,273083,Flankertask2,80,48583,83,yes,1024
95.23809524,95.23809524,583.3333333,583.3333333,black,legacy,legacy,legacy,0,incongruent,uniform,0,undefined,0,h,0,0,0,83,0,83,0,0,0,83,0,83,83,83,83,83,9/19/19 17:20,600,The main experiment item,yes,Flankertask2.osexp,C:/Users/Carolyn/OneDrive,no,mono,no,18,no,white,no,yes,768,legacy,3,79,C:/Users/Carolyn/OneDrive/cp-subject-3.csv,legacy,Kafkaesque Koffka,3.2.8,0,s,NA,s,h,NA,s,417,NA,42816,71187,NA,417,2,legacy,1024,2,48000,-16,experiment,SSHSS,3,odd,46116,268469,NA,269592,NA,273600,3299,197279,NA,108660,3292,274746,274850,275269,274741,274849,Flankertask2,80,49000,84,yes,1024
95.29411765,95.29411765,581.8,581.8,black,legacy,legacy,legacy,0,congruent,uniform,1,undefined,1,h,0,0,0,84,0,84,0,0,0,84,0,84,84,84,84,84,9/19/19 17:20,600,The main experiment item,yes,Flankertask2.osexp,C:/Users/Carolyn/OneDrive,no,mono,no,18,no,white,no,yes,768,legacy,4,79,C:/Users/Carolyn/OneDrive/cp-subject-3.csv,legacy,Kafkaesque Koffka,3.2.8,0,h,NA,s,h,NA,h,453,NA,42816,71187,NA,453,2,legacy,1024,2,48000,-16,experiment,HHHHH,3,odd,46116,268469,NA,269592,NA,275812,3299,197279,NA,275309,3292,276958,277061,277517,276953,277061,Flankertask2,81,49453,85,yes,1024
95.34883721,95.34883721,581.744186,581.744186,black,legacy,legacy,legacy,0,incongruent,uniform,1,undefined,1,h,0,0,0,85,0,85,0,0,0,85,0,85,85,85,85,85,9/19/19 17:20,600,The main experiment item,yes,Flankertask2.osexp,C:/Users/Carolyn/OneDrive,no,mono,no,18,no,white,no,yes,768,legacy,5,79,C:/Users/Carolyn/OneDrive/cp-subject-3.csv,legacy,Kafkaesque Koffka,3.2.8,0,h,NA,s,h,NA,h,577,NA,42816,71187,NA,577,2,legacy,1024,2,48000,-16,experiment,SSHSS,3,odd,46116,268469,NA,269592,NA,277559,3299,197279,NA,275309,3292,278705,278809,279389,278700,278808,Flankertask2,82,50030,86,yes,1024
95.40229885,95.40229885,580.7586207,580.7586207,black,legacy,legacy,legacy,0,incongruent,uniform,1,undefined,1,h,0,0,0,86,0,86,0,0,0,86,0,86,86,86,86,86,9/19/19 17:20,600,The main experiment item,yes,Flankertask2.osexp,C:/Users/Carolyn/OneDrive,no,mono,no,18,no,white,no,yes,768,legacy,6,79,C:/Users/Carolyn/OneDrive/cp-subject-3.csv,legacy,Kafkaesque Koffka,3.2.8,0,h,NA,s,h,NA,h,496,NA,42816,71187,NA,496,2,legacy,1024,2,48000,-16,experiment,SSHSS,3,odd,46116,268469,NA,269592,NA,279425,3299,197279,NA,275309,3292,280571,280674,281173,280567,280674,Flankertask2,83,50526,87,yes,1024
95.45454545,95.45454545,579.3522727,579.3522727,black,legacy,legacy,legacy,0,congruent,uniform,1,undefined,1,s,0,0,0,87,0,87,0,0,0,87,0,87,87,87,87,87,9/19/19 17:20,600,The main experiment item,yes,Flankertask2.osexp,C:/Users/Carolyn/OneDrive,no,mono,no,18,no,white,no,yes,768,legacy,7,79,C:/Users/Carolyn/OneDrive/cp-subject-3.csv,legacy,Kafkaesque Koffka,3.2.8,0,s,NA,s,h,NA,s,457,NA,42816,71187,NA,457,2,legacy,1024,2,48000,-16,experiment,SSSSS,3,odd,46116,268469,NA,269592,NA,281209,3299,197279,NA,275309,3292,282354,282457,282917,282349,282457,Flankertask2,84,50983,88,yes,1024
95.50561798,95.50561798,577.7303371,577.7303371,black,legacy,legacy,legacy,0,incongruent,uniform,1,undefined,1,s,0,0,0,88,0,88,0,0,0,88,0,88,88,88,88,88,9/19/19 17:20,600,The main experiment item,yes,Flankertask2.osexp,C:/Users/Carolyn/OneDrive,no,mono,no,18,no,white,no,yes,768,legacy,8,79,C:/Users/Carolyn/OneDrive/cp-subject-3.csv,legacy,Kafkaesque Koffka,3.2.8,0,s,NA,s,h,NA,s,435,NA,42816,71187,NA,435,2,legacy,1024,2,48000,-16,experiment,HHSHH,3,odd,46116,268469,NA,269592,NA,282950,3299,197279,NA,275309,3292,284095,284199,284637,284091,284198,Flankertask2,85,51418,89,yes,1024
95.55555556,95.55555556,575.4777778,575.4777778,black,legacy,legacy,legacy,0,congruent,uniform,1,undefined,1,s,0,0,0,89,0,89,0,0,0,89,0,89,89,89,89,89,9/19/19 17:20,600,The main experiment item,yes,Flankertask2.osexp,C:/Users/Carolyn/OneDrive,no,mono,no,18,no,white,no,yes,768,legacy,9,79,C:/Users/Carolyn/OneDrive/cp-subject-3.csv,legacy,Kafkaesque Koffka,3.2.8,0,s,NA,s,h,NA,s,375,NA,42816,71187,NA,375,2,legacy,1024,2,48000,-16,experiment,SSSSS,3,odd,46116,268469,NA,269592,NA,284667,3299,197279,NA,275309,3292,285811,285915,286293,285807,285915,Flankertask2,86,51793,90,yes,1024
95.6043956,95.6043956,574.1978022,574.1978022,black,legacy,legacy,legacy,0,congruent,uniform,1,undefined,1,s,0,0,0,90,0,90,0,0,0,90,0,90,90,90,90,90,9/19/19 17:20,600,The main experiment item,yes,Flankertask2.osexp,C:/Users/Carolyn/OneDrive,no,mono,no,18,no,white,no,yes,768,legacy,10,79,C:/Users/Carolyn/OneDrive/cp-subject-3.csv,legacy,Kafkaesque Koffka,3.2.8,0,s,NA,s,h,NA,s,459,NA,42816,71187,NA,459,2,legacy,1024,2,48000,-16,experiment,SSSSS,3,odd,46116,268469,NA,269592,NA,286325,3299,197279,NA,275309,3292,287472,287575,288037,287467,287575,Flankertask2,87,52252,91,yes,1024
95.65217391,95.65217391,572.2826087,572.2826087,black,legacy,legacy,legacy,0,incongruent,uniform,1,undefined,1,h,0,0,0,91,0,91,0,0,0,91,0,91,91,91,91,91,9/19/19 17:20,600,The main experiment item,yes,Flankertask2.osexp,C:/Users/Carolyn/OneDrive,no,mono,no,18,no,white,no,yes,768,legacy,11,79,C:/Users/Carolyn/OneDrive/cp-subject-3.csv,legacy,Kafkaesque Koffka,3.2.8,0,h,NA,s,h,NA,h,398,NA,42816,71187,NA,398,2,legacy,1024,2,48000,-16,experiment,SSHSS,3,odd,46116,268469,NA,269592,NA,288067,3299,197279,NA,275309,3292,289212,289316,289717,289208,289316,Flankertask2,88,52650,92,yes,1024
95.69892473,95.69892473,571.7634409,571.7634409,black,legacy,legacy,legacy,0,incongruent,uniform,1,undefined,1,h,0,0,0,92,0,92,0,0,0,92,0,92,92,92,92,92,9/19/19 17:20,600,The main experiment item,yes,Flankertask2.osexp,C:/Users/Carolyn/OneDrive,no,mono,no,18,no,white,no,yes,768,legacy,12,79,C:/Users/Carolyn/OneDrive/cp-subject-3.csv,legacy,Kafkaesque Koffka,3.2.8,0,h,NA,s,h,NA,h,524,NA,42816,71187,NA,524,2,legacy,1024,2,48000,-16,experiment,SSHSS,3,odd,46116,268469,NA,269592,NA,289750,3299,197279,NA,275309,3292,290895,290998,291525,290890,290998,Flankertask2,89,53174,93,yes,1024
95.74468085,95.74468085,571.0744681,571.0744681,black,legacy,legacy,legacy,0,incongruent,uniform,1,undefined,1,h,0,0,0,93,0,93,0,0,0,93,0,93,93,93,93,93,9/19/19 17:20,600,The main experiment item,yes,Flankertask2.osexp,C:/Users/Carolyn/OneDrive,no,mono,no,18,no,white,no,yes,768,legacy,13,79,C:/Users/Carolyn/OneDrive/cp-subject-3.csv,legacy,Kafkaesque Koffka,3.2.8,0,h,NA,s,h,NA,h,507,NA,42816,71187,NA,507,2,legacy,1024,2,48000,-16,experiment,SSHSS,3,odd,46116,268469,NA,269592,NA,291550,3299,197279,NA,275309,3292,292695,292799,293309,292690,292798,Flankertask2,90,53681,94,yes,1024
95.78947368,95.78947368,569.8947368,569.8947368,black,legacy,legacy,legacy,0,congruent,uniform,1,undefined,1,s,0,0,0,94,0,94,0,0,0,94,0,94,94,94,94,94,9/19/19 17:20,600,The main experiment item,yes,Flankertask2.osexp,C:/Users/Carolyn/OneDrive,no,mono,no,18,no,white,no,yes,768,legacy,14,79,C:/Users/Carolyn/OneDrive/cp-subject-3.csv,legacy,Kafkaesque Koffka,3.2.8,0,s,NA,s,h,NA,s,459,NA,42816,71187,NA,459,2,legacy,1024,2,48000,-16,experiment,SSSSS,3,odd,46116,268469,NA,269592,NA,293343,3299,197279,NA,275309,3292,294487,294591,295053,294483,294591,Flankertask2,91,54140,95,yes,1024
95.83333333,95.83333333,570.34375,570.34375,black,legacy,legacy,legacy,0,incongruent,uniform,1,undefined,1,s,0,0,0,95,0,95,0,0,0,95,0,95,95,95,95,95,9/19/19 17:20,600,The main experiment item,yes,Flankertask2.osexp,C:/Users/Carolyn/OneDrive,no,mono,no,18,no,white,no,yes,768,legacy,15,79,C:/Users/Carolyn/OneDrive/cp-subject-3.csv,legacy,Kafkaesque Koffka,3.2.8,0,s,NA,s,h,NA,s,613,NA,42816,71187,NA,613,2,legacy,1024,2,48000,-16,experiment,HHSHH,3,odd,46116,268469,NA,269592,NA,295083,3299,197279,NA,275309,3292,296229,296333,296949,296224,296332,Flankertask2,92,54753,96,yes,1024
95.87628866,95.87628866,569.0927835,569.0927835,black,legacy,legacy,legacy,0,incongruent,uniform,1,undefined,1,s,0,0,0,96,0,96,0,0,0,96,0,96,96,96,96,96,9/19/19 17:20,600,The main experiment item,yes,Flankertask2.osexp,C:/Users/Carolyn/OneDrive,no,mono,no,18,no,white,no,yes,768,legacy,16,79,C:/Users/Carolyn/OneDrive/cp-subject-3.csv,legacy,Kafkaesque Koffka,3.2.8,0,s,NA,s,h,NA,s,449,NA,42816,71187,NA,449,2,legacy,1024,2,48000,-16,experiment,HHSHH,3,odd,46116,268469,NA,297000,NA,297503,3299,197279,NA,275309,3292,298650,298753,299205,298645,298753,Flankertask2,93,55202,97,yes,1024
95.91836735,95.91836735,567.877551,567.877551,black,legacy,legacy,legacy,0,congruent,uniform,1,undefined,1,h,0,0,0,97,0,97,0,0,0,97,0,97,97,97,97,97,9/19/19 17:20,600,The main experiment item,yes,Flankertask2.osexp,C:/Users/Carolyn/OneDrive,no,mono,no,18,no,white,no,yes,768,legacy,17,79,C:/Users/Carolyn/OneDrive/cp-subject-3.csv,legacy,Kafkaesque Koffka,3.2.8,0,h,NA,s,h,NA,h,450,NA,42816,71187,NA,450,2,legacy,1024,2,48000,-16,experiment,HHHHH,3,odd,46116,268469,NA,297000,NA,299272,3299,197279,NA,275309,3292,300417,300520,300973,300413,300520,Flankertask2,94,55652,98,yes,1024
95.95959596,95.95959596,568.8585859,568.8585859,black,legacy,legacy,legacy,0,incongruent,uniform,1,undefined,1,h,0,0,0,98,0,98,0,0,0,98,0,98,98,98,98,98,9/19/19 17:20,600,The main experiment item,yes,Flankertask2.osexp,C:/Users/Carolyn/OneDrive,no,mono,no,18,no,white,no,yes,768,legacy,18,79,C:/Users/Carolyn/OneDrive/cp-subject-3.csv,legacy,Kafkaesque Koffka,3.2.8,0,h,NA,s,h,NA,h,665,NA,42816,71187,NA,665,2,legacy,1024,2,48000,-16,experiment,SSHSS,3,odd,46116,268469,NA,297000,NA,301017,3299,197279,NA,275309,3292,302162,302265,302933,302158,302265,Flankertask2,95,56317,99,yes,1024
96,96,567.58,567.58,black,legacy,legacy,legacy,0,incongruent,uniform,1,undefined,1,h,0,0,0,99,0,99,0,0,0,99,0,99,99,99,99,99,9/19/19 17:20,600,The main experiment item,yes,Flankertask2.osexp,C:/Users/Carolyn/OneDrive,no,mono,no,18,no,white,no,yes,768,legacy,19,79,C:/Users/Carolyn/OneDrive/cp-subject-3.csv,legacy,Kafkaesque Koffka,3.2.8,0,h,NA,s,h,NA,h,441,NA,42816,71187,NA,441,2,legacy,1024,2,48000,-16,experiment,SSHSS,3,odd,46116,268469,NA,302975,NA,303479,3299,197279,NA,275309,3292,304625,304729,305173,304620,304728,Flankertask2,96,56758,100,yes,1024
96.03960396,96.03960396,566.2475248,566.2475248,black,legacy,legacy,legacy,0,incongruent,uniform,1,undefined,1,s,0,0,0,100,0,100,0,0,0,100,0,100,100,100,100,100,9/19/19 17:20,600,The main experiment item,yes,Flankertask2.osexp,C:/Users/Carolyn/OneDrive,no,mono,no,18,no,white,no,yes,768,legacy,20,79,C:/Users/Carolyn/OneDrive/cp-subject-3.csv,legacy,Kafkaesque Koffka,3.2.8,0,s,NA,s,h,NA,s,433,NA,42816,71187,NA,433,2,legacy,1024,2,48000,-16,experiment,HHSHH,3,odd,46116,268469,NA,302975,NA,305208,3299,197279,NA,275309,3292,306354,306457,306893,306349,306457,Flankertask2,97,57191,101,yes,1024
96.07843137,96.07843137,564.3529412,564.3529412,black,legacy,legacy,legacy,0,congruent,uniform,1,undefined,1,s,0,0,0,101,0,101,0,0,0,101,0,101,101,101,101,101,9/19/19 17:20,600,The main experiment item,yes,Flankertask2.osexp,C:/Users/Carolyn/OneDrive,no,mono,no,18,no,white,no,yes,768,legacy,21,79,C:/Users/Carolyn/OneDrive/cp-subject-3.csv,legacy,Kafkaesque Koffka,3.2.8,0,s,NA,s,h,NA,s,373,NA,42816,71187,NA,373,2,legacy,1024,2,48000,-16,experiment,SSSSS,3,odd,46116,268469,NA,302975,NA,306925,3299,197279,NA,275309,3292,308070,308173,308549,308065,308173,Flankertask2,98,57564,102,yes,1024
96.11650485,96.11650485,563.2621359,563.2621359,black,legacy,legacy,legacy,0,incongruent,uniform,1,undefined,1,s,0,0,0,102,0,102,0,0,0,102,0,102,102,102,102,102,9/19/19 17:20,600,The main experiment item,yes,Flankertask2.osexp,C:/Users/Carolyn/OneDrive,no,mono,no,18,no,white,no,yes,768,legacy,22,79,C:/Users/Carolyn/OneDrive/cp-subject-3.csv,legacy,Kafkaesque Koffka,3.2.8,0,s,NA,s,h,NA,s,452,NA,42816,71187,NA,452,2,legacy,1024,2,48000,-16,experiment,HHSHH,3,odd,46116,268469,NA,302975,NA,308597,3299,197279,NA,275309,3292,309743,309846,310301,309738,309846,Flankertask2,99,58016,103,yes,1024
96.15384615,96.15384615,562.875,562.875,black,legacy,legacy,legacy,0,congruent,uniform,1,undefined,1,h,0,0,0,103,0,103,0,0,0,103,0,103,103,103,103,103,9/19/19 17:20,600,The main experiment item,yes,Flankertask2.osexp,C:/Users/Carolyn/OneDrive,no,mono,no,18,no,white,no,yes,768,legacy,23,79,C:/Users/Carolyn/OneDrive/cp-subject-3.csv,legacy,Kafkaesque Koffka,3.2.8,0,h,NA,s,h,NA,h,523,NA,42816,71187,NA,523,2,legacy,1024,2,48000,-16,experiment,HHHHH,3,odd,46116,268469,NA,302975,NA,310342,3299,197279,NA,275309,3292,311488,311591,312117,311483,311591,Flankertask2,100,58539,104,yes,1024
96.19047619,96.19047619,563.0952381,563.0952381,black,legacy,legacy,legacy,0,incongruent,uniform,1,undefined,1,s,0,0,0,104,0,104,0,0,0,104,0,104,104,104,104,104,9/19/19 17:20,600,The main experiment item,yes,Flankertask2.osexp,C:/Users/Carolyn/OneDrive,no,mono,no,18,no,white,no,yes,768,legacy,24,79,C:/Users/Carolyn/OneDrive/cp-subject-3.csv,legacy,Kafkaesque Koffka,3.2.8,0,s,NA,s,h,NA,s,586,NA,42816,71187,NA,586,2,legacy,1024,2,48000,-16,experiment,HHSHH,3,odd,46116,268469,NA,302975,NA,312150,3299,197279,NA,275309,3292,313296,313400,313989,313291,313399,Flankertask2,101,59125,105,yes,1024
96.22641509,96.22641509,561.4056604,561.4056604,black,legacy,legacy,legacy,0,incongruent,uniform,1,undefined,1,h,0,0,0,105,0,105,0,0,0,105,0,105,105,105,105,105,9/19/19 17:20,600,The main experiment item,yes,Flankertask2.osexp,C:/Users/Carolyn/OneDrive,no,mono,no,18,no,white,no,yes,768,legacy,25,79,C:/Users/Carolyn/OneDrive/cp-subject-3.csv,legacy,Kafkaesque Koffka,3.2.8,0,h,NA,s,h,NA,h,384,NA,42816,71187,NA,384,2,legacy,1024,2,48000,-16,experiment,SSHSS,3,odd,46116,268469,NA,302975,NA,314017,3299,197279,NA,275309,3292,315163,315266,315653,315158,315266,Flankertask2,102,59509,106,yes,1024
96.26168224,96.26168224,560.0186916,560.0186916,black,legacy,legacy,legacy,0,congruent,uniform,1,undefined,1,h,0,0,0,106,0,106,0,0,0,106,0,106,106,106,106,106,9/19/19 17:20,600,The main experiment item,yes,Flankertask2.osexp,C:/Users/Carolyn/OneDrive,no,mono,no,18,no,white,no,yes,768,legacy,26,79,C:/Users/Carolyn/OneDrive/cp-subject-3.csv,legacy,Kafkaesque Koffka,3.2.8,0,h,NA,s,h,NA,h,413,NA,42816,71187,NA,413,2,legacy,1024,2,48000,-16,experiment,HHHHH,3,odd,46116,268469,NA,302975,NA,315692,3299,197279,NA,275309,3292,316837,316941,317357,316833,316940,Flankertask2,103,59922,107,yes,1024
96.2962963,96.2962963,558.0925926,558.0925926,black,legacy,legacy,legacy,0,congruent,uniform,1,undefined,1,s,0,0,0,107,0,107,0,0,0,107,0,107,107,107,107,107,9/19/19 17:20,600,The main experiment item,yes,Flankertask2.osexp,C:/Users/Carolyn/OneDrive,no,mono,no,18,no,white,no,yes,768,legacy,27,79,C:/Users/Carolyn/OneDrive/cp-subject-3.csv,legacy,Kafkaesque Koffka,3.2.8,0,s,NA,s,h,NA,s,352,NA,42816,71187,NA,352,2,legacy,1024,2,48000,-16,experiment,SSSSS,3,odd,46116,268469,NA,302975,NA,317392,3299,197279,NA,275309,3292,318539,318642,318997,318534,318642,Flankertask2,104,60274,108,yes,1024
96.33027523,96.33027523,557.8165138,557.8165138,black,legacy,legacy,legacy,0,incongruent,uniform,1,undefined,1,s,0,0,0,108,0,108,0,0,0,108,0,108,108,108,108,108,9/19/19 17:20,600,The main experiment item,yes,Flankertask2.osexp,C:/Users/Carolyn/OneDrive,no,mono,no,18,no,white,no,yes,768,legacy,28,79,C:/Users/Carolyn/OneDrive/cp-subject-3.csv,legacy,Kafkaesque Koffka,3.2.8,0,s,NA,s,h,NA,s,528,NA,42816,71187,NA,528,2,legacy,1024,2,48000,-16,experiment,HHSHH,3,odd,46116,268469,NA,302975,NA,319056,3299,197279,NA,275309,3292,320202,320306,320837,320197,320305,Flankertask2,105,60802,109,yes,1024
96.36363636,96.36363636,556.9545455,556.9545455,black,legacy,legacy,legacy,0,congruent,uniform,1,undefined,1,h,0,0,0,109,0,109,0,0,0,109,0,109,109,109,109,109,9/19/19 17:20,600,The main experiment item,yes,Flankertask2.osexp,C:/Users/Carolyn/OneDrive,no,mono,no,18,no,white,no,yes,768,legacy,29,79,C:/Users/Carolyn/OneDrive/cp-subject-3.csv,legacy,Kafkaesque Koffka,3.2.8,0,h,NA,s,h,NA,h,463,NA,42816,71187,NA,463,2,legacy,1024,2,48000,-16,experiment,HHHHH,3,odd,46116,268469,NA,302975,NA,320875,3299,197279,NA,275309,3292,322020,322123,322589,322015,322123,Flankertask2,106,61265,110,yes,1024
96.3963964,96.3963964,555.1801802,555.1801802,black,legacy,legacy,legacy,0,congruent,uniform,1,undefined,1,h,0,0,0,110,0,110,0,0,0,110,0,110,110,110,110,110,9/19/19 17:20,600,The main experiment item,yes,Flankertask2.osexp,C:/Users/Carolyn/OneDrive,no,mono,no,18,no,white,no,yes,768,legacy,30,79,C:/Users/Carolyn/OneDrive/cp-subject-3.csv,legacy,Kafkaesque Koffka,3.2.8,0,h,NA,s,h,NA,h,360,NA,42816,71187,NA,360,2,legacy,1024,2,48000,-16,experiment,HHHHH,3,odd,46116,268469,NA,302975,NA,322616,3299,197279,NA,275309,3292,323763,323866,324229,323758,323866,Flankertask2,107,61625,111,yes,1024
96.42857143,96.42857143,553.9910714,553.9910714,black,legacy,legacy,legacy,0,incongruent,uniform,1,undefined,1,s,0,0,0,111,0,111,0,0,0,111,0,111,111,111,111,111,9/19/19 17:20,600,The main experiment item,yes,Flankertask2.osexp,C:/Users/Carolyn/OneDrive,no,mono,no,18,no,white,no,yes,768,legacy,31,79,C:/Users/Carolyn/OneDrive/cp-subject-3.csv,legacy,Kafkaesque Koffka,3.2.8,0,s,NA,s,h,NA,s,422,NA,42816,71187,NA,422,2,legacy,1024,2,48000,-16,experiment,HHSHH,3,odd,46116,268469,NA,302975,NA,324259,3299,197279,NA,275309,3292,325405,325508,325933,325399,325508,Flankertask2,108,62047,112,yes,1024
96.46017699,96.46017699,552.9115044,552.9115044,black,legacy,legacy,legacy,0,congruent,uniform,1,undefined,1,h,0,0,0,112,0,112,0,0,0,112,0,112,112,112,112,112,9/19/19 17:20,600,The main experiment item,yes,Flankertask2.osexp,C:/Users/Carolyn/OneDrive,no,mono,no,18,no,white,no,yes,768,legacy,32,79,C:/Users/Carolyn/OneDrive/cp-subject-3.csv,legacy,Kafkaesque Koffka,3.2.8,0,h,NA,s,h,NA,h,432,NA,42816,71187,NA,432,2,legacy,1024,2,48000,-16,experiment,HHHHH,3,odd,46116,268469,NA,302975,NA,325958,3299,197279,NA,275309,3292,327106,327210,327645,327101,327209,Flankertask2,109,62479,113,yes,1024
96.49122807,96.49122807,551.3245614,551.3245614,black,legacy,legacy,legacy,0,congruent,uniform,1,undefined,1,h,0,0,0,113,0,113,0,0,0,113,0,113,113,113,113,113,9/19/19 17:20,600,The main experiment item,yes,Flankertask2.osexp,C:/Users/Carolyn/OneDrive,no,mono,no,18,no,white,no,yes,768,legacy,33,79,C:/Users/Carolyn/OneDrive/cp-subject-3.csv,legacy,Kafkaesque Koffka,3.2.8,0,h,NA,s,h,NA,h,372,NA,42816,71187,NA,372,2,legacy,1024,2,48000,-16,experiment,HHHHH,3,odd,46116,268469,NA,302975,NA,327683,3299,197279,NA,275309,3292,328830,328934,329309,328825,328933,Flankertask2,110,62851,114,yes,1024
96.52173913,96.52173913,550.5130435,550.5130435,black,legacy,legacy,legacy,0,congruent,uniform,1,undefined,1,h,0,0,0,114,0,114,0,0,0,114,0,114,114,114,114,114,9/19/19 17:20,600,The main experiment item,yes,Flankertask2.osexp,C:/Users/Carolyn/OneDrive,no,mono,no,18,no,white,no,yes,768,legacy,34,79,C:/Users/Carolyn/OneDrive/cp-subject-3.csv,legacy,Kafkaesque Koffka,3.2.8,0,h,NA,s,h,NA,h,458,NA,42816,71187,NA,458,2,legacy,1024,2,48000,-16,experiment,HHHHH,3,odd,46116,268469,NA,302975,NA,329342,3299,197279,NA,275309,3292,330488,330592,331053,330484,330591,Flankertask2,111,63309,115,yes,1024
96.55172414,96.55172414,549.5172414,549.5172414,black,legacy,legacy,legacy,0,congruent,uniform,1,undefined,1,h,0,0,0,115,0,115,0,0,0,115,0,115,115,115,115,115,9/19/19 17:20,600,The main experiment item,yes,Flankertask2.osexp,C:/Users/Carolyn/OneDrive,no,mono,no,18,no,white,no,yes,768,legacy,35,79,C:/Users/Carolyn/OneDrive/cp-subject-3.csv,legacy,Kafkaesque Koffka,3.2.8,0,h,NA,s,h,NA,h,435,NA,42816,71187,NA,435,2,legacy,1024,2,48000,-16,experiment,HHHHH,3,odd,46116,268469,NA,302975,NA,331092,3299,197279,NA,275309,3292,332239,332343,332781,332234,332342,Flankertask2,112,63744,116,yes,1024
96.58119658,96.58119658,548.1623932,548.1623932,black,legacy,legacy,legacy,0,congruent,uniform,1,undefined,1,s,0,0,0,116,0,116,0,0,0,116,0,116,116,116,116,116,9/19/19 17:20,600,The main experiment item,yes,Flankertask2.osexp,C:/Users/Carolyn/OneDrive,no,mono,no,18,no,white,no,yes,768,legacy,36,79,C:/Users/Carolyn/OneDrive/cp-subject-3.csv,legacy,Kafkaesque Koffka,3.2.8,0,s,NA,s,h,NA,s,391,NA,42816,71187,NA,391,2,legacy,1024,2,48000,-16,experiment,SSSSS,3,odd,46116,268469,NA,302975,NA,332808,3299,197279,NA,275309,3292,333955,334059,334453,333950,334058,Flankertask2,113,64135,117,yes,1024
96.61016949,96.61016949,548.0084746,548.0084746,black,legacy,legacy,legacy,0,incongruent,uniform,1,undefined,1,s,0,0,0,117,0,117,0,0,0,117,0,117,117,117,117,117,9/19/19 17:20,600,The main experiment item,yes,Flankertask2.osexp,C:/Users/Carolyn/OneDrive,no,mono,no,18,no,white,no,yes,768,legacy,37,79,C:/Users/Carolyn/OneDrive/cp-subject-3.csv,legacy,Kafkaesque Koffka,3.2.8,0,s,NA,s,h,NA,s,530,NA,42816,71187,NA,530,2,legacy,1024,2,48000,-16,experiment,HHSHH,3,odd,46116,268469,NA,302975,NA,334483,3299,197279,NA,275309,3292,335632,335736,336269,335627,335735,Flankertask2,114,64665,118,yes,1024
95.79831933,95.79831933,546.7142857,546.7142857,black,legacy,legacy,legacy,0,congruent,uniform,0,undefined,0,h,0,0,0,118,0,118,0,0,0,118,0,118,118,118,118,118,9/19/19 17:20,600,The main experiment item,yes,Flankertask2.osexp,C:/Users/Carolyn/OneDrive,no,mono,no,18,no,white,no,yes,768,legacy,38,79,C:/Users/Carolyn/OneDrive/cp-subject-3.csv,legacy,Kafkaesque Koffka,3.2.8,0,s,NA,s,h,NA,s,394,NA,42816,71187,NA,394,2,legacy,1024,2,48000,-16,experiment,HHHHH,3,odd,46116,268469,NA,302975,NA,336300,3299,197279,NA,275309,3292,337447,337552,337949,337442,337551,Flankertask2,114,65059,119,yes,1024
95.83333333,95.83333333,546.1916667,546.1916667,black,legacy,legacy,legacy,0,congruent,uniform,1,undefined,1,s,0,0,0,119,0,119,0,0,0,119,0,119,119,119,119,119,9/19/19 17:20,600,The main experiment item,yes,Flankertask2.osexp,C:/Users/Carolyn/OneDrive,no,mono,no,18,no,white,no,yes,768,legacy,39,79,C:/Users/Carolyn/OneDrive/cp-subject-3.csv,legacy,Kafkaesque Koffka,3.2.8,0,s,NA,s,h,NA,s,484,NA,42816,71187,NA,484,2,legacy,1024,2,48000,-16,experiment,SSSSS,3,odd,46116,268469,NA,302975,NA,338479,3299,197279,NA,337974,3292,339623,339727,340214,339619,339726,Flankertask2,115,65543,120,yes,1024
95.8677686,95.8677686,544.9090909,544.9090909,black,legacy,legacy,legacy,0,incongruent,uniform,1,undefined,1,h,0,0,0,120,0,120,0,0,0,120,0,120,120,120,120,120,9/19/19 17:20,600,The main experiment item,yes,Flankertask2.osexp,C:/Users/Carolyn/OneDrive,no,mono,no,18,no,white,no,yes,768,legacy,40,79,C:/Users/Carolyn/OneDrive/cp-subject-3.csv,legacy,Kafkaesque Koffka,3.2.8,0,h,NA,s,h,NA,h,391,NA,42816,71187,NA,391,2,legacy,1024,2,48000,-16,experiment,SSHSS,3,odd,46116,268469,NA,302975,NA,340251,3299,197279,NA,337974,3292,341396,341500,341894,341391,341499,Flankertask2,116,65934,121,yes,1024
95.90163934,95.90163934,543.8934426,543.8934426,black,legacy,legacy,legacy,0,congruent,uniform,1,undefined,1,s,0,0,0,121,0,121,0,0,0,121,0,121,121,121,121,121,9/19/19 17:20,600,The main experiment item,yes,Flankertask2.osexp,C:/Users/Carolyn/OneDrive,no,mono,no,18,no,white,no,yes,768,legacy,41,79,C:/Users/Carolyn/OneDrive/cp-subject-3.csv,legacy,Kafkaesque Koffka,3.2.8,0,s,NA,s,h,NA,s,421,NA,42816,71187,NA,421,2,legacy,1024,2,48000,-16,experiment,SSSSS,3,odd,46116,268469,NA,302975,NA,341926,3299,197279,NA,337974,3292,343070,343174,343598,343066,343173,Flankertask2,117,66355,122,yes,1024
95.93495935,95.93495935,542.6504065,542.6504065,black,legacy,legacy,legacy,0,incongruent,uniform,1,undefined,1,h,0,0,0,122,0,122,0,0,0,122,0,122,122,122,122,122,9/19/19 17:20,600,The main experiment item,yes,Flankertask2.osexp,C:/Users/Carolyn/OneDrive,no,mono,no,18,no,white,no,yes,768,legacy,42,79,C:/Users/Carolyn/OneDrive/cp-subject-3.csv,legacy,Kafkaesque Koffka,3.2.8,0,h,NA,s,h,NA,h,391,NA,42816,71187,NA,391,2,legacy,1024,2,48000,-16,experiment,SSHSS,3,odd,46116,268469,NA,302975,NA,343668,3299,197279,NA,337974,3292,344813,344916,345310,344808,344916,Flankertask2,118,66746,123,yes,1024
95.96774194,95.96774194,542.233871,542.233871,black,legacy,legacy,legacy,0,incongruent,uniform,1,undefined,1,h,0,0,0,123,0,123,0,0,0,123,0,123,123,123,123,123,9/19/19 17:20,600,The main experiment item,yes,Flankertask2.osexp,C:/Users/Carolyn/OneDrive,no,mono,no,18,no,white,no,yes,768,legacy,43,79,C:/Users/Carolyn/OneDrive/cp-subject-3.csv,legacy,Kafkaesque Koffka,3.2.8,0,h,NA,s,h,NA,h,491,NA,42816,71187,NA,491,2,legacy,1024,2,48000,-16,experiment,SSHSS,3,odd,46116,268469,NA,302975,NA,345342,3299,197279,NA,337974,3292,346488,346592,347086,346484,346592,Flankertask2,119,67237,124,yes,1024
96,96,541.192,541.192,black,legacy,legacy,legacy,0,incongruent,uniform,1,undefined,1,s,0,0,0,124,0,124,0,0,0,124,0,124,124,124,124,124,9/19/19 17:20,600,The main experiment item,yes,Flankertask2.osexp,C:/Users/Carolyn/OneDrive,no,mono,no,18,no,white,no,yes,768,legacy,44,79,C:/Users/Carolyn/OneDrive/cp-subject-3.csv,legacy,Kafkaesque Koffka,3.2.8,0,s,NA,s,h,NA,s,412,NA,42816,71187,NA,412,2,legacy,1024,2,48000,-16,experiment,HHSHH,3,odd,46116,268469,NA,302975,NA,347117,3299,197279,NA,337974,3292,348264,348367,348782,348259,348367,Flankertask2,120,67649,125,yes,1024
96.03174603,96.03174603,540.7857143,540.7857143,black,legacy,legacy,legacy,0,congruent,uniform,1,undefined,1,h,0,0,0,125,0,125,0,0,0,125,0,125,125,125,125,125,9/19/19 17:20,600,The main experiment item,yes,Flankertask2.osexp,C:/Users/Carolyn/OneDrive,no,mono,no,18,no,white,no,yes,768,legacy,45,79,C:/Users/Carolyn/OneDrive/cp-subject-3.csv,legacy,Kafkaesque Koffka,3.2.8,0,h,NA,s,h,NA,h,490,NA,42816,71187,NA,490,2,legacy,1024,2,48000,-16,experiment,HHHHH,3,odd,46116,268469,NA,302975,NA,348809,3299,197279,NA,337974,3292,349954,350057,350550,349949,350057,Flankertask2,121,68139,126,yes,1024
96.06299213,96.06299213,539.503937,539.503937,black,legacy,legacy,legacy,0,congruent,uniform,1,undefined,1,h,0,0,0,126,0,126,0,0,0,126,0,126,126,126,126,126,9/19/19 17:20,600,The main experiment item,yes,Flankertask2.osexp,C:/Users/Carolyn/OneDrive,no,mono,no,18,no,white,no,yes,768,legacy,46,79,C:/Users/Carolyn/OneDrive/cp-subject-3.csv,legacy,Kafkaesque Koffka,3.2.8,0,h,NA,s,h,NA,h,378,NA,42816,71187,NA,378,2,legacy,1024,2,48000,-16,experiment,HHHHH,3,odd,46116,268469,NA,302975,NA,350593,3299,197279,NA,337974,3292,351738,351841,352222,351734,351841,Flankertask2,122,68517,127,yes,1024
96.09375,96.09375,538.59375,538.59375,black,legacy,legacy,legacy,0,incongruent,uniform,1,undefined,1,h,0,0,0,127,0,127,0,0,0,127,0,127,127,127,127,127,9/19/19 17:20,600,The main experiment item,yes,Flankertask2.osexp,C:/Users/Carolyn/OneDrive,no,mono,no,18,no,white,no,yes,768,legacy,47,79,C:/Users/Carolyn/OneDrive/cp-subject-3.csv,legacy,Kafkaesque Koffka,3.2.8,0,h,NA,s,h,NA,h,423,NA,42816,71187,NA,423,2,legacy,1024,2,48000,-16,experiment,SSHSS,3,odd,46116,268469,NA,302975,NA,352250,3299,197279,NA,337974,3292,353397,353500,353926,353392,353500,Flankertask2,123,68940,128,yes,1024
96.12403101,96.12403101,537.7286822,537.7286822,black,legacy,legacy,legacy,0,incongruent,uniform,1,undefined,1,s,0,0,0,128,0,128,0,0,0,128,0,128,128,128,128,128,9/19/19 17:20,600,The main experiment item,yes,Flankertask2.osexp,C:/Users/Carolyn/OneDrive,no,mono,no,18,no,white,no,yes,768,legacy,48,79,C:/Users/Carolyn/OneDrive/cp-subject-3.csv,legacy,Kafkaesque Koffka,3.2.8,0,s,NA,s,h,NA,s,427,NA,42816,71187,NA,427,2,legacy,1024,2,48000,-16,experiment,HHSHH,3,odd,46116,268469,NA,302975,NA,353959,3299,197279,NA,337974,3292,355105,355208,355638,355100,355208,Flankertask2,124,69367,129,yes,1024
96.15384615,96.15384615,537.0230769,537.0230769,black,legacy,legacy,legacy,0,congruent,uniform,1,undefined,1,s,0,0,0,129,0,129,0,0,0,129,0,129,129,129,129,129,9/19/19 17:20,600,The main experiment item,yes,Flankertask2.osexp,C:/Users/Carolyn/OneDrive,no,mono,no,18,no,white,no,yes,768,legacy,49,79,C:/Users/Carolyn/OneDrive/cp-subject-3.csv,legacy,Kafkaesque Koffka,3.2.8,0,s,NA,s,h,NA,s,446,NA,42816,71187,NA,446,2,legacy,1024,2,48000,-16,experiment,SSSSS,3,odd,46116,268469,NA,302975,NA,355676,3299,197279,NA,337974,3292,356821,356925,357374,356816,356925,Flankertask2,125,69813,130,yes,1024
96.18320611,96.18320611,535.9923664,535.9923664,black,legacy,legacy,legacy,0,incongruent,uniform,1,undefined,1,s,0,0,0,130,0,130,0,0,0,130,0,130,130,130,130,130,9/19/19 17:20,600,The main experiment item,yes,Flankertask2.osexp,C:/Users/Carolyn/OneDrive,no,mono,no,18,no,white,no,yes,768,legacy,50,79,C:/Users/Carolyn/OneDrive/cp-subject-3.csv,legacy,Kafkaesque Koffka,3.2.8,0,s,NA,s,h,NA,s,402,NA,42816,71187,NA,402,2,legacy,1024,2,48000,-16,experiment,HHSHH,3,odd,46116,268469,NA,302975,NA,357400,3299,197279,NA,337974,3292,358546,358649,359054,358541,358649,Flankertask2,126,70215,131,yes,1024
96.21212121,96.21212121,535.4242424,535.4242424,black,legacy,legacy,legacy,0,incongruent,uniform,1,undefined,1,s,0,0,0,131,0,131,0,0,0,131,0,131,131,131,131,131,9/19/19 17:20,600,The main experiment item,yes,Flankertask2.osexp,C:/Users/Carolyn/OneDrive,no,mono,no,18,no,white,no,yes,768,legacy,51,79,C:/Users/Carolyn/OneDrive/cp-subject-3.csv,legacy,Kafkaesque Koffka,3.2.8,0,s,NA,s,h,NA,s,461,NA,42816,71187,NA,461,2,legacy,1024,2,48000,-16,experiment,HHSHH,3,odd,46116,268469,NA,302975,NA,359084,3299,197279,NA,337974,3292,360230,360334,360798,360226,360333,Flankertask2,127,70676,132,yes,1024
96.2406015,96.2406015,535.9172932,535.9172932,black,legacy,legacy,legacy,0,congruent,uniform,1,undefined,1,s,0,0,0,132,0,132,0,0,0,132,0,132,132,132,132,132,9/19/19 17:20,600,The main experiment item,yes,Flankertask2.osexp,C:/Users/Carolyn/OneDrive,no,mono,no,18,no,white,no,yes,768,legacy,52,79,C:/Users/Carolyn/OneDrive/cp-subject-3.csv,legacy,Kafkaesque Koffka,3.2.8,0,s,NA,s,h,NA,s,601,NA,42816,71187,NA,601,2,legacy,1024,2,48000,-16,experiment,SSSSS,3,odd,46116,268469,NA,302975,NA,360842,3299,197279,NA,337974,3292,361986,362090,362694,361982,362090,Flankertask2,128,71277,133,yes,1024
96.26865672,96.26865672,536.2089552,536.2089552,black,legacy,legacy,legacy,0,incongruent,uniform,1,undefined,1,s,0,0,0,133,0,133,0,0,0,133,0,133,133,133,133,133,9/19/19 17:20,600,The main experiment item,yes,Flankertask2.osexp,C:/Users/Carolyn/OneDrive,no,mono,no,18,no,white,no,yes,768,legacy,53,79,C:/Users/Carolyn/OneDrive/cp-subject-3.csv,legacy,Kafkaesque Koffka,3.2.8,0,s,NA,s,h,NA,s,575,NA,42816,71187,NA,575,2,legacy,1024,2,48000,-16,experiment,HHSHH,3,odd,46116,268469,NA,362725,NA,363228,3299,197279,NA,337974,3292,364373,364476,365054,364369,364476,Flankertask2,129,71852,134,yes,1024
96.2962963,96.2962963,535.1259259,535.1259259,black,legacy,legacy,legacy,0,congruent,uniform,1,undefined,1,s,0,0,0,134,0,134,0,0,0,134,0,134,134,134,134,134,9/19/19 17:20,600,The main experiment item,yes,Flankertask2.osexp,C:/Users/Carolyn/OneDrive,no,mono,no,18,no,white,no,yes,768,legacy,54,79,C:/Users/Carolyn/OneDrive/cp-subject-3.csv,legacy,Kafkaesque Koffka,3.2.8,0,s,NA,s,h,NA,s,390,NA,42816,71187,NA,390,2,legacy,1024,2,48000,-16,experiment,SSSSS,3,odd,46116,268469,NA,362725,NA,365084,3299,197279,NA,337974,3292,366229,366333,366726,366224,366332,Flankertask2,130,72242,135,yes,1024
96.32352941,96.32352941,534.3382353,534.3382353,black,legacy,legacy,legacy,0,congruent,uniform,1,undefined,1,s,0,0,0,135,0,135,0,0,0,135,0,135,135,135,135,135,9/19/19 17:20,600,The main experiment item,yes,Flankertask2.osexp,C:/Users/Carolyn/OneDrive,no,mono,no,18,no,white,no,yes,768,legacy,55,79,C:/Users/Carolyn/OneDrive/cp-subject-3.csv,legacy,Kafkaesque Koffka,3.2.8,0,s,NA,s,h,NA,s,428,NA,42816,71187,NA,428,2,legacy,1024,2,48000,-16,experiment,SSSSS,3,odd,46116,268469,NA,362725,NA,366792,3299,197279,NA,337974,3292,367936,368039,368470,367932,368039,Flankertask2,131,72670,136,yes,1024
96.35036496,96.35036496,532.9781022,532.9781022,black,legacy,legacy,legacy,0,congruent,uniform,1,undefined,1,s,0,0,0,136,0,136,0,0,0,136,0,136,136,136,136,136,9/19/19 17:20,600,The main experiment item,yes,Flankertask2.osexp,C:/Users/Carolyn/OneDrive,no,mono,no,18,no,white,no,yes,768,legacy,56,79,C:/Users/Carolyn/OneDrive/cp-subject-3.csv,legacy,Kafkaesque Koffka,3.2.8,0,s,NA,s,h,NA,s,348,NA,42816,71187,NA,348,2,legacy,1024,2,48000,-16,experiment,SSSSS,3,odd,46116,268469,NA,362725,NA,368500,3299,197279,NA,337974,3292,369646,369751,370102,369642,369750,Flankertask2,132,73018,137,yes,1024
96.37681159,96.37681159,531.8768116,531.8768116,black,legacy,legacy,legacy,0,congruent,uniform,1,undefined,1,h,0,0,0,137,0,137,0,0,0,137,0,137,137,137,137,137,9/19/19 17:20,600,The main experiment item,yes,Flankertask2.osexp,C:/Users/Carolyn/OneDrive,no,mono,no,18,no,white,no,yes,768,legacy,57,79,C:/Users/Carolyn/OneDrive/cp-subject-3.csv,legacy,Kafkaesque Koffka,3.2.8,0,h,NA,s,h,NA,h,381,NA,42816,71187,NA,381,2,legacy,1024,2,48000,-16,experiment,HHHHH,3,odd,46116,268469,NA,362725,NA,370134,3299,197279,NA,337974,3292,371279,371382,371766,371274,371382,Flankertask2,133,73399,138,yes,1024
95.68345324,95.68345324,530.9496403,530.9496403,black,legacy,legacy,legacy,0,incongruent,uniform,0,undefined,0,h,0,0,0,138,0,138,0,0,0,138,0,138,138,138,138,138,9/19/19 17:20,600,The main experiment item,yes,Flankertask2.osexp,C:/Users/Carolyn/OneDrive,no,mono,no,18,no,white,no,yes,768,legacy,58,79,C:/Users/Carolyn/OneDrive/cp-subject-3.csv,legacy,Kafkaesque Koffka,3.2.8,0,s,NA,s,h,NA,s,403,NA,42816,71187,NA,403,2,legacy,1024,2,48000,-16,experiment,SSHSS,3,odd,46116,268469,NA,362725,NA,371800,3299,197279,NA,337974,3292,372945,373048,373454,372941,373048,Flankertask2,133,73802,139,yes,1024
95.71428571,95.71428571,531.0857143,531.0857143,black,legacy,legacy,legacy,0,congruent,uniform,1,undefined,1,h,0,0,0,139,0,139,0,0,0,139,0,139,139,139,139,139,9/19/19 17:20,600,The main experiment item,yes,Flankertask2.osexp,C:/Users/Carolyn/OneDrive,no,mono,no,18,no,white,no,yes,768,legacy,59,79,C:/Users/Carolyn/OneDrive/cp-subject-3.csv,legacy,Kafkaesque Koffka,3.2.8,0,h,NA,s,h,NA,h,550,NA,42816,71187,NA,550,2,legacy,1024,2,48000,-16,experiment,HHHHH,3,odd,46116,268469,NA,362725,NA,374012,3299,197279,NA,373509,3292,375158,375261,375814,375153,375261,Flankertask2,134,74352,140,yes,1024
95.74468085,95.74468085,530.4397163,530.4397163,black,legacy,legacy,legacy,0,congruent,uniform,1,undefined,1,h,0,0,0,140,0,140,0,0,0,140,0,140,140,140,140,140,9/19/19 17:20,600,The main experiment item,yes,Flankertask2.osexp,C:/Users/Carolyn/OneDrive,no,mono,no,18,no,white,no,yes,768,legacy,60,79,C:/Users/Carolyn/OneDrive/cp-subject-3.csv,legacy,Kafkaesque Koffka,3.2.8,0,h,NA,s,h,NA,h,440,NA,42816,71187,NA,440,2,legacy,1024,2,48000,-16,experiment,HHHHH,3,odd,46116,268469,NA,362725,NA,375858,3299,197279,NA,373509,3292,377004,377107,377550,376999,377107,Flankertask2,135,74792,141,yes,1024
95.77464789,95.77464789,530.1549296,530.1549296,black,legacy,legacy,legacy,0,incongruent,uniform,1,undefined,1,h,0,0,0,141,0,141,0,0,0,141,0,141,141,141,141,141,9/19/19 17:20,600,The main experiment item,yes,Flankertask2.osexp,C:/Users/Carolyn/OneDrive,no,mono,no,18,no,white,no,yes,768,legacy,61,79,C:/Users/Carolyn/OneDrive/cp-subject-3.csv,legacy,Kafkaesque Koffka,3.2.8,0,h,NA,s,h,NA,h,490,NA,42816,71187,NA,490,2,legacy,1024,2,48000,-16,experiment,SSHSS,3,odd,46116,268469,NA,362725,NA,377592,3299,197279,NA,373509,3292,378737,378841,379334,378732,378840,Flankertask2,136,75282,142,yes,1024
95.8041958,95.8041958,529.3776224,529.3776224,black,legacy,legacy,legacy,0,congruent,uniform,1,undefined,1,s,0,0,0,142,0,142,0,0,0,142,0,142,142,142,142,142,9/19/19 17:20,600,The main experiment item,yes,Flankertask2.osexp,C:/Users/Carolyn/OneDrive,no,mono,no,18,no,white,no,yes,768,legacy,62,79,C:/Users/Carolyn/OneDrive/cp-subject-3.csv,legacy,Kafkaesque Koffka,3.2.8,0,s,NA,s,h,NA,s,419,NA,42816,71187,NA,419,2,legacy,1024,2,48000,-16,experiment,SSSSS,3,odd,46116,268469,NA,362725,NA,379367,3299,197279,NA,373509,3292,380512,380616,381038,380507,380615,Flankertask2,137,75701,143,yes,1024
95.83333333,95.83333333,528.6944444,528.6944444,black,legacy,legacy,legacy,0,congruent,uniform,1,undefined,1,h,0,0,0,143,0,143,0,0,0,143,0,143,143,143,143,143,9/19/19 17:20,600,The main experiment item,yes,Flankertask2.osexp,C:/Users/Carolyn/OneDrive,no,mono,no,18,no,white,no,yes,768,legacy,63,79,C:/Users/Carolyn/OneDrive/cp-subject-3.csv,legacy,Kafkaesque Koffka,3.2.8,0,h,NA,s,h,NA,h,431,NA,42816,71187,NA,431,2,legacy,1024,2,48000,-16,experiment,HHHHH,3,odd,46116,268469,NA,362725,NA,381075,3299,197279,NA,373509,3292,382220,382324,382758,382215,382323,Flankertask2,138,76132,144,yes,1024
95.86206897,95.86206897,528.537931,528.537931,black,legacy,legacy,legacy,0,incongruent,uniform,1,undefined,1,h,0,0,0,144,0,144,0,0,0,144,0,144,144,144,144,144,9/19/19 17:20,600,The main experiment item,yes,Flankertask2.osexp,C:/Users/Carolyn/OneDrive,no,mono,no,18,no,white,no,yes,768,legacy,64,79,C:/Users/Carolyn/OneDrive/cp-subject-3.csv,legacy,Kafkaesque Koffka,3.2.8,0,h,NA,s,h,NA,h,506,NA,42816,71187,NA,506,2,legacy,1024,2,48000,-16,experiment,SSHSS,3,odd,46116,268469,NA,362725,NA,382792,3299,197279,NA,373509,3292,383936,384041,384551,383932,384040,Flankertask2,139,76638,145,yes,1024
95.89041096,95.89041096,527.6780822,527.6780822,black,legacy,legacy,legacy,0,incongruent,uniform,1,undefined,1,s,0,0,0,145,0,145,0,0,0,145,0,145,145,145,145,145,9/19/19 17:20,600,The main experiment item,yes,Flankertask2.osexp,C:/Users/Carolyn/OneDrive,no,mono,no,18,no,white,no,yes,768,legacy,65,79,C:/Users/Carolyn/OneDrive/cp-subject-3.csv,legacy,Kafkaesque Koffka,3.2.8,0,s,NA,s,h,NA,s,403,NA,42816,71187,NA,403,2,legacy,1024,2,48000,-16,experiment,HHSHH,3,odd,46116,268469,NA,362725,NA,384583,3299,197279,NA,373509,3292,385729,385832,386238,385724,385832,Flankertask2,140,77041,146,yes,1024
95.91836735,95.91836735,526.9115646,526.9115646,black,legacy,legacy,legacy,0,congruent,uniform,1,undefined,1,s,0,0,0,146,0,146,0,0,0,146,0,146,146,146,146,146,9/19/19 17:20,600,The main experiment item,yes,Flankertask2.osexp,C:/Users/Carolyn/OneDrive,no,mono,no,18,no,white,no,yes,768,legacy,66,79,C:/Users/Carolyn/OneDrive/cp-subject-3.csv,legacy,Kafkaesque Koffka,3.2.8,0,s,NA,s,h,NA,s,415,NA,42816,71187,NA,415,2,legacy,1024,2,48000,-16,experiment,SSSSS,3,odd,46116,268469,NA,362725,NA,386267,3299,197279,NA,373509,3292,387411,387516,387934,387407,387515,Flankertask2,141,77456,147,yes,1024
95.94594595,95.94594595,526.9459459,526.9459459,black,legacy,legacy,legacy,0,incongruent,uniform,1,undefined,1,h,0,0,0,147,0,147,0,0,0,147,0,147,147,147,147,147,9/19/19 17:20,600,The main experiment item,yes,Flankertask2.osexp,C:/Users/Carolyn/OneDrive,no,mono,no,18,no,white,no,yes,768,legacy,67,79,C:/Users/Carolyn/OneDrive/cp-subject-3.csv,legacy,Kafkaesque Koffka,3.2.8,0,h,NA,s,h,NA,h,532,NA,42816,71187,NA,532,2,legacy,1024,2,48000,-16,experiment,SSHSS,3,odd,46116,268469,NA,362725,NA,387967,3299,197279,NA,373509,3292,389112,389215,389750,389107,389215,Flankertask2,142,77988,148,yes,1024
95.97315436,95.97315436,526.6442953,526.6442953,black,legacy,legacy,legacy,0,incongruent,uniform,1,undefined,1,s,0,0,0,148,0,148,0,0,0,148,0,148,148,148,148,148,9/19/19 17:20,600,The main experiment item,yes,Flankertask2.osexp,C:/Users/Carolyn/OneDrive,no,mono,no,18,no,white,no,yes,768,legacy,68,79,C:/Users/Carolyn/OneDrive/cp-subject-3.csv,legacy,Kafkaesque Koffka,3.2.8,0,s,NA,s,h,NA,s,482,NA,42816,71187,NA,482,2,legacy,1024,2,48000,-16,experiment,HHSHH,3,odd,46116,268469,NA,362725,NA,389775,3299,197279,NA,373509,3292,390922,391025,391510,390917,391025,Flankertask2,143,78470,149,yes,1024
96,96,526.66,526.66,black,legacy,legacy,legacy,0,incongruent,uniform,1,undefined,1,s,0,0,0,149,0,149,0,0,0,149,0,149,149,149,149,149,9/19/19 17:20,600,The main experiment item,yes,Flankertask2.osexp,C:/Users/Carolyn/OneDrive,no,mono,no,18,no,white,no,yes,768,legacy,69,79,C:/Users/Carolyn/OneDrive/cp-subject-3.csv,legacy,Kafkaesque Koffka,3.2.8,0,s,NA,s,h,NA,s,529,NA,42816,71187,NA,529,2,legacy,1024,2,48000,-16,experiment,HHSHH,3,odd,46116,268469,NA,362725,NA,391542,3299,197279,NA,373509,3292,392691,392794,393326,392687,392794,Flankertask2,144,78999,150,yes,1024
96.02649007,96.02649007,525.7350993,525.7350993,black,legacy,legacy,legacy,0,congruent,uniform,1,undefined,1,s,0,0,0,150,0,150,0,0,0,150,0,150,150,150,150,150,9/19/19 17:20,600,The main experiment item,yes,Flankertask2.osexp,C:/Users/Carolyn/OneDrive,no,mono,no,18,no,white,no,yes,768,legacy,70,79,C:/Users/Carolyn/OneDrive/cp-subject-3.csv,legacy,Kafkaesque Koffka,3.2.8,0,s,NA,s,h,NA,s,387,NA,42816,71187,NA,387,2,legacy,1024,2,48000,-16,experiment,SSSSS,3,odd,46116,268469,NA,362725,NA,393367,3299,197279,NA,373509,3292,394513,394616,395006,394508,394616,Flankertask2,145,79386,151,yes,1024
96.05263158,96.05263158,525.3684211,525.3684211,black,legacy,legacy,legacy,0,incongruent,uniform,1,undefined,1,s,0,0,0,151,0,151,0,0,0,151,0,151,151,151,151,151,9/19/19 17:20,600,The main experiment item,yes,Flankertask2.osexp,C:/Users/Carolyn/OneDrive,no,mono,no,18,no,white,no,yes,768,legacy,71,79,C:/Users/Carolyn/OneDrive/cp-subject-3.csv,legacy,Kafkaesque Koffka,3.2.8,0,s,NA,s,h,NA,s,470,NA,42816,71187,NA,470,2,legacy,1024,2,48000,-16,experiment,HHSHH,3,odd,46116,268469,NA,362725,NA,395050,3299,197279,NA,373509,3292,396197,396301,396774,396192,396300,Flankertask2,146,79856,152,yes,1024
96.07843137,96.07843137,524.124183,524.124183,black,legacy,legacy,legacy,0,congruent,uniform,1,undefined,1,s,0,0,0,152,0,152,0,0,0,152,0,152,152,152,152,152,9/19/19 17:20,600,The main experiment item,yes,Flankertask2.osexp,C:/Users/Carolyn/OneDrive,no,mono,no,18,no,white,no,yes,768,legacy,72,79,C:/Users/Carolyn/OneDrive/cp-subject-3.csv,legacy,Kafkaesque Koffka,3.2.8,0,s,NA,s,h,NA,s,335,NA,42816,71187,NA,335,2,legacy,1024,2,48000,-16,experiment,SSSSS,3,odd,46116,268469,NA,362725,NA,396816,3299,197279,NA,373509,3292,397964,398068,398406,397959,398067,Flankertask2,147,80191,153,yes,1024
96.1038961,96.1038961,522.7922078,522.7922078,black,legacy,legacy,legacy,0,incongruent,uniform,1,undefined,1,s,0,0,0,153,0,153,0,0,0,153,0,153,153,153,153,153,9/19/19 17:20,600,The main experiment item,yes,Flankertask2.osexp,C:/Users/Carolyn/OneDrive,no,mono,no,18,no,white,no,yes,768,legacy,73,79,C:/Users/Carolyn/OneDrive/cp-subject-3.csv,legacy,Kafkaesque Koffka,3.2.8,0,s,NA,s,h,NA,s,319,NA,42816,71187,NA,319,2,legacy,1024,2,48000,-16,experiment,HHSHH,3,odd,46116,268469,NA,362725,NA,398434,3299,197279,NA,373509,3292,399580,399684,400006,399576,399684,Flankertask2,148,80510,154,yes,1024
96.12903226,96.12903226,521.7419355,521.7419355,black,legacy,legacy,legacy,0,congruent,uniform,1,undefined,1,h,0,0,0,154,0,154,0,0,0,154,0,154,154,154,154,154,9/19/19 17:20,600,The main experiment item,yes,Flankertask2.osexp,C:/Users/Carolyn/OneDrive,no,mono,no,18,no,white,no,yes,768,legacy,74,79,C:/Users/Carolyn/OneDrive/cp-subject-3.csv,legacy,Kafkaesque Koffka,3.2.8,0,h,NA,s,h,NA,h,360,NA,42816,71187,NA,360,2,legacy,1024,2,48000,-16,experiment,HHHHH,3,odd,46116,268469,NA,362725,NA,400033,3299,197279,NA,373509,3292,401179,401283,401646,401175,401282,Flankertask2,149,80870,155,yes,1024
96.15384615,96.15384615,520.9935897,520.9935897,black,legacy,legacy,legacy,0,congruent,uniform,1,undefined,1,h,0,0,0,155,0,155,0,0,0,155,0,155,155,155,155,155,9/19/19 17:20,600,The main experiment item,yes,Flankertask2.osexp,C:/Users/Carolyn/OneDrive,no,mono,no,18,no,white,no,yes,768,legacy,75,79,C:/Users/Carolyn/OneDrive/cp-subject-3.csv,legacy,Kafkaesque Koffka,3.2.8,0,h,NA,s,h,NA,h,405,NA,42816,71187,NA,405,2,legacy,1024,2,48000,-16,experiment,HHHHH,3,odd,46116,268469,NA,362725,NA,401675,3299,197279,NA,373509,3292,402823,402926,403334,402818,402926,Flankertask2,150,81275,156,yes,1024
96.17834395,96.17834395,520.2802548,520.2802548,black,legacy,legacy,legacy,0,incongruent,uniform,1,undefined,1,h,0,0,0,156,0,156,0,0,0,156,0,156,156,156,156,156,9/19/19 17:20,600,The main experiment item,yes,Flankertask2.osexp,C:/Users/Carolyn/OneDrive,no,mono,no,18,no,white,no,yes,768,legacy,76,79,C:/Users/Carolyn/OneDrive/cp-subject-3.csv,legacy,Kafkaesque Koffka,3.2.8,0,h,NA,s,h,NA,h,409,NA,42816,71187,NA,409,2,legacy,1024,2,48000,-16,experiment,SSHSS,3,odd,46116,268469,NA,362725,NA,403366,3299,197279,NA,373509,3292,404515,404618,405030,404510,404618,Flankertask2,151,81684,157,yes,1024
96.20253165,96.20253165,519.1962025,519.1962025,black,legacy,legacy,legacy,0,incongruent,uniform,1,undefined,1,h,0,0,0,157,0,157,0,0,0,157,0,157,157,157,157,157,9/19/19 17:20,600,The main experiment item,yes,Flankertask2.osexp,C:/Users/Carolyn/OneDrive,no,mono,no,18,no,white,no,yes,768,legacy,77,79,C:/Users/Carolyn/OneDrive/cp-subject-3.csv,legacy,Kafkaesque Koffka,3.2.8,0,h,NA,s,h,NA,h,349,NA,42816,71187,NA,349,2,legacy,1024,2,48000,-16,experiment,SSHSS,3,odd,46116,268469,NA,362725,NA,405059,3299,197279,NA,373509,3292,406206,406310,406662,406201,406309,Flankertask2,152,82033,158,yes,1024
96.22641509,96.22641509,518.5849057,518.5849057,black,legacy,legacy,legacy,0,congruent,uniform,1,undefined,1,h,0,0,0,158,0,158,0,0,0,158,0,158,158,158,158,158,9/19/19 17:20,600,The main experiment item,yes,Flankertask2.osexp,C:/Users/Carolyn/OneDrive,no,mono,no,18,no,white,no,yes,768,legacy,78,79,C:/Users/Carolyn/OneDrive/cp-subject-3.csv,legacy,Kafkaesque Koffka,3.2.8,0,h,NA,s,h,NA,h,422,NA,42816,71187,NA,422,2,legacy,1024,2,48000,-16,experiment,HHHHH,3,odd,46116,268469,NA,362725,NA,406692,3299,197279,NA,373509,3292,407838,407941,408366,407834,407941,Flankertask2,153,82455,159,yes,1024
96.25,96.25,517.84375,517.84375,black,legacy,legacy,legacy,0,incongruent,uniform,1,undefined,1,h,0,0,0,159,0,159,0,0,0,159,0,159,159,159,159,159,9/19/19 17:20,600,The main experiment item,yes,Flankertask2.osexp,C:/Users/Carolyn/OneDrive,no,mono,no,18,no,white,no,yes,768,legacy,79,79,C:/Users/Carolyn/OneDrive/cp-subject-3.csv,legacy,Kafkaesque Koffka,3.2.8,0,h,NA,s,h,NA,h,400,NA,42816,71187,NA,400,2,legacy,1024,2,48000,-16,experiment,SSHSS,3,odd,46116,268469,NA,362725,NA,408391,3299,197279,NA,373509,3292,409540,409643,410046,409535,409643,Flankertask2,154,82855,160,yes,1024
96.27329193,96.27329193,517.8136646,517.8136646,black,legacy,legacy,legacy,0,congruent,uniform,1,undefined,1,h,0,0,0,160,0,160,0,0,0,160,0,160,160,160,160,160,9/19/19 17:20,300,The main experiment item,yes,Flankertask2.osexp,C:/Users/Carolyn/OneDrive,no,mono,no,18,no,white,no,yes,768,legacy,0,79,C:/Users/Carolyn/OneDrive/cp-subject-3.csv,legacy,Kafkaesque Koffka,3.2.8,0,h,NA,s,h,h,h,513,NA,42816,71187,55300,513,2,legacy,1024,2,48000,-16,experiment,HHHHH,3,odd,46116,268469,466407,362725,NA,410075,3299,197279,411103,373509,3292,466547,466650,467166,466543,466650,Flankertask2,155,83368,161,yes,1024
96.2962963,96.2962963,517.1049383,517.1049383,black,legacy,legacy,legacy,0,congruent,uniform,1,undefined,1,s,0,0,0,161,0,161,0,0,0,161,0,161,161,161,161,161,9/19/19 17:20,300,The main experiment item,yes,Flankertask2.osexp,C:/Users/Carolyn/OneDrive,no,mono,no,18,no,white,no,yes,768,legacy,1,79,C:/Users/Carolyn/OneDrive/cp-subject-3.csv,legacy,Kafkaesque Koffka,3.2.8,0,s,NA,s,h,h,s,403,NA,42816,71187,55300,403,2,legacy,1024,2,48000,-16,experiment,SSSSS,3,odd,46116,268469,466407,467208,NA,467711,3299,197279,411103,373509,3292,468857,468960,469367,468853,468960,Flankertask2,156,83771,162,yes,1024
96.3190184,96.3190184,516.5582822,516.5582822,black,legacy,legacy,legacy,0,congruent,uniform,1,undefined,1,h,0,0,0,162,0,162,0,0,0,162,0,162,162,162,162,162,9/19/19 17:20,300,The main experiment item,yes,Flankertask2.osexp,C:/Users/Carolyn/OneDrive,no,mono,no,18,no,white,no,yes,768,legacy,2,79,C:/Users/Carolyn/OneDrive/cp-subject-3.csv,legacy,Kafkaesque Koffka,3.2.8,0,h,NA,s,h,h,h,428,NA,42816,71187,55300,428,2,legacy,1024,2,48000,-16,experiment,HHHHH,3,odd,46116,268469,466407,469399,NA,469902,3299,197279,411103,373509,3292,471047,471151,471583,471042,471150,Flankertask2,157,84199,163,yes,1024
96.34146341,96.34146341,515.7439024,515.7439024,black,legacy,legacy,legacy,0,congruent,uniform,1,undefined,1,h,0,0,0,163,0,163,0,0,0,163,0,163,163,163,163,163,9/19/19 17:20,300,The main experiment item,yes,Flankertask2.osexp,C:/Users/Carolyn/OneDrive,no,mono,no,18,no,white,no,yes,768,legacy,3,79,C:/Users/Carolyn/OneDrive/cp-subject-3.csv,legacy,Kafkaesque Koffka,3.2.8,0,h,NA,s,h,h,h,383,NA,42816,71187,55300,383,2,legacy,1024,2,48000,-16,experiment,HHHHH,3,odd,46116,268469,466407,471608,NA,472111,3299,197279,411103,373509,3292,473260,473364,473751,473256,473363,Flankertask2,158,84582,164,yes,1024
96.36363636,96.36363636,515.0484848,515.0484848,black,legacy,legacy,legacy,0,congruent,uniform,1,undefined,1,s,0,0,0,164,0,164,0,0,0,164,0,164,164,164,164,164,9/19/19 17:20,300,The main experiment item,yes,Flankertask2.osexp,C:/Users/Carolyn/OneDrive,no,mono,no,18,no,white,no,yes,768,legacy,4,79,C:/Users/Carolyn/OneDrive/cp-subject-3.csv,legacy,Kafkaesque Koffka,3.2.8,0,s,NA,s,h,h,s,401,NA,42816,71187,55300,401,2,legacy,1024,2,48000,-16,experiment,SSSSS,3,odd,46116,268469,466407,473791,NA,474294,3299,197279,411103,373509,3292,475442,475546,475951,475437,475545,Flankertask2,159,84983,165,yes,1024
96.38554217,96.38554217,513.9156627,513.9156627,black,legacy,legacy,legacy,0,congruent,uniform,1,undefined,1,h,0,0,0,165,0,165,0,0,0,165,0,165,165,165,165,165,9/19/19 17:20,300,The main experiment item,yes,Flankertask2.osexp,C:/Users/Carolyn/OneDrive,no,mono,no,18,no,white,no,yes,768,legacy,5,79,C:/Users/Carolyn/OneDrive/cp-subject-3.csv,legacy,Kafkaesque Koffka,3.2.8,0,h,NA,s,h,h,h,327,NA,42816,71187,55300,327,2,legacy,1024,2,48000,-16,experiment,HHHHH,3,odd,46116,268469,466407,475996,NA,476499,3299,197279,411103,373509,3292,477645,477748,478079,477641,477748,Flankertask2,160,85310,166,yes,1024
95.80838323,95.80838323,513.2634731,513.2634731,black,legacy,legacy,legacy,0,incongruent,uniform,0,undefined,0,h,0,0,0,166,0,166,0,0,0,166,0,166,166,166,166,166,9/19/19 17:20,300,The main experiment item,yes,Flankertask2.osexp,C:/Users/Carolyn/OneDrive,no,mono,no,18,no,white,no,yes,768,legacy,6,79,C:/Users/Carolyn/OneDrive/cp-subject-3.csv,legacy,Kafkaesque Koffka,3.2.8,0,s,NA,s,h,h,s,405,NA,42816,71187,55300,405,2,legacy,1024,2,48000,-16,experiment,SSHSS,3,odd,46116,268469,466407,478141,NA,478644,3299,197279,411103,373509,3292,479789,479894,480303,479785,479893,Flankertask2,160,85715,167,yes,1024
95.23809524,95.23809524,512.5297619,512.5297619,black,legacy,legacy,legacy,0,incongruent,uniform,0,undefined,0,h,0,0,0,167,0,167,0,0,0,167,0,167,167,167,167,167,9/19/19 17:20,300,The main experiment item,yes,Flankertask2.osexp,C:/Users/Carolyn/OneDrive,no,mono,no,18,no,white,no,yes,768,legacy,7,79,C:/Users/Carolyn/OneDrive/cp-subject-3.csv,legacy,Kafkaesque Koffka,3.2.8,0,s,NA,s,h,h,s,390,NA,42816,71187,55300,390,2,legacy,1024,2,48000,-16,experiment,SSHSS,3,odd,46116,268469,466407,480836,NA,481340,3299,197279,411103,480333,3292,482485,482589,482983,482480,482588,Flankertask2,160,86105,168,yes,1024
95.26627219,95.26627219,511.2189349,511.2189349,black,legacy,legacy,legacy,0,incongruent,uniform,1,undefined,1,s,0,0,0,168,0,168,0,0,0,168,0,168,168,168,168,168,9/19/19 17:20,300,The main experiment item,yes,Flankertask2.osexp,C:/Users/Carolyn/OneDrive,no,mono,no,18,no,white,no,yes,768,legacy,8,79,C:/Users/Carolyn/OneDrive/cp-subject-3.csv,legacy,Kafkaesque Koffka,3.2.8,0,s,NA,s,h,h,s,291,NA,42816,71187,55300,291,2,legacy,1024,2,48000,-16,experiment,HHSHH,3,odd,46116,268469,466407,483527,NA,484031,3299,197279,411103,483024,3292,485177,485280,485575,485173,485280,Flankertask2,161,86396,169,yes,1024
94.70588235,94.70588235,510.1529412,510.1529412,black,legacy,legacy,legacy,0,incongruent,uniform,0,undefined,0,s,0,0,0,169,0,169,0,0,0,169,0,169,169,169,169,169,9/19/19 17:20,300,The main experiment item,yes,Flankertask2.osexp,C:/Users/Carolyn/OneDrive,no,mono,no,18,no,white,no,yes,768,legacy,9,79,C:/Users/Carolyn/OneDrive/cp-subject-3.csv,legacy,Kafkaesque Koffka,3.2.8,0,h,NA,s,h,h,h,330,NA,42816,71187,55300,330,2,legacy,1024,2,48000,-16,experiment,HHSHH,3,odd,46116,268469,466407,483527,NA,485616,3299,197279,411103,483024,3292,486761,486865,487199,486757,486865,Flankertask2,161,86726,170,yes,1024
