acc,accuracy,average_response_time,avg_rt,background,canvas_backend,clock_backend,color_backend,compensation,condition,coordinates,correct,correct_instructions1,correct_keyboard_response,correct_response,count_Block1,count_Block2,count_Block3,count_ISI,count_errorFeedback,count_experiment,count_faster,count_finish,count_fixation,count_instructions1,count_instructions2,count_instructions3,count_keyboard_response,count_logger,count_sequence,count_stimulus,datetime,deadline,description,disable_garbage_collection,experiment_file,experiment_path,font_bold,font_family,font_italic,font_size,font_underline,foreground,form_clicks,fullscreen,height,keyboard_backend,live_row,live_row_Block1,logfile,mouse_backend,opensesame_codename,opensesame_version,repeat_cycle,response,response_finish,response_instructions1,response_instructions2,response_instructions3,response_keyboard_response,response_time,response_time_finish,response_time_instructions1,response_time_instructions2,response_time_instructions3,response_time_keyboard_response,round_decimals,sampler_backend,sound_buf_size,sound_channels,sound_freq,sound_sample_size,start,stimulus,subject_nr,subject_parity,time_Block1,time_Block2,time_Block3,time_ISI,time_errorFeedback,time_experiment,time_faster,time_finish,time_fixation,time_instructions1,time_instructions2,time_instructions3,time_keyboard_response,time_logger,time_sequence,time_stimulus,title,total_correct,total_response_time,total_responses,uniform_coordinates,width
0,0,1500,1500,black,legacy,legacy,legacy,0,incongruent,uniform,0,undefined,0,s,0,0,0,0,0,0,0,0,0,0,0,0,0,0,0,0,9/29/19 19:57,1500,The main experiment item,yes,FlankerExperiment.osexp,E:\Classwork\AQMAED,no,mono,no,18,no,white,no,yes,768,legacy,0,0,E:/Classwork/AQMAED/SB-subject-2.csv,legacy,Kafkaesque Koffka,3.2.8,0,None,NA,s,NA,NA,None,1500,NA,66229,NA,NA,1500,2,legacy,1024,2,48000,-16,experiment,HHSHH,2,even,68961,NA,NA,NA,NA,2728,NA,NA,69083,2731,NA,NA,69186,70686,69081,69186,Flanker Experiment,0,1500,1,yes,1024
0,0,1500,1500,black,legacy,legacy,legacy,0,incongruent,uniform,0,undefined,0,s,0,0,0,1,1,0,1,0,1,0,0,0,1,1,1,1,9/29/19 19:57,1500,The main experiment item,yes,FlankerExperiment.osexp,E:\Classwork\AQMAED,no,mono,no,18,no,white,no,yes,768,legacy,1,1,E:/Classwork/AQMAED/SB-subject-2.csv,legacy,Kafkaesque Koffka,3.2.8,0,None,NA,s,NA,NA,None,1500,NA,66229,NA,NA,1500,2,legacy,1024,2,48000,-16,experiment,HHSHH,2,even,68961,NA,NA,71218,70715,2728,NA,NA,72338,2731,NA,NA,72442,73942,72336,72442,Flanker Experiment,0,3000,2,yes,1024
33.33333333,33.33333333,1276.666667,1276.666667,black,legacy,legacy,legacy,0,congruent,uniform,1,undefined,1,s,0,0,0,2,2,0,2,0,2,0,0,0,2,2,2,2,9/29/19 19:57,1500,The main experiment item,yes,FlankerExperiment.osexp,E:\Classwork\AQMAED,no,mono,no,18,no,white,no,yes,768,legacy,2,2,E:/Classwork/AQMAED/SB-subject-2.csv,legacy,Kafkaesque Koffka,3.2.8,0,s,NA,s,NA,NA,s,830,NA,66229,NA,NA,830,2,legacy,1024,2,48000,-16,experiment,SSSSS,2,even,68961,NA,NA,74459,73955,2728,NA,NA,75540,2731,NA,NA,75641,76471,75537,75641,Flanker Experiment,1,3830,3,yes,1024
50,50,1128.75,1128.75,black,legacy,legacy,legacy,0,incongruent,uniform,1,undefined,1,s,0,0,0,3,3,0,3,0,3,0,0,0,3,3,3,3,9/29/19 19:57,1500,The main experiment item,yes,FlankerExperiment.osexp,E:\Classwork\AQMAED,no,mono,no,18,no,white,no,yes,768,legacy,3,3,E:/Classwork/AQMAED/SB-subject-2.csv,legacy,Kafkaesque Koffka,3.2.8,0,s,NA,s,NA,NA,s,685,NA,66229,NA,NA,685,2,legacy,1024,2,48000,-16,experiment,HHSHH,2,even,68961,NA,NA,76476,73955,2728,NA,NA,77565,2731,NA,NA,77668,78353,77563,77668,Flanker Experiment,2,4515,4,yes,1024
60,60,1056,1056,black,legacy,legacy,legacy,0,incongruent,uniform,1,undefined,1,s,0,0,0,4,4,0,4,0,4,0,0,0,4,4,4,4,9/29/19 19:57,1500,The main experiment item,yes,FlankerExperiment.osexp,E:\Classwork\AQMAED,no,mono,no,18,no,white,no,yes,768,legacy,4,4,E:/Classwork/AQMAED/SB-subject-2.csv,legacy,Kafkaesque Koffka,3.2.8,0,s,NA,s,NA,NA,s,765,NA,66229,NA,NA,765,2,legacy,1024,2,48000,-16,experiment,HHSHH,2,even,68961,NA,NA,78362,73955,2728,NA,NA,79456,2731,NA,NA,79560,80326,79454,79560,Flanker Experiment,3,5280,5,yes,1024
66.66666667,66.66666667,969,969,black,legacy,legacy,legacy,0,incongruent,uniform,1,undefined,1,s,0,0,0,5,5,0,5,0,5,0,0,0,5,5,5,5,9/29/19 19:57,1500,The main experiment item,yes,FlankerExperiment.osexp,E:\Classwork\AQMAED,no,mono,no,18,no,white,no,yes,768,legacy,5,5,E:/Classwork/AQMAED/SB-subject-2.csv,legacy,Kafkaesque Koffka,3.2.8,0,s,NA,s,NA,NA,s,534,NA,66229,NA,NA,534,2,legacy,1024,2,48000,-16,experiment,HHSHH,2,even,68961,NA,NA,80332,73955,2728,NA,NA,81444,2731,NA,NA,81547,82081,81442,81547,Flanker Experiment,4,5814,6,yes,1024
71.42857143,71.42857143,910.2857143,910.2857143,black,legacy,legacy,legacy,0,congruent,uniform,1,undefined,1,h,0,0,0,6,6,0,6,0,6,0,0,0,6,6,6,6,9/29/19 19:57,1500,The main experiment item,yes,FlankerExperiment.osexp,E:\Classwork\AQMAED,no,mono,no,18,no,white,no,yes,768,legacy,6,6,E:/Classwork/AQMAED/SB-subject-2.csv,legacy,Kafkaesque Koffka,3.2.8,0,h,NA,s,NA,NA,h,558,NA,66229,NA,NA,558,2,legacy,1024,2,48000,-16,experiment,HHHHH,2,even,68961,NA,NA,82090,73955,2728,NA,NA,83175,2731,NA,NA,83279,83838,83172,83279,Flanker Experiment,5,6372,7,yes,1024
75,75,882.625,882.625,black,legacy,legacy,legacy,0,incongruent,uniform,1,undefined,1,h,0,0,0,7,7,0,7,0,7,0,0,0,7,7,7,7,9/29/19 19:57,1500,The main experiment item,yes,FlankerExperiment.osexp,E:\Classwork\AQMAED,no,mono,no,18,no,white,no,yes,768,legacy,7,7,E:/Classwork/AQMAED/SB-subject-2.csv,legacy,Kafkaesque Koffka,3.2.8,0,h,NA,s,NA,NA,h,689,NA,66229,NA,NA,689,2,legacy,1024,2,48000,-16,experiment,SSHSS,2,even,68961,NA,NA,83845,73955,2728,NA,NA,84941,2731,NA,NA,85046,85735,84939,85045,Flanker Experiment,6,7061,8,yes,1024
77.77777778,77.77777778,842.7777778,842.7777778,black,legacy,legacy,legacy,0,congruent,uniform,1,undefined,1,h,0,0,0,8,8,0,8,0,8,0,0,0,8,8,8,8,9/29/19 19:57,1500,The main experiment item,yes,FlankerExperiment.osexp,E:\Classwork\AQMAED,no,mono,no,18,no,white,no,yes,768,legacy,8,8,E:/Classwork/AQMAED/SB-subject-2.csv,legacy,Kafkaesque Koffka,3.2.8,0,h,NA,s,NA,NA,h,524,NA,66229,NA,NA,524,2,legacy,1024,2,48000,-16,experiment,HHHHH,2,even,68961,NA,NA,85744,73955,2728,NA,NA,86827,2731,NA,NA,86932,87456,86825,86932,Flanker Experiment,7,7585,9,yes,1024
80,80,804.7,804.7,black,legacy,legacy,legacy,0,congruent,uniform,1,undefined,1,h,0,0,0,9,9,0,9,0,9,0,0,0,9,9,9,9,9/29/19 19:57,1500,The main experiment item,yes,FlankerExperiment.osexp,E:\Classwork\AQMAED,no,mono,no,18,no,white,no,yes,768,legacy,9,9,E:/Classwork/AQMAED/SB-subject-2.csv,legacy,Kafkaesque Koffka,3.2.8,0,h,NA,s,NA,NA,h,462,NA,66229,NA,NA,462,2,legacy,1024,2,48000,-16,experiment,HHHHH,2,even,68961,NA,NA,87464,73955,2728,NA,NA,88557,2731,NA,NA,88661,89123,88555,88661,Flanker Experiment,8,8047,10,yes,1024
81.81818182,81.81818182,777.2727273,777.2727273,black,legacy,legacy,legacy,0,congruent,uniform,1,undefined,1,h,0,0,0,10,10,0,10,0,10,0,0,0,10,10,10,10,9/29/19 19:57,1500,The main experiment item,yes,FlankerExperiment.osexp,E:\Classwork\AQMAED,no,mono,no,18,no,white,no,yes,768,legacy,10,10,E:/Classwork/AQMAED/SB-subject-2.csv,legacy,Kafkaesque Koffka,3.2.8,0,h,NA,s,NA,NA,h,503,NA,66229,NA,NA,503,2,legacy,1024,2,48000,-16,experiment,HHHHH,2,even,68961,NA,NA,89137,73955,2728,NA,NA,90223,2731,NA,NA,90328,90831,90221,90328,Flanker Experiment,9,8550,11,yes,1024
83.33333333,83.33333333,768.5833333,768.5833333,black,legacy,legacy,legacy,0,incongruent,uniform,1,undefined,1,h,0,0,0,11,11,0,11,0,11,0,0,0,11,11,11,11,9/29/19 19:57,1500,The main experiment item,yes,FlankerExperiment.osexp,E:\Classwork\AQMAED,no,mono,no,18,no,white,no,yes,768,legacy,11,11,E:/Classwork/AQMAED/SB-subject-2.csv,legacy,Kafkaesque Koffka,3.2.8,0,h,NA,s,NA,NA,h,673,NA,66229,NA,NA,673,2,legacy,1024,2,48000,-16,experiment,SSHSS,2,even,68961,NA,NA,90846,73955,2728,NA,NA,91941,2731,NA,NA,92043,92717,91939,92043,Flanker Experiment,10,9223,12,yes,1024
84.61538462,84.61538462,747.9230769,747.9230769,black,legacy,legacy,legacy,0,incongruent,uniform,1,undefined,1,s,0,0,0,12,12,0,12,0,12,0,0,0,12,12,12,12,9/29/19 19:57,1500,The main experiment item,yes,FlankerExperiment.osexp,E:\Classwork\AQMAED,no,mono,no,18,no,white,no,yes,768,legacy,12,12,E:/Classwork/AQMAED/SB-subject-2.csv,legacy,Kafkaesque Koffka,3.2.8,0,s,NA,s,NA,NA,s,500,NA,66229,NA,NA,500,2,legacy,1024,2,48000,-16,experiment,HHSHH,2,even,68961,NA,NA,92727,73955,2728,NA,NA,93809,2731,NA,NA,93913,94413,93807,93912,Flanker Experiment,11,9723,13,yes,1024
85.71428571,85.71428571,737.1428571,737.1428571,black,legacy,legacy,legacy,0,congruent,uniform,1,undefined,1,s,0,0,0,13,13,0,13,0,13,0,0,0,13,13,13,13,9/29/19 19:57,1500,The main experiment item,yes,FlankerExperiment.osexp,E:\Classwork\AQMAED,no,mono,no,18,no,white,no,yes,768,legacy,13,13,E:/Classwork/AQMAED/SB-subject-2.csv,legacy,Kafkaesque Koffka,3.2.8,0,s,NA,s,NA,NA,s,597,NA,66229,NA,NA,597,2,legacy,1024,2,48000,-16,experiment,SSSSS,2,even,68961,NA,NA,94425,73955,2728,NA,NA,95504,2731,NA,NA,95608,96206,95502,95608,Flanker Experiment,12,10320,14,yes,1024
86.66666667,86.66666667,721.1333333,721.1333333,black,legacy,legacy,legacy,0,incongruent,uniform,1,undefined,1,s,0,0,0,14,14,0,14,0,14,0,0,0,14,14,14,14,9/29/19 19:57,1500,The main experiment item,yes,FlankerExperiment.osexp,E:\Classwork\AQMAED,no,mono,no,18,no,white,no,yes,768,legacy,14,14,E:/Classwork/AQMAED/SB-subject-2.csv,legacy,Kafkaesque Koffka,3.2.8,0,s,NA,s,NA,NA,s,497,NA,66229,NA,NA,497,2,legacy,1024,2,48000,-16,experiment,HHSHH,2,even,68961,NA,NA,96210,73955,2728,NA,NA,97275,2731,NA,NA,97379,97876,97273,97379,Flanker Experiment,13,10817,15,yes,1024
87.5,87.5,709.3125,709.3125,black,legacy,legacy,legacy,0,incongruent,uniform,1,undefined,1,s,0,0,0,15,15,0,15,0,15,0,0,0,15,15,15,15,9/29/19 19:57,1500,The main experiment item,yes,FlankerExperiment.osexp,E:\Classwork\AQMAED,no,mono,no,18,no,white,no,yes,768,legacy,15,15,E:/Classwork/AQMAED/SB-subject-2.csv,legacy,Kafkaesque Koffka,3.2.8,0,s,NA,s,NA,NA,s,532,NA,66229,NA,NA,532,2,legacy,1024,2,48000,-16,experiment,HHSHH,2,even,68961,NA,NA,97886,73955,2728,NA,NA,98976,2731,NA,NA,99080,99613,98973,99080,Flanker Experiment,14,11349,16,yes,1024
88.23529412,88.23529412,706.8235294,706.8235294,black,legacy,legacy,legacy,0,incongruent,uniform,1,undefined,1,s,0,0,0,16,16,0,16,0,16,0,0,0,16,16,16,16,9/29/19 19:57,1500,The main experiment item,yes,FlankerExperiment.osexp,E:\Classwork\AQMAED,no,mono,no,18,no,white,no,yes,768,legacy,16,16,E:/Classwork/AQMAED/SB-subject-2.csv,legacy,Kafkaesque Koffka,3.2.8,0,s,NA,s,NA,NA,s,667,NA,66229,NA,NA,667,2,legacy,1024,2,48000,-16,experiment,HHSHH,2,even,68961,NA,NA,99623,73955,2728,NA,NA,100713,2731,NA,NA,100817,101484,100710,100817,Flanker Experiment,15,12016,17,yes,1024
88.88888889,88.88888889,695.4444444,695.4444444,black,legacy,legacy,legacy,0,congruent,uniform,1,undefined,1,s,0,0,0,17,17,0,17,0,17,0,0,0,17,17,17,17,9/29/19 19:57,1500,The main experiment item,yes,FlankerExperiment.osexp,E:\Classwork\AQMAED,no,mono,no,18,no,white,no,yes,768,legacy,17,17,E:/Classwork/AQMAED/SB-subject-2.csv,legacy,Kafkaesque Koffka,3.2.8,0,s,NA,s,NA,NA,s,502,NA,66229,NA,NA,502,2,legacy,1024,2,48000,-16,experiment,SSSSS,2,even,68961,NA,NA,101494,73955,2728,NA,NA,102574,2731,NA,NA,102678,103181,102572,102678,Flanker Experiment,16,12518,18,yes,1024
89.47368421,89.47368421,686,686,black,legacy,legacy,legacy,0,incongruent,uniform,1,undefined,1,s,0,0,0,18,18,0,18,0,18,0,0,0,18,18,18,18,9/29/19 19:57,1500,The main experiment item,yes,FlankerExperiment.osexp,E:\Classwork\AQMAED,no,mono,no,18,no,white,no,yes,768,legacy,18,18,E:/Classwork/AQMAED/SB-subject-2.csv,legacy,Kafkaesque Koffka,3.2.8,0,s,NA,s,NA,NA,s,516,NA,66229,NA,NA,516,2,legacy,1024,2,48000,-16,experiment,HHSHH,2,even,68961,NA,NA,103191,73955,2728,NA,NA,104277,2731,NA,NA,104381,104898,104275,104381,Flanker Experiment,17,13034,19,yes,1024
90,90,679.7,679.7,black,legacy,legacy,legacy,0,incongruent,uniform,1,undefined,1,h,0,0,0,19,19,0,19,0,19,0,0,0,19,19,19,19,9/29/19 19:57,1500,The main experiment item,yes,FlankerExperiment.osexp,E:\Classwork\AQMAED,no,mono,no,18,no,white,no,yes,768,legacy,19,19,E:/Classwork/AQMAED/SB-subject-2.csv,legacy,Kafkaesque Koffka,3.2.8,0,h,NA,s,NA,NA,h,560,NA,66229,NA,NA,560,2,legacy,1024,2,48000,-16,experiment,SSHSS,2,even,68961,NA,NA,104903,73955,2728,NA,NA,105990,2731,NA,NA,106093,106654,105988,106093,Flanker Experiment,18,13594,20,yes,1024
90.47619048,90.47619048,667.8571429,667.8571429,black,legacy,legacy,legacy,0,congruent,uniform,1,undefined,1,h,0,0,0,20,20,0,20,0,20,0,0,0,20,20,20,20,9/29/19 19:57,1500,The main experiment item,yes,FlankerExperiment.osexp,E:\Classwork\AQMAED,no,mono,no,18,no,white,no,yes,768,legacy,20,20,E:/Classwork/AQMAED/SB-subject-2.csv,legacy,Kafkaesque Koffka,3.2.8,0,h,NA,s,NA,NA,h,431,NA,66229,NA,NA,431,2,legacy,1024,2,48000,-16,experiment,HHHHH,2,even,68961,NA,NA,106696,73955,2728,NA,NA,107782,2731,NA,NA,107884,108315,107779,107884,Flanker Experiment,19,14025,21,yes,1024
90.90909091,90.90909091,662.4545455,662.4545455,black,legacy,legacy,legacy,0,congruent,uniform,1,undefined,1,s,0,0,0,21,21,0,21,0,21,0,0,0,21,21,21,21,9/29/19 19:57,1500,The main experiment item,yes,FlankerExperiment.osexp,E:\Classwork\AQMAED,no,mono,no,18,no,white,no,yes,768,legacy,21,21,E:/Classwork/AQMAED/SB-subject-2.csv,legacy,Kafkaesque Koffka,3.2.8,0,s,NA,s,NA,NA,s,549,NA,66229,NA,NA,549,2,legacy,1024,2,48000,-16,experiment,SSSSS,2,even,68961,NA,NA,108335,73955,2728,NA,NA,109427,2731,NA,NA,109532,110082,109425,109531,Flanker Experiment,20,14574,22,yes,1024
91.30434783,91.30434783,655.826087,655.826087,black,legacy,legacy,legacy,0,congruent,uniform,1,undefined,1,h,0,0,0,22,22,0,22,0,22,0,0,0,22,22,22,22,9/29/19 19:57,1500,The main experiment item,yes,FlankerExperiment.osexp,E:\Classwork\AQMAED,no,mono,no,18,no,white,no,yes,768,legacy,22,22,E:/Classwork/AQMAED/SB-subject-2.csv,legacy,Kafkaesque Koffka,3.2.8,0,h,NA,s,NA,NA,h,510,NA,66229,NA,NA,510,2,legacy,1024,2,48000,-16,experiment,HHHHH,2,even,68961,NA,NA,110092,73955,2728,NA,NA,111157,2731,NA,NA,111262,111773,111155,111262,Flanker Experiment,21,15084,23,yes,1024
91.66666667,91.66666667,645.375,645.375,black,legacy,legacy,legacy,0,congruent,uniform,1,undefined,1,s,0,0,0,23,23,0,23,0,23,0,0,0,23,23,23,23,9/29/19 19:57,1500,The main experiment item,yes,FlankerExperiment.osexp,E:\Classwork\AQMAED,no,mono,no,18,no,white,no,yes,768,legacy,23,23,E:/Classwork/AQMAED/SB-subject-2.csv,legacy,Kafkaesque Koffka,3.2.8,0,s,NA,s,NA,NA,s,405,NA,66229,NA,NA,405,2,legacy,1024,2,48000,-16,experiment,SSSSS,2,even,68961,NA,NA,111783,73955,2728,NA,NA,112879,2731,NA,NA,112984,113390,112876,112983,Flanker Experiment,22,15489,24,yes,1024
92,92,639.64,639.64,black,legacy,legacy,legacy,0,congruent,uniform,1,undefined,1,s,0,0,0,24,24,0,24,0,24,0,0,0,24,24,24,24,9/29/19 19:57,1500,The main experiment item,yes,FlankerExperiment.osexp,E:\Classwork\AQMAED,no,mono,no,18,no,white,no,yes,768,legacy,24,24,E:/Classwork/AQMAED/SB-subject-2.csv,legacy,Kafkaesque Koffka,3.2.8,0,s,NA,s,NA,NA,s,502,NA,66229,NA,NA,502,2,legacy,1024,2,48000,-16,experiment,SSSSS,2,even,68961,NA,NA,113400,73955,2728,NA,NA,114484,2731,NA,NA,114588,115091,114481,114588,Flanker Experiment,23,15991,25,yes,1024
92.30769231,92.30769231,631.3076923,631.3076923,black,legacy,legacy,legacy,0,congruent,uniform,1,undefined,1,h,0,0,0,25,25,0,25,0,25,0,0,0,25,25,25,25,9/29/19 19:57,1500,The main experiment item,yes,FlankerExperiment.osexp,E:\Classwork\AQMAED,no,mono,no,18,no,white,no,yes,768,legacy,25,25,E:/Classwork/AQMAED/SB-subject-2.csv,legacy,Kafkaesque Koffka,3.2.8,0,h,NA,s,NA,NA,h,423,NA,66229,NA,NA,423,2,legacy,1024,2,48000,-16,experiment,HHHHH,2,even,68961,NA,NA,115103,73955,2728,NA,NA,116169,2731,NA,NA,116274,116698,116167,116273,Flanker Experiment,24,16414,26,yes,1024
92.59259259,92.59259259,628.6296296,628.6296296,black,legacy,legacy,legacy,0,congruent,uniform,1,undefined,1,h,0,0,0,26,26,0,26,0,26,0,0,0,26,26,26,26,9/29/19 19:57,1500,The main experiment item,yes,FlankerExperiment.osexp,E:\Classwork\AQMAED,no,mono,no,18,no,white,no,yes,768,legacy,26,26,E:/Classwork/AQMAED/SB-subject-2.csv,legacy,Kafkaesque Koffka,3.2.8,0,h,NA,s,NA,NA,h,559,NA,66229,NA,NA,559,2,legacy,1024,2,48000,-16,experiment,HHHHH,2,even,68961,NA,NA,116709,73955,2728,NA,NA,117794,2731,NA,NA,117899,118459,117792,117899,Flanker Experiment,25,16973,27,yes,1024
89.28571429,89.28571429,620.7857143,620.7857143,black,legacy,legacy,legacy,0,incongruent,uniform,0,undefined,0,h,0,0,0,27,27,0,27,0,27,0,0,0,27,27,27,27,9/29/19 19:57,1500,The main experiment item,yes,FlankerExperiment.osexp,E:\Classwork\AQMAED,no,mono,no,18,no,white,no,yes,768,legacy,27,27,E:/Classwork/AQMAED/SB-subject-2.csv,legacy,Kafkaesque Koffka,3.2.8,0,s,NA,s,NA,NA,s,409,NA,66229,NA,NA,409,2,legacy,1024,2,48000,-16,experiment,SSHSS,2,even,68961,NA,NA,118469,73955,2728,NA,NA,119560,2731,NA,NA,119665,120075,119557,119664,Flanker Experiment,25,17382,28,yes,1024
89.65517241,89.65517241,616.7241379,616.7241379,black,legacy,legacy,legacy,0,congruent,uniform,1,undefined,1,h,0,0,0,28,28,0,28,0,28,0,0,0,28,28,28,28,9/29/19 19:57,1500,The main experiment item,yes,FlankerExperiment.osexp,E:\Classwork\AQMAED,no,mono,no,18,no,white,no,yes,768,legacy,28,28,E:/Classwork/AQMAED/SB-subject-2.csv,legacy,Kafkaesque Koffka,3.2.8,0,h,NA,s,NA,NA,h,503,NA,66229,NA,NA,503,2,legacy,1024,2,48000,-16,experiment,HHHHH,2,even,68961,NA,NA,120591,120086,2728,NA,NA,121672,2731,NA,NA,121773,122277,121669,121773,Flanker Experiment,26,17885,29,yes,1024
90,90,615.0333333,615.0333333,black,legacy,legacy,legacy,0,congruent,uniform,1,undefined,1,h,0,0,0,29,29,0,29,0,29,0,0,0,29,29,29,29,9/29/19 19:57,1500,The main experiment item,yes,FlankerExperiment.osexp,E:\Classwork\AQMAED,no,mono,no,18,no,white,no,yes,768,legacy,29,29,E:/Classwork/AQMAED/SB-subject-2.csv,legacy,Kafkaesque Koffka,3.2.8,0,h,NA,s,NA,NA,h,566,NA,66229,NA,NA,566,2,legacy,1024,2,48000,-16,experiment,HHHHH,2,even,68961,NA,NA,122287,120086,2728,NA,NA,123373,2731,NA,NA,123477,124043,123371,123476,Flanker Experiment,27,18451,30,yes,1024
90.32258065,90.32258065,612.1935484,612.1935484,black,legacy,legacy,legacy,0,incongruent,uniform,1,undefined,1,s,0,0,0,30,30,0,30,0,30,0,0,0,30,30,30,30,9/29/19 19:57,1500,The main experiment item,yes,FlankerExperiment.osexp,E:\Classwork\AQMAED,no,mono,no,18,no,white,no,yes,768,legacy,30,30,E:/Classwork/AQMAED/SB-subject-2.csv,legacy,Kafkaesque Koffka,3.2.8,0,s,NA,s,NA,NA,s,527,NA,66229,NA,NA,527,2,legacy,1024,2,48000,-16,experiment,HHSHH,2,even,68961,NA,NA,124049,120086,2728,NA,NA,125132,2731,NA,NA,125237,125766,125130,125236,Flanker Experiment,28,18978,31,yes,1024
90.625,90.625,608.5,608.5,black,legacy,legacy,legacy,0,congruent,uniform,1,undefined,1,s,0,0,0,31,31,0,31,0,31,0,0,0,31,31,31,31,9/29/19 19:57,1500,The main experiment item,yes,FlankerExperiment.osexp,E:\Classwork\AQMAED,no,mono,no,18,no,white,no,yes,768,legacy,31,31,E:/Classwork/AQMAED/SB-subject-2.csv,legacy,Kafkaesque Koffka,3.2.8,0,s,NA,s,NA,NA,s,494,NA,66229,NA,NA,494,2,legacy,1024,2,48000,-16,experiment,SSSSS,2,even,68961,NA,NA,125778,120086,2728,NA,NA,126863,2731,NA,NA,126968,127462,126861,126968,Flanker Experiment,29,19472,32,yes,1024
90.90909091,90.90909091,604,604,black,legacy,legacy,legacy,0,congruent,uniform,1,undefined,1,s,0,0,0,32,32,0,32,0,32,0,0,0,32,32,32,32,9/29/19 19:57,1500,The main experiment item,yes,FlankerExperiment.osexp,E:\Classwork\AQMAED,no,mono,no,18,no,white,no,yes,768,legacy,32,32,E:/Classwork/AQMAED/SB-subject-2.csv,legacy,Kafkaesque Koffka,3.2.8,0,s,NA,s,NA,NA,s,460,NA,66229,NA,NA,460,2,legacy,1024,2,48000,-16,experiment,SSSSS,2,even,68961,NA,NA,127471,120086,2728,NA,NA,128557,2731,NA,NA,128662,129123,128554,128661,Flanker Experiment,30,19932,33,yes,1024
88.23529412,88.23529412,599.9117647,599.9117647,black,legacy,legacy,legacy,0,incongruent,uniform,0,undefined,0,h,0,0,0,33,33,0,33,0,33,0,0,0,33,33,33,33,9/29/19 19:57,1500,The main experiment item,yes,FlankerExperiment.osexp,E:\Classwork\AQMAED,no,mono,no,18,no,white,no,yes,768,legacy,33,33,E:/Classwork/AQMAED/SB-subject-2.csv,legacy,Kafkaesque Koffka,3.2.8,0,s,NA,s,NA,NA,s,465,NA,66229,NA,NA,465,2,legacy,1024,2,48000,-16,experiment,SSHSS,2,even,68961,NA,NA,129134,120086,2728,NA,NA,130215,2731,NA,NA,130319,130784,130212,130319,Flanker Experiment,30,20397,34,yes,1024
88.57142857,88.57142857,608.2857143,608.2857143,black,legacy,legacy,legacy,0,congruent,uniform,1,undefined,1,s,0,0,0,34,34,0,34,0,34,0,0,0,34,34,34,34,9/29/19 19:57,1500,The main experiment item,yes,FlankerExperiment.osexp,E:\Classwork\AQMAED,no,mono,no,18,no,white,no,yes,768,legacy,34,34,E:/Classwork/AQMAED/SB-subject-2.csv,legacy,Kafkaesque Koffka,3.2.8,0,s,NA,s,NA,NA,s,893,NA,66229,NA,NA,893,2,legacy,1024,2,48000,-16,experiment,SSSSS,2,even,68961,NA,NA,131297,130794,2728,NA,NA,132388,2731,NA,NA,132492,133386,132386,132492,Flanker Experiment,31,21290,35,yes,1024
88.88888889,88.88888889,606.2222222,606.2222222,black,legacy,legacy,legacy,0,congruent,uniform,1,undefined,1,s,0,0,0,35,35,0,35,0,35,0,0,0,35,35,35,35,9/29/19 19:57,1500,The main experiment item,yes,FlankerExperiment.osexp,E:\Classwork\AQMAED,no,mono,no,18,no,white,no,yes,768,legacy,35,35,E:/Classwork/AQMAED/SB-subject-2.csv,legacy,Kafkaesque Koffka,3.2.8,0,s,NA,s,NA,NA,s,534,NA,66229,NA,NA,534,2,legacy,1024,2,48000,-16,experiment,SSSSS,2,even,68961,NA,NA,133391,130794,2728,NA,NA,134488,2731,NA,NA,134593,135128,134485,134592,Flanker Experiment,32,21824,36,yes,1024
89.18918919,89.18918919,603.5405405,603.5405405,black,legacy,legacy,legacy,0,congruent,uniform,1,undefined,1,h,0,0,0,36,36,0,36,0,36,0,0,0,36,36,36,36,9/29/19 19:57,1500,The main experiment item,yes,FlankerExperiment.osexp,E:\Classwork\AQMAED,no,mono,no,18,no,white,no,yes,768,legacy,36,36,E:/Classwork/AQMAED/SB-subject-2.csv,legacy,Kafkaesque Koffka,3.2.8,0,h,NA,s,NA,NA,h,507,NA,66229,NA,NA,507,2,legacy,1024,2,48000,-16,experiment,HHHHH,2,even,68961,NA,NA,135144,130794,2728,NA,NA,136216,2731,NA,NA,136321,136829,136214,136321,Flanker Experiment,33,22331,37,yes,1024
89.47368421,89.47368421,604.1842105,604.1842105,black,legacy,legacy,legacy,0,congruent,uniform,1,undefined,1,h,0,0,0,37,37,0,37,0,37,0,0,0,37,37,37,37,9/29/19 19:57,1500,The main experiment item,yes,FlankerExperiment.osexp,E:\Classwork\AQMAED,no,mono,no,18,no,white,no,yes,768,legacy,37,37,E:/Classwork/AQMAED/SB-subject-2.csv,legacy,Kafkaesque Koffka,3.2.8,0,h,NA,s,NA,NA,h,628,NA,66229,NA,NA,628,2,legacy,1024,2,48000,-16,experiment,HHHHH,2,even,68961,NA,NA,136841,130794,2728,NA,NA,137932,2731,NA,NA,138037,138665,137930,138036,Flanker Experiment,34,22959,38,yes,1024
89.74358974,89.74358974,602.2820513,602.2820513,black,legacy,legacy,legacy,0,incongruent,uniform,1,undefined,1,s,0,0,0,38,38,0,38,0,38,0,0,0,38,38,38,38,9/29/19 19:57,1500,The main experiment item,yes,FlankerExperiment.osexp,E:\Classwork\AQMAED,no,mono,no,18,no,white,no,yes,768,legacy,38,38,E:/Classwork/AQMAED/SB-subject-2.csv,legacy,Kafkaesque Koffka,3.2.8,0,s,NA,s,NA,NA,s,530,NA,66229,NA,NA,530,2,legacy,1024,2,48000,-16,experiment,HHSHH,2,even,68961,NA,NA,138674,130794,2728,NA,NA,139773,2731,NA,NA,139877,140408,139770,139876,Flanker Experiment,35,23489,39,yes,1024
90,90,603.475,603.475,black,legacy,legacy,legacy,0,incongruent,uniform,1,undefined,1,h,0,0,0,39,39,0,39,0,39,0,0,0,39,39,39,39,9/29/19 19:57,1500,The main experiment item,yes,FlankerExperiment.osexp,E:\Classwork\AQMAED,no,mono,no,18,no,white,no,yes,768,legacy,39,39,E:/Classwork/AQMAED/SB-subject-2.csv,legacy,Kafkaesque Koffka,3.2.8,0,h,NA,s,NA,NA,h,650,NA,66229,NA,NA,650,2,legacy,1024,2,48000,-16,experiment,SSHSS,2,even,68961,NA,NA,140414,130794,2728,NA,NA,141502,2731,NA,NA,141607,142258,141500,141606,Flanker Experiment,36,24139,40,yes,1024
90.24390244,90.24390244,601.0487805,601.0487805,black,legacy,legacy,legacy,0,incongruent,uniform,1,undefined,1,h,0,0,0,40,40,0,40,0,40,0,0,0,40,40,40,40,9/29/19 19:57,1500,The main experiment item,yes,FlankerExperiment.osexp,E:\Classwork\AQMAED,no,mono,no,18,no,white,no,yes,768,legacy,40,40,E:/Classwork/AQMAED/SB-subject-2.csv,legacy,Kafkaesque Koffka,3.2.8,0,h,NA,s,NA,NA,h,504,NA,66229,NA,NA,504,2,legacy,1024,2,48000,-16,experiment,SSHSS,2,even,68961,NA,NA,142268,130794,2728,NA,NA,143350,2731,NA,NA,143454,143959,143347,143454,Flanker Experiment,37,24643,41,yes,1024
90.47619048,90.47619048,598.5238095,598.5238095,black,legacy,legacy,legacy,0,incongruent,uniform,1,undefined,1,s,0,0,0,41,41,0,41,0,41,0,0,0,41,41,41,41,9/29/19 19:57,1500,The main experiment item,yes,FlankerExperiment.osexp,E:\Classwork\AQMAED,no,mono,no,18,no,white,no,yes,768,legacy,41,41,E:/Classwork/AQMAED/SB-subject-2.csv,legacy,Kafkaesque Koffka,3.2.8,0,s,NA,s,NA,NA,s,495,NA,66229,NA,NA,495,2,legacy,1024,2,48000,-16,experiment,HHSHH,2,even,68961,NA,NA,143966,130794,2728,NA,NA,145047,2731,NA,NA,145151,145647,145044,145151,Flanker Experiment,38,25138,42,yes,1024
90.69767442,90.69767442,595.6046512,595.6046512,black,legacy,legacy,legacy,0,congruent,uniform,1,undefined,1,h,0,0,0,42,42,0,42,0,42,0,0,0,42,42,42,42,9/29/19 19:57,1500,The main experiment item,yes,FlankerExperiment.osexp,E:\Classwork\AQMAED,no,mono,no,18,no,white,no,yes,768,legacy,42,42,E:/Classwork/AQMAED/SB-subject-2.csv,legacy,Kafkaesque Koffka,3.2.8,0,h,NA,s,NA,NA,h,473,NA,66229,NA,NA,473,2,legacy,1024,2,48000,-16,experiment,HHHHH,2,even,68961,NA,NA,145656,130794,2728,NA,NA,146740,2731,NA,NA,146844,147317,146738,146844,Flanker Experiment,39,25611,43,yes,1024
90.90909091,90.90909091,591.6363636,591.6363636,black,legacy,legacy,legacy,0,congruent,uniform,1,undefined,1,h,0,0,0,43,43,0,43,0,43,0,0,0,43,43,43,43,9/29/19 19:57,1500,The main experiment item,yes,FlankerExperiment.osexp,E:\Classwork\AQMAED,no,mono,no,18,no,white,no,yes,768,legacy,43,43,E:/Classwork/AQMAED/SB-subject-2.csv,legacy,Kafkaesque Koffka,3.2.8,0,h,NA,s,NA,NA,h,421,NA,66229,NA,NA,421,2,legacy,1024,2,48000,-16,experiment,HHHHH,2,even,68961,NA,NA,147323,130794,2728,NA,NA,148467,2731,NA,NA,148572,148994,148465,148571,Flanker Experiment,40,26032,44,yes,1024
91.11111111,91.11111111,588.5777778,588.5777778,black,legacy,legacy,legacy,0,congruent,uniform,1,undefined,1,s,0,0,0,44,44,0,44,0,44,0,0,0,44,44,44,44,9/29/19 19:57,1500,The main experiment item,yes,FlankerExperiment.osexp,E:\Classwork\AQMAED,no,mono,no,18,no,white,no,yes,768,legacy,44,44,E:/Classwork/AQMAED/SB-subject-2.csv,legacy,Kafkaesque Koffka,3.2.8,0,s,NA,s,NA,NA,s,454,NA,66229,NA,NA,454,2,legacy,1024,2,48000,-16,experiment,SSSSS,2,even,68961,NA,NA,149003,130794,2728,NA,NA,150087,2731,NA,NA,150191,150646,150084,150191,Flanker Experiment,41,26486,45,yes,1024
91.30434783,91.30434783,584.4347826,584.4347826,black,legacy,legacy,legacy,0,congruent,uniform,1,undefined,1,h,0,0,0,45,45,0,45,0,45,0,0,0,45,45,45,45,9/29/19 19:57,1500,The main experiment item,yes,FlankerExperiment.osexp,E:\Classwork\AQMAED,no,mono,no,18,no,white,no,yes,768,legacy,45,45,E:/Classwork/AQMAED/SB-subject-2.csv,legacy,Kafkaesque Koffka,3.2.8,0,h,NA,s,NA,NA,h,398,NA,66229,NA,NA,398,2,legacy,1024,2,48000,-16,experiment,HHHHH,2,even,68961,NA,NA,150652,130794,2728,NA,NA,151715,2731,NA,NA,151821,152220,151713,151821,Flanker Experiment,42,26884,46,yes,1024
91.4893617,91.4893617,582.2978723,582.2978723,black,legacy,legacy,legacy,0,incongruent,uniform,1,undefined,1,s,0,0,0,46,46,0,46,0,46,0,0,0,46,46,46,46,9/29/19 19:57,1500,The main experiment item,yes,FlankerExperiment.osexp,E:\Classwork\AQMAED,no,mono,no,18,no,white,no,yes,768,legacy,46,46,E:/Classwork/AQMAED/SB-subject-2.csv,legacy,Kafkaesque Koffka,3.2.8,0,s,NA,s,NA,NA,s,484,NA,66229,NA,NA,484,2,legacy,1024,2,48000,-16,experiment,HHSHH,2,even,68961,NA,NA,152225,130794,2728,NA,NA,153319,2731,NA,NA,153423,153908,153317,153423,Flanker Experiment,43,27368,47,yes,1024
91.66666667,91.66666667,579.0416667,579.0416667,black,legacy,legacy,legacy,0,incongruent,uniform,1,undefined,1,h,0,0,0,47,47,0,47,0,47,0,0,0,47,47,47,47,9/29/19 19:57,1500,The main experiment item,yes,FlankerExperiment.osexp,E:\Classwork\AQMAED,no,mono,no,18,no,white,no,yes,768,legacy,47,47,E:/Classwork/AQMAED/SB-subject-2.csv,legacy,Kafkaesque Koffka,3.2.8,0,h,NA,s,NA,NA,h,426,NA,66229,NA,NA,426,2,legacy,1024,2,48000,-16,experiment,SSHSS,2,even,68961,NA,NA,153917,130794,2728,NA,NA,155014,2731,NA,NA,155118,155544,155012,155118,Flanker Experiment,44,27794,48,yes,1024
91.83673469,91.83673469,575.8979592,575.8979592,black,legacy,legacy,legacy,0,congruent,uniform,1,undefined,1,s,0,0,0,48,48,0,48,0,48,0,0,0,48,48,48,48,9/29/19 19:57,1500,The main experiment item,yes,FlankerExperiment.osexp,E:\Classwork\AQMAED,no,mono,no,18,no,white,no,yes,768,legacy,48,48,E:/Classwork/AQMAED/SB-subject-2.csv,legacy,Kafkaesque Koffka,3.2.8,0,s,NA,s,NA,NA,s,425,NA,66229,NA,NA,425,2,legacy,1024,2,48000,-16,experiment,SSSSS,2,even,68961,NA,NA,155550,130794,2728,NA,NA,156645,2731,NA,NA,156750,157175,156643,156749,Flanker Experiment,45,28219,49,yes,1024
92,92,575.14,575.14,black,legacy,legacy,legacy,0,incongruent,uniform,1,undefined,1,s,0,0,0,49,49,0,49,0,49,0,0,0,49,49,49,49,9/29/19 19:57,1500,The main experiment item,yes,FlankerExperiment.osexp,E:\Classwork\AQMAED,no,mono,no,18,no,white,no,yes,768,legacy,49,49,E:/Classwork/AQMAED/SB-subject-2.csv,legacy,Kafkaesque Koffka,3.2.8,0,s,NA,s,NA,NA,s,538,NA,66229,NA,NA,538,2,legacy,1024,2,48000,-16,experiment,HHSHH,2,even,68961,NA,NA,157185,130794,2728,NA,NA,158267,2731,NA,NA,158373,158912,158265,158372,Flanker Experiment,46,28757,50,yes,1024
92.15686275,92.15686275,575.8235294,575.8235294,black,legacy,legacy,legacy,0,incongruent,uniform,1,undefined,1,s,0,0,0,50,50,0,50,0,50,0,0,0,50,50,50,50,9/29/19 19:57,1500,The main experiment item,yes,FlankerExperiment.osexp,E:\Classwork\AQMAED,no,mono,no,18,no,white,no,yes,768,legacy,50,50,E:/Classwork/AQMAED/SB-subject-2.csv,legacy,Kafkaesque Koffka,3.2.8,0,s,NA,s,NA,NA,s,610,NA,66229,NA,NA,610,2,legacy,1024,2,48000,-16,experiment,HHSHH,2,even,68961,NA,NA,158923,130794,2728,NA,NA,160012,2731,NA,NA,160116,160727,160009,160116,Flanker Experiment,47,29367,51,yes,1024
92.30769231,92.30769231,573.3653846,573.3653846,black,legacy,legacy,legacy,0,incongruent,uniform,1,undefined,1,h,0,0,0,51,51,0,51,0,51,0,0,0,51,51,51,51,9/29/19 19:57,1500,The main experiment item,yes,FlankerExperiment.osexp,E:\Classwork\AQMAED,no,mono,no,18,no,white,no,yes,768,legacy,51,51,E:/Classwork/AQMAED/SB-subject-2.csv,legacy,Kafkaesque Koffka,3.2.8,0,h,NA,s,NA,NA,h,448,NA,66229,NA,NA,448,2,legacy,1024,2,48000,-16,experiment,SSHSS,2,even,68961,NA,NA,160732,130794,2728,NA,NA,161827,2731,NA,NA,161931,162380,161826,161931,Flanker Experiment,48,29815,52,yes,1024
92.45283019,92.45283019,572.8867925,572.8867925,black,legacy,legacy,legacy,0,incongruent,uniform,1,undefined,1,s,0,0,0,52,52,0,52,0,52,0,0,0,52,52,52,52,9/29/19 19:57,1500,The main experiment item,yes,FlankerExperiment.osexp,E:\Classwork\AQMAED,no,mono,no,18,no,white,no,yes,768,legacy,52,52,E:/Classwork/AQMAED/SB-subject-2.csv,legacy,Kafkaesque Koffka,3.2.8,0,s,NA,s,NA,NA,s,548,NA,66229,NA,NA,548,2,legacy,1024,2,48000,-16,experiment,HHSHH,2,even,68961,NA,NA,162389,130794,2728,NA,NA,163463,2731,NA,NA,163568,164116,163461,163568,Flanker Experiment,49,30363,53,yes,1024
92.59259259,92.59259259,574.7962963,574.7962963,black,legacy,legacy,legacy,0,congruent,uniform,1,undefined,1,s,0,0,0,53,53,0,53,0,53,0,0,0,53,53,53,53,9/29/19 19:57,1500,The main experiment item,yes,FlankerExperiment.osexp,E:\Classwork\AQMAED,no,mono,no,18,no,white,no,yes,768,legacy,53,53,E:/Classwork/AQMAED/SB-subject-2.csv,legacy,Kafkaesque Koffka,3.2.8,0,s,NA,s,NA,NA,s,676,NA,66229,NA,NA,676,2,legacy,1024,2,48000,-16,experiment,SSSSS,2,even,68961,NA,NA,164123,130794,2728,NA,NA,165221,2731,NA,NA,165326,166003,165218,165326,Flanker Experiment,50,31039,54,yes,1024
92.72727273,92.72727273,571.8181818,571.8181818,black,legacy,legacy,legacy,0,congruent,uniform,1,undefined,1,h,0,0,0,54,54,0,54,0,54,0,0,0,54,54,54,54,9/29/19 19:57,1500,The main experiment item,yes,FlankerExperiment.osexp,E:\Classwork\AQMAED,no,mono,no,18,no,white,no,yes,768,legacy,54,54,E:/Classwork/AQMAED/SB-subject-2.csv,legacy,Kafkaesque Koffka,3.2.8,0,h,NA,s,NA,NA,h,411,NA,66229,NA,NA,411,2,legacy,1024,2,48000,-16,experiment,HHHHH,2,even,68961,NA,NA,166012,130794,2728,NA,NA,167095,2731,NA,NA,167199,167611,167093,167199,Flanker Experiment,51,31450,55,yes,1024
92.85714286,92.85714286,570.5357143,570.5357143,black,legacy,legacy,legacy,0,incongruent,uniform,1,undefined,1,s,0,0,0,55,55,0,55,0,55,0,0,0,55,55,55,55,9/29/19 19:57,1500,The main experiment item,yes,FlankerExperiment.osexp,E:\Classwork\AQMAED,no,mono,no,18,no,white,no,yes,768,legacy,55,55,E:/Classwork/AQMAED/SB-subject-2.csv,legacy,Kafkaesque Koffka,3.2.8,0,s,NA,s,NA,NA,s,500,NA,66229,NA,NA,500,2,legacy,1024,2,48000,-16,experiment,HHSHH,2,even,68961,NA,NA,167617,130794,2728,NA,NA,168715,2731,NA,NA,168820,169321,168713,168819,Flanker Experiment,52,31950,56,yes,1024
92.98245614,92.98245614,571.5438596,571.5438596,black,legacy,legacy,legacy,0,congruent,uniform,1,undefined,1,s,0,0,0,56,56,0,56,0,56,0,0,0,56,56,56,56,9/29/19 19:57,1500,The main experiment item,yes,FlankerExperiment.osexp,E:\Classwork\AQMAED,no,mono,no,18,no,white,no,yes,768,legacy,56,56,E:/Classwork/AQMAED/SB-subject-2.csv,legacy,Kafkaesque Koffka,3.2.8,0,s,NA,s,NA,NA,s,628,NA,66229,NA,NA,628,2,legacy,1024,2,48000,-16,experiment,SSSSS,2,even,68961,NA,NA,169327,130794,2728,NA,NA,170418,2731,NA,NA,170523,171152,170415,170522,Flanker Experiment,53,32578,57,yes,1024
93.10344828,93.10344828,570.0862069,570.0862069,black,legacy,legacy,legacy,0,incongruent,uniform,1,undefined,1,h,0,0,0,57,57,0,57,0,57,0,0,0,57,57,57,57,9/29/19 19:57,1500,The main experiment item,yes,FlankerExperiment.osexp,E:\Classwork\AQMAED,no,mono,no,18,no,white,no,yes,768,legacy,57,57,E:/Classwork/AQMAED/SB-subject-2.csv,legacy,Kafkaesque Koffka,3.2.8,0,h,NA,s,NA,NA,h,487,NA,66229,NA,NA,487,2,legacy,1024,2,48000,-16,experiment,SSHSS,2,even,68961,NA,NA,171161,130794,2728,NA,NA,172247,2731,NA,NA,172352,172839,172244,172351,Flanker Experiment,54,33065,58,yes,1024
93.22033898,93.22033898,567.8813559,567.8813559,black,legacy,legacy,legacy,0,congruent,uniform,1,undefined,1,s,0,0,0,58,58,0,58,0,58,0,0,0,58,58,58,58,9/29/19 19:57,1500,The main experiment item,yes,FlankerExperiment.osexp,E:\Classwork\AQMAED,no,mono,no,18,no,white,no,yes,768,legacy,58,58,E:/Classwork/AQMAED/SB-subject-2.csv,legacy,Kafkaesque Koffka,3.2.8,0,s,NA,s,NA,NA,s,440,NA,66229,NA,NA,440,2,legacy,1024,2,48000,-16,experiment,SSSSS,2,even,68961,NA,NA,172844,130794,2728,NA,NA,173943,2731,NA,NA,174049,174491,173941,174049,Flanker Experiment,55,33505,59,yes,1024
93.33333333,93.33333333,567.9,567.9,black,legacy,legacy,legacy,0,incongruent,uniform,1,undefined,1,h,0,0,0,59,59,0,59,0,59,0,0,0,59,59,59,59,9/29/19 19:57,1500,The main experiment item,yes,FlankerExperiment.osexp,E:\Classwork\AQMAED,no,mono,no,18,no,white,no,yes,768,legacy,59,59,E:/Classwork/AQMAED/SB-subject-2.csv,legacy,Kafkaesque Koffka,3.2.8,0,h,NA,s,NA,NA,h,569,NA,66229,NA,NA,569,2,legacy,1024,2,48000,-16,experiment,SSHSS,2,even,68961,NA,NA,174501,130794,2728,NA,NA,175587,2731,NA,NA,175692,176262,175585,175692,Flanker Experiment,56,34074,60,yes,1024
91.80327869,91.80327869,565.0655738,565.0655738,black,legacy,legacy,legacy,0,incongruent,uniform,0,undefined,0,h,0,0,0,60,60,0,60,0,60,0,0,0,60,60,60,60,9/29/19 19:57,1500,The main experiment item,yes,FlankerExperiment.osexp,E:\Classwork\AQMAED,no,mono,no,18,no,white,no,yes,768,legacy,60,60,E:/Classwork/AQMAED/SB-subject-2.csv,legacy,Kafkaesque Koffka,3.2.8,0,s,NA,s,NA,NA,s,395,NA,66229,NA,NA,395,2,legacy,1024,2,48000,-16,experiment,SSHSS,2,even,68961,NA,NA,176267,130794,2728,NA,NA,177343,2731,NA,NA,177448,177843,177341,177447,Flanker Experiment,56,34469,61,yes,1024
91.93548387,91.93548387,565.3387097,565.3387097,black,legacy,legacy,legacy,0,incongruent,uniform,1,undefined,1,h,0,0,0,61,61,0,61,0,61,0,0,0,61,61,61,61,9/29/19 19:57,1500,The main experiment item,yes,FlankerExperiment.osexp,E:\Classwork\AQMAED,no,mono,no,18,no,white,no,yes,768,legacy,61,61,E:/Classwork/AQMAED/SB-subject-2.csv,legacy,Kafkaesque Koffka,3.2.8,0,h,NA,s,NA,NA,h,582,NA,66229,NA,NA,582,2,legacy,1024,2,48000,-16,experiment,SSHSS,2,even,68961,NA,NA,178359,177857,2728,NA,NA,179459,2731,NA,NA,179563,180146,179457,179563,Flanker Experiment,57,35051,62,yes,1024
92.06349206,92.06349206,571.015873,571.015873,black,legacy,legacy,legacy,0,incongruent,uniform,1,undefined,1,h,0,0,0,62,62,0,62,0,62,0,0,0,62,62,62,62,9/29/19 19:57,1500,The main experiment item,yes,FlankerExperiment.osexp,E:\Classwork\AQMAED,no,mono,no,18,no,white,no,yes,768,legacy,62,62,E:/Classwork/AQMAED/SB-subject-2.csv,legacy,Kafkaesque Koffka,3.2.8,0,h,NA,s,NA,NA,h,923,NA,66229,NA,NA,923,2,legacy,1024,2,48000,-16,experiment,SSHSS,2,even,68961,NA,NA,180156,177857,2728,NA,NA,181233,2731,NA,NA,181338,182262,181230,181337,Flanker Experiment,58,35974,63,yes,1024
92.1875,92.1875,568.5625,568.5625,black,legacy,legacy,legacy,0,incongruent,uniform,1,undefined,1,s,0,0,0,63,63,0,63,0,63,0,0,0,63,63,63,63,9/29/19 19:57,1500,The main experiment item,yes,FlankerExperiment.osexp,E:\Classwork\AQMAED,no,mono,no,18,no,white,no,yes,768,legacy,63,63,E:/Classwork/AQMAED/SB-subject-2.csv,legacy,Kafkaesque Koffka,3.2.8,0,s,NA,s,NA,NA,s,414,NA,66229,NA,NA,414,2,legacy,1024,2,48000,-16,experiment,HHSHH,2,even,68961,NA,NA,182272,177857,2728,NA,NA,183349,2731,NA,NA,183454,183869,183347,183453,Flanker Experiment,59,36388,64,yes,1024
92.30769231,92.30769231,570.3538462,570.3538462,black,legacy,legacy,legacy,0,incongruent,uniform,1,undefined,1,h,0,0,0,64,64,0,64,0,64,0,0,0,64,64,64,64,9/29/19 19:57,1500,The main experiment item,yes,FlankerExperiment.osexp,E:\Classwork\AQMAED,no,mono,no,18,no,white,no,yes,768,legacy,64,64,E:/Classwork/AQMAED/SB-subject-2.csv,legacy,Kafkaesque Koffka,3.2.8,0,h,NA,s,NA,NA,h,685,NA,66229,NA,NA,685,2,legacy,1024,2,48000,-16,experiment,SSHSS,2,even,68961,NA,NA,183878,177857,2728,NA,NA,184969,2731,NA,NA,185074,185760,184967,185074,Flanker Experiment,60,37073,65,yes,1024
92.42424242,92.42424242,568.9848485,568.9848485,black,legacy,legacy,legacy,0,congruent,uniform,1,undefined,1,s,0,0,0,65,65,0,65,0,65,0,0,0,65,65,65,65,9/29/19 19:57,1500,The main experiment item,yes,FlankerExperiment.osexp,E:\Classwork\AQMAED,no,mono,no,18,no,white,no,yes,768,legacy,65,65,E:/Classwork/AQMAED/SB-subject-2.csv,legacy,Kafkaesque Koffka,3.2.8,0,s,NA,s,NA,NA,s,480,NA,66229,NA,NA,480,2,legacy,1024,2,48000,-16,experiment,SSSSS,2,even,68961,NA,NA,185770,177857,2728,NA,NA,186872,2731,NA,NA,186975,187456,186870,186975,Flanker Experiment,61,37553,66,yes,1024
92.53731343,92.53731343,568.1791045,568.1791045,black,legacy,legacy,legacy,0,incongruent,uniform,1,undefined,1,h,0,0,0,66,66,0,66,0,66,0,0,0,66,66,66,66,9/29/19 19:57,1500,The main experiment item,yes,FlankerExperiment.osexp,E:\Classwork\AQMAED,no,mono,no,18,no,white,no,yes,768,legacy,66,66,E:/Classwork/AQMAED/SB-subject-2.csv,legacy,Kafkaesque Koffka,3.2.8,0,h,NA,s,NA,NA,h,515,NA,66229,NA,NA,515,2,legacy,1024,2,48000,-16,experiment,SSHSS,2,even,68961,NA,NA,187468,177857,2728,NA,NA,188552,2731,NA,NA,188657,189173,188550,188657,Flanker Experiment,62,38068,67,yes,1024
92.64705882,92.64705882,567.4852941,567.4852941,black,legacy,legacy,legacy,0,congruent,uniform,1,undefined,1,h,0,0,0,67,67,0,67,0,67,0,0,0,67,67,67,67,9/29/19 19:57,1500,The main experiment item,yes,FlankerExperiment.osexp,E:\Classwork\AQMAED,no,mono,no,18,no,white,no,yes,768,legacy,67,67,E:/Classwork/AQMAED/SB-subject-2.csv,legacy,Kafkaesque Koffka,3.2.8,0,h,NA,s,NA,NA,h,521,NA,66229,NA,NA,521,2,legacy,1024,2,48000,-16,experiment,HHHHH,2,even,68961,NA,NA,189178,177857,2728,NA,NA,190264,2731,NA,NA,190368,190890,190261,190368,Flanker Experiment,63,38589,68,yes,1024
92.75362319,92.75362319,567.3768116,567.3768116,black,legacy,legacy,legacy,0,incongruent,uniform,1,undefined,1,h,0,0,0,68,68,0,68,0,68,0,0,0,68,68,68,68,9/29/19 19:57,1500,The main experiment item,yes,FlankerExperiment.osexp,E:\Classwork\AQMAED,no,mono,no,18,no,white,no,yes,768,legacy,68,68,E:/Classwork/AQMAED/SB-subject-2.csv,legacy,Kafkaesque Koffka,3.2.8,0,h,NA,s,NA,NA,h,560,NA,66229,NA,NA,560,2,legacy,1024,2,48000,-16,experiment,SSHSS,2,even,68961,NA,NA,190900,177857,2728,NA,NA,191975,2731,NA,NA,192079,192640,191973,192079,Flanker Experiment,64,39149,69,yes,1024
92.85714286,92.85714286,566.9857143,566.9857143,black,legacy,legacy,legacy,0,congruent,uniform,1,undefined,1,s,0,0,0,69,69,0,69,0,69,0,0,0,69,69,69,69,9/29/19 19:57,1500,The main experiment item,yes,FlankerExperiment.osexp,E:\Classwork\AQMAED,no,mono,no,18,no,white,no,yes,768,legacy,69,69,E:/Classwork/AQMAED/SB-subject-2.csv,legacy,Kafkaesque Koffka,3.2.8,0,s,NA,s,NA,NA,s,540,NA,66229,NA,NA,540,2,legacy,1024,2,48000,-16,experiment,SSSSS,2,even,68961,NA,NA,192650,177857,2728,NA,NA,193737,2731,NA,NA,193842,194383,193735,193842,Flanker Experiment,65,39689,70,yes,1024
92.95774648,92.95774648,569.5915493,569.5915493,black,legacy,legacy,legacy,0,congruent,uniform,1,undefined,1,s,0,0,0,70,70,0,70,0,70,0,0,0,70,70,70,70,9/29/19 19:57,1500,The main experiment item,yes,FlankerExperiment.osexp,E:\Classwork\AQMAED,no,mono,no,18,no,white,no,yes,768,legacy,70,70,E:/Classwork/AQMAED/SB-subject-2.csv,legacy,Kafkaesque Koffka,3.2.8,0,s,NA,s,NA,NA,s,752,NA,66229,NA,NA,752,2,legacy,1024,2,48000,-16,experiment,SSSSS,2,even,68961,NA,NA,194392,177857,2728,NA,NA,195456,2731,NA,NA,195561,196314,195454,195560,Flanker Experiment,66,40441,71,yes,1024
93.05555556,93.05555556,569.2916667,569.2916667,black,legacy,legacy,legacy,0,congruent,uniform,1,undefined,1,h,0,0,0,71,71,0,71,0,71,0,0,0,71,71,71,71,9/29/19 19:57,1500,The main experiment item,yes,FlankerExperiment.osexp,E:\Classwork\AQMAED,no,mono,no,18,no,white,no,yes,768,legacy,71,71,E:/Classwork/AQMAED/SB-subject-2.csv,legacy,Kafkaesque Koffka,3.2.8,0,h,NA,s,NA,NA,h,548,NA,66229,NA,NA,548,2,legacy,1024,2,48000,-16,experiment,HHHHH,2,even,68961,NA,NA,196324,177857,2728,NA,NA,197418,2731,NA,NA,197521,198070,197416,197521,Flanker Experiment,67,40989,72,yes,1024
93.15068493,93.15068493,567.4794521,567.4794521,black,legacy,legacy,legacy,0,incongruent,uniform,1,undefined,1,h,0,0,0,72,72,0,72,0,72,0,0,0,72,72,72,72,9/29/19 19:57,1500,The main experiment item,yes,FlankerExperiment.osexp,E:\Classwork\AQMAED,no,mono,no,18,no,white,no,yes,768,legacy,72,72,E:/Classwork/AQMAED/SB-subject-2.csv,legacy,Kafkaesque Koffka,3.2.8,0,h,NA,s,NA,NA,h,437,NA,66229,NA,NA,437,2,legacy,1024,2,48000,-16,experiment,SSHSS,2,even,68961,NA,NA,198075,177857,2728,NA,NA,199165,2731,NA,NA,199269,199707,199163,199269,Flanker Experiment,68,41426,73,yes,1024
93.24324324,93.24324324,567.0405405,567.0405405,black,legacy,legacy,legacy,0,incongruent,uniform,1,undefined,1,h,0,0,0,73,73,0,73,0,73,0,0,0,73,73,73,73,9/29/19 19:57,1500,The main experiment item,yes,FlankerExperiment.osexp,E:\Classwork\AQMAED,no,mono,no,18,no,white,no,yes,768,legacy,73,73,E:/Classwork/AQMAED/SB-subject-2.csv,legacy,Kafkaesque Koffka,3.2.8,0,h,NA,s,NA,NA,h,535,NA,66229,NA,NA,535,2,legacy,1024,2,48000,-16,experiment,SSHSS,2,even,68961,NA,NA,199717,177857,2728,NA,NA,200788,2731,NA,NA,200892,201428,200786,200892,Flanker Experiment,69,41961,74,yes,1024
93.33333333,93.33333333,566.7733333,566.7733333,black,legacy,legacy,legacy,0,congruent,uniform,1,undefined,1,s,0,0,0,74,74,0,74,0,74,0,0,0,74,74,74,74,9/29/19 19:57,1500,The main experiment item,yes,FlankerExperiment.osexp,E:\Classwork\AQMAED,no,mono,no,18,no,white,no,yes,768,legacy,74,74,E:/Classwork/AQMAED/SB-subject-2.csv,legacy,Kafkaesque Koffka,3.2.8,0,s,NA,s,NA,NA,s,547,NA,66229,NA,NA,547,2,legacy,1024,2,48000,-16,experiment,SSSSS,2,even,68961,NA,NA,201437,177857,2728,NA,NA,202532,2731,NA,NA,202636,203184,202529,202636,Flanker Experiment,70,42508,75,yes,1024
93.42105263,93.42105263,567.4210526,567.4210526,black,legacy,legacy,legacy,0,incongruent,uniform,1,undefined,1,h,0,0,0,75,75,0,75,0,75,0,0,0,75,75,75,75,9/29/19 19:57,1500,The main experiment item,yes,FlankerExperiment.osexp,E:\Classwork\AQMAED,no,mono,no,18,no,white,no,yes,768,legacy,75,75,E:/Classwork/AQMAED/SB-subject-2.csv,legacy,Kafkaesque Koffka,3.2.8,0,h,NA,s,NA,NA,h,616,NA,66229,NA,NA,616,2,legacy,1024,2,48000,-16,experiment,SSHSS,2,even,68961,NA,NA,203194,177857,2728,NA,NA,204283,2731,NA,NA,204388,205005,204281,204388,Flanker Experiment,71,43124,76,yes,1024
93.50649351,93.50649351,568.7402597,568.7402597,black,legacy,legacy,legacy,0,incongruent,uniform,1,undefined,1,s,0,0,0,76,76,0,76,0,76,0,0,0,76,76,76,76,9/29/19 19:57,1500,The main experiment item,yes,FlankerExperiment.osexp,E:\Classwork\AQMAED,no,mono,no,18,no,white,no,yes,768,legacy,76,76,E:/Classwork/AQMAED/SB-subject-2.csv,legacy,Kafkaesque Koffka,3.2.8,0,s,NA,s,NA,NA,s,669,NA,66229,NA,NA,669,2,legacy,1024,2,48000,-16,experiment,HHSHH,2,even,68961,NA,NA,205015,177857,2728,NA,NA,206108,2731,NA,NA,206212,206882,206105,206212,Flanker Experiment,72,43793,77,yes,1024
93.58974359,93.58974359,568.0769231,568.0769231,black,legacy,legacy,legacy,0,congruent,uniform,1,undefined,1,h,0,0,0,77,77,0,77,0,77,0,0,0,77,77,77,77,9/29/19 19:57,1500,The main experiment item,yes,FlankerExperiment.osexp,E:\Classwork\AQMAED,no,mono,no,18,no,white,no,yes,768,legacy,77,77,E:/Classwork/AQMAED/SB-subject-2.csv,legacy,Kafkaesque Koffka,3.2.8,0,h,NA,s,NA,NA,h,517,NA,66229,NA,NA,517,2,legacy,1024,2,48000,-16,experiment,HHHHH,2,even,68961,NA,NA,206887,177857,2728,NA,NA,207977,2731,NA,NA,208081,208598,207975,208080,Flanker Experiment,73,44310,78,yes,1024
93.67088608,93.67088608,567.7341772,567.7341772,black,legacy,legacy,legacy,0,congruent,uniform,1,undefined,1,h,0,0,0,78,78,0,78,0,78,0,0,0,78,78,78,78,9/29/19 19:57,1500,The main experiment item,yes,FlankerExperiment.osexp,E:\Classwork\AQMAED,no,mono,no,18,no,white,no,yes,768,legacy,78,78,E:/Classwork/AQMAED/SB-subject-2.csv,legacy,Kafkaesque Koffka,3.2.8,0,h,NA,s,NA,NA,h,541,NA,66229,NA,NA,541,2,legacy,1024,2,48000,-16,experiment,HHHHH,2,even,68961,NA,NA,208609,177857,2728,NA,NA,209694,2731,NA,NA,209798,210340,209691,209798,Flanker Experiment,74,44851,79,yes,1024
93.75,93.75,567.6625,567.6625,black,legacy,legacy,legacy,0,congruent,uniform,1,undefined,1,s,0,0,0,79,79,0,79,0,79,0,0,0,79,79,79,79,9/29/19 19:57,1500,The main experiment item,yes,FlankerExperiment.osexp,E:\Classwork\AQMAED,no,mono,no,18,no,white,no,yes,768,legacy,79,79,E:/Classwork/AQMAED/SB-subject-2.csv,legacy,Kafkaesque Koffka,3.2.8,0,s,NA,s,NA,NA,s,562,NA,66229,NA,NA,562,2,legacy,1024,2,48000,-16,experiment,SSSSS,2,even,68961,NA,NA,210350,177857,2728,NA,NA,211419,2731,NA,NA,211523,212086,211416,211523,Flanker Experiment,75,45413,80,yes,1024
93.82716049,93.82716049,572.5555556,572.5555556,black,legacy,legacy,legacy,0,incongruent,uniform,1,undefined,1,h,0,0,0,80,80,0,80,0,80,0,0,0,80,80,80,80,9/29/19 19:57,600,The main experiment item,yes,FlankerExperiment.osexp,E:\Classwork\AQMAED,no,mono,no,18,no,white,no,yes,768,legacy,0,79,E:/Classwork/AQMAED/SB-subject-2.csv,legacy,Kafkaesque Koffka,3.2.8,0,h,NA,s,s,NA,h,964,NA,66229,17588,NA,964,2,legacy,1024,2,48000,-16,experiment,SSHSS,2,even,68961,230713,NA,212095,177857,2728,NA,NA,230775,2731,213125,NA,230879,231844,230773,230878,Flanker Experiment,76,46377,81,yes,1024
93.90243902,93.90243902,571.9268293,571.9268293,black,legacy,legacy,legacy,0,congruent,uniform,1,undefined,1,s,0,0,0,81,81,0,81,0,81,0,0,0,81,81,81,81,9/29/19 19:57,600,The main experiment item,yes,FlankerExperiment.osexp,E:\Classwork\AQMAED,no,mono,no,18,no,white,no,yes,768,legacy,1,79,E:/Classwork/AQMAED/SB-subject-2.csv,legacy,Kafkaesque Koffka,3.2.8,0,s,NA,s,s,NA,s,521,NA,66229,17588,NA,521,2,legacy,1024,2,48000,-16,experiment,SSSSS,2,even,68961,230713,NA,232361,177857,2728,231858,NA,233440,2731,213125,NA,233544,234066,233437,233543,Flanker Experiment,77,46898,82,yes,1024
93.97590361,93.97590361,571,571,black,legacy,legacy,legacy,0,incongruent,uniform,1,undefined,1,h,0,0,0,82,82,0,82,0,82,0,0,0,82,82,82,82,9/29/19 19:57,600,The main experiment item,yes,FlankerExperiment.osexp,E:\Classwork\AQMAED,no,mono,no,18,no,white,no,yes,768,legacy,2,79,E:/Classwork/AQMAED/SB-subject-2.csv,legacy,Kafkaesque Koffka,3.2.8,0,h,NA,s,s,NA,h,495,NA,66229,17588,NA,495,2,legacy,1024,2,48000,-16,experiment,SSHSS,2,even,68961,230713,NA,234075,177857,2728,231858,NA,235147,2731,213125,NA,235251,235747,235144,235251,Flanker Experiment,78,47393,83,yes,1024
94.04761905,94.04761905,568.8214286,568.8214286,black,legacy,legacy,legacy,0,congruent,uniform,1,undefined,1,s,0,0,0,83,83,0,83,0,83,0,0,0,83,83,83,83,9/29/19 19:57,600,The main experiment item,yes,FlankerExperiment.osexp,E:\Classwork\AQMAED,no,mono,no,18,no,white,no,yes,768,legacy,3,79,E:/Classwork/AQMAED/SB-subject-2.csv,legacy,Kafkaesque Koffka,3.2.8,0,s,NA,s,s,NA,s,388,NA,66229,17588,NA,388,2,legacy,1024,2,48000,-16,experiment,SSSSS,2,even,68961,230713,NA,235757,177857,2728,231858,NA,236846,2731,213125,NA,236950,237338,236844,236950,Flanker Experiment,79,47781,84,yes,1024
94.11764706,94.11764706,566.4,566.4,black,legacy,legacy,legacy,0,congruent,uniform,1,undefined,1,s,0,0,0,84,84,0,84,0,84,0,0,0,84,84,84,84,9/29/19 19:57,600,The main experiment item,yes,FlankerExperiment.osexp,E:\Classwork\AQMAED,no,mono,no,18,no,white,no,yes,768,legacy,4,79,E:/Classwork/AQMAED/SB-subject-2.csv,legacy,Kafkaesque Koffka,3.2.8,0,s,NA,s,s,NA,s,363,NA,66229,17588,NA,363,2,legacy,1024,2,48000,-16,experiment,SSSSS,2,even,68961,230713,NA,237348,177857,2728,231858,NA,238437,2731,213125,NA,238542,238906,238435,238542,Flanker Experiment,80,48144,85,yes,1024
94.18604651,94.18604651,564.7093023,564.7093023,black,legacy,legacy,legacy,0,congruent,uniform,1,undefined,1,s,0,0,0,85,85,0,85,0,85,0,0,0,85,85,85,85,9/29/19 19:57,600,The main experiment item,yes,FlankerExperiment.osexp,E:\Classwork\AQMAED,no,mono,no,18,no,white,no,yes,768,legacy,5,79,E:/Classwork/AQMAED/SB-subject-2.csv,legacy,Kafkaesque Koffka,3.2.8,0,s,NA,s,s,NA,s,421,NA,66229,17588,NA,421,2,legacy,1024,2,48000,-16,experiment,SSSSS,2,even,68961,230713,NA,238916,177857,2728,231858,NA,240000,2731,213125,NA,240105,240526,239998,240105,Flanker Experiment,81,48565,86,yes,1024
94.25287356,94.25287356,563.5862069,563.5862069,black,legacy,legacy,legacy,0,congruent,uniform,1,undefined,1,s,0,0,0,86,86,0,86,0,86,0,0,0,86,86,86,86,9/29/19 19:57,600,The main experiment item,yes,FlankerExperiment.osexp,E:\Classwork\AQMAED,no,mono,no,18,no,white,no,yes,768,legacy,6,79,E:/Classwork/AQMAED/SB-subject-2.csv,legacy,Kafkaesque Koffka,3.2.8,0,s,NA,s,s,NA,s,467,NA,66229,17588,NA,467,2,legacy,1024,2,48000,-16,experiment,SSSSS,2,even,68961,230713,NA,240542,177857,2728,231858,NA,241646,2731,213125,NA,241750,242218,241644,241750,Flanker Experiment,82,49032,87,yes,1024
94.31818182,94.31818182,563.0568182,563.0568182,black,legacy,legacy,legacy,0,incongruent,uniform,1,undefined,1,s,0,0,0,87,87,0,87,0,87,0,0,0,87,87,87,87,9/29/19 19:57,600,The main experiment item,yes,FlankerExperiment.osexp,E:\Classwork\AQMAED,no,mono,no,18,no,white,no,yes,768,legacy,7,79,E:/Classwork/AQMAED/SB-subject-2.csv,legacy,Kafkaesque Koffka,3.2.8,0,s,NA,s,s,NA,s,517,NA,66229,17588,NA,517,2,legacy,1024,2,48000,-16,experiment,HHSHH,2,even,68961,230713,NA,242227,177857,2728,231858,NA,243325,2731,213125,NA,243431,243949,243323,243431,Flanker Experiment,83,49549,88,yes,1024
94.38202247,94.38202247,562.1460674,562.1460674,black,legacy,legacy,legacy,0,congruent,uniform,1,undefined,1,s,0,0,0,88,88,0,88,0,88,0,0,0,88,88,88,88,9/29/19 19:57,600,The main experiment item,yes,FlankerExperiment.osexp,E:\Classwork\AQMAED,no,mono,no,18,no,white,no,yes,768,legacy,8,79,E:/Classwork/AQMAED/SB-subject-2.csv,legacy,Kafkaesque Koffka,3.2.8,0,s,NA,s,s,NA,s,482,NA,66229,17588,NA,482,2,legacy,1024,2,48000,-16,experiment,SSSSS,2,even,68961,230713,NA,243954,177857,2728,231858,NA,245044,2731,213125,NA,245147,245630,245041,245146,Flanker Experiment,84,50031,89,yes,1024
93.33333333,93.33333333,560.5333333,560.5333333,black,legacy,legacy,legacy,0,incongruent,uniform,0,undefined,0,s,0,0,0,89,89,0,89,0,89,0,0,0,89,89,89,89,9/29/19 19:57,600,The main experiment item,yes,FlankerExperiment.osexp,E:\Classwork\AQMAED,no,mono,no,18,no,white,no,yes,768,legacy,9,79,E:/Classwork/AQMAED/SB-subject-2.csv,legacy,Kafkaesque Koffka,3.2.8,0,h,NA,s,s,NA,h,417,NA,66229,17588,NA,417,2,legacy,1024,2,48000,-16,experiment,HHSHH,2,even,68961,230713,NA,245639,177857,2728,231858,NA,246730,2731,213125,NA,246834,247252,246726,246834,Flanker Experiment,84,50448,90,yes,1024
93.40659341,93.40659341,564.4505495,564.4505495,black,legacy,legacy,legacy,0,incongruent,uniform,1,undefined,1,h,0,0,0,90,90,0,90,0,90,0,0,0,90,90,90,90,9/29/19 19:57,600,The main experiment item,yes,FlankerExperiment.osexp,E:\Classwork\AQMAED,no,mono,no,18,no,white,no,yes,768,legacy,10,79,E:/Classwork/AQMAED/SB-subject-2.csv,legacy,Kafkaesque Koffka,3.2.8,0,h,NA,s,s,NA,h,917,NA,66229,17588,NA,917,2,legacy,1024,2,48000,-16,experiment,SSHSS,2,even,68961,230713,NA,247766,247262,2728,231858,NA,248851,2731,213125,NA,248956,249874,248849,248956,Flanker Experiment,85,51365,91,yes,1024
93.47826087,93.47826087,563.3478261,563.3478261,black,legacy,legacy,legacy,0,incongruent,uniform,1,undefined,1,h,0,0,0,91,91,0,91,0,91,0,0,0,91,91,91,91,9/29/19 19:57,600,The main experiment item,yes,FlankerExperiment.osexp,E:\Classwork\AQMAED,no,mono,no,18,no,white,no,yes,768,legacy,11,79,E:/Classwork/AQMAED/SB-subject-2.csv,legacy,Kafkaesque Koffka,3.2.8,0,h,NA,s,s,NA,h,463,NA,66229,17588,NA,463,2,legacy,1024,2,48000,-16,experiment,SSHSS,2,even,68961,230713,NA,250386,247262,2728,249884,NA,251473,2731,213125,NA,251577,252041,251471,251577,Flanker Experiment,86,51828,92,yes,1024
93.5483871,93.5483871,563.0537634,563.0537634,black,legacy,legacy,legacy,0,incongruent,uniform,1,undefined,1,h,0,0,0,92,92,0,92,0,92,0,0,0,92,92,92,92,9/29/19 19:57,600,The main experiment item,yes,FlankerExperiment.osexp,E:\Classwork\AQMAED,no,mono,no,18,no,white,no,yes,768,legacy,12,79,E:/Classwork/AQMAED/SB-subject-2.csv,legacy,Kafkaesque Koffka,3.2.8,0,h,NA,s,s,NA,h,536,NA,66229,17588,NA,536,2,legacy,1024,2,48000,-16,experiment,SSHSS,2,even,68961,230713,NA,252051,247262,2728,249884,NA,253128,2731,213125,NA,253232,253769,253126,253232,Flanker Experiment,87,52364,93,yes,1024
92.55319149,92.55319149,561.8829787,561.8829787,black,legacy,legacy,legacy,0,congruent,uniform,0,undefined,0,s,0,0,0,93,93,0,93,0,93,0,0,0,93,93,93,93,9/29/19 19:57,600,The main experiment item,yes,FlankerExperiment.osexp,E:\Classwork\AQMAED,no,mono,no,18,no,white,no,yes,768,legacy,13,79,E:/Classwork/AQMAED/SB-subject-2.csv,legacy,Kafkaesque Koffka,3.2.8,0,h,NA,s,s,NA,h,453,NA,66229,17588,NA,453,2,legacy,1024,2,48000,-16,experiment,SSSSS,2,even,68961,230713,NA,253776,247262,2728,249884,NA,254855,2731,213125,NA,254960,255414,254852,254960,Flanker Experiment,87,52817,94,yes,1024
92.63157895,92.63157895,562.3368421,562.3368421,black,legacy,legacy,legacy,0,incongruent,uniform,1,undefined,1,h,0,0,0,94,94,0,94,0,94,0,0,0,94,94,94,94,9/29/19 19:57,600,The main experiment item,yes,FlankerExperiment.osexp,E:\Classwork\AQMAED,no,mono,no,18,no,white,no,yes,768,legacy,14,79,E:/Classwork/AQMAED/SB-subject-2.csv,legacy,Kafkaesque Koffka,3.2.8,0,h,NA,s,s,NA,h,605,NA,66229,17588,NA,605,2,legacy,1024,2,48000,-16,experiment,SSHSS,2,even,68961,230713,NA,255930,255425,2728,249884,NA,257074,2731,213125,NA,257180,257786,257072,257179,Flanker Experiment,88,53422,95,yes,1024
92.70833333,92.70833333,562.84375,562.84375,black,legacy,legacy,legacy,0,incongruent,uniform,1,undefined,1,h,0,0,0,95,95,0,95,0,95,0,0,0,95,95,95,95,9/29/19 19:57,600,The main experiment item,yes,FlankerExperiment.osexp,E:\Classwork\AQMAED,no,mono,no,18,no,white,no,yes,768,legacy,15,79,E:/Classwork/AQMAED/SB-subject-2.csv,legacy,Kafkaesque Koffka,3.2.8,0,h,NA,s,s,NA,h,611,NA,66229,17588,NA,611,2,legacy,1024,2,48000,-16,experiment,SSHSS,2,even,68961,230713,NA,258303,255425,2728,257798,NA,259388,2731,213125,NA,259492,260103,259385,259492,Flanker Experiment,89,54033,96,yes,1024
91.75257732,91.75257732,561.5257732,561.5257732,black,legacy,legacy,legacy,0,incongruent,uniform,0,undefined,0,s,0,0,0,96,96,0,96,0,96,0,0,0,96,96,96,96,9/29/19 19:57,600,The main experiment item,yes,FlankerExperiment.osexp,E:\Classwork\AQMAED,no,mono,no,18,no,white,no,yes,768,legacy,16,79,E:/Classwork/AQMAED/SB-subject-2.csv,legacy,Kafkaesque Koffka,3.2.8,0,h,NA,s,s,NA,h,435,NA,66229,17588,NA,435,2,legacy,1024,2,48000,-16,experiment,HHSHH,2,even,68961,230713,NA,260617,255425,2728,260113,NA,261709,2731,213125,NA,261814,262250,261707,261813,Flanker Experiment,89,54468,97,yes,1024
91.83673469,91.83673469,561.9183673,561.9183673,black,legacy,legacy,legacy,0,congruent,uniform,1,undefined,1,h,0,0,0,97,97,0,97,0,97,0,0,0,97,97,97,97,9/29/19 19:57,600,The main experiment item,yes,FlankerExperiment.osexp,E:\Classwork\AQMAED,no,mono,no,18,no,white,no,yes,768,legacy,17,79,E:/Classwork/AQMAED/SB-subject-2.csv,legacy,Kafkaesque Koffka,3.2.8,0,h,NA,s,s,NA,h,600,NA,66229,17588,NA,600,2,legacy,1024,2,48000,-16,experiment,HHHHH,2,even,68961,230713,NA,262765,262260,2728,260113,NA,263847,2731,213125,NA,263951,264552,263844,263951,Flanker Experiment,90,55068,98,yes,1024
91.91919192,91.91919192,562.6767677,562.6767677,black,legacy,legacy,legacy,0,incongruent,uniform,1,undefined,1,h,0,0,0,98,98,0,98,0,98,0,0,0,98,98,98,98,9/29/19 19:57,600,The main experiment item,yes,FlankerExperiment.osexp,E:\Classwork\AQMAED,no,mono,no,18,no,white,no,yes,768,legacy,18,79,E:/Classwork/AQMAED/SB-subject-2.csv,legacy,Kafkaesque Koffka,3.2.8,0,h,NA,s,s,NA,h,637,NA,66229,17588,NA,637,2,legacy,1024,2,48000,-16,experiment,SSHSS,2,even,68961,230713,NA,264558,262260,2728,260113,NA,265655,2731,213125,NA,265760,266399,265653,265759,Flanker Experiment,91,55705,99,yes,1024
92,92,561.21,561.21,black,legacy,legacy,legacy,0,congruent,uniform,1,undefined,1,h,0,0,0,99,99,0,99,0,99,0,0,0,99,99,99,99,9/29/19 19:57,600,The main experiment item,yes,FlankerExperiment.osexp,E:\Classwork\AQMAED,no,mono,no,18,no,white,no,yes,768,legacy,19,79,E:/Classwork/AQMAED/SB-subject-2.csv,legacy,Kafkaesque Koffka,3.2.8,0,h,NA,s,s,NA,h,416,NA,66229,17588,NA,416,2,legacy,1024,2,48000,-16,experiment,HHHHH,2,even,68961,230713,NA,266914,262260,2728,266409,NA,267994,2731,213125,NA,268098,268515,267992,268098,Flanker Experiment,92,56121,100,yes,1024
92.07920792,92.07920792,560.0693069,560.0693069,black,legacy,legacy,legacy,0,congruent,uniform,1,undefined,1,h,0,0,0,100,100,0,100,0,100,0,0,0,100,100,100,100,9/29/19 19:57,600,The main experiment item,yes,FlankerExperiment.osexp,E:\Classwork\AQMAED,no,mono,no,18,no,white,no,yes,768,legacy,20,79,E:/Classwork/AQMAED/SB-subject-2.csv,legacy,Kafkaesque Koffka,3.2.8,0,h,NA,s,s,NA,h,446,NA,66229,17588,NA,446,2,legacy,1024,2,48000,-16,experiment,HHHHH,2,even,68961,230713,NA,268525,262260,2728,266409,NA,269605,2731,213125,NA,269709,270156,269602,269709,Flanker Experiment,93,56567,101,yes,1024
91.17647059,91.17647059,558.2941176,558.2941176,black,legacy,legacy,legacy,0,incongruent,uniform,0,undefined,0,h,0,0,0,101,101,0,101,0,101,0,0,0,101,101,101,101,9/29/19 19:57,600,The main experiment item,yes,FlankerExperiment.osexp,E:\Classwork\AQMAED,no,mono,no,18,no,white,no,yes,768,legacy,21,79,E:/Classwork/AQMAED/SB-subject-2.csv,legacy,Kafkaesque Koffka,3.2.8,0,s,NA,s,s,NA,s,379,NA,66229,17588,NA,379,2,legacy,1024,2,48000,-16,experiment,SSHSS,2,even,68961,230713,NA,270168,262260,2728,266409,NA,271237,2731,213125,NA,271342,271723,271235,271341,Flanker Experiment,93,56946,102,yes,1024
91.26213592,91.26213592,559.4271845,559.4271845,black,legacy,legacy,legacy,0,congruent,uniform,1,undefined,1,s,0,0,0,102,102,0,102,0,102,0,0,0,102,102,102,102,9/29/19 19:57,600,The main experiment item,yes,FlankerExperiment.osexp,E:\Classwork\AQMAED,no,mono,no,18,no,white,no,yes,768,legacy,22,79,E:/Classwork/AQMAED/SB-subject-2.csv,legacy,Kafkaesque Koffka,3.2.8,0,s,NA,s,s,NA,s,675,NA,66229,17588,NA,675,2,legacy,1024,2,48000,-16,experiment,SSSSS,2,even,68961,230713,NA,272237,271733,2728,266409,NA,273334,2731,213125,NA,273438,274114,273332,273438,Flanker Experiment,94,57621,103,yes,1024
91.34615385,91.34615385,558.25,558.25,black,legacy,legacy,legacy,0,congruent,uniform,1,undefined,1,s,0,0,0,103,103,0,103,0,103,0,0,0,103,103,103,103,9/29/19 19:57,600,The main experiment item,yes,FlankerExperiment.osexp,E:\Classwork\AQMAED,no,mono,no,18,no,white,no,yes,768,legacy,23,79,E:/Classwork/AQMAED/SB-subject-2.csv,legacy,Kafkaesque Koffka,3.2.8,0,s,NA,s,s,NA,s,437,NA,66229,17588,NA,437,2,legacy,1024,2,48000,-16,experiment,SSSSS,2,even,68961,230713,NA,274625,271733,2728,274121,NA,275710,2731,213125,NA,275814,276252,275708,275814,Flanker Experiment,95,58058,104,yes,1024
91.42857143,91.42857143,557.2380952,557.2380952,black,legacy,legacy,legacy,0,incongruent,uniform,1,undefined,1,s,0,0,0,104,104,0,104,0,104,0,0,0,104,104,104,104,9/29/19 19:57,600,The main experiment item,yes,FlankerExperiment.osexp,E:\Classwork\AQMAED,no,mono,no,18,no,white,no,yes,768,legacy,24,79,E:/Classwork/AQMAED/SB-subject-2.csv,legacy,Kafkaesque Koffka,3.2.8,0,s,NA,s,s,NA,s,452,NA,66229,17588,NA,452,2,legacy,1024,2,48000,-16,experiment,HHSHH,2,even,68961,230713,NA,276261,271733,2728,274121,NA,277347,2731,213125,NA,277451,277905,277345,277451,Flanker Experiment,96,58510,105,yes,1024
91.50943396,91.50943396,557.3490566,557.3490566,black,legacy,legacy,legacy,0,incongruent,uniform,1,undefined,1,h,0,0,0,105,105,0,105,0,105,0,0,0,105,105,105,105,9/29/19 19:57,600,The main experiment item,yes,FlankerExperiment.osexp,E:\Classwork\AQMAED,no,mono,no,18,no,white,no,yes,768,legacy,25,79,E:/Classwork/AQMAED/SB-subject-2.csv,legacy,Kafkaesque Koffka,3.2.8,0,h,NA,s,s,NA,h,569,NA,66229,17588,NA,569,2,legacy,1024,2,48000,-16,experiment,SSHSS,2,even,68961,230713,NA,277914,271733,2728,274121,NA,278999,2731,213125,NA,279104,279674,278996,279104,Flanker Experiment,97,59079,106,yes,1024
91.58878505,91.58878505,558.1962617,558.1962617,black,legacy,legacy,legacy,0,incongruent,uniform,1,undefined,1,s,0,0,0,106,106,0,106,0,106,0,0,0,106,106,106,106,9/29/19 19:57,600,The main experiment item,yes,FlankerExperiment.osexp,E:\Classwork\AQMAED,no,mono,no,18,no,white,no,yes,768,legacy,26,79,E:/Classwork/AQMAED/SB-subject-2.csv,legacy,Kafkaesque Koffka,3.2.8,0,s,NA,s,s,NA,s,648,NA,66229,17588,NA,648,2,legacy,1024,2,48000,-16,experiment,HHSHH,2,even,68961,230713,NA,279684,271733,2728,274121,NA,280767,2731,213125,NA,280872,281521,280765,280872,Flanker Experiment,98,59727,107,yes,1024
91.66666667,91.66666667,557.0277778,557.0277778,black,legacy,legacy,legacy,0,incongruent,uniform,1,undefined,1,h,0,0,0,107,107,0,107,0,107,0,0,0,107,107,107,107,9/29/19 19:57,600,The main experiment item,yes,FlankerExperiment.osexp,E:\Classwork\AQMAED,no,mono,no,18,no,white,no,yes,768,legacy,27,79,E:/Classwork/AQMAED/SB-subject-2.csv,legacy,Kafkaesque Koffka,3.2.8,0,h,NA,s,s,NA,h,432,NA,66229,17588,NA,432,2,legacy,1024,2,48000,-16,experiment,SSHSS,2,even,68961,230713,NA,282035,271733,2728,281531,NA,283126,2731,213125,NA,283230,283663,283124,283230,Flanker Experiment,99,60159,108,yes,1024
91.74311927,91.74311927,557.1376147,557.1376147,black,legacy,legacy,legacy,0,incongruent,uniform,1,undefined,1,s,0,0,0,108,108,0,108,0,108,0,0,0,108,108,108,108,9/29/19 19:57,600,The main experiment item,yes,FlankerExperiment.osexp,E:\Classwork\AQMAED,no,mono,no,18,no,white,no,yes,768,legacy,28,79,E:/Classwork/AQMAED/SB-subject-2.csv,legacy,Kafkaesque Koffka,3.2.8,0,s,NA,s,s,NA,s,569,NA,66229,17588,NA,569,2,legacy,1024,2,48000,-16,experiment,HHSHH,2,even,68961,230713,NA,283674,271733,2728,281531,NA,284757,2731,213125,NA,284860,285430,284755,284860,Flanker Experiment,100,60728,109,yes,1024
91.81818182,91.81818182,556.2090909,556.2090909,black,legacy,legacy,legacy,0,congruent,uniform,1,undefined,1,s,0,0,0,109,109,0,109,0,109,0,0,0,109,109,109,109,9/29/19 19:57,600,The main experiment item,yes,FlankerExperiment.osexp,E:\Classwork\AQMAED,no,mono,no,18,no,white,no,yes,768,legacy,29,79,E:/Classwork/AQMAED/SB-subject-2.csv,legacy,Kafkaesque Koffka,3.2.8,0,s,NA,s,s,NA,s,455,NA,66229,17588,NA,455,2,legacy,1024,2,48000,-16,experiment,SSSSS,2,even,68961,230713,NA,285440,271733,2728,281531,NA,286597,2731,213125,NA,286700,287156,286593,286700,Flanker Experiment,101,61183,110,yes,1024
91.89189189,91.89189189,555.2342342,555.2342342,black,legacy,legacy,legacy,0,congruent,uniform,1,undefined,1,h,0,0,0,110,110,0,110,0,110,0,0,0,110,110,110,110,9/29/19 19:57,600,The main experiment item,yes,FlankerExperiment.osexp,E:\Classwork\AQMAED,no,mono,no,18,no,white,no,yes,768,legacy,30,79,E:/Classwork/AQMAED/SB-subject-2.csv,legacy,Kafkaesque Koffka,3.2.8,0,h,NA,s,s,NA,h,448,NA,66229,17588,NA,448,2,legacy,1024,2,48000,-16,experiment,HHHHH,2,even,68961,230713,NA,287167,271733,2728,281531,NA,288259,2731,213125,NA,288363,288812,288256,288363,Flanker Experiment,102,61631,111,yes,1024
91.96428571,91.96428571,554.4732143,554.4732143,black,legacy,legacy,legacy,0,congruent,uniform,1,undefined,1,h,0,0,0,111,111,0,111,0,111,0,0,0,111,111,111,111,9/29/19 19:57,600,The main experiment item,yes,FlankerExperiment.osexp,E:\Classwork\AQMAED,no,mono,no,18,no,white,no,yes,768,legacy,31,79,E:/Classwork/AQMAED/SB-subject-2.csv,legacy,Kafkaesque Koffka,3.2.8,0,h,NA,s,s,NA,h,470,NA,66229,17588,NA,470,2,legacy,1024,2,48000,-16,experiment,HHHHH,2,even,68961,230713,NA,288821,271733,2728,281531,NA,289894,2731,213125,NA,289998,290469,289891,289998,Flanker Experiment,103,62101,112,yes,1024
92.03539823,92.03539823,555.3716814,555.3716814,black,legacy,legacy,legacy,0,incongruent,uniform,1,undefined,1,h,0,0,0,112,112,0,112,0,112,0,0,0,112,112,112,112,9/29/19 19:57,600,The main experiment item,yes,FlankerExperiment.osexp,E:\Classwork\AQMAED,no,mono,no,18,no,white,no,yes,768,legacy,32,79,E:/Classwork/AQMAED/SB-subject-2.csv,legacy,Kafkaesque Koffka,3.2.8,0,h,NA,s,s,NA,h,656,NA,66229,17588,NA,656,2,legacy,1024,2,48000,-16,experiment,SSHSS,2,even,68961,230713,NA,290480,271733,2728,281531,NA,291574,2731,213125,NA,291678,292335,291572,291678,Flanker Experiment,104,62757,113,yes,1024
92.10526316,92.10526316,554.9210526,554.9210526,black,legacy,legacy,legacy,0,incongruent,uniform,1,undefined,1,s,0,0,0,113,113,0,113,0,113,0,0,0,113,113,113,113,9/29/19 19:57,600,The main experiment item,yes,FlankerExperiment.osexp,E:\Classwork\AQMAED,no,mono,no,18,no,white,no,yes,768,legacy,33,79,E:/Classwork/AQMAED/SB-subject-2.csv,legacy,Kafkaesque Koffka,3.2.8,0,s,NA,s,s,NA,s,504,NA,66229,17588,NA,504,2,legacy,1024,2,48000,-16,experiment,HHSHH,2,even,68961,230713,NA,292850,271733,2728,292345,NA,293951,2731,213125,NA,294056,294562,293948,294056,Flanker Experiment,105,63261,114,yes,1024
92.17391304,92.17391304,554.4434783,554.4434783,black,legacy,legacy,legacy,0,congruent,uniform,1,undefined,1,s,0,0,0,114,114,0,114,0,114,0,0,0,114,114,114,114,9/29/19 19:57,600,The main experiment item,yes,FlankerExperiment.osexp,E:\Classwork\AQMAED,no,mono,no,18,no,white,no,yes,768,legacy,34,79,E:/Classwork/AQMAED/SB-subject-2.csv,legacy,Kafkaesque Koffka,3.2.8,0,s,NA,s,s,NA,s,500,NA,66229,17588,NA,500,2,legacy,1024,2,48000,-16,experiment,SSSSS,2,even,68961,230713,NA,294576,271733,2728,292345,NA,295657,2731,213125,NA,295762,296263,295654,295761,Flanker Experiment,106,63761,115,yes,1024
92.24137931,92.24137931,553.7241379,553.7241379,black,legacy,legacy,legacy,0,incongruent,uniform,1,undefined,1,s,0,0,0,115,115,0,115,0,115,0,0,0,115,115,115,115,9/29/19 19:57,600,The main experiment item,yes,FlankerExperiment.osexp,E:\Classwork\AQMAED,no,mono,no,18,no,white,no,yes,768,legacy,35,79,E:/Classwork/AQMAED/SB-subject-2.csv,legacy,Kafkaesque Koffka,3.2.8,0,s,NA,s,s,NA,s,471,NA,66229,17588,NA,471,2,legacy,1024,2,48000,-16,experiment,HHSHH,2,even,68961,230713,NA,296272,271733,2728,292345,NA,297354,2731,213125,NA,297458,297930,297352,297458,Flanker Experiment,107,64232,116,yes,1024
92.30769231,92.30769231,552.008547,552.008547,black,legacy,legacy,legacy,0,congruent,uniform,1,undefined,1,h,0,0,0,116,116,0,116,0,116,0,0,0,116,116,116,116,9/29/19 19:57,600,The main experiment item,yes,FlankerExperiment.osexp,E:\Classwork\AQMAED,no,mono,no,18,no,white,no,yes,768,legacy,36,79,E:/Classwork/AQMAED/SB-subject-2.csv,legacy,Kafkaesque Koffka,3.2.8,0,h,NA,s,s,NA,h,353,NA,66229,17588,NA,353,2,legacy,1024,2,48000,-16,experiment,HHHHH,2,even,68961,230713,NA,297940,271733,2728,292345,NA,299023,2731,213125,NA,299126,299480,299021,299126,Flanker Experiment,108,64585,117,yes,1024
92.37288136,92.37288136,551,551,black,legacy,legacy,legacy,0,congruent,uniform,1,undefined,1,h,0,0,0,117,117,0,117,0,117,0,0,0,117,117,117,117,9/29/19 19:57,600,The main experiment item,yes,FlankerExperiment.osexp,E:\Classwork\AQMAED,no,mono,no,18,no,white,no,yes,768,legacy,37,79,E:/Classwork/AQMAED/SB-subject-2.csv,legacy,Kafkaesque Koffka,3.2.8,0,h,NA,s,s,NA,h,433,NA,66229,17588,NA,433,2,legacy,1024,2,48000,-16,experiment,HHHHH,2,even,68961,230713,NA,299491,271733,2728,292345,NA,300569,2731,213125,NA,300673,301108,300566,300673,Flanker Experiment,109,65018,118,yes,1024
92.43697479,92.43697479,550.3277311,550.3277311,black,legacy,legacy,legacy,0,incongruent,uniform,1,undefined,1,s,0,0,0,118,118,0,118,0,118,0,0,0,118,118,118,118,9/29/19 19:57,600,The main experiment item,yes,FlankerExperiment.osexp,E:\Classwork\AQMAED,no,mono,no,18,no,white,no,yes,768,legacy,38,79,E:/Classwork/AQMAED/SB-subject-2.csv,legacy,Kafkaesque Koffka,3.2.8,0,s,NA,s,s,NA,s,471,NA,66229,17588,NA,471,2,legacy,1024,2,48000,-16,experiment,HHSHH,2,even,68961,230713,NA,301117,271733,2728,292345,NA,302198,2731,213125,NA,302302,302774,302196,302301,Flanker Experiment,110,65489,119,yes,1024
92.5,92.5,549.625,549.625,black,legacy,legacy,legacy,0,incongruent,uniform,1,undefined,1,s,0,0,0,119,119,0,119,0,119,0,0,0,119,119,119,119,9/29/19 19:57,600,The main experiment item,yes,FlankerExperiment.osexp,E:\Classwork\AQMAED,no,mono,no,18,no,white,no,yes,768,legacy,39,79,E:/Classwork/AQMAED/SB-subject-2.csv,legacy,Kafkaesque Koffka,3.2.8,0,s,NA,s,s,NA,s,466,NA,66229,17588,NA,466,2,legacy,1024,2,48000,-16,experiment,HHSHH,2,even,68961,230713,NA,302783,271733,2728,292345,NA,303870,2731,213125,NA,303973,304440,303868,303973,Flanker Experiment,111,65955,120,yes,1024
92.56198347,92.56198347,548.3801653,548.3801653,black,legacy,legacy,legacy,0,incongruent,uniform,1,undefined,1,s,0,0,0,120,120,0,120,0,120,0,0,0,120,120,120,120,9/29/19 19:57,600,The main experiment item,yes,FlankerExperiment.osexp,E:\Classwork\AQMAED,no,mono,no,18,no,white,no,yes,768,legacy,40,79,E:/Classwork/AQMAED/SB-subject-2.csv,legacy,Kafkaesque Koffka,3.2.8,0,s,NA,s,s,NA,s,399,NA,66229,17588,NA,399,2,legacy,1024,2,48000,-16,experiment,HHSHH,2,even,68961,230713,NA,304450,271733,2728,292345,NA,305527,2731,213125,NA,305630,306030,305525,305630,Flanker Experiment,112,66354,121,yes,1024
92.62295082,92.62295082,547.0901639,547.0901639,black,legacy,legacy,legacy,0,congruent,uniform,1,undefined,1,h,0,0,0,121,121,0,121,0,121,0,0,0,121,121,121,121,9/29/19 19:57,600,The main experiment item,yes,FlankerExperiment.osexp,E:\Classwork\AQMAED,no,mono,no,18,no,white,no,yes,768,legacy,41,79,E:/Classwork/AQMAED/SB-subject-2.csv,legacy,Kafkaesque Koffka,3.2.8,0,h,NA,s,s,NA,h,391,NA,66229,17588,NA,391,2,legacy,1024,2,48000,-16,experiment,HHHHH,2,even,68961,230713,NA,306040,271733,2728,292345,NA,307125,2731,213125,NA,307230,307622,307122,307230,Flanker Experiment,113,66745,122,yes,1024
91.8699187,91.8699187,545.3902439,545.3902439,black,legacy,legacy,legacy,0,incongruent,uniform,0,undefined,0,h,0,0,0,122,122,0,122,0,122,0,0,0,122,122,122,122,9/29/19 19:57,600,The main experiment item,yes,FlankerExperiment.osexp,E:\Classwork\AQMAED,no,mono,no,18,no,white,no,yes,768,legacy,42,79,E:/Classwork/AQMAED/SB-subject-2.csv,legacy,Kafkaesque Koffka,3.2.8,0,s,NA,s,s,NA,s,338,NA,66229,17588,NA,338,2,legacy,1024,2,48000,-16,experiment,SSHSS,2,even,68961,230713,NA,307632,271733,2728,292345,NA,308706,2731,213125,NA,308809,309149,308704,308808,Flanker Experiment,113,67083,123,yes,1024
91.93548387,91.93548387,545.7903226,545.7903226,black,legacy,legacy,legacy,0,congruent,uniform,1,undefined,1,h,0,0,0,123,123,0,123,0,123,0,0,0,123,123,123,123,9/29/19 19:57,600,The main experiment item,yes,FlankerExperiment.osexp,E:\Classwork\AQMAED,no,mono,no,18,no,white,no,yes,768,legacy,43,79,E:/Classwork/AQMAED/SB-subject-2.csv,legacy,Kafkaesque Koffka,3.2.8,0,h,NA,s,s,NA,h,595,NA,66229,17588,NA,595,2,legacy,1024,2,48000,-16,experiment,HHHHH,2,even,68961,230713,NA,309666,309161,2728,292345,NA,310754,2731,213125,NA,310859,311455,310752,310858,Flanker Experiment,114,67678,124,yes,1024
92,92,546.088,546.088,black,legacy,legacy,legacy,0,incongruent,uniform,1,undefined,1,s,0,0,0,124,124,0,124,0,124,0,0,0,124,124,124,124,9/29/19 19:57,600,The main experiment item,yes,FlankerExperiment.osexp,E:\Classwork\AQMAED,no,mono,no,18,no,white,no,yes,768,legacy,44,79,E:/Classwork/AQMAED/SB-subject-2.csv,legacy,Kafkaesque Koffka,3.2.8,0,s,NA,s,s,NA,s,583,NA,66229,17588,NA,583,2,legacy,1024,2,48000,-16,experiment,HHSHH,2,even,68961,230713,NA,311464,309161,2728,292345,NA,312550,2731,213125,NA,312652,313236,312547,312652,Flanker Experiment,115,68261,125,yes,1024
91.26984127,91.26984127,545.7539683,545.7539683,black,legacy,legacy,legacy,0,incongruent,uniform,0,undefined,0,h,0,0,0,125,125,0,125,0,125,0,0,0,125,125,125,125,9/29/19 19:57,600,The main experiment item,yes,FlankerExperiment.osexp,E:\Classwork\AQMAED,no,mono,no,18,no,white,no,yes,768,legacy,45,79,E:/Classwork/AQMAED/SB-subject-2.csv,legacy,Kafkaesque Koffka,3.2.8,0,s,NA,s,s,NA,s,504,NA,66229,17588,NA,504,2,legacy,1024,2,48000,-16,experiment,SSHSS,2,even,68961,230713,NA,313246,309161,2728,292345,NA,314350,2731,213125,NA,314453,314959,314347,314452,Flanker Experiment,115,68765,126,yes,1024
91.33858268,91.33858268,545.8031496,545.8031496,black,legacy,legacy,legacy,0,congruent,uniform,1,undefined,1,h,0,0,0,126,126,0,126,0,126,0,0,0,126,126,126,126,9/29/19 19:57,600,The main experiment item,yes,FlankerExperiment.osexp,E:\Classwork\AQMAED,no,mono,no,18,no,white,no,yes,768,legacy,46,79,E:/Classwork/AQMAED/SB-subject-2.csv,legacy,Kafkaesque Koffka,3.2.8,0,h,NA,s,s,NA,h,552,NA,66229,17588,NA,552,2,legacy,1024,2,48000,-16,experiment,HHHHH,2,even,68961,230713,NA,315469,314968,2728,292345,NA,316603,2731,213125,NA,316706,317259,316600,316706,Flanker Experiment,116,69317,127,yes,1024
91.40625,91.40625,545.125,545.125,black,legacy,legacy,legacy,0,congruent,uniform,1,undefined,1,s,0,0,0,127,127,0,127,0,127,0,0,0,127,127,127,127,9/29/19 19:57,600,The main experiment item,yes,FlankerExperiment.osexp,E:\Classwork\AQMAED,no,mono,no,18,no,white,no,yes,768,legacy,47,79,E:/Classwork/AQMAED/SB-subject-2.csv,legacy,Kafkaesque Koffka,3.2.8,0,s,NA,s,s,NA,s,459,NA,66229,17588,NA,459,2,legacy,1024,2,48000,-16,experiment,SSSSS,2,even,68961,230713,NA,317269,314968,2728,292345,NA,318356,2731,213125,NA,318461,318921,318353,318461,Flanker Experiment,117,69776,128,yes,1024
91.47286822,91.47286822,544.9534884,544.9534884,black,legacy,legacy,legacy,0,incongruent,uniform,1,undefined,1,s,0,0,0,128,128,0,128,0,128,0,0,0,128,128,128,128,9/29/19 19:57,600,The main experiment item,yes,FlankerExperiment.osexp,E:\Classwork\AQMAED,no,mono,no,18,no,white,no,yes,768,legacy,48,79,E:/Classwork/AQMAED/SB-subject-2.csv,legacy,Kafkaesque Koffka,3.2.8,0,s,NA,s,s,NA,s,523,NA,66229,17588,NA,523,2,legacy,1024,2,48000,-16,experiment,HHSHH,2,even,68961,230713,NA,318931,314968,2728,292345,NA,320019,2731,213125,NA,320123,320648,320016,320123,Flanker Experiment,118,70299,129,yes,1024
91.53846154,91.53846154,543.8153846,543.8153846,black,legacy,legacy,legacy,0,congruent,uniform,1,undefined,1,s,0,0,0,129,129,0,129,0,129,0,0,0,129,129,129,129,9/29/19 19:57,600,The main experiment item,yes,FlankerExperiment.osexp,E:\Classwork\AQMAED,no,mono,no,18,no,white,no,yes,768,legacy,49,79,E:/Classwork/AQMAED/SB-subject-2.csv,legacy,Kafkaesque Koffka,3.2.8,0,s,NA,s,s,NA,s,397,NA,66229,17588,NA,397,2,legacy,1024,2,48000,-16,experiment,SSSSS,2,even,68961,230713,NA,320653,314968,2728,292345,NA,321751,2731,213125,NA,321856,322255,321749,321856,Flanker Experiment,119,70696,130,yes,1024
91.60305344,91.60305344,542.8473282,542.8473282,black,legacy,legacy,legacy,0,congruent,uniform,1,undefined,1,h,0,0,0,130,130,0,130,0,130,0,0,0,130,130,130,130,9/29/19 19:57,600,The main experiment item,yes,FlankerExperiment.osexp,E:\Classwork\AQMAED,no,mono,no,18,no,white,no,yes,768,legacy,50,79,E:/Classwork/AQMAED/SB-subject-2.csv,legacy,Kafkaesque Koffka,3.2.8,0,h,NA,s,s,NA,h,417,NA,66229,17588,NA,417,2,legacy,1024,2,48000,-16,experiment,HHHHH,2,even,68961,230713,NA,322264,314968,2728,292345,NA,323356,2731,213125,NA,323462,323880,323353,323461,Flanker Experiment,120,71113,131,yes,1024
91.66666667,91.66666667,541.9166667,541.9166667,black,legacy,legacy,legacy,0,congruent,uniform,1,undefined,1,h,0,0,0,131,131,0,131,0,131,0,0,0,131,131,131,131,9/29/19 19:57,600,The main experiment item,yes,FlankerExperiment.osexp,E:\Classwork\AQMAED,no,mono,no,18,no,white,no,yes,768,legacy,51,79,E:/Classwork/AQMAED/SB-subject-2.csv,legacy,Kafkaesque Koffka,3.2.8,0,h,NA,s,s,NA,h,420,NA,66229,17588,NA,420,2,legacy,1024,2,48000,-16,experiment,HHHHH,2,even,68961,230713,NA,323891,314968,2728,292345,NA,324985,2731,213125,NA,325090,325511,324982,325090,Flanker Experiment,121,71533,132,yes,1024
91.72932331,91.72932331,540.962406,540.962406,black,legacy,legacy,legacy,0,congruent,uniform,1,undefined,1,h,0,0,0,132,132,0,132,0,132,0,0,0,132,132,132,132,9/29/19 19:57,600,The main experiment item,yes,FlankerExperiment.osexp,E:\Classwork\AQMAED,no,mono,no,18,no,white,no,yes,768,legacy,52,79,E:/Classwork/AQMAED/SB-subject-2.csv,legacy,Kafkaesque Koffka,3.2.8,0,h,NA,s,s,NA,h,415,NA,66229,17588,NA,415,2,legacy,1024,2,48000,-16,experiment,HHHHH,2,even,68961,230713,NA,325522,314968,2728,292345,NA,326629,2731,213125,NA,326731,327147,326626,326731,Flanker Experiment,122,71948,133,yes,1024
91.79104478,91.79104478,539.9104478,539.9104478,black,legacy,legacy,legacy,0,congruent,uniform,1,undefined,1,h,0,0,0,133,133,0,133,0,133,0,0,0,133,133,133,133,9/29/19 19:57,600,The main experiment item,yes,FlankerExperiment.osexp,E:\Classwork\AQMAED,no,mono,no,18,no,white,no,yes,768,legacy,53,79,E:/Classwork/AQMAED/SB-subject-2.csv,legacy,Kafkaesque Koffka,3.2.8,0,h,NA,s,s,NA,h,400,NA,66229,17588,NA,400,2,legacy,1024,2,48000,-16,experiment,HHHHH,2,even,68961,230713,NA,327158,314968,2728,292345,NA,328264,2731,213125,NA,328368,328769,328261,328368,Flanker Experiment,123,72348,134,yes,1024
91.85185185,91.85185185,539.5333333,539.5333333,black,legacy,legacy,legacy,0,incongruent,uniform,1,undefined,1,s,0,0,0,134,134,0,134,0,134,0,0,0,134,134,134,134,9/29/19 19:57,600,The main experiment item,yes,FlankerExperiment.osexp,E:\Classwork\AQMAED,no,mono,no,18,no,white,no,yes,768,legacy,54,79,E:/Classwork/AQMAED/SB-subject-2.csv,legacy,Kafkaesque Koffka,3.2.8,0,s,NA,s,s,NA,s,489,NA,66229,17588,NA,489,2,legacy,1024,2,48000,-16,experiment,HHSHH,2,even,68961,230713,NA,328774,314968,2728,292345,NA,329856,2731,213125,NA,329960,330450,329853,329960,Flanker Experiment,124,72837,135,yes,1024
91.91176471,91.91176471,540.4779412,540.4779412,black,legacy,legacy,legacy,0,incongruent,uniform,1,undefined,1,s,0,0,0,135,135,0,135,0,135,0,0,0,135,135,135,135,9/29/19 19:57,600,The main experiment item,yes,FlankerExperiment.osexp,E:\Classwork\AQMAED,no,mono,no,18,no,white,no,yes,768,legacy,55,79,E:/Classwork/AQMAED/SB-subject-2.csv,legacy,Kafkaesque Koffka,3.2.8,0,s,NA,s,s,NA,s,668,NA,66229,17588,NA,668,2,legacy,1024,2,48000,-16,experiment,HHSHH,2,even,68961,230713,NA,330459,314968,2728,292345,NA,331538,2731,213125,NA,331642,332312,331536,331641,Flanker Experiment,125,73505,136,yes,1024
91.97080292,91.97080292,540.620438,540.620438,black,legacy,legacy,legacy,0,incongruent,uniform,1,undefined,1,h,0,0,0,136,136,0,136,0,136,0,0,0,136,136,136,136,9/29/19 19:57,600,The main experiment item,yes,FlankerExperiment.osexp,E:\Classwork\AQMAED,no,mono,no,18,no,white,no,yes,768,legacy,56,79,E:/Classwork/AQMAED/SB-subject-2.csv,legacy,Kafkaesque Koffka,3.2.8,0,h,NA,s,s,NA,h,560,NA,66229,17588,NA,560,2,legacy,1024,2,48000,-16,experiment,SSHSS,2,even,68961,230713,NA,332825,314968,2728,332321,NA,333907,2731,213125,NA,334012,334574,333905,334011,Flanker Experiment,126,74065,137,yes,1024
92.02898551,92.02898551,540.1086957,540.1086957,black,legacy,legacy,legacy,0,congruent,uniform,1,undefined,1,s,0,0,0,137,137,0,137,0,137,0,0,0,137,137,137,137,9/29/19 19:57,600,The main experiment item,yes,FlankerExperiment.osexp,E:\Classwork\AQMAED,no,mono,no,18,no,white,no,yes,768,legacy,57,79,E:/Classwork/AQMAED/SB-subject-2.csv,legacy,Kafkaesque Koffka,3.2.8,0,s,NA,s,s,NA,s,470,NA,66229,17588,NA,470,2,legacy,1024,2,48000,-16,experiment,SSSSS,2,even,68961,230713,NA,334584,314968,2728,332321,NA,335668,2731,213125,NA,335770,336241,335666,335770,Flanker Experiment,127,74535,138,yes,1024
92.08633094,92.08633094,539.5035971,539.5035971,black,legacy,legacy,legacy,0,congruent,uniform,1,undefined,1,h,0,0,0,138,138,0,138,0,138,0,0,0,138,138,138,138,9/29/19 19:57,600,The main experiment item,yes,FlankerExperiment.osexp,E:\Classwork\AQMAED,no,mono,no,18,no,white,no,yes,768,legacy,58,79,E:/Classwork/AQMAED/SB-subject-2.csv,legacy,Kafkaesque Koffka,3.2.8,0,h,NA,s,s,NA,h,456,NA,66229,17588,NA,456,2,legacy,1024,2,48000,-16,experiment,HHHHH,2,even,68961,230713,NA,336252,314968,2728,332321,NA,337395,2731,213125,NA,337500,337957,337393,337500,Flanker Experiment,128,74991,139,yes,1024
92.14285714,92.14285714,539.5071429,539.5071429,black,legacy,legacy,legacy,0,congruent,uniform,1,undefined,1,h,0,0,0,139,139,0,139,0,139,0,0,0,139,139,139,139,9/29/19 19:57,600,The main experiment item,yes,FlankerExperiment.osexp,E:\Classwork\AQMAED,no,mono,no,18,no,white,no,yes,768,legacy,59,79,E:/Classwork/AQMAED/SB-subject-2.csv,legacy,Kafkaesque Koffka,3.2.8,0,h,NA,s,s,NA,h,540,NA,66229,17588,NA,540,2,legacy,1024,2,48000,-16,experiment,HHHHH,2,even,68961,230713,NA,337962,314968,2728,332321,NA,339027,2731,213125,NA,339131,339673,339025,339131,Flanker Experiment,129,75531,140,yes,1024
92.19858156,92.19858156,539.1914894,539.1914894,black,legacy,legacy,legacy,0,incongruent,uniform,1,undefined,1,s,0,0,0,140,140,0,140,0,140,0,0,0,140,140,140,140,9/29/19 19:57,600,The main experiment item,yes,FlankerExperiment.osexp,E:\Classwork\AQMAED,no,mono,no,18,no,white,no,yes,768,legacy,60,79,E:/Classwork/AQMAED/SB-subject-2.csv,legacy,Kafkaesque Koffka,3.2.8,0,s,NA,s,s,NA,s,495,NA,66229,17588,NA,495,2,legacy,1024,2,48000,-16,experiment,HHSHH,2,even,68961,230713,NA,339682,314968,2728,332321,NA,340767,2731,213125,NA,340872,341369,340765,340872,Flanker Experiment,130,76026,141,yes,1024
92.25352113,92.25352113,538.8661972,538.8661972,black,legacy,legacy,legacy,0,congruent,uniform,1,undefined,1,s,0,0,0,141,141,0,141,0,141,0,0,0,141,141,141,141,9/29/19 19:57,600,The main experiment item,yes,FlankerExperiment.osexp,E:\Classwork\AQMAED,no,mono,no,18,no,white,no,yes,768,legacy,61,79,E:/Classwork/AQMAED/SB-subject-2.csv,legacy,Kafkaesque Koffka,3.2.8,0,s,NA,s,s,NA,s,493,NA,66229,17588,NA,493,2,legacy,1024,2,48000,-16,experiment,SSSSS,2,even,68961,230713,NA,341382,314968,2728,332321,NA,342467,2731,213125,NA,342571,343066,342464,342571,Flanker Experiment,131,76519,142,yes,1024
92.30769231,92.30769231,539.1188811,539.1188811,black,legacy,legacy,legacy,0,incongruent,uniform,1,undefined,1,s,0,0,0,142,142,0,142,0,142,0,0,0,142,142,142,142,9/29/19 19:57,600,The main experiment item,yes,FlankerExperiment.osexp,E:\Classwork\AQMAED,no,mono,no,18,no,white,no,yes,768,legacy,62,79,E:/Classwork/AQMAED/SB-subject-2.csv,legacy,Kafkaesque Koffka,3.2.8,0,s,NA,s,s,NA,s,575,NA,66229,17588,NA,575,2,legacy,1024,2,48000,-16,experiment,HHSHH,2,even,68961,230713,NA,343080,314968,2728,332321,NA,344179,2731,213125,NA,344280,344857,344177,344280,Flanker Experiment,132,77094,143,yes,1024
92.36111111,92.36111111,538.9652778,538.9652778,black,legacy,legacy,legacy,0,incongruent,uniform,1,undefined,1,h,0,0,0,143,143,0,143,0,143,0,0,0,143,143,143,143,9/29/19 19:57,600,The main experiment item,yes,FlankerExperiment.osexp,E:\Classwork\AQMAED,no,mono,no,18,no,white,no,yes,768,legacy,63,79,E:/Classwork/AQMAED/SB-subject-2.csv,legacy,Kafkaesque Koffka,3.2.8,0,h,NA,s,s,NA,h,517,NA,66229,17588,NA,517,2,legacy,1024,2,48000,-16,experiment,SSHSS,2,even,68961,230713,NA,344866,314968,2728,332321,NA,345949,2731,213125,NA,346055,346573,345947,346054,Flanker Experiment,133,77611,144,yes,1024
92.4137931,92.4137931,538.9793103,538.9793103,black,legacy,legacy,legacy,0,congruent,uniform,1,undefined,1,s,0,0,0,144,144,0,144,0,144,0,0,0,144,144,144,144,9/29/19 19:57,600,The main experiment item,yes,FlankerExperiment.osexp,E:\Classwork\AQMAED,no,mono,no,18,no,white,no,yes,768,legacy,64,79,E:/Classwork/AQMAED/SB-subject-2.csv,legacy,Kafkaesque Koffka,3.2.8,0,s,NA,s,s,NA,s,541,NA,66229,17588,NA,541,2,legacy,1024,2,48000,-16,experiment,SSSSS,2,even,68961,230713,NA,346579,314968,2728,332321,NA,347664,2731,213125,NA,347768,348311,347661,347768,Flanker Experiment,134,78152,145,yes,1024
92.46575342,92.46575342,538.4726027,538.4726027,black,legacy,legacy,legacy,0,congruent,uniform,1,undefined,1,h,0,0,0,145,145,0,145,0,145,0,0,0,145,145,145,145,9/29/19 19:57,600,The main experiment item,yes,FlankerExperiment.osexp,E:\Classwork\AQMAED,no,mono,no,18,no,white,no,yes,768,legacy,65,79,E:/Classwork/AQMAED/SB-subject-2.csv,legacy,Kafkaesque Koffka,3.2.8,0,h,NA,s,s,NA,h,465,NA,66229,17588,NA,465,2,legacy,1024,2,48000,-16,experiment,HHHHH,2,even,68961,230713,NA,348320,314968,2728,332321,NA,349405,2731,213125,NA,349509,349976,349402,349509,Flanker Experiment,135,78617,146,yes,1024
92.5170068,92.5170068,538.047619,538.047619,black,legacy,legacy,legacy,0,congruent,uniform,1,undefined,1,h,0,0,0,146,146,0,146,0,146,0,0,0,146,146,146,146,9/29/19 19:57,600,The main experiment item,yes,FlankerExperiment.osexp,E:\Classwork\AQMAED,no,mono,no,18,no,white,no,yes,768,legacy,66,79,E:/Classwork/AQMAED/SB-subject-2.csv,legacy,Kafkaesque Koffka,3.2.8,0,h,NA,s,s,NA,h,476,NA,66229,17588,NA,476,2,legacy,1024,2,48000,-16,experiment,HHHHH,2,even,68961,230713,NA,349985,314968,2728,332321,NA,351077,2731,213125,NA,351180,351657,351074,351179,Flanker Experiment,136,79093,147,yes,1024
92.56756757,92.56756757,537.5878378,537.5878378,black,legacy,legacy,legacy,0,incongruent,uniform,1,undefined,1,s,0,0,0,147,147,0,147,0,147,0,0,0,147,147,147,147,9/29/19 19:57,600,The main experiment item,yes,FlankerExperiment.osexp,E:\Classwork\AQMAED,no,mono,no,18,no,white,no,yes,768,legacy,67,79,E:/Classwork/AQMAED/SB-subject-2.csv,legacy,Kafkaesque Koffka,3.2.8,0,s,NA,s,s,NA,s,470,NA,66229,17588,NA,470,2,legacy,1024,2,48000,-16,experiment,HHSHH,2,even,68961,230713,NA,351667,314968,2728,332321,NA,352752,2731,213125,NA,352854,353326,352749,352853,Flanker Experiment,137,79563,148,yes,1024
92.61744966,92.61744966,537.3422819,537.3422819,black,legacy,legacy,legacy,0,congruent,uniform,1,undefined,1,h,0,0,0,148,148,0,148,0,148,0,0,0,148,148,148,148,9/29/19 19:57,600,The main experiment item,yes,FlankerExperiment.osexp,E:\Classwork\AQMAED,no,mono,no,18,no,white,no,yes,768,legacy,68,79,E:/Classwork/AQMAED/SB-subject-2.csv,legacy,Kafkaesque Koffka,3.2.8,0,h,NA,s,s,NA,h,501,NA,66229,17588,NA,501,2,legacy,1024,2,48000,-16,experiment,HHHHH,2,even,68961,230713,NA,353334,314968,2728,332321,NA,354415,2731,213125,NA,354519,355021,354412,354519,Flanker Experiment,138,80064,149,yes,1024
92.66666667,92.66666667,535.9066667,535.9066667,black,legacy,legacy,legacy,0,congruent,uniform,1,undefined,1,s,0,0,0,149,149,0,149,0,149,0,0,0,149,149,149,149,9/29/19 19:57,600,The main experiment item,yes,FlankerExperiment.osexp,E:\Classwork\AQMAED,no,mono,no,18,no,white,no,yes,768,legacy,69,79,E:/Classwork/AQMAED/SB-subject-2.csv,legacy,Kafkaesque Koffka,3.2.8,0,s,NA,s,s,NA,s,322,NA,66229,17588,NA,322,2,legacy,1024,2,48000,-16,experiment,SSSSS,2,even,68961,230713,NA,355027,314968,2728,332321,NA,356113,2731,213125,NA,356218,356542,356110,356218,Flanker Experiment,139,80386,150,yes,1024
92.05298013,92.05298013,535.8741722,535.8741722,black,legacy,legacy,legacy,0,incongruent,uniform,0,undefined,0,h,0,0,0,150,150,0,150,0,150,0,0,0,150,150,150,150,9/29/19 19:57,600,The main experiment item,yes,FlankerExperiment.osexp,E:\Classwork\AQMAED,no,mono,no,18,no,white,no,yes,768,legacy,70,79,E:/Classwork/AQMAED/SB-subject-2.csv,legacy,Kafkaesque Koffka,3.2.8,0,s,NA,s,s,NA,s,531,NA,66229,17588,NA,531,2,legacy,1024,2,48000,-16,experiment,SSHSS,2,even,68961,230713,NA,356551,314968,2728,332321,NA,357645,2731,213125,NA,357750,358282,357643,357750,Flanker Experiment,139,80917,151,yes,1024
92.10526316,92.10526316,538.9342105,538.9342105,black,legacy,legacy,legacy,0,congruent,uniform,1,undefined,1,s,0,0,0,151,151,0,151,0,151,0,0,0,151,151,151,151,9/29/19 19:57,600,The main experiment item,yes,FlankerExperiment.osexp,E:\Classwork\AQMAED,no,mono,no,18,no,white,no,yes,768,legacy,71,79,E:/Classwork/AQMAED/SB-subject-2.csv,legacy,Kafkaesque Koffka,3.2.8,0,s,NA,s,s,NA,s,1001,NA,66229,17588,NA,1001,2,legacy,1024,2,48000,-16,experiment,SSSSS,2,even,68961,230713,NA,358796,358292,2728,332321,NA,359888,2731,213125,NA,359993,360996,359885,359992,Flanker Experiment,140,81918,152,yes,1024
92.15686275,92.15686275,539.5620915,539.5620915,black,legacy,legacy,legacy,0,incongruent,uniform,1,undefined,1,h,0,0,0,152,152,0,152,0,152,0,0,0,152,152,152,152,9/29/19 19:57,600,The main experiment item,yes,FlankerExperiment.osexp,E:\Classwork\AQMAED,no,mono,no,18,no,white,no,yes,768,legacy,72,79,E:/Classwork/AQMAED/SB-subject-2.csv,legacy,Kafkaesque Koffka,3.2.8,0,h,NA,s,s,NA,h,635,NA,66229,17588,NA,635,2,legacy,1024,2,48000,-16,experiment,SSHSS,2,even,68961,230713,NA,361510,358292,2728,361007,NA,362591,2731,213125,NA,362695,363332,362589,362694,Flanker Experiment,141,82553,153,yes,1024
92.20779221,92.20779221,539.2207792,539.2207792,black,legacy,legacy,legacy,0,congruent,uniform,1,undefined,1,s,0,0,0,153,153,0,153,0,153,0,0,0,153,153,153,153,9/29/19 19:57,600,The main experiment item,yes,FlankerExperiment.osexp,E:\Classwork\AQMAED,no,mono,no,18,no,white,no,yes,768,legacy,73,79,E:/Classwork/AQMAED/SB-subject-2.csv,legacy,Kafkaesque Koffka,3.2.8,0,s,NA,s,s,NA,s,487,NA,66229,17588,NA,487,2,legacy,1024,2,48000,-16,experiment,SSSSS,2,even,68961,230713,NA,363846,358292,2728,363341,NA,364926,2731,213125,NA,365030,365519,364924,365030,Flanker Experiment,142,83040,154,yes,1024
92.25806452,92.25806452,538.4645161,538.4645161,black,legacy,legacy,legacy,0,congruent,uniform,1,undefined,1,s,0,0,0,154,154,0,154,0,154,0,0,0,154,154,154,154,9/29/19 19:57,600,The main experiment item,yes,FlankerExperiment.osexp,E:\Classwork\AQMAED,no,mono,no,18,no,white,no,yes,768,legacy,74,79,E:/Classwork/AQMAED/SB-subject-2.csv,legacy,Kafkaesque Koffka,3.2.8,0,s,NA,s,s,NA,s,422,NA,66229,17588,NA,422,2,legacy,1024,2,48000,-16,experiment,SSSSS,2,even,68961,230713,NA,365524,358292,2728,363341,NA,366628,2731,213125,NA,366733,367156,366626,366733,Flanker Experiment,143,83462,155,yes,1024
92.30769231,92.30769231,538.6346154,538.6346154,black,legacy,legacy,legacy,0,incongruent,uniform,1,undefined,1,s,0,0,0,155,155,0,155,0,155,0,0,0,155,155,155,155,9/29/19 19:57,600,The main experiment item,yes,FlankerExperiment.osexp,E:\Classwork\AQMAED,no,mono,no,18,no,white,no,yes,768,legacy,75,79,E:/Classwork/AQMAED/SB-subject-2.csv,legacy,Kafkaesque Koffka,3.2.8,0,s,NA,s,s,NA,s,565,NA,66229,17588,NA,565,2,legacy,1024,2,48000,-16,experiment,HHSHH,2,even,68961,230713,NA,367166,358292,2728,363341,NA,368246,2731,213125,NA,368350,368916,368243,368349,Flanker Experiment,144,84027,156,yes,1024
92.3566879,92.3566879,538.8726115,538.8726115,black,legacy,legacy,legacy,0,incongruent,uniform,1,undefined,1,h,0,0,0,156,156,0,156,0,156,0,0,0,156,156,156,156,9/29/19 19:57,600,The main experiment item,yes,FlankerExperiment.osexp,E:\Classwork\AQMAED,no,mono,no,18,no,white,no,yes,768,legacy,76,79,E:/Classwork/AQMAED/SB-subject-2.csv,legacy,Kafkaesque Koffka,3.2.8,0,h,NA,s,s,NA,h,576,NA,66229,17588,NA,576,2,legacy,1024,2,48000,-16,experiment,SSHSS,2,even,68961,230713,NA,368927,358292,2728,363341,NA,370013,2731,213125,NA,370116,370693,370011,370116,Flanker Experiment,145,84603,157,yes,1024
92.40506329,92.40506329,538.6455696,538.6455696,black,legacy,legacy,legacy,0,incongruent,uniform,1,undefined,1,h,0,0,0,157,157,0,157,0,157,0,0,0,157,157,157,157,9/29/19 19:57,600,The main experiment item,yes,FlankerExperiment.osexp,E:\Classwork\AQMAED,no,mono,no,18,no,white,no,yes,768,legacy,77,79,E:/Classwork/AQMAED/SB-subject-2.csv,legacy,Kafkaesque Koffka,3.2.8,0,h,NA,s,s,NA,h,503,NA,66229,17588,NA,503,2,legacy,1024,2,48000,-16,experiment,SSHSS,2,even,68961,230713,NA,370705,358292,2728,363341,NA,371788,2731,213125,NA,371891,372396,371786,371891,Flanker Experiment,146,85106,158,yes,1024
92.45283019,92.45283019,538.0754717,538.0754717,black,legacy,legacy,legacy,0,incongruent,uniform,1,undefined,1,s,0,0,0,158,158,0,158,0,158,0,0,0,158,158,158,158,9/29/19 19:57,600,The main experiment item,yes,FlankerExperiment.osexp,E:\Classwork\AQMAED,no,mono,no,18,no,white,no,yes,768,legacy,78,79,E:/Classwork/AQMAED/SB-subject-2.csv,legacy,Kafkaesque Koffka,3.2.8,0,s,NA,s,s,NA,s,448,NA,66229,17588,NA,448,2,legacy,1024,2,48000,-16,experiment,HHSHH,2,even,68961,230713,NA,372406,358292,2728,363341,NA,373497,2731,213125,NA,373602,374051,373494,373602,Flanker Experiment,147,85554,159,yes,1024
92.5,92.5,537.66875,537.66875,black,legacy,legacy,legacy,0,congruent,uniform,1,undefined,1,h,0,0,0,159,159,0,159,0,159,0,0,0,159,159,159,159,9/29/19 19:57,600,The main experiment item,yes,FlankerExperiment.osexp,E:\Classwork\AQMAED,no,mono,no,18,no,white,no,yes,768,legacy,79,79,E:/Classwork/AQMAED/SB-subject-2.csv,legacy,Kafkaesque Koffka,3.2.8,0,h,NA,s,s,NA,h,473,NA,66229,17588,NA,473,2,legacy,1024,2,48000,-16,experiment,HHHHH,2,even,68961,230713,NA,374060,358292,2728,363341,NA,375190,2731,213125,NA,375294,375769,375187,375294,Flanker Experiment,148,86027,160,yes,1024
92.54658385,92.54658385,539.5031056,539.5031056,black,legacy,legacy,legacy,0,incongruent,uniform,1,undefined,1,h,0,0,0,160,160,0,160,0,160,0,0,0,160,160,160,160,9/29/19 19:57,300,The main experiment item,yes,FlankerExperiment.osexp,E:\Classwork\AQMAED,no,mono,no,18,no,white,no,yes,768,legacy,0,79,E:/Classwork/AQMAED/SB-subject-2.csv,legacy,Kafkaesque Koffka,3.2.8,0,h,NA,s,s,s,h,833,NA,66229,17588,15500,833,2,legacy,1024,2,48000,-16,experiment,SSHSS,2,even,68961,230713,392302,375778,358292,2728,363341,NA,392366,2731,213125,376801,392469,393303,392364,392469,Flanker Experiment,149,86860,161,yes,1024
92.59259259,92.59259259,539.1728395,539.1728395,black,legacy,legacy,legacy,0,incongruent,uniform,1,undefined,1,s,0,0,0,161,161,0,161,0,161,0,0,0,161,161,161,161,9/29/19 19:57,300,The main experiment item,yes,FlankerExperiment.osexp,E:\Classwork\AQMAED,no,mono,no,18,no,white,no,yes,768,legacy,1,79,E:/Classwork/AQMAED/SB-subject-2.csv,legacy,Kafkaesque Koffka,3.2.8,0,s,NA,s,s,s,s,486,NA,66229,17588,15500,486,2,legacy,1024,2,48000,-16,experiment,HHSHH,2,even,68961,230713,392302,393815,358292,2728,393312,NA,394967,2731,213125,376801,395069,395557,394964,395069,Flanker Experiment,150,87346,162,yes,1024
92.63803681,92.63803681,539.1779141,539.1779141,black,legacy,legacy,legacy,0,congruent,uniform,1,undefined,1,s,0,0,0,162,162,0,162,0,162,0,0,0,162,162,162,162,9/29/19 19:57,300,The main experiment item,yes,FlankerExperiment.osexp,E:\Classwork\AQMAED,no,mono,no,18,no,white,no,yes,768,legacy,2,79,E:/Classwork/AQMAED/SB-subject-2.csv,legacy,Kafkaesque Koffka,3.2.8,0,s,NA,s,s,s,s,540,NA,66229,17588,15500,540,2,legacy,1024,2,48000,-16,experiment,SSSSS,2,even,68961,230713,392302,396071,358292,2728,395567,NA,397254,2731,213125,376801,397357,397899,397251,397357,Flanker Experiment,151,87886,163,yes,1024
92.68292683,92.68292683,538.7378049,538.7378049,black,legacy,legacy,legacy,0,congruent,uniform,1,undefined,1,s,0,0,0,163,163,0,163,0,163,0,0,0,163,163,163,163,9/29/19 19:57,300,The main experiment item,yes,FlankerExperiment.osexp,E:\Classwork\AQMAED,no,mono,no,18,no,white,no,yes,768,legacy,3,79,E:/Classwork/AQMAED/SB-subject-2.csv,legacy,Kafkaesque Koffka,3.2.8,0,s,NA,s,s,s,s,467,NA,66229,17588,15500,467,2,legacy,1024,2,48000,-16,experiment,SSSSS,2,even,68961,230713,392302,398412,358292,2728,397908,NA,399601,2731,213125,376801,399705,400176,399596,399705,Flanker Experiment,152,88353,164,yes,1024
92.72727273,92.72727273,537.9393939,537.9393939,black,legacy,legacy,legacy,0,congruent,uniform,1,undefined,1,s,0,0,0,164,164,0,164,0,164,0,0,0,164,164,164,164,9/29/19 19:57,300,The main experiment item,yes,FlankerExperiment.osexp,E:\Classwork\AQMAED,no,mono,no,18,no,white,no,yes,768,legacy,4,79,E:/Classwork/AQMAED/SB-subject-2.csv,legacy,Kafkaesque Koffka,3.2.8,0,s,NA,s,s,s,s,407,NA,66229,17588,15500,407,2,legacy,1024,2,48000,-16,experiment,SSSSS,2,even,68961,230713,392302,400694,358292,2728,400190,NA,401867,2731,213125,376801,401972,402382,401863,401972,Flanker Experiment,153,88760,165,yes,1024
92.77108434,92.77108434,536.9216867,536.9216867,black,legacy,legacy,legacy,0,congruent,uniform,1,undefined,1,h,0,0,0,165,165,0,165,0,165,0,0,0,165,165,165,165,9/29/19 19:57,300,The main experiment item,yes,FlankerExperiment.osexp,E:\Classwork\AQMAED,no,mono,no,18,no,white,no,yes,768,legacy,5,79,E:/Classwork/AQMAED/SB-subject-2.csv,legacy,Kafkaesque Koffka,3.2.8,0,h,NA,s,s,s,h,369,NA,66229,17588,15500,369,2,legacy,1024,2,48000,-16,experiment,HHHHH,2,even,68961,230713,392302,402898,358292,2728,402393,NA,404077,2731,213125,376801,404182,404553,404073,404181,Flanker Experiment,154,89129,166,yes,1024
92.81437126,92.81437126,535.0598802,535.0598802,black,legacy,legacy,legacy,0,incongruent,uniform,1,undefined,1,s,0,0,0,166,166,0,166,0,166,0,0,0,166,166,166,166,9/29/19 19:57,300,The main experiment item,yes,FlankerExperiment.osexp,E:\Classwork\AQMAED,no,mono,no,18,no,white,no,yes,768,legacy,6,79,E:/Classwork/AQMAED/SB-subject-2.csv,legacy,Kafkaesque Koffka,3.2.8,0,s,NA,s,s,s,s,226,NA,66229,17588,15500,226,2,legacy,1024,2,48000,-16,experiment,HHSHH,2,even,68961,230713,392302,405067,358292,2728,404562,NA,406298,2731,213125,376801,406402,406636,406292,406402,Flanker Experiment,155,89355,167,yes,1024
92.26190476,92.26190476,534.1369048,534.1369048,black,legacy,legacy,legacy,0,incongruent,uniform,0,undefined,0,s,0,0,0,167,167,0,167,0,167,0,0,0,167,167,167,167,9/29/19 19:57,300,The main experiment item,yes,FlankerExperiment.osexp,E:\Classwork\AQMAED,no,mono,no,18,no,white,no,yes,768,legacy,7,79,E:/Classwork/AQMAED/SB-subject-2.csv,legacy,Kafkaesque Koffka,3.2.8,0,h,NA,s,s,s,h,380,NA,66229,17588,15500,380,2,legacy,1024,2,48000,-16,experiment,HHSHH,2,even,68961,230713,392302,406655,358292,2728,404562,NA,407889,2731,213125,376801,407994,408379,407885,407994,Flanker Experiment,155,89735,168,yes,1024
92.30769231,92.30769231,533.5384615,533.5384615,black,legacy,legacy,legacy,0,congruent,uniform,1,undefined,1,h,0,0,0,168,168,0,168,0,168,0,0,0,168,168,168,168,9/29/19 19:57,300,The main experiment item,yes,FlankerExperiment.osexp,E:\Classwork\AQMAED,no,mono,no,18,no,white,no,yes,768,legacy,8,79,E:/Classwork/AQMAED/SB-subject-2.csv,legacy,Kafkaesque Koffka,3.2.8,0,h,NA,s,s,s,h,433,NA,66229,17588,15500,433,2,legacy,1024,2,48000,-16,experiment,HHHHH,2,even,68961,230713,392302,409399,408389,2728,408894,NA,410598,2731,213125,376801,410704,411140,410593,410704,Flanker Experiment,156,90168,169,yes,1024
92.35294118,92.35294118,532.6941176,532.6941176,black,legacy,legacy,legacy,0,congruent,uniform,1,undefined,1,h,0,0,0,169,169,0,169,0,169,0,0,0,169,169,169,169,9/29/19 19:57,300,The main experiment item,yes,FlankerExperiment.osexp,E:\Classwork\AQMAED,no,mono,no,18,no,white,no,yes,768,legacy,9,79,E:/Classwork/AQMAED/SB-subject-2.csv,legacy,Kafkaesque Koffka,3.2.8,0,h,NA,s,s,s,h,390,NA,66229,17588,15500,390,2,legacy,1024,2,48000,-16,experiment,HHHHH,2,even,68961,230713,392302,411655,408389,2728,411150,NA,412834,2731,213125,376801,412939,413332,412830,412939,Flanker Experiment,157,90558,170,yes,1024
