acc,accuracy,average_response_time,avg_rt,background,canvas_backend,clock_backend,color_backend,compensation,condition,coordinates,correct,correct_instructions1,correct_keyboard_response,correct_response,count_Block1,count_Block2,count_Block3,count_ISI,count_errorFeedback,count_experiment,count_faster,count_finish,count_fixation,count_instructions1,count_instructions2,count_instructions3,count_keyboard_response,count_logger,count_sequence,count_stimulus,datetime,deadline,description,disable_garbage_collection,experiment_file,experiment_path,font_bold,font_family,font_italic,font_size,font_underline,foreground,form_clicks,fullscreen,height,keyboard_backend,live_row,live_row_Block1,logfile,mouse_backend,opensesame_codename,opensesame_version,repeat_cycle,response,response_finish,response_instructions1,response_instructions2,response_instructions3,response_keyboard_response,response_time,response_time_finish,response_time_instructions1,response_time_instructions2,response_time_instructions3,response_time_keyboard_response,round_decimals,sampler_backend,sound_buf_size,sound_channels,sound_freq,sound_sample_size,start,stimulus,subject_nr,subject_parity,time_Block1,time_Block2,time_Block3,time_ISI,time_errorFeedback,time_experiment,time_faster,time_finish,time_fixation,time_instructions1,time_instructions2,time_instructions3,time_keyboard_response,time_logger,time_sequence,time_stimulus,title,total_correct,total_response_time,total_responses,uniform_coordinates,width
0,0,1500,1500,black,legacy,legacy,legacy,0,congruent,uniform,0,undefined,0,h,0,0,0,0,0,0,0,0,0,0,0,0,0,0,0,0,9/29/19 20:18,1500,The main experiment item,yes,FlankerExperiment.osexp,E:\Classwork\AQMAED,no,mono,no,18,no,white,no,yes,768,legacy,0,0,E:/Classwork/AQMAED/MA-subject-4.csv,legacy,Kafkaesque Koffka,3.2.8,0,None,NA,h,NA,NA,None,1500,NA,40631,NA,NA,1500,2,legacy,1024,2,48000,-16,experiment,HHHHH,4,even,42751,NA,NA,NA,NA,2113,NA,NA,42829,2119,NA,NA,42932,44432,42827,42932,Flanker Experiment,0,1500,1,yes,1024
0,0,1500,1500,black,legacy,legacy,legacy,0,congruent,uniform,0,undefined,0,h,0,0,0,1,1,0,1,0,1,0,0,0,1,1,1,1,9/29/19 20:18,1500,The main experiment item,yes,FlankerExperiment.osexp,E:\Classwork\AQMAED,no,mono,no,18,no,white,no,yes,768,legacy,1,1,E:/Classwork/AQMAED/MA-subject-4.csv,legacy,Kafkaesque Koffka,3.2.8,0,None,NA,h,NA,NA,None,1500,NA,40631,NA,NA,1500,2,legacy,1024,2,48000,-16,experiment,HHHHH,4,even,42751,NA,NA,44959,44455,2113,NA,NA,46112,2119,NA,NA,46216,47716,46109,46215,Flanker Experiment,0,3000,2,yes,1024
33.33333333,33.33333333,1237.666667,1237.666667,black,legacy,legacy,legacy,0,incongruent,uniform,1,undefined,1,h,0,0,0,2,2,0,2,0,2,0,0,0,2,2,2,2,9/29/19 20:18,1500,The main experiment item,yes,FlankerExperiment.osexp,E:\Classwork\AQMAED,no,mono,no,18,no,white,no,yes,768,legacy,2,2,E:/Classwork/AQMAED/MA-subject-4.csv,legacy,Kafkaesque Koffka,3.2.8,0,h,NA,h,NA,NA,h,713,NA,40631,NA,NA,713,2,legacy,1024,2,48000,-16,experiment,SSHSS,4,even,42751,NA,NA,48239,47735,2113,NA,NA,49394,2119,NA,NA,49498,50212,49390,49498,Flanker Experiment,1,3713,3,yes,1024
50,50,1074.5,1074.5,black,legacy,legacy,legacy,0,congruent,uniform,1,undefined,1,h,0,0,0,3,3,0,3,0,3,0,0,0,3,3,3,3,9/29/19 20:18,1500,The main experiment item,yes,FlankerExperiment.osexp,E:\Classwork\AQMAED,no,mono,no,18,no,white,no,yes,768,legacy,3,3,E:/Classwork/AQMAED/MA-subject-4.csv,legacy,Kafkaesque Koffka,3.2.8,0,h,NA,h,NA,NA,h,585,NA,40631,NA,NA,585,2,legacy,1024,2,48000,-16,experiment,HHHHH,4,even,42751,NA,NA,50219,47735,2113,NA,NA,51408,2119,NA,NA,51512,52097,51405,51511,Flanker Experiment,2,4298,4,yes,1024
60,60,939.4,939.4,black,legacy,legacy,legacy,0,congruent,uniform,1,undefined,1,h,0,0,0,4,4,0,4,0,4,0,0,0,4,4,4,4,9/29/19 20:18,1500,The main experiment item,yes,FlankerExperiment.osexp,E:\Classwork\AQMAED,no,mono,no,18,no,white,no,yes,768,legacy,4,4,E:/Classwork/AQMAED/MA-subject-4.csv,legacy,Kafkaesque Koffka,3.2.8,0,h,NA,h,NA,NA,h,399,NA,40631,NA,NA,399,2,legacy,1024,2,48000,-16,experiment,HHHHH,4,even,42751,NA,NA,52106,47735,2113,NA,NA,53345,2119,NA,NA,53450,53850,53341,53450,Flanker Experiment,3,4697,5,yes,1024
66.66666667,66.66666667,844.6666667,844.6666667,black,legacy,legacy,legacy,0,congruent,uniform,1,undefined,1,s,0,0,0,5,5,0,5,0,5,0,0,0,5,5,5,5,9/29/19 20:18,1500,The main experiment item,yes,FlankerExperiment.osexp,E:\Classwork\AQMAED,no,mono,no,18,no,white,no,yes,768,legacy,5,5,E:/Classwork/AQMAED/MA-subject-4.csv,legacy,Kafkaesque Koffka,3.2.8,0,s,NA,h,NA,NA,s,371,NA,40631,NA,NA,371,2,legacy,1024,2,48000,-16,experiment,SSSSS,4,even,42751,NA,NA,53863,47735,2113,NA,NA,55040,2119,NA,NA,55145,55516,55038,55145,Flanker Experiment,4,5068,6,yes,1024
57.14285714,57.14285714,776.4285714,776.4285714,black,legacy,legacy,legacy,0,incongruent,uniform,0,undefined,0,s,0,0,0,6,6,0,6,0,6,0,0,0,6,6,6,6,9/29/19 20:18,1500,The main experiment item,yes,FlankerExperiment.osexp,E:\Classwork\AQMAED,no,mono,no,18,no,white,no,yes,768,legacy,6,6,E:/Classwork/AQMAED/MA-subject-4.csv,legacy,Kafkaesque Koffka,3.2.8,0,h,NA,h,NA,NA,h,367,NA,40631,NA,NA,367,2,legacy,1024,2,48000,-16,experiment,HHSHH,4,even,42751,NA,NA,55526,47735,2113,NA,NA,56715,2119,NA,NA,56820,57188,56712,56819,Flanker Experiment,4,5435,7,yes,1024
50,50,725.25,725.25,black,legacy,legacy,legacy,0,incongruent,uniform,0,undefined,0,s,0,0,0,7,7,0,7,0,7,0,0,0,7,7,7,7,9/29/19 20:18,1500,The main experiment item,yes,FlankerExperiment.osexp,E:\Classwork\AQMAED,no,mono,no,18,no,white,no,yes,768,legacy,7,7,E:/Classwork/AQMAED/MA-subject-4.csv,legacy,Kafkaesque Koffka,3.2.8,0,h,NA,h,NA,NA,h,367,NA,40631,NA,NA,367,2,legacy,1024,2,48000,-16,experiment,HHSHH,4,even,42751,NA,NA,57705,57201,2113,NA,NA,58931,2119,NA,NA,59035,59403,58925,59035,Flanker Experiment,4,5802,8,yes,1024
55.55555556,55.55555556,706.8888889,706.8888889,black,legacy,legacy,legacy,0,congruent,uniform,1,undefined,1,s,0,0,0,8,8,0,8,0,8,0,0,0,8,8,8,8,9/29/19 20:18,1500,The main experiment item,yes,FlankerExperiment.osexp,E:\Classwork\AQMAED,no,mono,no,18,no,white,no,yes,768,legacy,8,8,E:/Classwork/AQMAED/MA-subject-4.csv,legacy,Kafkaesque Koffka,3.2.8,0,s,NA,h,NA,NA,s,560,NA,40631,NA,NA,560,2,legacy,1024,2,48000,-16,experiment,SSSSS,4,even,42751,NA,NA,59920,59415,2113,NA,NA,61089,2119,NA,NA,61194,61755,61086,61193,Flanker Experiment,5,6362,9,yes,1024
60,60,675.9,675.9,black,legacy,legacy,legacy,0,incongruent,uniform,1,undefined,1,s,0,0,0,9,9,0,9,0,9,0,0,0,9,9,9,9,9/29/19 20:18,1500,The main experiment item,yes,FlankerExperiment.osexp,E:\Classwork\AQMAED,no,mono,no,18,no,white,no,yes,768,legacy,9,9,E:/Classwork/AQMAED/MA-subject-4.csv,legacy,Kafkaesque Koffka,3.2.8,0,s,NA,h,NA,NA,s,397,NA,40631,NA,NA,397,2,legacy,1024,2,48000,-16,experiment,HHSHH,4,even,42751,NA,NA,61768,59415,2113,NA,NA,62983,2119,NA,NA,63088,63486,62979,63088,Flanker Experiment,6,6759,10,yes,1024
63.63636364,63.63636364,649.6363636,649.6363636,black,legacy,legacy,legacy,0,congruent,uniform,1,undefined,1,s,0,0,0,10,10,0,10,0,10,0,0,0,10,10,10,10,9/29/19 20:18,1500,The main experiment item,yes,FlankerExperiment.osexp,E:\Classwork\AQMAED,no,mono,no,18,no,white,no,yes,768,legacy,10,10,E:/Classwork/AQMAED/MA-subject-4.csv,legacy,Kafkaesque Koffka,3.2.8,0,s,NA,h,NA,NA,s,387,NA,40631,NA,NA,387,2,legacy,1024,2,48000,-16,experiment,SSSSS,4,even,42751,NA,NA,63504,59415,2113,NA,NA,64685,2119,NA,NA,64789,65177,64682,64789,Flanker Experiment,7,7146,11,yes,1024
66.66666667,66.66666667,625.1666667,625.1666667,black,legacy,legacy,legacy,0,congruent,uniform,1,undefined,1,s,0,0,0,11,11,0,11,0,11,0,0,0,11,11,11,11,9/29/19 20:18,1500,The main experiment item,yes,FlankerExperiment.osexp,E:\Classwork\AQMAED,no,mono,no,18,no,white,no,yes,768,legacy,11,11,E:/Classwork/AQMAED/MA-subject-4.csv,legacy,Kafkaesque Koffka,3.2.8,0,s,NA,h,NA,NA,s,356,NA,40631,NA,NA,356,2,legacy,1024,2,48000,-16,experiment,SSSSS,4,even,42751,NA,NA,65188,59415,2113,NA,NA,66407,2119,NA,NA,66512,66869,66404,66512,Flanker Experiment,8,7502,12,yes,1024
61.53846154,61.53846154,612.0769231,612.0769231,black,legacy,legacy,legacy,0,incongruent,uniform,0,undefined,0,h,0,0,0,12,12,0,12,0,12,0,0,0,12,12,12,12,9/29/19 20:18,1500,The main experiment item,yes,FlankerExperiment.osexp,E:\Classwork\AQMAED,no,mono,no,18,no,white,no,yes,768,legacy,12,12,E:/Classwork/AQMAED/MA-subject-4.csv,legacy,Kafkaesque Koffka,3.2.8,0,s,NA,h,NA,NA,s,455,NA,40631,NA,NA,455,2,legacy,1024,2,48000,-16,experiment,SSHSS,4,even,42751,NA,NA,66882,59415,2113,NA,NA,68099,2119,NA,NA,68204,68660,68094,68203,Flanker Experiment,8,7957,13,yes,1024
64.28571429,64.28571429,599,599,black,legacy,legacy,legacy,0,congruent,uniform,1,undefined,1,h,0,0,0,13,13,0,13,0,13,0,0,0,13,13,13,13,9/29/19 20:18,1500,The main experiment item,yes,FlankerExperiment.osexp,E:\Classwork\AQMAED,no,mono,no,18,no,white,no,yes,768,legacy,13,13,E:/Classwork/AQMAED/MA-subject-4.csv,legacy,Kafkaesque Koffka,3.2.8,0,h,NA,h,NA,NA,h,429,NA,40631,NA,NA,429,2,legacy,1024,2,48000,-16,experiment,HHHHH,4,even,42751,NA,NA,69174,68670,2113,NA,NA,70307,2119,NA,NA,70413,70843,70304,70412,Flanker Experiment,9,8386,14,yes,1024
66.66666667,66.66666667,590.3333333,590.3333333,black,legacy,legacy,legacy,0,incongruent,uniform,1,undefined,1,h,0,0,0,14,14,0,14,0,14,0,0,0,14,14,14,14,9/29/19 20:18,1500,The main experiment item,yes,FlankerExperiment.osexp,E:\Classwork\AQMAED,no,mono,no,18,no,white,no,yes,768,legacy,14,14,E:/Classwork/AQMAED/MA-subject-4.csv,legacy,Kafkaesque Koffka,3.2.8,0,h,NA,h,NA,NA,h,469,NA,40631,NA,NA,469,2,legacy,1024,2,48000,-16,experiment,SSHSS,4,even,42751,NA,NA,70848,68670,2113,NA,NA,72049,2119,NA,NA,72154,72623,72045,72153,Flanker Experiment,10,8855,15,yes,1024
68.75,68.75,576,576,black,legacy,legacy,legacy,0,incongruent,uniform,1,undefined,1,h,0,0,0,15,15,0,15,0,15,0,0,0,15,15,15,15,9/29/19 20:18,1500,The main experiment item,yes,FlankerExperiment.osexp,E:\Classwork\AQMAED,no,mono,no,18,no,white,no,yes,768,legacy,15,15,E:/Classwork/AQMAED/MA-subject-4.csv,legacy,Kafkaesque Koffka,3.2.8,0,h,NA,h,NA,NA,h,361,NA,40631,NA,NA,361,2,legacy,1024,2,48000,-16,experiment,SSHSS,4,even,42751,NA,NA,72632,68670,2113,NA,NA,73798,2119,NA,NA,73902,74264,73795,73902,Flanker Experiment,11,9216,16,yes,1024
70.58823529,70.58823529,565.0588235,565.0588235,black,legacy,legacy,legacy,0,incongruent,uniform,1,undefined,1,h,0,0,0,16,16,0,16,0,16,0,0,0,16,16,16,16,9/29/19 20:18,1500,The main experiment item,yes,FlankerExperiment.osexp,E:\Classwork\AQMAED,no,mono,no,18,no,white,no,yes,768,legacy,16,16,E:/Classwork/AQMAED/MA-subject-4.csv,legacy,Kafkaesque Koffka,3.2.8,0,h,NA,h,NA,NA,h,390,NA,40631,NA,NA,390,2,legacy,1024,2,48000,-16,experiment,SSHSS,4,even,42751,NA,NA,74279,68670,2113,NA,NA,75484,2119,NA,NA,75589,75981,75480,75588,Flanker Experiment,12,9606,17,yes,1024
66.66666667,66.66666667,552.2777778,552.2777778,black,legacy,legacy,legacy,0,congruent,uniform,0,undefined,0,s,0,0,0,17,17,0,17,0,17,0,0,0,17,17,17,17,9/29/19 20:18,1500,The main experiment item,yes,FlankerExperiment.osexp,E:\Classwork\AQMAED,no,mono,no,18,no,white,no,yes,768,legacy,17,17,E:/Classwork/AQMAED/MA-subject-4.csv,legacy,Kafkaesque Koffka,3.2.8,0,h,NA,h,NA,NA,h,335,NA,40631,NA,NA,335,2,legacy,1024,2,48000,-16,experiment,SSSSS,4,even,42751,NA,NA,75994,68670,2113,NA,NA,77196,2119,NA,NA,77301,77637,77193,77300,Flanker Experiment,12,9941,18,yes,1024
68.42105263,68.42105263,557.6315789,557.6315789,black,legacy,legacy,legacy,0,incongruent,uniform,1,undefined,1,h,0,0,0,18,18,0,18,0,18,0,0,0,18,18,18,18,9/29/19 20:18,1500,The main experiment item,yes,FlankerExperiment.osexp,E:\Classwork\AQMAED,no,mono,no,18,no,white,no,yes,768,legacy,18,18,E:/Classwork/AQMAED/MA-subject-4.csv,legacy,Kafkaesque Koffka,3.2.8,0,h,NA,h,NA,NA,h,654,NA,40631,NA,NA,654,2,legacy,1024,2,48000,-16,experiment,SSHSS,4,even,42751,NA,NA,78151,77647,2113,NA,NA,79304,2119,NA,NA,79409,80063,79300,79408,Flanker Experiment,13,10595,19,yes,1024
70,70,560.75,560.75,black,legacy,legacy,legacy,0,incongruent,uniform,1,undefined,1,s,0,0,0,19,19,0,19,0,19,0,0,0,19,19,19,19,9/29/19 20:18,1500,The main experiment item,yes,FlankerExperiment.osexp,E:\Classwork\AQMAED,no,mono,no,18,no,white,no,yes,768,legacy,19,19,E:/Classwork/AQMAED/MA-subject-4.csv,legacy,Kafkaesque Koffka,3.2.8,0,s,NA,h,NA,NA,s,620,NA,40631,NA,NA,620,2,legacy,1024,2,48000,-16,experiment,HHSHH,4,even,42751,NA,NA,80069,77647,2113,NA,NA,81260,2119,NA,NA,81364,81985,81257,81364,Flanker Experiment,14,11215,20,yes,1024
71.42857143,71.42857143,554,554,black,legacy,legacy,legacy,0,congruent,uniform,1,undefined,1,h,0,0,0,20,20,0,20,0,20,0,0,0,20,20,20,20,9/29/19 20:18,1500,The main experiment item,yes,FlankerExperiment.osexp,E:\Classwork\AQMAED,no,mono,no,18,no,white,no,yes,768,legacy,20,20,E:/Classwork/AQMAED/MA-subject-4.csv,legacy,Kafkaesque Koffka,3.2.8,0,h,NA,h,NA,NA,h,419,NA,40631,NA,NA,419,2,legacy,1024,2,48000,-16,experiment,HHHHH,4,even,42751,NA,NA,82006,77647,2113,NA,NA,83177,2119,NA,NA,83281,83701,83173,83280,Flanker Experiment,15,11634,21,yes,1024
72.72727273,72.72727273,549.3636364,549.3636364,black,legacy,legacy,legacy,0,incongruent,uniform,1,undefined,1,s,0,0,0,21,21,0,21,0,21,0,0,0,21,21,21,21,9/29/19 20:18,1500,The main experiment item,yes,FlankerExperiment.osexp,E:\Classwork\AQMAED,no,mono,no,18,no,white,no,yes,768,legacy,21,21,E:/Classwork/AQMAED/MA-subject-4.csv,legacy,Kafkaesque Koffka,3.2.8,0,s,NA,h,NA,NA,s,452,NA,40631,NA,NA,452,2,legacy,1024,2,48000,-16,experiment,HHSHH,4,even,42751,NA,NA,83715,77647,2113,NA,NA,84886,2119,NA,NA,84990,85443,84884,84990,Flanker Experiment,16,12086,22,yes,1024
73.91304348,73.91304348,548.7826087,548.7826087,black,legacy,legacy,legacy,0,congruent,uniform,1,undefined,1,s,0,0,0,22,22,0,22,0,22,0,0,0,22,22,22,22,9/29/19 20:18,1500,The main experiment item,yes,FlankerExperiment.osexp,E:\Classwork\AQMAED,no,mono,no,18,no,white,no,yes,768,legacy,22,22,E:/Classwork/AQMAED/MA-subject-4.csv,legacy,Kafkaesque Koffka,3.2.8,0,s,NA,h,NA,NA,s,536,NA,40631,NA,NA,536,2,legacy,1024,2,48000,-16,experiment,SSSSS,4,even,42751,NA,NA,85459,77647,2113,NA,NA,86662,2119,NA,NA,86766,87303,86656,86766,Flanker Experiment,17,12622,23,yes,1024
75,75,543.9583333,543.9583333,black,legacy,legacy,legacy,0,incongruent,uniform,1,undefined,1,s,0,0,0,23,23,0,23,0,23,0,0,0,23,23,23,23,9/29/19 20:18,1500,The main experiment item,yes,FlankerExperiment.osexp,E:\Classwork\AQMAED,no,mono,no,18,no,white,no,yes,768,legacy,23,23,E:/Classwork/AQMAED/MA-subject-4.csv,legacy,Kafkaesque Koffka,3.2.8,0,s,NA,h,NA,NA,s,433,NA,40631,NA,NA,433,2,legacy,1024,2,48000,-16,experiment,HHSHH,4,even,42751,NA,NA,87312,77647,2113,NA,NA,88485,2119,NA,NA,88590,89026,88482,88589,Flanker Experiment,18,13055,24,yes,1024
76,76,543.12,543.12,black,legacy,legacy,legacy,0,congruent,uniform,1,undefined,1,s,0,0,0,24,24,0,24,0,24,0,0,0,24,24,24,24,9/29/19 20:18,1500,The main experiment item,yes,FlankerExperiment.osexp,E:\Classwork\AQMAED,no,mono,no,18,no,white,no,yes,768,legacy,24,24,E:/Classwork/AQMAED/MA-subject-4.csv,legacy,Kafkaesque Koffka,3.2.8,0,s,NA,h,NA,NA,s,523,NA,40631,NA,NA,523,2,legacy,1024,2,48000,-16,experiment,SSSSS,4,even,42751,NA,NA,89035,77647,2113,NA,NA,90217,2119,NA,NA,90322,90845,90215,90322,Flanker Experiment,19,13578,25,yes,1024
76.92307692,76.92307692,538.1538462,538.1538462,black,legacy,legacy,legacy,0,congruent,uniform,1,undefined,1,s,0,0,0,25,25,0,25,0,25,0,0,0,25,25,25,25,9/29/19 20:18,1500,The main experiment item,yes,FlankerExperiment.osexp,E:\Classwork\AQMAED,no,mono,no,18,no,white,no,yes,768,legacy,25,25,E:/Classwork/AQMAED/MA-subject-4.csv,legacy,Kafkaesque Koffka,3.2.8,0,s,NA,h,NA,NA,s,414,NA,40631,NA,NA,414,2,legacy,1024,2,48000,-16,experiment,SSSSS,4,even,42751,NA,NA,90856,77647,2113,NA,NA,92028,2119,NA,NA,92132,92547,92023,92131,Flanker Experiment,20,13992,26,yes,1024
77.77777778,77.77777778,533.8148148,533.8148148,black,legacy,legacy,legacy,0,incongruent,uniform,1,undefined,1,s,0,0,0,26,26,0,26,0,26,0,0,0,26,26,26,26,9/29/19 20:18,1500,The main experiment item,yes,FlankerExperiment.osexp,E:\Classwork\AQMAED,no,mono,no,18,no,white,no,yes,768,legacy,26,26,E:/Classwork/AQMAED/MA-subject-4.csv,legacy,Kafkaesque Koffka,3.2.8,0,s,NA,h,NA,NA,s,421,NA,40631,NA,NA,421,2,legacy,1024,2,48000,-16,experiment,HHSHH,4,even,42751,NA,NA,92564,77647,2113,NA,NA,93787,2119,NA,NA,93892,94314,93784,93891,Flanker Experiment,21,14413,27,yes,1024
78.57142857,78.57142857,536.2142857,536.2142857,black,legacy,legacy,legacy,0,incongruent,uniform,1,undefined,1,h,0,0,0,27,27,0,27,0,27,0,0,0,27,27,27,27,9/29/19 20:18,1500,The main experiment item,yes,FlankerExperiment.osexp,E:\Classwork\AQMAED,no,mono,no,18,no,white,no,yes,768,legacy,27,27,E:/Classwork/AQMAED/MA-subject-4.csv,legacy,Kafkaesque Koffka,3.2.8,0,h,NA,h,NA,NA,h,601,NA,40631,NA,NA,601,2,legacy,1024,2,48000,-16,experiment,SSHSS,4,even,42751,NA,NA,94325,77647,2113,NA,NA,95473,2119,NA,NA,95577,96179,95470,95577,Flanker Experiment,22,15014,28,yes,1024
79.31034483,79.31034483,533.137931,533.137931,black,legacy,legacy,legacy,0,congruent,uniform,1,undefined,1,s,0,0,0,28,28,0,28,0,28,0,0,0,28,28,28,28,9/29/19 20:18,1500,The main experiment item,yes,FlankerExperiment.osexp,E:\Classwork\AQMAED,no,mono,no,18,no,white,no,yes,768,legacy,28,28,E:/Classwork/AQMAED/MA-subject-4.csv,legacy,Kafkaesque Koffka,3.2.8,0,s,NA,h,NA,NA,s,447,NA,40631,NA,NA,447,2,legacy,1024,2,48000,-16,experiment,SSSSS,4,even,42751,NA,NA,96189,77647,2113,NA,NA,97380,2119,NA,NA,97484,97931,97376,97484,Flanker Experiment,23,15461,29,yes,1024
80,80,531.5666667,531.5666667,black,legacy,legacy,legacy,0,congruent,uniform,1,undefined,1,h,0,0,0,29,29,0,29,0,29,0,0,0,29,29,29,29,9/29/19 20:18,1500,The main experiment item,yes,FlankerExperiment.osexp,E:\Classwork\AQMAED,no,mono,no,18,no,white,no,yes,768,legacy,29,29,E:/Classwork/AQMAED/MA-subject-4.csv,legacy,Kafkaesque Koffka,3.2.8,0,h,NA,h,NA,NA,h,486,NA,40631,NA,NA,486,2,legacy,1024,2,48000,-16,experiment,HHHHH,4,even,42751,NA,NA,97940,77647,2113,NA,NA,99140,2119,NA,NA,99245,99731,99135,99245,Flanker Experiment,24,15947,30,yes,1024
80.64516129,80.64516129,534.516129,534.516129,black,legacy,legacy,legacy,0,incongruent,uniform,1,undefined,1,h,0,0,0,30,30,0,30,0,30,0,0,0,30,30,30,30,9/29/19 20:18,1500,The main experiment item,yes,FlankerExperiment.osexp,E:\Classwork\AQMAED,no,mono,no,18,no,white,no,yes,768,legacy,30,30,E:/Classwork/AQMAED/MA-subject-4.csv,legacy,Kafkaesque Koffka,3.2.8,0,h,NA,h,NA,NA,h,623,NA,40631,NA,NA,623,2,legacy,1024,2,48000,-16,experiment,SSHSS,4,even,42751,NA,NA,99738,77647,2113,NA,NA,100959,2119,NA,NA,101064,101688,100955,101063,Flanker Experiment,25,16570,31,yes,1024
81.25,81.25,530.71875,530.71875,black,legacy,legacy,legacy,0,congruent,uniform,1,undefined,1,s,0,0,0,31,31,0,31,0,31,0,0,0,31,31,31,31,9/29/19 20:18,1500,The main experiment item,yes,FlankerExperiment.osexp,E:\Classwork\AQMAED,no,mono,no,18,no,white,no,yes,768,legacy,31,31,E:/Classwork/AQMAED/MA-subject-4.csv,legacy,Kafkaesque Koffka,3.2.8,0,s,NA,h,NA,NA,s,413,NA,40631,NA,NA,413,2,legacy,1024,2,48000,-16,experiment,SSSSS,4,even,42751,NA,NA,101698,77647,2113,NA,NA,102831,2119,NA,NA,102936,103349,102827,102935,Flanker Experiment,26,16983,32,yes,1024
81.81818182,81.81818182,534.2727273,534.2727273,black,legacy,legacy,legacy,0,incongruent,uniform,1,undefined,1,s,0,0,0,32,32,0,32,0,32,0,0,0,32,32,32,32,9/29/19 20:18,1500,The main experiment item,yes,FlankerExperiment.osexp,E:\Classwork\AQMAED,no,mono,no,18,no,white,no,yes,768,legacy,32,32,E:/Classwork/AQMAED/MA-subject-4.csv,legacy,Kafkaesque Koffka,3.2.8,0,s,NA,h,NA,NA,s,648,NA,40631,NA,NA,648,2,legacy,1024,2,48000,-16,experiment,HHSHH,4,even,42751,NA,NA,103362,77647,2113,NA,NA,104582,2119,NA,NA,104687,105337,104577,104686,Flanker Experiment,27,17631,33,yes,1024
82.35294118,82.35294118,532.5882353,532.5882353,black,legacy,legacy,legacy,0,congruent,uniform,1,undefined,1,h,0,0,0,33,33,0,33,0,33,0,0,0,33,33,33,33,9/29/19 20:18,1500,The main experiment item,yes,FlankerExperiment.osexp,E:\Classwork\AQMAED,no,mono,no,18,no,white,no,yes,768,legacy,33,33,E:/Classwork/AQMAED/MA-subject-4.csv,legacy,Kafkaesque Koffka,3.2.8,0,h,NA,h,NA,NA,h,477,NA,40631,NA,NA,477,2,legacy,1024,2,48000,-16,experiment,HHHHH,4,even,42751,NA,NA,105349,77647,2113,NA,NA,106520,2119,NA,NA,106625,107102,106518,106625,Flanker Experiment,28,18108,34,yes,1024
82.85714286,82.85714286,531.5142857,531.5142857,black,legacy,legacy,legacy,0,incongruent,uniform,1,undefined,1,s,0,0,0,34,34,0,34,0,34,0,0,0,34,34,34,34,9/29/19 20:18,1500,The main experiment item,yes,FlankerExperiment.osexp,E:\Classwork\AQMAED,no,mono,no,18,no,white,no,yes,768,legacy,34,34,E:/Classwork/AQMAED/MA-subject-4.csv,legacy,Kafkaesque Koffka,3.2.8,0,s,NA,h,NA,NA,s,495,NA,40631,NA,NA,495,2,legacy,1024,2,48000,-16,experiment,HHSHH,4,even,42751,NA,NA,107112,77647,2113,NA,NA,108328,2119,NA,NA,108433,108928,108323,108432,Flanker Experiment,29,18603,35,yes,1024
83.33333333,83.33333333,533.5555556,533.5555556,black,legacy,legacy,legacy,0,incongruent,uniform,1,undefined,1,h,0,0,0,35,35,0,35,0,35,0,0,0,35,35,35,35,9/29/19 20:18,1500,The main experiment item,yes,FlankerExperiment.osexp,E:\Classwork\AQMAED,no,mono,no,18,no,white,no,yes,768,legacy,35,35,E:/Classwork/AQMAED/MA-subject-4.csv,legacy,Kafkaesque Koffka,3.2.8,0,h,NA,h,NA,NA,h,605,NA,40631,NA,NA,605,2,legacy,1024,2,48000,-16,experiment,SSHSS,4,even,42751,NA,NA,108935,77647,2113,NA,NA,110140,2119,NA,NA,110245,110851,110135,110244,Flanker Experiment,30,19208,36,yes,1024
83.78378378,83.78378378,534,534,black,legacy,legacy,legacy,0,congruent,uniform,1,undefined,1,s,0,0,0,36,36,0,36,0,36,0,0,0,36,36,36,36,9/29/19 20:18,1500,The main experiment item,yes,FlankerExperiment.osexp,E:\Classwork\AQMAED,no,mono,no,18,no,white,no,yes,768,legacy,36,36,E:/Classwork/AQMAED/MA-subject-4.csv,legacy,Kafkaesque Koffka,3.2.8,0,s,NA,h,NA,NA,s,550,NA,40631,NA,NA,550,2,legacy,1024,2,48000,-16,experiment,SSSSS,4,even,42751,NA,NA,110862,77647,2113,NA,NA,112051,2119,NA,NA,112155,112705,112045,112155,Flanker Experiment,31,19758,37,yes,1024
84.21052632,84.21052632,531,531,black,legacy,legacy,legacy,0,congruent,uniform,1,undefined,1,h,0,0,0,37,37,0,37,0,37,0,0,0,37,37,37,37,9/29/19 20:18,1500,The main experiment item,yes,FlankerExperiment.osexp,E:\Classwork\AQMAED,no,mono,no,18,no,white,no,yes,768,legacy,37,37,E:/Classwork/AQMAED/MA-subject-4.csv,legacy,Kafkaesque Koffka,3.2.8,0,h,NA,h,NA,NA,h,420,NA,40631,NA,NA,420,2,legacy,1024,2,48000,-16,experiment,HHHHH,4,even,42751,NA,NA,112719,77647,2113,NA,NA,113916,2119,NA,NA,114021,114442,113912,114020,Flanker Experiment,32,20178,38,yes,1024
84.61538462,84.61538462,535.5384615,535.5384615,black,legacy,legacy,legacy,0,incongruent,uniform,1,undefined,1,h,0,0,0,38,38,0,38,0,38,0,0,0,38,38,38,38,9/29/19 20:18,1500,The main experiment item,yes,FlankerExperiment.osexp,E:\Classwork\AQMAED,no,mono,no,18,no,white,no,yes,768,legacy,38,38,E:/Classwork/AQMAED/MA-subject-4.csv,legacy,Kafkaesque Koffka,3.2.8,0,h,NA,h,NA,NA,h,708,NA,40631,NA,NA,708,2,legacy,1024,2,48000,-16,experiment,SSHSS,4,even,42751,NA,NA,114451,77647,2113,NA,NA,115649,2119,NA,NA,115754,116464,115644,115753,Flanker Experiment,33,20886,39,yes,1024
85,85,537,537,black,legacy,legacy,legacy,0,incongruent,uniform,1,undefined,1,h,0,0,0,39,39,0,39,0,39,0,0,0,39,39,39,39,9/29/19 20:18,1500,The main experiment item,yes,FlankerExperiment.osexp,E:\Classwork\AQMAED,no,mono,no,18,no,white,no,yes,768,legacy,39,39,E:/Classwork/AQMAED/MA-subject-4.csv,legacy,Kafkaesque Koffka,3.2.8,0,h,NA,h,NA,NA,h,594,NA,40631,NA,NA,594,2,legacy,1024,2,48000,-16,experiment,SSHSS,4,even,42751,NA,NA,116476,77647,2113,NA,NA,117627,2119,NA,NA,117731,118327,117625,117731,Flanker Experiment,34,21480,40,yes,1024
85.36585366,85.36585366,534.804878,534.804878,black,legacy,legacy,legacy,0,incongruent,uniform,1,undefined,1,s,0,0,0,40,40,0,40,0,40,0,0,0,40,40,40,40,9/29/19 20:18,1500,The main experiment item,yes,FlankerExperiment.osexp,E:\Classwork\AQMAED,no,mono,no,18,no,white,no,yes,768,legacy,40,40,E:/Classwork/AQMAED/MA-subject-4.csv,legacy,Kafkaesque Koffka,3.2.8,0,s,NA,h,NA,NA,s,447,NA,40631,NA,NA,447,2,legacy,1024,2,48000,-16,experiment,HHSHH,4,even,42751,NA,NA,118338,77647,2113,NA,NA,119547,2119,NA,NA,119653,120101,119544,119652,Flanker Experiment,35,21927,41,yes,1024
85.71428571,85.71428571,537.7380952,537.7380952,black,legacy,legacy,legacy,0,congruent,uniform,1,undefined,1,h,0,0,0,41,41,0,41,0,41,0,0,0,41,41,41,41,9/29/19 20:18,1500,The main experiment item,yes,FlankerExperiment.osexp,E:\Classwork\AQMAED,no,mono,no,18,no,white,no,yes,768,legacy,41,41,E:/Classwork/AQMAED/MA-subject-4.csv,legacy,Kafkaesque Koffka,3.2.8,0,h,NA,h,NA,NA,h,658,NA,40631,NA,NA,658,2,legacy,1024,2,48000,-16,experiment,HHHHH,4,even,42751,NA,NA,120111,77647,2113,NA,NA,121310,2119,NA,NA,121414,122073,121306,121414,Flanker Experiment,36,22585,42,yes,1024
86.04651163,86.04651163,537.7674419,537.7674419,black,legacy,legacy,legacy,0,incongruent,uniform,1,undefined,1,h,0,0,0,42,42,0,42,0,42,0,0,0,42,42,42,42,9/29/19 20:18,1500,The main experiment item,yes,FlankerExperiment.osexp,E:\Classwork\AQMAED,no,mono,no,18,no,white,no,yes,768,legacy,42,42,E:/Classwork/AQMAED/MA-subject-4.csv,legacy,Kafkaesque Koffka,3.2.8,0,h,NA,h,NA,NA,h,539,NA,40631,NA,NA,539,2,legacy,1024,2,48000,-16,experiment,SSHSS,4,even,42751,NA,NA,122082,77647,2113,NA,NA,123235,2119,NA,NA,123339,123879,123232,123339,Flanker Experiment,37,23124,43,yes,1024
86.36363636,86.36363636,539.0454545,539.0454545,black,legacy,legacy,legacy,0,incongruent,uniform,1,undefined,1,s,0,0,0,43,43,0,43,0,43,0,0,0,43,43,43,43,9/29/19 20:18,1500,The main experiment item,yes,FlankerExperiment.osexp,E:\Classwork\AQMAED,no,mono,no,18,no,white,no,yes,768,legacy,43,43,E:/Classwork/AQMAED/MA-subject-4.csv,legacy,Kafkaesque Koffka,3.2.8,0,s,NA,h,NA,NA,s,594,NA,40631,NA,NA,594,2,legacy,1024,2,48000,-16,experiment,HHSHH,4,even,42751,NA,NA,123890,77647,2113,NA,NA,125087,2119,NA,NA,125191,125785,125083,125191,Flanker Experiment,38,23718,44,yes,1024
86.66666667,86.66666667,541.3333333,541.3333333,black,legacy,legacy,legacy,0,congruent,uniform,1,undefined,1,s,0,0,0,44,44,0,44,0,44,0,0,0,44,44,44,44,9/29/19 20:18,1500,The main experiment item,yes,FlankerExperiment.osexp,E:\Classwork\AQMAED,no,mono,no,18,no,white,no,yes,768,legacy,44,44,E:/Classwork/AQMAED/MA-subject-4.csv,legacy,Kafkaesque Koffka,3.2.8,0,s,NA,h,NA,NA,s,642,NA,40631,NA,NA,642,2,legacy,1024,2,48000,-16,experiment,SSSSS,4,even,42751,NA,NA,125795,77647,2113,NA,NA,126950,2119,NA,NA,127054,127696,126947,127054,Flanker Experiment,39,24360,45,yes,1024
86.95652174,86.95652174,539.3695652,539.3695652,black,legacy,legacy,legacy,0,congruent,uniform,1,undefined,1,h,0,0,0,45,45,0,45,0,45,0,0,0,45,45,45,45,9/29/19 20:18,1500,The main experiment item,yes,FlankerExperiment.osexp,E:\Classwork\AQMAED,no,mono,no,18,no,white,no,yes,768,legacy,45,45,E:/Classwork/AQMAED/MA-subject-4.csv,legacy,Kafkaesque Koffka,3.2.8,0,h,NA,h,NA,NA,h,451,NA,40631,NA,NA,451,2,legacy,1024,2,48000,-16,experiment,HHHHH,4,even,42751,NA,NA,127707,77647,2113,NA,NA,128886,2119,NA,NA,128990,129444,128883,128990,Flanker Experiment,40,24811,46,yes,1024
87.23404255,87.23404255,538.212766,538.212766,black,legacy,legacy,legacy,0,congruent,uniform,1,undefined,1,s,0,0,0,46,46,0,46,0,46,0,0,0,46,46,46,46,9/29/19 20:18,1500,The main experiment item,yes,FlankerExperiment.osexp,E:\Classwork\AQMAED,no,mono,no,18,no,white,no,yes,768,legacy,46,46,E:/Classwork/AQMAED/MA-subject-4.csv,legacy,Kafkaesque Koffka,3.2.8,0,s,NA,h,NA,NA,s,485,NA,40631,NA,NA,485,2,legacy,1024,2,48000,-16,experiment,SSSSS,4,even,42751,NA,NA,129457,77647,2113,NA,NA,130684,2119,NA,NA,130789,131276,130679,130789,Flanker Experiment,41,25296,47,yes,1024
87.5,87.5,540.125,540.125,black,legacy,legacy,legacy,0,congruent,uniform,1,undefined,1,h,0,0,0,47,47,0,47,0,47,0,0,0,47,47,47,47,9/29/19 20:18,1500,The main experiment item,yes,FlankerExperiment.osexp,E:\Classwork\AQMAED,no,mono,no,18,no,white,no,yes,768,legacy,47,47,E:/Classwork/AQMAED/MA-subject-4.csv,legacy,Kafkaesque Koffka,3.2.8,0,h,NA,h,NA,NA,h,630,NA,40631,NA,NA,630,2,legacy,1024,2,48000,-16,experiment,HHHHH,4,even,42751,NA,NA,131287,77647,2113,NA,NA,132499,2119,NA,NA,132604,133235,132494,132603,Flanker Experiment,42,25926,48,yes,1024
87.75510204,87.75510204,545.5510204,545.5510204,black,legacy,legacy,legacy,0,congruent,uniform,1,undefined,1,h,0,0,0,48,48,0,48,0,48,0,0,0,48,48,48,48,9/29/19 20:18,1500,The main experiment item,yes,FlankerExperiment.osexp,E:\Classwork\AQMAED,no,mono,no,18,no,white,no,yes,768,legacy,48,48,E:/Classwork/AQMAED/MA-subject-4.csv,legacy,Kafkaesque Koffka,3.2.8,0,h,NA,h,NA,NA,h,806,NA,40631,NA,NA,806,2,legacy,1024,2,48000,-16,experiment,HHHHH,4,even,42751,NA,NA,133245,77647,2113,NA,NA,134401,2119,NA,NA,134505,135312,134399,134505,Flanker Experiment,43,26732,49,yes,1024
88,88,544.64,544.64,black,legacy,legacy,legacy,0,congruent,uniform,1,undefined,1,s,0,0,0,49,49,0,49,0,49,0,0,0,49,49,49,49,9/29/19 20:18,1500,The main experiment item,yes,FlankerExperiment.osexp,E:\Classwork\AQMAED,no,mono,no,18,no,white,no,yes,768,legacy,49,49,E:/Classwork/AQMAED/MA-subject-4.csv,legacy,Kafkaesque Koffka,3.2.8,0,s,NA,h,NA,NA,s,500,NA,40631,NA,NA,500,2,legacy,1024,2,48000,-16,experiment,SSSSS,4,even,42751,NA,NA,135350,77647,2113,NA,NA,136523,2119,NA,NA,136627,137129,136520,136627,Flanker Experiment,44,27232,50,yes,1024
88.23529412,88.23529412,543.3529412,543.3529412,black,legacy,legacy,legacy,0,congruent,uniform,1,undefined,1,s,0,0,0,50,50,0,50,0,50,0,0,0,50,50,50,50,9/29/19 20:18,1500,The main experiment item,yes,FlankerExperiment.osexp,E:\Classwork\AQMAED,no,mono,no,18,no,white,no,yes,768,legacy,50,50,E:/Classwork/AQMAED/MA-subject-4.csv,legacy,Kafkaesque Koffka,3.2.8,0,s,NA,h,NA,NA,s,479,NA,40631,NA,NA,479,2,legacy,1024,2,48000,-16,experiment,SSSSS,4,even,42751,NA,NA,137166,77647,2113,NA,NA,138389,2119,NA,NA,138494,138974,138386,138494,Flanker Experiment,45,27711,51,yes,1024
88.46153846,88.46153846,543.5961538,543.5961538,black,legacy,legacy,legacy,0,incongruent,uniform,1,undefined,1,h,0,0,0,51,51,0,51,0,51,0,0,0,51,51,51,51,9/29/19 20:18,1500,The main experiment item,yes,FlankerExperiment.osexp,E:\Classwork\AQMAED,no,mono,no,18,no,white,no,yes,768,legacy,51,51,E:/Classwork/AQMAED/MA-subject-4.csv,legacy,Kafkaesque Koffka,3.2.8,0,h,NA,h,NA,NA,h,556,NA,40631,NA,NA,556,2,legacy,1024,2,48000,-16,experiment,SSHSS,4,even,42751,NA,NA,138997,77647,2113,NA,NA,140154,2119,NA,NA,140258,140815,140151,140258,Flanker Experiment,46,28267,52,yes,1024
88.67924528,88.67924528,544.9245283,544.9245283,black,legacy,legacy,legacy,0,incongruent,uniform,1,undefined,1,h,0,0,0,52,52,0,52,0,52,0,0,0,52,52,52,52,9/29/19 20:18,1500,The main experiment item,yes,FlankerExperiment.osexp,E:\Classwork\AQMAED,no,mono,no,18,no,white,no,yes,768,legacy,52,52,E:/Classwork/AQMAED/MA-subject-4.csv,legacy,Kafkaesque Koffka,3.2.8,0,h,NA,h,NA,NA,h,614,NA,40631,NA,NA,614,2,legacy,1024,2,48000,-16,experiment,SSHSS,4,even,42751,NA,NA,140839,77647,2113,NA,NA,142042,2119,NA,NA,142147,142762,142036,142147,Flanker Experiment,47,28881,53,yes,1024
88.88888889,88.88888889,545.4074074,545.4074074,black,legacy,legacy,legacy,0,congruent,uniform,1,undefined,1,s,0,0,0,53,53,0,53,0,53,0,0,0,53,53,53,53,9/29/19 20:18,1500,The main experiment item,yes,FlankerExperiment.osexp,E:\Classwork\AQMAED,no,mono,no,18,no,white,no,yes,768,legacy,53,53,E:/Classwork/AQMAED/MA-subject-4.csv,legacy,Kafkaesque Koffka,3.2.8,0,s,NA,h,NA,NA,s,571,NA,40631,NA,NA,571,2,legacy,1024,2,48000,-16,experiment,SSSSS,4,even,42751,NA,NA,142785,77647,2113,NA,NA,144009,2119,NA,NA,144112,144683,144005,144112,Flanker Experiment,48,29452,54,yes,1024
89.09090909,89.09090909,547.6545455,547.6545455,black,legacy,legacy,legacy,0,incongruent,uniform,1,undefined,1,s,0,0,0,54,54,0,54,0,54,0,0,0,54,54,54,54,9/29/19 20:18,1500,The main experiment item,yes,FlankerExperiment.osexp,E:\Classwork\AQMAED,no,mono,no,18,no,white,no,yes,768,legacy,54,54,E:/Classwork/AQMAED/MA-subject-4.csv,legacy,Kafkaesque Koffka,3.2.8,0,s,NA,h,NA,NA,s,669,NA,40631,NA,NA,669,2,legacy,1024,2,48000,-16,experiment,HHSHH,4,even,42751,NA,NA,144708,77647,2113,NA,NA,145911,2119,NA,NA,146015,146685,145906,146015,Flanker Experiment,49,30121,55,yes,1024
89.28571429,89.28571429,548.4107143,548.4107143,black,legacy,legacy,legacy,0,congruent,uniform,1,undefined,1,h,0,0,0,55,55,0,55,0,55,0,0,0,55,55,55,55,9/29/19 20:18,1500,The main experiment item,yes,FlankerExperiment.osexp,E:\Classwork\AQMAED,no,mono,no,18,no,white,no,yes,768,legacy,55,55,E:/Classwork/AQMAED/MA-subject-4.csv,legacy,Kafkaesque Koffka,3.2.8,0,h,NA,h,NA,NA,h,590,NA,40631,NA,NA,590,2,legacy,1024,2,48000,-16,experiment,HHHHH,4,even,42751,NA,NA,146709,77647,2113,NA,NA,147946,2119,NA,NA,148051,148641,147944,148050,Flanker Experiment,50,30711,56,yes,1024
89.47368421,89.47368421,547.8421053,547.8421053,black,legacy,legacy,legacy,0,incongruent,uniform,1,undefined,1,s,0,0,0,56,56,0,56,0,56,0,0,0,56,56,56,56,9/29/19 20:18,1500,The main experiment item,yes,FlankerExperiment.osexp,E:\Classwork\AQMAED,no,mono,no,18,no,white,no,yes,768,legacy,56,56,E:/Classwork/AQMAED/MA-subject-4.csv,legacy,Kafkaesque Koffka,3.2.8,0,s,NA,h,NA,NA,s,516,NA,40631,NA,NA,516,2,legacy,1024,2,48000,-16,experiment,HHSHH,4,even,42751,NA,NA,148664,77647,2113,NA,NA,149877,2119,NA,NA,149981,150498,149871,149981,Flanker Experiment,51,31227,57,yes,1024
89.65517241,89.65517241,549.9310345,549.9310345,black,legacy,legacy,legacy,0,incongruent,uniform,1,undefined,1,h,0,0,0,57,57,0,57,0,57,0,0,0,57,57,57,57,9/29/19 20:18,1500,The main experiment item,yes,FlankerExperiment.osexp,E:\Classwork\AQMAED,no,mono,no,18,no,white,no,yes,768,legacy,57,57,E:/Classwork/AQMAED/MA-subject-4.csv,legacy,Kafkaesque Koffka,3.2.8,0,h,NA,h,NA,NA,h,669,NA,40631,NA,NA,669,2,legacy,1024,2,48000,-16,experiment,SSHSS,4,even,42751,NA,NA,150526,77647,2113,NA,NA,151780,2119,NA,NA,151885,152555,151775,151884,Flanker Experiment,52,31896,58,yes,1024
89.83050847,89.83050847,551.9661017,551.9661017,black,legacy,legacy,legacy,0,incongruent,uniform,1,undefined,1,h,0,0,0,58,58,0,58,0,58,0,0,0,58,58,58,58,9/29/19 20:18,1500,The main experiment item,yes,FlankerExperiment.osexp,E:\Classwork\AQMAED,no,mono,no,18,no,white,no,yes,768,legacy,58,58,E:/Classwork/AQMAED/MA-subject-4.csv,legacy,Kafkaesque Koffka,3.2.8,0,h,NA,h,NA,NA,h,670,NA,40631,NA,NA,670,2,legacy,1024,2,48000,-16,experiment,SSHSS,4,even,42751,NA,NA,152581,77647,2113,NA,NA,153754,2119,NA,NA,153859,154530,153750,153859,Flanker Experiment,53,32566,59,yes,1024
90,90,559.1333333,559.1333333,black,legacy,legacy,legacy,0,incongruent,uniform,1,undefined,1,s,0,0,0,59,59,0,59,0,59,0,0,0,59,59,59,59,9/29/19 20:18,1500,The main experiment item,yes,FlankerExperiment.osexp,E:\Classwork\AQMAED,no,mono,no,18,no,white,no,yes,768,legacy,59,59,E:/Classwork/AQMAED/MA-subject-4.csv,legacy,Kafkaesque Koffka,3.2.8,0,s,NA,h,NA,NA,s,982,NA,40631,NA,NA,982,2,legacy,1024,2,48000,-16,experiment,HHSHH,4,even,42751,NA,NA,154555,77647,2113,NA,NA,155710,2119,NA,NA,155813,156797,155707,155813,Flanker Experiment,54,33548,60,yes,1024
90.16393443,90.16393443,563,563,black,legacy,legacy,legacy,0,congruent,uniform,1,undefined,1,h,0,0,0,60,60,0,60,0,60,0,0,0,60,60,60,60,9/29/19 20:18,1500,The main experiment item,yes,FlankerExperiment.osexp,E:\Classwork\AQMAED,no,mono,no,18,no,white,no,yes,768,legacy,60,60,E:/Classwork/AQMAED/MA-subject-4.csv,legacy,Kafkaesque Koffka,3.2.8,0,h,NA,h,NA,NA,h,795,NA,40631,NA,NA,795,2,legacy,1024,2,48000,-16,experiment,HHHHH,4,even,42751,NA,NA,156821,77647,2113,NA,NA,157988,2119,NA,NA,158092,158888,157984,158092,Flanker Experiment,55,34343,61,yes,1024
90.32258065,90.32258065,564,564,black,legacy,legacy,legacy,0,congruent,uniform,1,undefined,1,s,0,0,0,61,61,0,61,0,61,0,0,0,61,61,61,61,9/29/19 20:18,1500,The main experiment item,yes,FlankerExperiment.osexp,E:\Classwork\AQMAED,no,mono,no,18,no,white,no,yes,768,legacy,61,61,E:/Classwork/AQMAED/MA-subject-4.csv,legacy,Kafkaesque Koffka,3.2.8,0,s,NA,h,NA,NA,s,625,NA,40631,NA,NA,625,2,legacy,1024,2,48000,-16,experiment,SSSSS,4,even,42751,NA,NA,158905,77647,2113,NA,NA,160084,2119,NA,NA,160189,160814,160081,160189,Flanker Experiment,56,34968,62,yes,1024
90.47619048,90.47619048,563.6031746,563.6031746,black,legacy,legacy,legacy,0,congruent,uniform,1,undefined,1,s,0,0,0,62,62,0,62,0,62,0,0,0,62,62,62,62,9/29/19 20:18,1500,The main experiment item,yes,FlankerExperiment.osexp,E:\Classwork\AQMAED,no,mono,no,18,no,white,no,yes,768,legacy,62,62,E:/Classwork/AQMAED/MA-subject-4.csv,legacy,Kafkaesque Koffka,3.2.8,0,s,NA,h,NA,NA,s,539,NA,40631,NA,NA,539,2,legacy,1024,2,48000,-16,experiment,SSSSS,4,even,42751,NA,NA,160819,77647,2113,NA,NA,162001,2119,NA,NA,162105,162645,161998,162105,Flanker Experiment,57,35507,63,yes,1024
90.625,90.625,562.0625,562.0625,black,legacy,legacy,legacy,0,congruent,uniform,1,undefined,1,h,0,0,0,63,63,0,63,0,63,0,0,0,63,63,63,63,9/29/19 20:18,1500,The main experiment item,yes,FlankerExperiment.osexp,E:\Classwork\AQMAED,no,mono,no,18,no,white,no,yes,768,legacy,63,63,E:/Classwork/AQMAED/MA-subject-4.csv,legacy,Kafkaesque Koffka,3.2.8,0,h,NA,h,NA,NA,h,465,NA,40631,NA,NA,465,2,legacy,1024,2,48000,-16,experiment,HHHHH,4,even,42751,NA,NA,162652,77647,2113,NA,NA,163825,2119,NA,NA,163930,164396,163822,163929,Flanker Experiment,58,35972,64,yes,1024
90.76923077,90.76923077,560.8769231,560.8769231,black,legacy,legacy,legacy,0,congruent,uniform,1,undefined,1,h,0,0,0,64,64,0,64,0,64,0,0,0,64,64,64,64,9/29/19 20:18,1500,The main experiment item,yes,FlankerExperiment.osexp,E:\Classwork\AQMAED,no,mono,no,18,no,white,no,yes,768,legacy,64,64,E:/Classwork/AQMAED/MA-subject-4.csv,legacy,Kafkaesque Koffka,3.2.8,0,h,NA,h,NA,NA,h,485,NA,40631,NA,NA,485,2,legacy,1024,2,48000,-16,experiment,HHHHH,4,even,42751,NA,NA,164401,77647,2113,NA,NA,165601,2119,NA,NA,165706,166192,165596,165705,Flanker Experiment,59,36457,65,yes,1024
90.90909091,90.90909091,559.0757576,559.0757576,black,legacy,legacy,legacy,0,congruent,uniform,1,undefined,1,h,0,0,0,65,65,0,65,0,65,0,0,0,65,65,65,65,9/29/19 20:18,1500,The main experiment item,yes,FlankerExperiment.osexp,E:\Classwork\AQMAED,no,mono,no,18,no,white,no,yes,768,legacy,65,65,E:/Classwork/AQMAED/MA-subject-4.csv,legacy,Kafkaesque Koffka,3.2.8,0,h,NA,h,NA,NA,h,442,NA,40631,NA,NA,442,2,legacy,1024,2,48000,-16,experiment,HHHHH,4,even,42751,NA,NA,166199,77647,2113,NA,NA,167432,2119,NA,NA,167536,167978,167428,167536,Flanker Experiment,60,36899,66,yes,1024
91.04477612,91.04477612,562.6119403,562.6119403,black,legacy,legacy,legacy,0,congruent,uniform,1,undefined,1,s,0,0,0,66,66,0,66,0,66,0,0,0,66,66,66,66,9/29/19 20:18,1500,The main experiment item,yes,FlankerExperiment.osexp,E:\Classwork\AQMAED,no,mono,no,18,no,white,no,yes,768,legacy,66,66,E:/Classwork/AQMAED/MA-subject-4.csv,legacy,Kafkaesque Koffka,3.2.8,0,s,NA,h,NA,NA,s,796,NA,40631,NA,NA,796,2,legacy,1024,2,48000,-16,experiment,SSSSS,4,even,42751,NA,NA,167985,77647,2113,NA,NA,169194,2119,NA,NA,169298,170095,169191,169298,Flanker Experiment,61,37695,67,yes,1024
91.17647059,91.17647059,564.3823529,564.3823529,black,legacy,legacy,legacy,0,incongruent,uniform,1,undefined,1,s,0,0,0,67,67,0,67,0,67,0,0,0,67,67,67,67,9/29/19 20:18,1500,The main experiment item,yes,FlankerExperiment.osexp,E:\Classwork\AQMAED,no,mono,no,18,no,white,no,yes,768,legacy,67,67,E:/Classwork/AQMAED/MA-subject-4.csv,legacy,Kafkaesque Koffka,3.2.8,0,s,NA,h,NA,NA,s,683,NA,40631,NA,NA,683,2,legacy,1024,2,48000,-16,experiment,HHSHH,4,even,42751,NA,NA,170108,77647,2113,NA,NA,171253,2119,NA,NA,171357,172041,171250,171357,Flanker Experiment,62,38378,68,yes,1024
91.30434783,91.30434783,565.4202899,565.4202899,black,legacy,legacy,legacy,0,incongruent,uniform,1,undefined,1,h,0,0,0,68,68,0,68,0,68,0,0,0,68,68,68,68,9/29/19 20:18,1500,The main experiment item,yes,FlankerExperiment.osexp,E:\Classwork\AQMAED,no,mono,no,18,no,white,no,yes,768,legacy,68,68,E:/Classwork/AQMAED/MA-subject-4.csv,legacy,Kafkaesque Koffka,3.2.8,0,h,NA,h,NA,NA,h,636,NA,40631,NA,NA,636,2,legacy,1024,2,48000,-16,experiment,SSHSS,4,even,42751,NA,NA,172051,77647,2113,NA,NA,173236,2119,NA,NA,173340,173977,173231,173340,Flanker Experiment,63,39014,69,yes,1024
91.42857143,91.42857143,565.8142857,565.8142857,black,legacy,legacy,legacy,0,congruent,uniform,1,undefined,1,h,0,0,0,69,69,0,69,0,69,0,0,0,69,69,69,69,9/29/19 20:18,1500,The main experiment item,yes,FlankerExperiment.osexp,E:\Classwork\AQMAED,no,mono,no,18,no,white,no,yes,768,legacy,69,69,E:/Classwork/AQMAED/MA-subject-4.csv,legacy,Kafkaesque Koffka,3.2.8,0,h,NA,h,NA,NA,h,593,NA,40631,NA,NA,593,2,legacy,1024,2,48000,-16,experiment,HHHHH,4,even,42751,NA,NA,173986,77647,2113,NA,NA,175183,2119,NA,NA,175289,175883,175181,175289,Flanker Experiment,64,39607,70,yes,1024
91.54929577,91.54929577,566.915493,566.915493,black,legacy,legacy,legacy,0,incongruent,uniform,1,undefined,1,h,0,0,0,70,70,0,70,0,70,0,0,0,70,70,70,70,9/29/19 20:18,1500,The main experiment item,yes,FlankerExperiment.osexp,E:\Classwork\AQMAED,no,mono,no,18,no,white,no,yes,768,legacy,70,70,E:/Classwork/AQMAED/MA-subject-4.csv,legacy,Kafkaesque Koffka,3.2.8,0,h,NA,h,NA,NA,h,644,NA,40631,NA,NA,644,2,legacy,1024,2,48000,-16,experiment,SSHSS,4,even,42751,NA,NA,175889,77647,2113,NA,NA,177080,2119,NA,NA,177185,177830,177075,177185,Flanker Experiment,65,40251,71,yes,1024
91.66666667,91.66666667,567,567,black,legacy,legacy,legacy,0,incongruent,uniform,1,undefined,1,h,0,0,0,71,71,0,71,0,71,0,0,0,71,71,71,71,9/29/19 20:18,1500,The main experiment item,yes,FlankerExperiment.osexp,E:\Classwork\AQMAED,no,mono,no,18,no,white,no,yes,768,legacy,71,71,E:/Classwork/AQMAED/MA-subject-4.csv,legacy,Kafkaesque Koffka,3.2.8,0,h,NA,h,NA,NA,h,573,NA,40631,NA,NA,573,2,legacy,1024,2,48000,-16,experiment,SSHSS,4,even,42751,NA,NA,177835,77647,2113,NA,NA,179053,2119,NA,NA,179157,179731,179050,179157,Flanker Experiment,66,40824,72,yes,1024
91.78082192,91.78082192,568.1369863,568.1369863,black,legacy,legacy,legacy,0,incongruent,uniform,1,undefined,1,s,0,0,0,72,72,0,72,0,72,0,0,0,72,72,72,72,9/29/19 20:18,1500,The main experiment item,yes,FlankerExperiment.osexp,E:\Classwork\AQMAED,no,mono,no,18,no,white,no,yes,768,legacy,72,72,E:/Classwork/AQMAED/MA-subject-4.csv,legacy,Kafkaesque Koffka,3.2.8,0,s,NA,h,NA,NA,s,650,NA,40631,NA,NA,650,2,legacy,1024,2,48000,-16,experiment,HHSHH,4,even,42751,NA,NA,179737,77647,2113,NA,NA,180944,2119,NA,NA,181048,181699,180938,181048,Flanker Experiment,67,41474,73,yes,1024
91.89189189,91.89189189,569.5540541,569.5540541,black,legacy,legacy,legacy,0,incongruent,uniform,1,undefined,1,h,0,0,0,73,73,0,73,0,73,0,0,0,73,73,73,73,9/29/19 20:18,1500,The main experiment item,yes,FlankerExperiment.osexp,E:\Classwork\AQMAED,no,mono,no,18,no,white,no,yes,768,legacy,73,73,E:/Classwork/AQMAED/MA-subject-4.csv,legacy,Kafkaesque Koffka,3.2.8,0,h,NA,h,NA,NA,h,673,NA,40631,NA,NA,673,2,legacy,1024,2,48000,-16,experiment,SSHSS,4,even,42751,NA,NA,181705,77647,2113,NA,NA,182916,2119,NA,NA,183020,183696,182913,183020,Flanker Experiment,68,42147,74,yes,1024
92,92,570.1733333,570.1733333,black,legacy,legacy,legacy,0,incongruent,uniform,1,undefined,1,s,0,0,0,74,74,0,74,0,74,0,0,0,74,74,74,74,9/29/19 20:18,1500,The main experiment item,yes,FlankerExperiment.osexp,E:\Classwork\AQMAED,no,mono,no,18,no,white,no,yes,768,legacy,74,74,E:/Classwork/AQMAED/MA-subject-4.csv,legacy,Kafkaesque Koffka,3.2.8,0,s,NA,h,NA,NA,s,616,NA,40631,NA,NA,616,2,legacy,1024,2,48000,-16,experiment,HHSHH,4,even,42751,NA,NA,183706,77647,2113,NA,NA,184922,2119,NA,NA,185028,185646,184917,185028,Flanker Experiment,69,42763,75,yes,1024
92.10526316,92.10526316,569.1052632,569.1052632,black,legacy,legacy,legacy,0,congruent,uniform,1,undefined,1,s,0,0,0,75,75,0,75,0,75,0,0,0,75,75,75,75,9/29/19 20:18,1500,The main experiment item,yes,FlankerExperiment.osexp,E:\Classwork\AQMAED,no,mono,no,18,no,white,no,yes,768,legacy,75,75,E:/Classwork/AQMAED/MA-subject-4.csv,legacy,Kafkaesque Koffka,3.2.8,0,s,NA,h,NA,NA,s,489,NA,40631,NA,NA,489,2,legacy,1024,2,48000,-16,experiment,SSSSS,4,even,42751,NA,NA,185652,77647,2113,NA,NA,186837,2119,NA,NA,186942,187433,186834,186942,Flanker Experiment,70,43252,76,yes,1024
92.20779221,92.20779221,569.0519481,569.0519481,black,legacy,legacy,legacy,0,incongruent,uniform,1,undefined,1,s,0,0,0,76,76,0,76,0,76,0,0,0,76,76,76,76,9/29/19 20:18,1500,The main experiment item,yes,FlankerExperiment.osexp,E:\Classwork\AQMAED,no,mono,no,18,no,white,no,yes,768,legacy,76,76,E:/Classwork/AQMAED/MA-subject-4.csv,legacy,Kafkaesque Koffka,3.2.8,0,s,NA,h,NA,NA,s,565,NA,40631,NA,NA,565,2,legacy,1024,2,48000,-16,experiment,HHSHH,4,even,42751,NA,NA,187450,77647,2113,NA,NA,188628,2119,NA,NA,188732,189299,188626,188732,Flanker Experiment,71,43817,77,yes,1024
92.30769231,92.30769231,569.0384615,569.0384615,black,legacy,legacy,legacy,0,congruent,uniform,1,undefined,1,h,0,0,0,77,77,0,77,0,77,0,0,0,77,77,77,77,9/29/19 20:18,1500,The main experiment item,yes,FlankerExperiment.osexp,E:\Classwork\AQMAED,no,mono,no,18,no,white,no,yes,768,legacy,77,77,E:/Classwork/AQMAED/MA-subject-4.csv,legacy,Kafkaesque Koffka,3.2.8,0,h,NA,h,NA,NA,h,568,NA,40631,NA,NA,568,2,legacy,1024,2,48000,-16,experiment,HHHHH,4,even,42751,NA,NA,189307,77647,2113,NA,NA,190492,2119,NA,NA,190596,191165,190489,190596,Flanker Experiment,72,44385,78,yes,1024
92.40506329,92.40506329,570.0379747,570.0379747,black,legacy,legacy,legacy,0,incongruent,uniform,1,undefined,1,s,0,0,0,78,78,0,78,0,78,0,0,0,78,78,78,78,9/29/19 20:18,1500,The main experiment item,yes,FlankerExperiment.osexp,E:\Classwork\AQMAED,no,mono,no,18,no,white,no,yes,768,legacy,78,78,E:/Classwork/AQMAED/MA-subject-4.csv,legacy,Kafkaesque Koffka,3.2.8,0,s,NA,h,NA,NA,s,648,NA,40631,NA,NA,648,2,legacy,1024,2,48000,-16,experiment,HHSHH,4,even,42751,NA,NA,191172,77647,2113,NA,NA,192377,2119,NA,NA,192482,193130,192372,192481,Flanker Experiment,73,45033,79,yes,1024
92.5,92.5,568.2625,568.2625,black,legacy,legacy,legacy,0,incongruent,uniform,1,undefined,1,s,0,0,0,79,79,0,79,0,79,0,0,0,79,79,79,79,9/29/19 20:18,1500,The main experiment item,yes,FlankerExperiment.osexp,E:\Classwork\AQMAED,no,mono,no,18,no,white,no,yes,768,legacy,79,79,E:/Classwork/AQMAED/MA-subject-4.csv,legacy,Kafkaesque Koffka,3.2.8,0,s,NA,h,NA,NA,s,428,NA,40631,NA,NA,428,2,legacy,1024,2,48000,-16,experiment,HHSHH,4,even,42751,NA,NA,193136,77647,2113,NA,NA,194319,2119,NA,NA,194423,194852,194315,194423,Flanker Experiment,74,45461,80,yes,1024
92.59259259,92.59259259,571.5679012,571.5679012,black,legacy,legacy,legacy,0,incongruent,uniform,1,undefined,1,s,0,0,0,80,80,0,80,0,80,0,0,0,80,80,80,80,9/29/19 20:18,600,The main experiment item,yes,FlankerExperiment.osexp,E:\Classwork\AQMAED,no,mono,no,18,no,white,no,yes,768,legacy,0,79,E:/Classwork/AQMAED/MA-subject-4.csv,legacy,Kafkaesque Koffka,3.2.8,0,s,NA,h,h,NA,s,836,NA,40631,21987,NA,836,2,legacy,1024,2,48000,-16,experiment,HHSHH,4,even,42751,217884,NA,194857,77647,2113,NA,NA,217955,2119,195896,NA,218058,218895,217953,218058,Flanker Experiment,75,46297,81,yes,1024
92.68292683,92.68292683,572.3536585,572.3536585,black,legacy,legacy,legacy,0,incongruent,uniform,1,undefined,1,h,0,0,0,81,81,0,81,0,81,0,0,0,81,81,81,81,9/29/19 20:18,600,The main experiment item,yes,FlankerExperiment.osexp,E:\Classwork\AQMAED,no,mono,no,18,no,white,no,yes,768,legacy,1,79,E:/Classwork/AQMAED/MA-subject-4.csv,legacy,Kafkaesque Koffka,3.2.8,0,h,NA,h,h,NA,h,636,NA,40631,21987,NA,636,2,legacy,1024,2,48000,-16,experiment,SSHSS,4,even,42751,217884,NA,219412,77647,2113,218909,NA,220565,2119,195896,NA,220669,221306,220562,220669,Flanker Experiment,76,46933,82,yes,1024
92.77108434,92.77108434,571,571,black,legacy,legacy,legacy,0,congruent,uniform,1,undefined,1,s,0,0,0,82,82,0,82,0,82,0,0,0,82,82,82,82,9/29/19 20:18,600,The main experiment item,yes,FlankerExperiment.osexp,E:\Classwork\AQMAED,no,mono,no,18,no,white,no,yes,768,legacy,2,79,E:/Classwork/AQMAED/MA-subject-4.csv,legacy,Kafkaesque Koffka,3.2.8,0,s,NA,h,h,NA,s,460,NA,40631,21987,NA,460,2,legacy,1024,2,48000,-16,experiment,SSSSS,4,even,42751,217884,NA,221819,77647,2113,221315,NA,222964,2119,195896,NA,223068,223529,222961,223068,Flanker Experiment,77,47393,83,yes,1024
92.85714286,92.85714286,568.5119048,568.5119048,black,legacy,legacy,legacy,0,congruent,uniform,1,undefined,1,s,0,0,0,83,83,0,83,0,83,0,0,0,83,83,83,83,9/29/19 20:18,600,The main experiment item,yes,FlankerExperiment.osexp,E:\Classwork\AQMAED,no,mono,no,18,no,white,no,yes,768,legacy,3,79,E:/Classwork/AQMAED/MA-subject-4.csv,legacy,Kafkaesque Koffka,3.2.8,0,s,NA,h,h,NA,s,362,NA,40631,21987,NA,362,2,legacy,1024,2,48000,-16,experiment,SSSSS,4,even,42751,217884,NA,223538,77647,2113,221315,NA,224721,2119,195896,NA,224825,225189,224718,224825,Flanker Experiment,78,47755,84,yes,1024
92.94117647,92.94117647,565.8705882,565.8705882,black,legacy,legacy,legacy,0,congruent,uniform,1,undefined,1,s,0,0,0,84,84,0,84,0,84,0,0,0,84,84,84,84,9/29/19 20:18,600,The main experiment item,yes,FlankerExperiment.osexp,E:\Classwork\AQMAED,no,mono,no,18,no,white,no,yes,768,legacy,4,79,E:/Classwork/AQMAED/MA-subject-4.csv,legacy,Kafkaesque Koffka,3.2.8,0,s,NA,h,h,NA,s,344,NA,40631,21987,NA,344,2,legacy,1024,2,48000,-16,experiment,SSSSS,4,even,42751,217884,NA,225196,77647,2113,221315,NA,226277,2119,195896,NA,226380,226725,226274,226380,Flanker Experiment,79,48099,85,yes,1024
93.02325581,93.02325581,563.0697674,563.0697674,black,legacy,legacy,legacy,0,congruent,uniform,1,undefined,1,s,0,0,0,85,85,0,85,0,85,0,0,0,85,85,85,85,9/29/19 20:18,600,The main experiment item,yes,FlankerExperiment.osexp,E:\Classwork\AQMAED,no,mono,no,18,no,white,no,yes,768,legacy,5,79,E:/Classwork/AQMAED/MA-subject-4.csv,legacy,Kafkaesque Koffka,3.2.8,0,s,NA,h,h,NA,s,325,NA,40631,21987,NA,325,2,legacy,1024,2,48000,-16,experiment,SSSSS,4,even,42751,217884,NA,226731,77647,2113,221315,NA,227951,2119,195896,NA,228055,228381,227947,228055,Flanker Experiment,80,48424,86,yes,1024
93.10344828,93.10344828,560.5747126,560.5747126,black,legacy,legacy,legacy,0,congruent,uniform,1,undefined,1,s,0,0,0,86,86,0,86,0,86,0,0,0,86,86,86,86,9/29/19 20:18,600,The main experiment item,yes,FlankerExperiment.osexp,E:\Classwork\AQMAED,no,mono,no,18,no,white,no,yes,768,legacy,6,79,E:/Classwork/AQMAED/MA-subject-4.csv,legacy,Kafkaesque Koffka,3.2.8,0,s,NA,h,h,NA,s,346,NA,40631,21987,NA,346,2,legacy,1024,2,48000,-16,experiment,SSSSS,4,even,42751,217884,NA,228387,77647,2113,221315,NA,229616,2119,195896,NA,229721,230069,229610,229720,Flanker Experiment,81,48770,87,yes,1024
92.04545455,92.04545455,560.0909091,560.0909091,black,legacy,legacy,legacy,0,incongruent,uniform,0,undefined,0,s,0,0,0,87,87,0,87,0,87,0,0,0,87,87,87,87,9/29/19 20:18,600,The main experiment item,yes,FlankerExperiment.osexp,E:\Classwork\AQMAED,no,mono,no,18,no,white,no,yes,768,legacy,7,79,E:/Classwork/AQMAED/MA-subject-4.csv,legacy,Kafkaesque Koffka,3.2.8,0,h,NA,h,h,NA,h,518,NA,40631,21987,NA,518,2,legacy,1024,2,48000,-16,experiment,HHSHH,4,even,42751,217884,NA,230078,77647,2113,221315,NA,231254,2119,195896,NA,231359,231878,231251,231358,Flanker Experiment,81,49288,88,yes,1024
92.13483146,92.13483146,556.8651685,556.8651685,black,legacy,legacy,legacy,0,congruent,uniform,1,undefined,1,s,0,0,0,88,88,0,88,0,88,0,0,0,88,88,88,88,9/29/19 20:18,600,The main experiment item,yes,FlankerExperiment.osexp,E:\Classwork\AQMAED,no,mono,no,18,no,white,no,yes,768,legacy,8,79,E:/Classwork/AQMAED/MA-subject-4.csv,legacy,Kafkaesque Koffka,3.2.8,0,s,NA,h,h,NA,s,273,NA,40631,21987,NA,273,2,legacy,1024,2,48000,-16,experiment,SSSSS,4,even,42751,217884,NA,232389,231884,2113,221315,NA,233577,2119,195896,NA,233681,233957,233571,233681,Flanker Experiment,82,49561,89,yes,1024
92.22222222,92.22222222,556.2444444,556.2444444,black,legacy,legacy,legacy,0,incongruent,uniform,1,undefined,1,s,0,0,0,89,89,0,89,0,89,0,0,0,89,89,89,89,9/29/19 20:18,600,The main experiment item,yes,FlankerExperiment.osexp,E:\Classwork\AQMAED,no,mono,no,18,no,white,no,yes,768,legacy,9,79,E:/Classwork/AQMAED/MA-subject-4.csv,legacy,Kafkaesque Koffka,3.2.8,0,s,NA,h,h,NA,s,501,NA,40631,21987,NA,501,2,legacy,1024,2,48000,-16,experiment,HHSHH,4,even,42751,217884,NA,233966,231884,2113,221315,NA,235214,2119,195896,NA,235319,235822,235209,235318,Flanker Experiment,83,50062,90,yes,1024
91.20879121,91.20879121,553.5274725,553.5274725,black,legacy,legacy,legacy,0,congruent,uniform,0,undefined,0,h,0,0,0,90,90,0,90,0,90,0,0,0,90,90,90,90,9/29/19 20:18,600,The main experiment item,yes,FlankerExperiment.osexp,E:\Classwork\AQMAED,no,mono,no,18,no,white,no,yes,768,legacy,10,79,E:/Classwork/AQMAED/MA-subject-4.csv,legacy,Kafkaesque Koffka,3.2.8,0,s,NA,h,h,NA,s,309,NA,40631,21987,NA,309,2,legacy,1024,2,48000,-16,experiment,HHHHH,4,even,42751,217884,NA,235830,231884,2113,221315,NA,237033,2119,195896,NA,237138,237451,237028,237138,Flanker Experiment,83,50371,91,yes,1024
91.30434783,91.30434783,550.8043478,550.8043478,black,legacy,legacy,legacy,0,congruent,uniform,1,undefined,1,s,0,0,0,91,91,0,91,0,91,0,0,0,91,91,91,91,9/29/19 20:18,600,The main experiment item,yes,FlankerExperiment.osexp,E:\Classwork\AQMAED,no,mono,no,18,no,white,no,yes,768,legacy,11,79,E:/Classwork/AQMAED/MA-subject-4.csv,legacy,Kafkaesque Koffka,3.2.8,0,s,NA,h,h,NA,s,303,NA,40631,21987,NA,303,2,legacy,1024,2,48000,-16,experiment,SSSSS,4,even,42751,217884,NA,237965,237460,2113,221315,NA,239151,2119,195896,NA,239255,239560,239146,239255,Flanker Experiment,84,50674,92,yes,1024
90.32258065,90.32258065,548.8817204,548.8817204,black,legacy,legacy,legacy,0,incongruent,uniform,0,undefined,0,h,0,0,0,92,92,0,92,0,92,0,0,0,92,92,92,92,9/29/19 20:18,600,The main experiment item,yes,FlankerExperiment.osexp,E:\Classwork\AQMAED,no,mono,no,18,no,white,no,yes,768,legacy,12,79,E:/Classwork/AQMAED/MA-subject-4.csv,legacy,Kafkaesque Koffka,3.2.8,0,s,NA,h,h,NA,s,372,NA,40631,21987,NA,372,2,legacy,1024,2,48000,-16,experiment,SSHSS,4,even,42751,217884,NA,239567,237460,2113,221315,NA,240792,2119,195896,NA,240897,241269,240787,240897,Flanker Experiment,84,51046,93,yes,1024
90.42553191,90.42553191,550.0531915,550.0531915,black,legacy,legacy,legacy,0,congruent,uniform,1,undefined,1,h,0,0,0,93,93,0,93,0,93,0,0,0,93,93,93,93,9/29/19 20:18,600,The main experiment item,yes,FlankerExperiment.osexp,E:\Classwork\AQMAED,no,mono,no,18,no,white,no,yes,768,legacy,13,79,E:/Classwork/AQMAED/MA-subject-4.csv,legacy,Kafkaesque Koffka,3.2.8,0,h,NA,h,h,NA,h,659,NA,40631,21987,NA,659,2,legacy,1024,2,48000,-16,experiment,HHHHH,4,even,42751,217884,NA,241780,241275,2113,221315,NA,243034,2119,195896,NA,243138,243799,243029,243138,Flanker Experiment,85,51705,94,yes,1024
90.52631579,90.52631579,548.5578947,548.5578947,black,legacy,legacy,legacy,0,congruent,uniform,1,undefined,1,h,0,0,0,94,94,0,94,0,94,0,0,0,94,94,94,94,9/29/19 20:18,600,The main experiment item,yes,FlankerExperiment.osexp,E:\Classwork\AQMAED,no,mono,no,18,no,white,no,yes,768,legacy,14,79,E:/Classwork/AQMAED/MA-subject-4.csv,legacy,Kafkaesque Koffka,3.2.8,0,h,NA,h,h,NA,h,408,NA,40631,21987,NA,408,2,legacy,1024,2,48000,-16,experiment,HHHHH,4,even,42751,217884,NA,244310,241275,2113,243806,NA,245495,2119,195896,NA,245600,246010,245490,245599,Flanker Experiment,86,52113,95,yes,1024
90.625,90.625,548.59375,548.59375,black,legacy,legacy,legacy,0,congruent,uniform,1,undefined,1,s,0,0,0,95,95,0,95,0,95,0,0,0,95,95,95,95,9/29/19 20:18,600,The main experiment item,yes,FlankerExperiment.osexp,E:\Classwork\AQMAED,no,mono,no,18,no,white,no,yes,768,legacy,15,79,E:/Classwork/AQMAED/MA-subject-4.csv,legacy,Kafkaesque Koffka,3.2.8,0,s,NA,h,h,NA,s,552,NA,40631,21987,NA,552,2,legacy,1024,2,48000,-16,experiment,SSSSS,4,even,42751,217884,NA,246018,241275,2113,243806,NA,247183,2119,195896,NA,247288,247841,247181,247287,Flanker Experiment,87,52665,96,yes,1024
90.72164948,90.72164948,548.2371134,548.2371134,black,legacy,legacy,legacy,0,incongruent,uniform,1,undefined,1,h,0,0,0,96,96,0,96,0,96,0,0,0,96,96,96,96,9/29/19 20:18,600,The main experiment item,yes,FlankerExperiment.osexp,E:\Classwork\AQMAED,no,mono,no,18,no,white,no,yes,768,legacy,16,79,E:/Classwork/AQMAED/MA-subject-4.csv,legacy,Kafkaesque Koffka,3.2.8,0,h,NA,h,h,NA,h,514,NA,40631,21987,NA,514,2,legacy,1024,2,48000,-16,experiment,SSHSS,4,even,42751,217884,NA,247847,241275,2113,243806,NA,249051,2119,195896,NA,249155,249671,249046,249155,Flanker Experiment,88,53179,97,yes,1024
90.81632653,90.81632653,547,547,black,legacy,legacy,legacy,0,congruent,uniform,1,undefined,1,s,0,0,0,97,97,0,97,0,97,0,0,0,97,97,97,97,9/29/19 20:18,600,The main experiment item,yes,FlankerExperiment.osexp,E:\Classwork\AQMAED,no,mono,no,18,no,white,no,yes,768,legacy,17,79,E:/Classwork/AQMAED/MA-subject-4.csv,legacy,Kafkaesque Koffka,3.2.8,0,s,NA,h,h,NA,s,427,NA,40631,21987,NA,427,2,legacy,1024,2,48000,-16,experiment,SSSSS,4,even,42751,217884,NA,249677,241275,2113,243806,NA,250884,2119,195896,NA,250989,251419,250881,250988,Flanker Experiment,89,53606,98,yes,1024
90.90909091,90.90909091,547.5353535,547.5353535,black,legacy,legacy,legacy,0,congruent,uniform,1,undefined,1,s,0,0,0,98,98,0,98,0,98,0,0,0,98,98,98,98,9/29/19 20:18,600,The main experiment item,yes,FlankerExperiment.osexp,E:\Classwork\AQMAED,no,mono,no,18,no,white,no,yes,768,legacy,18,79,E:/Classwork/AQMAED/MA-subject-4.csv,legacy,Kafkaesque Koffka,3.2.8,0,s,NA,h,h,NA,s,600,NA,40631,21987,NA,600,2,legacy,1024,2,48000,-16,experiment,SSSSS,4,even,42751,217884,NA,251426,241275,2113,243806,NA,252621,2119,195896,NA,252726,253329,252616,252725,Flanker Experiment,90,54206,99,yes,1024
91,91,547.69,547.69,black,legacy,legacy,legacy,0,incongruent,uniform,1,undefined,1,h,0,0,0,99,99,0,99,0,99,0,0,0,99,99,99,99,9/29/19 20:18,600,The main experiment item,yes,FlankerExperiment.osexp,E:\Classwork\AQMAED,no,mono,no,18,no,white,no,yes,768,legacy,19,79,E:/Classwork/AQMAED/MA-subject-4.csv,legacy,Kafkaesque Koffka,3.2.8,0,h,NA,h,h,NA,h,563,NA,40631,21987,NA,563,2,legacy,1024,2,48000,-16,experiment,SSHSS,4,even,42751,217884,NA,253337,241275,2113,243806,NA,254517,2119,195896,NA,254622,255189,254515,254622,Flanker Experiment,91,54769,100,yes,1024
91.08910891,91.08910891,547.1287129,547.1287129,black,legacy,legacy,legacy,0,congruent,uniform,1,undefined,1,s,0,0,0,100,100,0,100,0,100,0,0,0,100,100,100,100,9/29/19 20:18,600,The main experiment item,yes,FlankerExperiment.osexp,E:\Classwork\AQMAED,no,mono,no,18,no,white,no,yes,768,legacy,20,79,E:/Classwork/AQMAED/MA-subject-4.csv,legacy,Kafkaesque Koffka,3.2.8,0,s,NA,h,h,NA,s,491,NA,40631,21987,NA,491,2,legacy,1024,2,48000,-16,experiment,SSSSS,4,even,42751,217884,NA,255202,241275,2113,243806,NA,256443,2119,195896,NA,256548,257040,256438,256548,Flanker Experiment,92,55260,101,yes,1024
91.17647059,91.17647059,547.4117647,547.4117647,black,legacy,legacy,legacy,0,incongruent,uniform,1,undefined,1,s,0,0,0,101,101,0,101,0,101,0,0,0,101,101,101,101,9/29/19 20:18,600,The main experiment item,yes,FlankerExperiment.osexp,E:\Classwork\AQMAED,no,mono,no,18,no,white,no,yes,768,legacy,21,79,E:/Classwork/AQMAED/MA-subject-4.csv,legacy,Kafkaesque Koffka,3.2.8,0,s,NA,h,h,NA,s,576,NA,40631,21987,NA,576,2,legacy,1024,2,48000,-16,experiment,HHSHH,4,even,42751,217884,NA,257045,241275,2113,243806,NA,258251,2119,195896,NA,258355,258932,258246,258355,Flanker Experiment,93,55836,102,yes,1024
91.26213592,91.26213592,546.5145631,546.5145631,black,legacy,legacy,legacy,0,congruent,uniform,1,undefined,1,h,0,0,0,102,102,0,102,0,102,0,0,0,102,102,102,102,9/29/19 20:18,600,The main experiment item,yes,FlankerExperiment.osexp,E:\Classwork\AQMAED,no,mono,no,18,no,white,no,yes,768,legacy,22,79,E:/Classwork/AQMAED/MA-subject-4.csv,legacy,Kafkaesque Koffka,3.2.8,0,h,NA,h,h,NA,h,455,NA,40631,21987,NA,455,2,legacy,1024,2,48000,-16,experiment,HHHHH,4,even,42751,217884,NA,258938,241275,2113,243806,NA,260122,2119,195896,NA,260227,260684,260120,260227,Flanker Experiment,94,56291,103,yes,1024
91.34615385,91.34615385,547.1153846,547.1153846,black,legacy,legacy,legacy,0,incongruent,uniform,1,undefined,1,h,0,0,0,103,103,0,103,0,103,0,0,0,103,103,103,103,9/29/19 20:18,600,The main experiment item,yes,FlankerExperiment.osexp,E:\Classwork\AQMAED,no,mono,no,18,no,white,no,yes,768,legacy,23,79,E:/Classwork/AQMAED/MA-subject-4.csv,legacy,Kafkaesque Koffka,3.2.8,0,h,NA,h,h,NA,h,609,NA,40631,21987,NA,609,2,legacy,1024,2,48000,-16,experiment,SSHSS,4,even,42751,217884,NA,260689,241275,2113,243806,NA,261901,2119,195896,NA,262005,262616,261895,262004,Flanker Experiment,95,56900,104,yes,1024
90.47619048,90.47619048,545.2571429,545.2571429,black,legacy,legacy,legacy,0,incongruent,uniform,0,undefined,0,h,0,0,0,104,104,0,104,0,104,0,0,0,104,104,104,104,9/29/19 20:18,600,The main experiment item,yes,FlankerExperiment.osexp,E:\Classwork\AQMAED,no,mono,no,18,no,white,no,yes,768,legacy,24,79,E:/Classwork/AQMAED/MA-subject-4.csv,legacy,Kafkaesque Koffka,3.2.8,0,s,NA,h,h,NA,s,352,NA,40631,21987,NA,352,2,legacy,1024,2,48000,-16,experiment,SSHSS,4,even,42751,217884,NA,263136,241275,2113,262633,NA,264304,2119,195896,NA,264408,264763,264301,264408,Flanker Experiment,95,57252,105,yes,1024
90.56603774,90.56603774,545.1037736,545.1037736,black,legacy,legacy,legacy,0,congruent,uniform,1,undefined,1,h,0,0,0,105,105,0,105,0,105,0,0,0,105,105,105,105,9/29/19 20:18,600,The main experiment item,yes,FlankerExperiment.osexp,E:\Classwork\AQMAED,no,mono,no,18,no,white,no,yes,768,legacy,25,79,E:/Classwork/AQMAED/MA-subject-4.csv,legacy,Kafkaesque Koffka,3.2.8,0,h,NA,h,h,NA,h,529,NA,40631,21987,NA,529,2,legacy,1024,2,48000,-16,experiment,HHHHH,4,even,42751,217884,NA,265277,264772,2113,262633,NA,266483,2119,195896,NA,266587,267119,266477,266587,Flanker Experiment,96,57781,106,yes,1024
90.65420561,90.65420561,543.4579439,543.4579439,black,legacy,legacy,legacy,0,congruent,uniform,1,undefined,1,s,0,0,0,106,106,0,106,0,106,0,0,0,106,106,106,106,9/29/19 20:18,600,The main experiment item,yes,FlankerExperiment.osexp,E:\Classwork\AQMAED,no,mono,no,18,no,white,no,yes,768,legacy,26,79,E:/Classwork/AQMAED/MA-subject-4.csv,legacy,Kafkaesque Koffka,3.2.8,0,s,NA,h,h,NA,s,369,NA,40631,21987,NA,369,2,legacy,1024,2,48000,-16,experiment,SSSSS,4,even,42751,217884,NA,267130,264772,2113,262633,NA,268322,2119,195896,NA,268425,268795,268318,268425,Flanker Experiment,97,58150,107,yes,1024
90.74074074,90.74074074,543.0740741,543.0740741,black,legacy,legacy,legacy,0,congruent,uniform,1,undefined,1,h,0,0,0,107,107,0,107,0,107,0,0,0,107,107,107,107,9/29/19 20:18,600,The main experiment item,yes,FlankerExperiment.osexp,E:\Classwork\AQMAED,no,mono,no,18,no,white,no,yes,768,legacy,27,79,E:/Classwork/AQMAED/MA-subject-4.csv,legacy,Kafkaesque Koffka,3.2.8,0,h,NA,h,h,NA,h,502,NA,40631,21987,NA,502,2,legacy,1024,2,48000,-16,experiment,HHHHH,4,even,42751,217884,NA,268801,264772,2113,262633,NA,269994,2119,195896,NA,270098,270601,269990,270098,Flanker Experiment,98,58652,108,yes,1024
90.82568807,90.82568807,542.5963303,542.5963303,black,legacy,legacy,legacy,0,congruent,uniform,1,undefined,1,s,0,0,0,108,108,0,108,0,108,0,0,0,108,108,108,108,9/29/19 20:18,600,The main experiment item,yes,FlankerExperiment.osexp,E:\Classwork\AQMAED,no,mono,no,18,no,white,no,yes,768,legacy,28,79,E:/Classwork/AQMAED/MA-subject-4.csv,legacy,Kafkaesque Koffka,3.2.8,0,s,NA,h,h,NA,s,491,NA,40631,21987,NA,491,2,legacy,1024,2,48000,-16,experiment,SSSSS,4,even,42751,217884,NA,270606,264772,2113,262633,NA,271770,2119,195896,NA,271874,272367,271767,271873,Flanker Experiment,99,59143,109,yes,1024
90.90909091,90.90909091,542.8272727,542.8272727,black,legacy,legacy,legacy,0,incongruent,uniform,1,undefined,1,s,0,0,0,109,109,0,109,0,109,0,0,0,109,109,109,109,9/29/19 20:18,600,The main experiment item,yes,FlankerExperiment.osexp,E:\Classwork\AQMAED,no,mono,no,18,no,white,no,yes,768,legacy,29,79,E:/Classwork/AQMAED/MA-subject-4.csv,legacy,Kafkaesque Koffka,3.2.8,0,s,NA,h,h,NA,s,568,NA,40631,21987,NA,568,2,legacy,1024,2,48000,-16,experiment,HHSHH,4,even,42751,217884,NA,272372,264772,2113,262633,NA,273520,2119,195896,NA,273624,274195,273517,273624,Flanker Experiment,100,59711,110,yes,1024
90.99099099,90.99099099,542.4054054,542.4054054,black,legacy,legacy,legacy,0,incongruent,uniform,1,undefined,1,h,0,0,0,110,110,0,110,0,110,0,0,0,110,110,110,110,9/29/19 20:18,600,The main experiment item,yes,FlankerExperiment.osexp,E:\Classwork\AQMAED,no,mono,no,18,no,white,no,yes,768,legacy,30,79,E:/Classwork/AQMAED/MA-subject-4.csv,legacy,Kafkaesque Koffka,3.2.8,0,h,NA,h,h,NA,h,496,NA,40631,21987,NA,496,2,legacy,1024,2,48000,-16,experiment,SSHSS,4,even,42751,217884,NA,274203,264772,2113,262633,NA,275397,2119,195896,NA,275502,276001,275393,275501,Flanker Experiment,101,60207,111,yes,1024
90.17857143,90.17857143,540.6517857,540.6517857,black,legacy,legacy,legacy,0,incongruent,uniform,0,undefined,0,h,0,0,0,111,111,0,111,0,111,0,0,0,111,111,111,111,9/29/19 20:18,600,The main experiment item,yes,FlankerExperiment.osexp,E:\Classwork\AQMAED,no,mono,no,18,no,white,no,yes,768,legacy,31,79,E:/Classwork/AQMAED/MA-subject-4.csv,legacy,Kafkaesque Koffka,3.2.8,0,s,NA,h,h,NA,s,346,NA,40631,21987,NA,346,2,legacy,1024,2,48000,-16,experiment,SSHSS,4,even,42751,217884,NA,276008,264772,2113,262633,NA,277190,2119,195896,NA,277294,277641,277187,277294,Flanker Experiment,101,60553,112,yes,1024
90.26548673,90.26548673,538.9292035,538.9292035,black,legacy,legacy,legacy,0,congruent,uniform,1,undefined,1,s,0,0,0,112,112,0,112,0,112,0,0,0,112,112,112,112,9/29/19 20:18,600,The main experiment item,yes,FlankerExperiment.osexp,E:\Classwork\AQMAED,no,mono,no,18,no,white,no,yes,768,legacy,32,79,E:/Classwork/AQMAED/MA-subject-4.csv,legacy,Kafkaesque Koffka,3.2.8,0,s,NA,h,h,NA,s,346,NA,40631,21987,NA,346,2,legacy,1024,2,48000,-16,experiment,SSSSS,4,even,42751,217884,NA,278150,277646,2113,262633,NA,279285,2119,195896,NA,279389,279737,279283,279389,Flanker Experiment,102,60899,113,yes,1024
90.35087719,90.35087719,539.4122807,539.4122807,black,legacy,legacy,legacy,0,incongruent,uniform,1,undefined,1,h,0,0,0,113,113,0,113,0,113,0,0,0,113,113,113,113,9/29/19 20:18,600,The main experiment item,yes,FlankerExperiment.osexp,E:\Classwork\AQMAED,no,mono,no,18,no,white,no,yes,768,legacy,33,79,E:/Classwork/AQMAED/MA-subject-4.csv,legacy,Kafkaesque Koffka,3.2.8,0,h,NA,h,h,NA,h,594,NA,40631,21987,NA,594,2,legacy,1024,2,48000,-16,experiment,SSHSS,4,even,42751,217884,NA,279743,277646,2113,262633,NA,280831,2119,195896,NA,280932,281527,280828,280932,Flanker Experiment,103,61493,114,yes,1024
90.43478261,90.43478261,538.4,538.4,black,legacy,legacy,legacy,0,congruent,uniform,1,undefined,1,h,0,0,0,114,114,0,114,0,114,0,0,0,114,114,114,114,9/29/19 20:18,600,The main experiment item,yes,FlankerExperiment.osexp,E:\Classwork\AQMAED,no,mono,no,18,no,white,no,yes,768,legacy,34,79,E:/Classwork/AQMAED/MA-subject-4.csv,legacy,Kafkaesque Koffka,3.2.8,0,h,NA,h,h,NA,h,423,NA,40631,21987,NA,423,2,legacy,1024,2,48000,-16,experiment,HHHHH,4,even,42751,217884,NA,281533,277646,2113,262633,NA,282713,2119,195896,NA,282820,283244,282709,282820,Flanker Experiment,104,61916,115,yes,1024
90.51724138,90.51724138,538.8534483,538.8534483,black,legacy,legacy,legacy,0,incongruent,uniform,1,undefined,1,h,0,0,0,115,115,0,115,0,115,0,0,0,115,115,115,115,9/29/19 20:18,600,The main experiment item,yes,FlankerExperiment.osexp,E:\Classwork\AQMAED,no,mono,no,18,no,white,no,yes,768,legacy,35,79,E:/Classwork/AQMAED/MA-subject-4.csv,legacy,Kafkaesque Koffka,3.2.8,0,h,NA,h,h,NA,h,591,NA,40631,21987,NA,591,2,legacy,1024,2,48000,-16,experiment,SSHSS,4,even,42751,217884,NA,283250,277646,2113,262633,NA,284420,2119,195896,NA,284524,285117,284418,284524,Flanker Experiment,105,62507,116,yes,1024
90.5982906,90.5982906,539.974359,539.974359,black,legacy,legacy,legacy,0,incongruent,uniform,1,undefined,1,s,0,0,0,116,116,0,116,0,116,0,0,0,116,116,116,116,9/29/19 20:18,600,The main experiment item,yes,FlankerExperiment.osexp,E:\Classwork\AQMAED,no,mono,no,18,no,white,no,yes,768,legacy,36,79,E:/Classwork/AQMAED/MA-subject-4.csv,legacy,Kafkaesque Koffka,3.2.8,0,s,NA,h,h,NA,s,670,NA,40631,21987,NA,670,2,legacy,1024,2,48000,-16,experiment,HHSHH,4,even,42751,217884,NA,285126,277646,2113,262633,NA,286341,2119,195896,NA,286445,287118,286335,286445,Flanker Experiment,106,63177,117,yes,1024
89.83050847,89.83050847,541.6525424,541.6525424,black,legacy,legacy,legacy,0,incongruent,uniform,0,undefined,0,s,0,0,0,117,117,0,117,0,117,0,0,0,117,117,117,117,9/29/19 20:18,600,The main experiment item,yes,FlankerExperiment.osexp,E:\Classwork\AQMAED,no,mono,no,18,no,white,no,yes,768,legacy,37,79,E:/Classwork/AQMAED/MA-subject-4.csv,legacy,Kafkaesque Koffka,3.2.8,0,h,NA,h,h,NA,h,738,NA,40631,21987,NA,738,2,legacy,1024,2,48000,-16,experiment,HHSHH,4,even,42751,217884,NA,287630,277646,2113,287126,NA,288800,2119,195896,NA,288904,289645,288795,288904,Flanker Experiment,106,63915,118,yes,1024
89.07563025,89.07563025,540.6134454,540.6134454,black,legacy,legacy,legacy,0,incongruent,uniform,0,undefined,0,s,0,0,0,118,118,0,118,0,118,0,0,0,118,118,118,118,9/29/19 20:18,600,The main experiment item,yes,FlankerExperiment.osexp,E:\Classwork\AQMAED,no,mono,no,18,no,white,no,yes,768,legacy,38,79,E:/Classwork/AQMAED/MA-subject-4.csv,legacy,Kafkaesque Koffka,3.2.8,0,h,NA,h,h,NA,h,418,NA,40631,21987,NA,418,2,legacy,1024,2,48000,-16,experiment,HHSHH,4,even,42751,217884,NA,290662,289653,2113,290157,NA,291865,2119,195896,NA,291970,292390,291859,291970,Flanker Experiment,106,64333,119,yes,1024
89.16666667,89.16666667,541.6166667,541.6166667,black,legacy,legacy,legacy,0,incongruent,uniform,1,undefined,1,s,0,0,0,119,119,0,119,0,119,0,0,0,119,119,119,119,9/29/19 20:18,600,The main experiment item,yes,FlankerExperiment.osexp,E:\Classwork\AQMAED,no,mono,no,18,no,white,no,yes,768,legacy,39,79,E:/Classwork/AQMAED/MA-subject-4.csv,legacy,Kafkaesque Koffka,3.2.8,0,s,NA,h,h,NA,s,661,NA,40631,21987,NA,661,2,legacy,1024,2,48000,-16,experiment,HHSHH,4,even,42751,217884,NA,292907,292402,2113,290157,NA,294115,2119,195896,NA,294219,294882,294109,294219,Flanker Experiment,107,64994,120,yes,1024
89.25619835,89.25619835,540.1900826,540.1900826,black,legacy,legacy,legacy,0,congruent,uniform,1,undefined,1,h,0,0,0,120,120,0,120,0,120,0,0,0,120,120,120,120,9/29/19 20:18,600,The main experiment item,yes,FlankerExperiment.osexp,E:\Classwork\AQMAED,no,mono,no,18,no,white,no,yes,768,legacy,40,79,E:/Classwork/AQMAED/MA-subject-4.csv,legacy,Kafkaesque Koffka,3.2.8,0,h,NA,h,h,NA,h,369,NA,40631,21987,NA,369,2,legacy,1024,2,48000,-16,experiment,HHHHH,4,even,42751,217884,NA,295396,292402,2113,294892,NA,296478,2119,195896,NA,296582,296955,296475,296582,Flanker Experiment,108,65363,121,yes,1024
89.3442623,89.3442623,539.9590164,539.9590164,black,legacy,legacy,legacy,0,incongruent,uniform,1,undefined,1,s,0,0,0,121,121,0,121,0,121,0,0,0,121,121,121,121,9/29/19 20:18,600,The main experiment item,yes,FlankerExperiment.osexp,E:\Classwork\AQMAED,no,mono,no,18,no,white,no,yes,768,legacy,41,79,E:/Classwork/AQMAED/MA-subject-4.csv,legacy,Kafkaesque Koffka,3.2.8,0,s,NA,h,h,NA,s,512,NA,40631,21987,NA,512,2,legacy,1024,2,48000,-16,experiment,HHSHH,4,even,42751,217884,NA,296964,292402,2113,294892,NA,298130,2119,195896,NA,298236,298749,298128,298235,Flanker Experiment,109,65875,122,yes,1024
89.43089431,89.43089431,539.5691057,539.5691057,black,legacy,legacy,legacy,0,congruent,uniform,1,undefined,1,s,0,0,0,122,122,0,122,0,122,0,0,0,122,122,122,122,9/29/19 20:18,600,The main experiment item,yes,FlankerExperiment.osexp,E:\Classwork\AQMAED,no,mono,no,18,no,white,no,yes,768,legacy,42,79,E:/Classwork/AQMAED/MA-subject-4.csv,legacy,Kafkaesque Koffka,3.2.8,0,s,NA,h,h,NA,s,492,NA,40631,21987,NA,492,2,legacy,1024,2,48000,-16,experiment,SSSSS,4,even,42751,217884,NA,298755,292402,2113,294892,NA,299907,2119,195896,NA,300012,300506,299905,300012,Flanker Experiment,110,66367,123,yes,1024
89.51612903,89.51612903,540.1209677,540.1209677,black,legacy,legacy,legacy,0,congruent,uniform,1,undefined,1,h,0,0,0,123,123,0,123,0,123,0,0,0,123,123,123,123,9/29/19 20:18,600,The main experiment item,yes,FlankerExperiment.osexp,E:\Classwork\AQMAED,no,mono,no,18,no,white,no,yes,768,legacy,43,79,E:/Classwork/AQMAED/MA-subject-4.csv,legacy,Kafkaesque Koffka,3.2.8,0,h,NA,h,h,NA,h,608,NA,40631,21987,NA,608,2,legacy,1024,2,48000,-16,experiment,HHHHH,4,even,42751,217884,NA,300511,292402,2113,294892,NA,301732,2119,195896,NA,301838,302447,301729,301838,Flanker Experiment,111,66975,124,yes,1024
89.6,89.6,541.896,541.896,black,legacy,legacy,legacy,0,incongruent,uniform,1,undefined,1,h,0,0,0,124,124,0,124,0,124,0,0,0,124,124,124,124,9/29/19 20:18,600,The main experiment item,yes,FlankerExperiment.osexp,E:\Classwork\AQMAED,no,mono,no,18,no,white,no,yes,768,legacy,44,79,E:/Classwork/AQMAED/MA-subject-4.csv,legacy,Kafkaesque Koffka,3.2.8,0,h,NA,h,h,NA,h,762,NA,40631,21987,NA,762,2,legacy,1024,2,48000,-16,experiment,SSHSS,4,even,42751,217884,NA,302958,292402,2113,302453,NA,304127,2119,195896,NA,304230,304993,304124,304230,Flanker Experiment,112,67737,125,yes,1024
89.68253968,89.68253968,538.5873016,538.5873016,black,legacy,legacy,legacy,0,congruent,uniform,1,undefined,1,h,0,0,0,125,125,0,125,0,125,0,0,0,125,125,125,125,9/29/19 20:18,600,The main experiment item,yes,FlankerExperiment.osexp,E:\Classwork\AQMAED,no,mono,no,18,no,white,no,yes,768,legacy,45,79,E:/Classwork/AQMAED/MA-subject-4.csv,legacy,Kafkaesque Koffka,3.2.8,0,h,NA,h,h,NA,h,125,NA,40631,21987,NA,125,2,legacy,1024,2,48000,-16,experiment,HHHHH,4,even,42751,217884,NA,305503,292402,2113,304999,NA,306644,2119,195896,NA,306748,306877,306641,306748,Flanker Experiment,113,67862,126,yes,1024
89.76377953,89.76377953,538.5905512,538.5905512,black,legacy,legacy,legacy,0,congruent,uniform,1,undefined,1,h,0,0,0,126,126,0,126,0,126,0,0,0,126,126,126,126,9/29/19 20:18,600,The main experiment item,yes,FlankerExperiment.osexp,E:\Classwork\AQMAED,no,mono,no,18,no,white,no,yes,768,legacy,46,79,E:/Classwork/AQMAED/MA-subject-4.csv,legacy,Kafkaesque Koffka,3.2.8,0,h,NA,h,h,NA,h,539,NA,40631,21987,NA,539,2,legacy,1024,2,48000,-16,experiment,HHHHH,4,even,42751,217884,NA,306886,292402,2113,304999,NA,308080,2119,195896,NA,308185,308725,308075,308185,Flanker Experiment,114,68401,127,yes,1024
89.84375,89.84375,540.46875,540.46875,black,legacy,legacy,legacy,0,incongruent,uniform,1,undefined,1,h,0,0,0,127,127,0,127,0,127,0,0,0,127,127,127,127,9/29/19 20:18,600,The main experiment item,yes,FlankerExperiment.osexp,E:\Classwork\AQMAED,no,mono,no,18,no,white,no,yes,768,legacy,47,79,E:/Classwork/AQMAED/MA-subject-4.csv,legacy,Kafkaesque Koffka,3.2.8,0,h,NA,h,h,NA,h,779,NA,40631,21987,NA,779,2,legacy,1024,2,48000,-16,experiment,SSHSS,4,even,42751,217884,NA,308731,292402,2113,304999,NA,309817,2119,195896,NA,309921,310703,309813,309921,Flanker Experiment,115,69180,128,yes,1024
89.14728682,89.14728682,537.503876,537.503876,black,legacy,legacy,legacy,0,incongruent,uniform,0,undefined,0,s,0,0,0,128,128,0,128,0,128,0,0,0,128,128,128,128,9/29/19 20:18,600,The main experiment item,yes,FlankerExperiment.osexp,E:\Classwork\AQMAED,no,mono,no,18,no,white,no,yes,768,legacy,48,79,E:/Classwork/AQMAED/MA-subject-4.csv,legacy,Kafkaesque Koffka,3.2.8,0,h,NA,h,h,NA,h,158,NA,40631,21987,NA,158,2,legacy,1024,2,48000,-16,experiment,HHSHH,4,even,42751,217884,NA,311215,292402,2113,310711,NA,312393,2119,195896,NA,312498,312661,312389,312498,Flanker Experiment,115,69338,129,yes,1024
89.23076923,89.23076923,536,536,black,legacy,legacy,legacy,0,congruent,uniform,1,undefined,1,h,0,0,0,129,129,0,129,0,129,0,0,0,129,129,129,129,9/29/19 20:18,600,The main experiment item,yes,FlankerExperiment.osexp,E:\Classwork\AQMAED,no,mono,no,18,no,white,no,yes,768,legacy,49,79,E:/Classwork/AQMAED/MA-subject-4.csv,legacy,Kafkaesque Koffka,3.2.8,0,h,NA,h,h,NA,h,342,NA,40631,21987,NA,342,2,legacy,1024,2,48000,-16,experiment,HHHHH,4,even,42751,217884,NA,313182,312678,2113,310711,NA,314338,2119,195896,NA,314441,314786,314336,314441,Flanker Experiment,116,69680,130,yes,1024
89.3129771,89.3129771,536.0687023,536.0687023,black,legacy,legacy,legacy,0,incongruent,uniform,1,undefined,1,h,0,0,0,130,130,0,130,0,130,0,0,0,130,130,130,130,9/29/19 20:18,600,The main experiment item,yes,FlankerExperiment.osexp,E:\Classwork\AQMAED,no,mono,no,18,no,white,no,yes,768,legacy,50,79,E:/Classwork/AQMAED/MA-subject-4.csv,legacy,Kafkaesque Koffka,3.2.8,0,h,NA,h,h,NA,h,545,NA,40631,21987,NA,545,2,legacy,1024,2,48000,-16,experiment,SSHSS,4,even,42751,217884,NA,314798,312678,2113,310711,NA,315971,2119,195896,NA,316075,316622,315966,316075,Flanker Experiment,117,70225,131,yes,1024
88.63636364,88.63636364,535.6742424,535.6742424,black,legacy,legacy,legacy,0,incongruent,uniform,0,undefined,0,h,0,0,0,131,131,0,131,0,131,0,0,0,131,131,131,131,9/29/19 20:18,600,The main experiment item,yes,FlankerExperiment.osexp,E:\Classwork\AQMAED,no,mono,no,18,no,white,no,yes,768,legacy,51,79,E:/Classwork/AQMAED/MA-subject-4.csv,legacy,Kafkaesque Koffka,3.2.8,0,s,NA,h,h,NA,s,484,NA,40631,21987,NA,484,2,legacy,1024,2,48000,-16,experiment,SSHSS,4,even,42751,217884,NA,316630,312678,2113,310711,NA,317808,2119,195896,NA,317912,318400,317806,317912,Flanker Experiment,117,70709,132,yes,1024
88.72180451,88.72180451,535.0451128,535.0451128,black,legacy,legacy,legacy,0,incongruent,uniform,1,undefined,1,s,0,0,0,132,132,0,132,0,132,0,0,0,132,132,132,132,9/29/19 20:18,600,The main experiment item,yes,FlankerExperiment.osexp,E:\Classwork\AQMAED,no,mono,no,18,no,white,no,yes,768,legacy,52,79,E:/Classwork/AQMAED/MA-subject-4.csv,legacy,Kafkaesque Koffka,3.2.8,0,s,NA,h,h,NA,s,452,NA,40631,21987,NA,452,2,legacy,1024,2,48000,-16,experiment,HHSHH,4,even,42751,217884,NA,318920,318415,2113,310711,NA,320100,2119,195896,NA,320205,320661,320095,320204,Flanker Experiment,118,71161,133,yes,1024
88.80597015,88.80597015,534.1044776,534.1044776,black,legacy,legacy,legacy,0,incongruent,uniform,1,undefined,1,s,0,0,0,133,133,0,133,0,133,0,0,0,133,133,133,133,9/29/19 20:18,600,The main experiment item,yes,FlankerExperiment.osexp,E:\Classwork\AQMAED,no,mono,no,18,no,white,no,yes,768,legacy,53,79,E:/Classwork/AQMAED/MA-subject-4.csv,legacy,Kafkaesque Koffka,3.2.8,0,s,NA,h,h,NA,s,409,NA,40631,21987,NA,409,2,legacy,1024,2,48000,-16,experiment,HHSHH,4,even,42751,217884,NA,320673,318415,2113,310711,NA,321897,2119,195896,NA,322001,322411,321891,322001,Flanker Experiment,119,71570,134,yes,1024
88.14814815,88.14814815,533.3703704,533.3703704,black,legacy,legacy,legacy,0,incongruent,uniform,0,undefined,0,h,0,0,0,134,134,0,134,0,134,0,0,0,134,134,134,134,9/29/19 20:18,600,The main experiment item,yes,FlankerExperiment.osexp,E:\Classwork\AQMAED,no,mono,no,18,no,white,no,yes,768,legacy,54,79,E:/Classwork/AQMAED/MA-subject-4.csv,legacy,Kafkaesque Koffka,3.2.8,0,s,NA,h,h,NA,s,435,NA,40631,21987,NA,435,2,legacy,1024,2,48000,-16,experiment,SSHSS,4,even,42751,217884,NA,322416,318415,2113,310711,NA,323626,2119,195896,NA,323730,324167,323622,323730,Flanker Experiment,119,72005,135,yes,1024
88.23529412,88.23529412,531.2279412,531.2279412,black,legacy,legacy,legacy,0,congruent,uniform,1,undefined,1,s,0,0,0,135,135,0,135,0,135,0,0,0,135,135,135,135,9/29/19 20:18,600,The main experiment item,yes,FlankerExperiment.osexp,E:\Classwork\AQMAED,no,mono,no,18,no,white,no,yes,768,legacy,55,79,E:/Classwork/AQMAED/MA-subject-4.csv,legacy,Kafkaesque Koffka,3.2.8,0,s,NA,h,h,NA,s,242,NA,40631,21987,NA,242,2,legacy,1024,2,48000,-16,experiment,SSSSS,4,even,42751,217884,NA,324678,324173,2113,310711,NA,325829,2119,195896,NA,325935,326181,325826,325933,Flanker Experiment,120,72247,136,yes,1024
88.32116788,88.32116788,531.8759124,531.8759124,black,legacy,legacy,legacy,0,incongruent,uniform,1,undefined,1,h,0,0,0,136,136,0,136,0,136,0,0,0,136,136,136,136,9/29/19 20:18,600,The main experiment item,yes,FlankerExperiment.osexp,E:\Classwork\AQMAED,no,mono,no,18,no,white,no,yes,768,legacy,56,79,E:/Classwork/AQMAED/MA-subject-4.csv,legacy,Kafkaesque Koffka,3.2.8,0,h,NA,h,h,NA,h,620,NA,40631,21987,NA,620,2,legacy,1024,2,48000,-16,experiment,SSHSS,4,even,42751,217884,NA,326190,324173,2113,310711,NA,327388,2119,195896,NA,327493,328115,327385,327492,Flanker Experiment,121,72867,137,yes,1024
88.4057971,88.4057971,529.4275362,529.4275362,black,legacy,legacy,legacy,0,incongruent,uniform,1,undefined,1,s,0,0,0,137,137,0,137,0,137,0,0,0,137,137,137,137,9/29/19 20:18,600,The main experiment item,yes,FlankerExperiment.osexp,E:\Classwork\AQMAED,no,mono,no,18,no,white,no,yes,768,legacy,57,79,E:/Classwork/AQMAED/MA-subject-4.csv,legacy,Kafkaesque Koffka,3.2.8,0,s,NA,h,h,NA,s,194,NA,40631,21987,NA,194,2,legacy,1024,2,48000,-16,experiment,HHSHH,4,even,42751,217884,NA,328626,324173,2113,328122,NA,329806,2119,195896,NA,329910,330108,329803,329910,Flanker Experiment,122,73061,138,yes,1024
87.76978417,87.76978417,526.0719424,526.0719424,black,legacy,legacy,legacy,0,incongruent,uniform,0,undefined,0,s,0,0,0,138,138,0,138,0,138,0,0,0,138,138,138,138,9/29/19 20:18,600,The main experiment item,yes,FlankerExperiment.osexp,E:\Classwork\AQMAED,no,mono,no,18,no,white,no,yes,768,legacy,58,79,E:/Classwork/AQMAED/MA-subject-4.csv,legacy,Kafkaesque Koffka,3.2.8,0,h,NA,h,h,NA,h,63,NA,40631,21987,NA,63,2,legacy,1024,2,48000,-16,experiment,HHSHH,4,even,42751,217884,NA,330117,324173,2113,328122,NA,331310,2119,195896,NA,331416,331484,331308,331415,Flanker Experiment,122,73124,139,yes,1024
87.14285714,87.14285714,523.7357143,523.7357143,black,legacy,legacy,legacy,0,incongruent,uniform,0,undefined,0,h,0,0,0,139,139,0,139,0,139,0,0,0,139,139,139,139,9/29/19 20:18,600,The main experiment item,yes,FlankerExperiment.osexp,E:\Classwork\AQMAED,no,mono,no,18,no,white,no,yes,768,legacy,59,79,E:/Classwork/AQMAED/MA-subject-4.csv,legacy,Kafkaesque Koffka,3.2.8,0,s,NA,h,h,NA,s,199,NA,40631,21987,NA,199,2,legacy,1024,2,48000,-16,experiment,SSHSS,4,even,42751,217884,NA,331996,331493,2113,328122,NA,333192,2119,195896,NA,333297,333500,333188,333297,Flanker Experiment,122,73323,140,yes,1024
87.23404255,87.23404255,523.1276596,523.1276596,black,legacy,legacy,legacy,0,incongruent,uniform,1,undefined,1,s,0,0,0,140,140,0,140,0,140,0,0,0,140,140,140,140,9/29/19 20:18,600,The main experiment item,yes,FlankerExperiment.osexp,E:\Classwork\AQMAED,no,mono,no,18,no,white,no,yes,768,legacy,60,79,E:/Classwork/AQMAED/MA-subject-4.csv,legacy,Kafkaesque Koffka,3.2.8,0,s,NA,h,h,NA,s,438,NA,40631,21987,NA,438,2,legacy,1024,2,48000,-16,experiment,HHSHH,4,even,42751,217884,NA,334013,333509,2113,328122,NA,335173,2119,195896,NA,335279,335719,335169,335278,Flanker Experiment,123,73761,141,yes,1024
87.32394366,87.32394366,520.6619718,520.6619718,black,legacy,legacy,legacy,0,congruent,uniform,1,undefined,1,h,0,0,0,141,141,0,141,0,141,0,0,0,141,141,141,141,9/29/19 20:18,600,The main experiment item,yes,FlankerExperiment.osexp,E:\Classwork\AQMAED,no,mono,no,18,no,white,no,yes,768,legacy,61,79,E:/Classwork/AQMAED/MA-subject-4.csv,legacy,Kafkaesque Koffka,3.2.8,0,h,NA,h,h,NA,h,173,NA,40631,21987,NA,173,2,legacy,1024,2,48000,-16,experiment,HHHHH,4,even,42751,217884,NA,335724,333509,2113,328122,NA,336947,2119,195896,NA,337051,337227,336942,337051,Flanker Experiment,124,73934,142,yes,1024
87.41258741,87.41258741,518.1328671,518.1328671,black,legacy,legacy,legacy,0,congruent,uniform,1,undefined,1,s,0,0,0,142,142,0,142,0,142,0,0,0,142,142,142,142,9/29/19 20:18,600,The main experiment item,yes,FlankerExperiment.osexp,E:\Classwork\AQMAED,no,mono,no,18,no,white,no,yes,768,legacy,62,79,E:/Classwork/AQMAED/MA-subject-4.csv,legacy,Kafkaesque Koffka,3.2.8,0,s,NA,h,h,NA,s,159,NA,40631,21987,NA,159,2,legacy,1024,2,48000,-16,experiment,SSSSS,4,even,42751,217884,NA,337237,333509,2113,328122,NA,338426,2119,195896,NA,338531,338695,338423,338531,Flanker Experiment,125,74093,143,yes,1024
87.5,87.5,515.3541667,515.3541667,black,legacy,legacy,legacy,0,congruent,uniform,1,undefined,1,h,0,0,0,143,143,0,143,0,143,0,0,0,143,143,143,143,9/29/19 20:18,600,The main experiment item,yes,FlankerExperiment.osexp,E:\Classwork\AQMAED,no,mono,no,18,no,white,no,yes,768,legacy,63,79,E:/Classwork/AQMAED/MA-subject-4.csv,legacy,Kafkaesque Koffka,3.2.8,0,h,NA,h,h,NA,h,118,NA,40631,21987,NA,118,2,legacy,1024,2,48000,-16,experiment,HHHHH,4,even,42751,217884,NA,338706,333509,2113,328122,NA,339928,2119,195896,NA,340033,340155,339923,340033,Flanker Experiment,126,74211,144,yes,1024
86.89655172,86.89655172,512.8068966,512.8068966,black,legacy,legacy,legacy,0,congruent,uniform,0,undefined,0,h,0,0,0,144,144,0,144,0,144,0,0,0,144,144,144,144,9/29/19 20:18,600,The main experiment item,yes,FlankerExperiment.osexp,E:\Classwork\AQMAED,no,mono,no,18,no,white,no,yes,768,legacy,64,79,E:/Classwork/AQMAED/MA-subject-4.csv,legacy,Kafkaesque Koffka,3.2.8,0,s,NA,h,h,NA,s,146,NA,40631,21987,NA,146,2,legacy,1024,2,48000,-16,experiment,HHHHH,4,even,42751,217884,NA,340165,333509,2113,328122,NA,341321,2119,195896,NA,341426,341576,341319,341425,Flanker Experiment,126,74357,145,yes,1024
86.98630137,86.98630137,511.5068493,511.5068493,black,legacy,legacy,legacy,0,incongruent,uniform,1,undefined,1,s,0,0,0,145,145,0,145,0,145,0,0,0,145,145,145,145,9/29/19 20:18,600,The main experiment item,yes,FlankerExperiment.osexp,E:\Classwork\AQMAED,no,mono,no,18,no,white,no,yes,768,legacy,65,79,E:/Classwork/AQMAED/MA-subject-4.csv,legacy,Kafkaesque Koffka,3.2.8,0,s,NA,h,h,NA,s,323,NA,40631,21987,NA,323,2,legacy,1024,2,48000,-16,experiment,HHSHH,4,even,42751,217884,NA,342091,341586,2113,328122,NA,343325,2119,195896,NA,343430,343757,343320,343430,Flanker Experiment,127,74680,146,yes,1024
87.07482993,87.07482993,509.0340136,509.0340136,black,legacy,legacy,legacy,0,congruent,uniform,1,undefined,1,h,0,0,0,146,146,0,146,0,146,0,0,0,146,146,146,146,9/29/19 20:18,600,The main experiment item,yes,FlankerExperiment.osexp,E:\Classwork\AQMAED,no,mono,no,18,no,white,no,yes,768,legacy,66,79,E:/Classwork/AQMAED/MA-subject-4.csv,legacy,Kafkaesque Koffka,3.2.8,0,h,NA,h,h,NA,h,148,NA,40631,21987,NA,148,2,legacy,1024,2,48000,-16,experiment,HHHHH,4,even,42751,217884,NA,343765,341586,2113,328122,NA,344968,2119,195896,NA,345072,345223,344965,345072,Flanker Experiment,128,74828,147,yes,1024
86.48648649,86.48648649,506.3445946,506.3445946,black,legacy,legacy,legacy,0,incongruent,uniform,0,undefined,0,s,0,0,0,147,147,0,147,0,147,0,0,0,147,147,147,147,9/29/19 20:18,600,The main experiment item,yes,FlankerExperiment.osexp,E:\Classwork\AQMAED,no,mono,no,18,no,white,no,yes,768,legacy,67,79,E:/Classwork/AQMAED/MA-subject-4.csv,legacy,Kafkaesque Koffka,3.2.8,0,h,NA,h,h,NA,h,111,NA,40631,21987,NA,111,2,legacy,1024,2,48000,-16,experiment,HHSHH,4,even,42751,217884,NA,345231,341586,2113,328122,NA,346416,2119,195896,NA,346521,346639,346410,346521,Flanker Experiment,128,74939,148,yes,1024
85.90604027,85.90604027,503.0805369,503.0805369,black,legacy,legacy,legacy,0,incongruent,uniform,0,undefined,0,s,0,0,0,148,148,0,148,0,148,0,0,0,148,148,148,148,9/29/19 20:18,600,The main experiment item,yes,FlankerExperiment.osexp,E:\Classwork\AQMAED,no,mono,no,18,no,white,no,yes,768,legacy,68,79,E:/Classwork/AQMAED/MA-subject-4.csv,legacy,Kafkaesque Koffka,3.2.8,0,h,NA,h,h,NA,h,20,NA,40631,21987,NA,20,2,legacy,1024,2,48000,-16,experiment,HHSHH,4,even,42751,217884,NA,347156,346651,2113,328122,NA,348347,2119,195896,NA,348452,348476,348341,348451,Flanker Experiment,128,74959,149,yes,1024
86,86,501.1866667,501.1866667,black,legacy,legacy,legacy,0,congruent,uniform,1,undefined,1,s,0,0,0,149,149,0,149,0,149,0,0,0,149,149,149,149,9/29/19 20:18,600,The main experiment item,yes,FlankerExperiment.osexp,E:\Classwork\AQMAED,no,mono,no,18,no,white,no,yes,768,legacy,69,79,E:/Classwork/AQMAED/MA-subject-4.csv,legacy,Kafkaesque Koffka,3.2.8,0,s,NA,h,h,NA,s,219,NA,40631,21987,NA,219,2,legacy,1024,2,48000,-16,experiment,SSSSS,4,even,42751,217884,NA,348991,348485,2113,328122,NA,350175,2119,195896,NA,350279,350502,350172,350279,Flanker Experiment,129,75178,150,yes,1024
86.09271523,86.09271523,500.2516556,500.2516556,black,legacy,legacy,legacy,0,congruent,uniform,1,undefined,1,s,0,0,0,150,150,0,150,0,150,0,0,0,150,150,150,150,9/29/19 20:18,600,The main experiment item,yes,FlankerExperiment.osexp,E:\Classwork\AQMAED,no,mono,no,18,no,white,no,yes,768,legacy,70,79,E:/Classwork/AQMAED/MA-subject-4.csv,legacy,Kafkaesque Koffka,3.2.8,0,s,NA,h,h,NA,s,360,NA,40631,21987,NA,360,2,legacy,1024,2,48000,-16,experiment,SSSSS,4,even,42751,217884,NA,350511,348485,2113,328122,NA,351720,2119,195896,NA,351824,352188,351716,351824,Flanker Experiment,130,75538,151,yes,1024
86.18421053,86.18421053,499.2960526,499.2960526,black,legacy,legacy,legacy,0,congruent,uniform,1,undefined,1,h,0,0,0,151,151,0,151,0,151,0,0,0,151,151,151,151,9/29/19 20:18,600,The main experiment item,yes,FlankerExperiment.osexp,E:\Classwork\AQMAED,no,mono,no,18,no,white,no,yes,768,legacy,71,79,E:/Classwork/AQMAED/MA-subject-4.csv,legacy,Kafkaesque Koffka,3.2.8,0,h,NA,h,h,NA,h,355,NA,40631,21987,NA,355,2,legacy,1024,2,48000,-16,experiment,HHHHH,4,even,42751,217884,NA,352197,348485,2113,328122,NA,353456,2119,195896,NA,353561,353919,353452,353561,Flanker Experiment,131,75893,152,yes,1024
86.2745098,86.2745098,499.7385621,499.7385621,black,legacy,legacy,legacy,0,congruent,uniform,1,undefined,1,h,0,0,0,152,152,0,152,0,152,0,0,0,152,152,152,152,9/29/19 20:18,600,The main experiment item,yes,FlankerExperiment.osexp,E:\Classwork\AQMAED,no,mono,no,18,no,white,no,yes,768,legacy,72,79,E:/Classwork/AQMAED/MA-subject-4.csv,legacy,Kafkaesque Koffka,3.2.8,0,h,NA,h,h,NA,h,567,NA,40631,21987,NA,567,2,legacy,1024,2,48000,-16,experiment,HHHHH,4,even,42751,217884,NA,353936,348485,2113,328122,NA,355115,2119,195896,NA,355220,355790,355112,355220,Flanker Experiment,132,76460,153,yes,1024
86.36363636,86.36363636,498.7987013,498.7987013,black,legacy,legacy,legacy,0,congruent,uniform,1,undefined,1,s,0,0,0,153,153,0,153,0,153,0,0,0,153,153,153,153,9/29/19 20:18,600,The main experiment item,yes,FlankerExperiment.osexp,E:\Classwork\AQMAED,no,mono,no,18,no,white,no,yes,768,legacy,73,79,E:/Classwork/AQMAED/MA-subject-4.csv,legacy,Kafkaesque Koffka,3.2.8,0,s,NA,h,h,NA,s,355,NA,40631,21987,NA,355,2,legacy,1024,2,48000,-16,experiment,SSSSS,4,even,42751,217884,NA,355800,348485,2113,328122,NA,356875,2119,195896,NA,356979,357337,356872,356979,Flanker Experiment,133,76815,154,yes,1024
85.80645161,85.80645161,496.8387097,496.8387097,black,legacy,legacy,legacy,0,incongruent,uniform,0,undefined,0,h,0,0,0,154,154,0,154,0,154,0,0,0,154,154,154,154,9/29/19 20:18,600,The main experiment item,yes,FlankerExperiment.osexp,E:\Classwork\AQMAED,no,mono,no,18,no,white,no,yes,768,legacy,74,79,E:/Classwork/AQMAED/MA-subject-4.csv,legacy,Kafkaesque Koffka,3.2.8,0,s,NA,h,h,NA,s,195,NA,40631,21987,NA,195,2,legacy,1024,2,48000,-16,experiment,SSHSS,4,even,42751,217884,NA,357353,348485,2113,328122,NA,358546,2119,195896,NA,358650,358849,358543,358650,Flanker Experiment,133,77010,155,yes,1024
85.8974359,85.8974359,494.8012821,494.8012821,black,legacy,legacy,legacy,0,incongruent,uniform,1,undefined,1,s,0,0,0,155,155,0,155,0,155,0,0,0,155,155,155,155,9/29/19 20:18,600,The main experiment item,yes,FlankerExperiment.osexp,E:\Classwork\AQMAED,no,mono,no,18,no,white,no,yes,768,legacy,75,79,E:/Classwork/AQMAED/MA-subject-4.csv,legacy,Kafkaesque Koffka,3.2.8,0,s,NA,h,h,NA,s,179,NA,40631,21987,NA,179,2,legacy,1024,2,48000,-16,experiment,HHSHH,4,even,42751,217884,NA,359363,358858,2113,328122,NA,360503,2119,195896,NA,360607,360789,360501,360607,Flanker Experiment,134,77189,156,yes,1024
85.98726115,85.98726115,492.477707,492.477707,black,legacy,legacy,legacy,0,congruent,uniform,1,undefined,1,h,0,0,0,156,156,0,156,0,156,0,0,0,156,156,156,156,9/29/19 20:18,600,The main experiment item,yes,FlankerExperiment.osexp,E:\Classwork\AQMAED,no,mono,no,18,no,white,no,yes,768,legacy,76,79,E:/Classwork/AQMAED/MA-subject-4.csv,legacy,Kafkaesque Koffka,3.2.8,0,h,NA,h,h,NA,h,130,NA,40631,21987,NA,130,2,legacy,1024,2,48000,-16,experiment,HHHHH,4,even,42751,217884,NA,360799,358858,2113,328122,NA,362011,2119,195896,NA,362116,362249,362006,362115,Flanker Experiment,135,77319,157,yes,1024
85.44303797,85.44303797,490.1835443,490.1835443,black,legacy,legacy,legacy,0,incongruent,uniform,0,undefined,0,h,0,0,0,157,157,0,157,0,157,0,0,0,157,157,157,157,9/29/19 20:18,600,The main experiment item,yes,FlankerExperiment.osexp,E:\Classwork\AQMAED,no,mono,no,18,no,white,no,yes,768,legacy,77,79,E:/Classwork/AQMAED/MA-subject-4.csv,legacy,Kafkaesque Koffka,3.2.8,0,s,NA,h,h,NA,s,130,NA,40631,21987,NA,130,2,legacy,1024,2,48000,-16,experiment,SSHSS,4,even,42751,217884,NA,362258,358858,2113,328122,NA,363468,2119,195896,NA,363572,363706,363463,363572,Flanker Experiment,135,77449,158,yes,1024
85.5345912,85.5345912,490.1069182,490.1069182,black,legacy,legacy,legacy,0,congruent,uniform,1,undefined,1,h,0,0,0,158,158,0,158,0,158,0,0,0,158,158,158,158,9/29/19 20:18,600,The main experiment item,yes,FlankerExperiment.osexp,E:\Classwork\AQMAED,no,mono,no,18,no,white,no,yes,768,legacy,78,79,E:/Classwork/AQMAED/MA-subject-4.csv,legacy,Kafkaesque Koffka,3.2.8,0,h,NA,h,h,NA,h,478,NA,40631,21987,NA,478,2,legacy,1024,2,48000,-16,experiment,HHHHH,4,even,42751,217884,NA,364221,363717,2113,328122,NA,365389,2119,195896,NA,365495,365975,365386,365493,Flanker Experiment,136,77927,159,yes,1024
85.625,85.625,488.125,488.125,black,legacy,legacy,legacy,0,incongruent,uniform,1,undefined,1,h,0,0,0,159,159,0,159,0,159,0,0,0,159,159,159,159,9/29/19 20:18,600,The main experiment item,yes,FlankerExperiment.osexp,E:\Classwork\AQMAED,no,mono,no,18,no,white,no,yes,768,legacy,79,79,E:/Classwork/AQMAED/MA-subject-4.csv,legacy,Kafkaesque Koffka,3.2.8,0,h,NA,h,h,NA,h,173,NA,40631,21987,NA,173,2,legacy,1024,2,48000,-16,experiment,SSHSS,4,even,42751,217884,NA,365981,363717,2113,328122,NA,367137,2119,195896,NA,367242,367418,367134,367242,Flanker Experiment,137,78100,160,yes,1024
85.71428571,85.71428571,489.0434783,489.0434783,black,legacy,legacy,legacy,0,congruent,uniform,1,undefined,1,h,0,0,0,160,160,0,160,0,160,0,0,0,160,160,160,160,9/29/19 20:18,300,The main experiment item,yes,FlankerExperiment.osexp,E:\Classwork\AQMAED,no,mono,no,18,no,white,no,yes,768,legacy,0,79,E:/Classwork/AQMAED/MA-subject-4.csv,legacy,Kafkaesque Koffka,3.2.8,0,h,NA,h,h,s,h,636,NA,40631,21987,265,636,2,legacy,1024,2,48000,-16,experiment,HHHHH,4,even,42751,217884,368731,367426,363717,2113,328122,NA,368855,2119,195896,368462,368960,369599,368852,368959,Flanker Experiment,138,78736,161,yes,1024
85.18518519,85.18518519,487.0555556,487.0555556,black,legacy,legacy,legacy,0,congruent,uniform,0,undefined,0,s,0,0,0,161,161,0,161,0,161,0,0,0,161,161,161,161,9/29/19 20:18,300,The main experiment item,yes,FlankerExperiment.osexp,E:\Classwork\AQMAED,no,mono,no,18,no,white,no,yes,768,legacy,1,79,E:/Classwork/AQMAED/MA-subject-4.csv,legacy,Kafkaesque Koffka,3.2.8,0,h,NA,h,h,s,h,167,NA,40631,21987,265,167,2,legacy,1024,2,48000,-16,experiment,SSSSS,4,even,42751,217884,368731,370108,363717,2113,369604,NA,371274,2119,195896,368462,371380,371551,371270,371379,Flanker Experiment,138,78903,162,yes,1024
84.66257669,84.66257669,484.2699387,484.2699387,black,legacy,legacy,legacy,0,incongruent,uniform,0,undefined,0,h,0,0,0,162,162,0,162,0,162,0,0,0,162,162,162,162,9/29/19 20:18,300,The main experiment item,yes,FlankerExperiment.osexp,E:\Classwork\AQMAED,no,mono,no,18,no,white,no,yes,768,legacy,2,79,E:/Classwork/AQMAED/MA-subject-4.csv,legacy,Kafkaesque Koffka,3.2.8,0,s,NA,h,h,s,s,33,NA,40631,21987,265,33,2,legacy,1024,2,48000,-16,experiment,SSHSS,4,even,42751,217884,368731,372065,371559,2113,369604,NA,373233,2119,195896,368462,373337,373374,373230,373337,Flanker Experiment,138,78936,163,yes,1024
84.75609756,84.75609756,482.0609756,482.0609756,black,legacy,legacy,legacy,0,congruent,uniform,1,undefined,1,s,0,0,0,163,163,0,163,0,163,0,0,0,163,163,163,163,9/29/19 20:18,300,The main experiment item,yes,FlankerExperiment.osexp,E:\Classwork\AQMAED,no,mono,no,18,no,white,no,yes,768,legacy,3,79,E:/Classwork/AQMAED/MA-subject-4.csv,legacy,Kafkaesque Koffka,3.2.8,0,s,NA,h,h,s,s,122,NA,40631,21987,265,122,2,legacy,1024,2,48000,-16,experiment,SSSSS,4,even,42751,217884,368731,373888,373384,2113,369604,NA,375054,2119,195896,368462,375159,375284,375051,375158,Flanker Experiment,139,79058,164,yes,1024
84.24242424,84.24242424,479.8484848,479.8484848,black,legacy,legacy,legacy,0,incongruent,uniform,0,undefined,0,s,0,0,0,164,164,0,164,0,164,0,0,0,164,164,164,164,9/29/19 20:18,300,The main experiment item,yes,FlankerExperiment.osexp,E:\Classwork\AQMAED,no,mono,no,18,no,white,no,yes,768,legacy,4,79,E:/Classwork/AQMAED/MA-subject-4.csv,legacy,Kafkaesque Koffka,3.2.8,0,h,NA,h,h,s,h,117,NA,40631,21987,265,117,2,legacy,1024,2,48000,-16,experiment,HHSHH,4,even,42751,217884,368731,375294,373384,2113,369604,NA,376478,2119,195896,368462,376583,376705,376476,376582,Flanker Experiment,139,79175,165,yes,1024
84.3373494,84.3373494,478.2289157,478.2289157,black,legacy,legacy,legacy,0,congruent,uniform,1,undefined,1,s,0,0,0,165,165,0,165,0,165,0,0,0,165,165,165,165,9/29/19 20:18,300,The main experiment item,yes,FlankerExperiment.osexp,E:\Classwork\AQMAED,no,mono,no,18,no,white,no,yes,768,legacy,5,79,E:/Classwork/AQMAED/MA-subject-4.csv,legacy,Kafkaesque Koffka,3.2.8,0,s,NA,h,h,s,s,211,NA,40631,21987,265,211,2,legacy,1024,2,48000,-16,experiment,SSSSS,4,even,42751,217884,368731,377219,376715,2113,369604,NA,378355,2119,195896,368462,378461,378676,378353,378460,Flanker Experiment,140,79386,166,yes,1024
84.43113772,84.43113772,475.8443114,475.8443114,black,legacy,legacy,legacy,0,incongruent,uniform,1,undefined,1,h,0,0,0,166,166,0,166,0,166,0,0,0,166,166,166,166,9/29/19 20:18,300,The main experiment item,yes,FlankerExperiment.osexp,E:\Classwork\AQMAED,no,mono,no,18,no,white,no,yes,768,legacy,6,79,E:/Classwork/AQMAED/MA-subject-4.csv,legacy,Kafkaesque Koffka,3.2.8,0,h,NA,h,h,s,h,80,NA,40631,21987,265,80,2,legacy,1024,2,48000,-16,experiment,SSHSS,4,even,42751,217884,368731,378686,376715,2113,369604,NA,379910,2119,195896,368462,380015,380099,379906,380014,Flanker Experiment,141,79466,167,yes,1024
84.52380952,84.52380952,474.077381,474.077381,black,legacy,legacy,legacy,0,congruent,uniform,1,undefined,1,s,0,0,0,167,167,0,167,0,167,0,0,0,167,167,167,167,9/29/19 20:18,300,The main experiment item,yes,FlankerExperiment.osexp,E:\Classwork\AQMAED,no,mono,no,18,no,white,no,yes,768,legacy,7,79,E:/Classwork/AQMAED/MA-subject-4.csv,legacy,Kafkaesque Koffka,3.2.8,0,s,NA,h,h,s,s,179,NA,40631,21987,265,179,2,legacy,1024,2,48000,-16,experiment,SSSSS,4,even,42751,217884,368731,380108,376715,2113,369604,NA,381310,2119,195896,368462,381415,381598,381305,381415,Flanker Experiment,142,79645,168,yes,1024
84.61538462,84.61538462,472.1301775,472.1301775,black,legacy,legacy,legacy,0,congruent,uniform,1,undefined,1,s,0,0,0,168,168,0,168,0,168,0,0,0,168,168,168,168,9/29/19 20:18,300,The main experiment item,yes,FlankerExperiment.osexp,E:\Classwork\AQMAED,no,mono,no,18,no,white,no,yes,768,legacy,8,79,E:/Classwork/AQMAED/MA-subject-4.csv,legacy,Kafkaesque Koffka,3.2.8,0,s,NA,h,h,s,s,145,NA,40631,21987,265,145,2,legacy,1024,2,48000,-16,experiment,SSSSS,4,even,42751,217884,368731,381608,376715,2113,369604,NA,382806,2119,195896,368462,382910,383059,382800,382910,Flanker Experiment,143,79790,169,yes,1024
84.11764706,84.11764706,469.4588235,469.4588235,black,legacy,legacy,legacy,0,congruent,uniform,0,undefined,0,s,0,0,0,169,169,0,169,0,169,0,0,0,169,169,169,169,9/29/19 20:18,300,The main experiment item,yes,FlankerExperiment.osexp,E:\Classwork\AQMAED,no,mono,no,18,no,white,no,yes,768,legacy,9,79,E:/Classwork/AQMAED/MA-subject-4.csv,legacy,Kafkaesque Koffka,3.2.8,0,h,NA,h,h,s,h,18,NA,40631,21987,265,18,2,legacy,1024,2,48000,-16,experiment,SSSSS,4,even,42751,217884,368731,383068,376715,2113,369604,NA,384254,2119,195896,368462,384358,384382,384249,384358,Flanker Experiment,143,79808,170,yes,1024
