acc,accuracy,average_response_time,avg_rt,background,bidi,canvas_backend,clock_backend,color_backend,compensation,condition,coordinates,correct,correct_instructions1,correct_keyboard_response,correct_response,count_Block1,count_Block2,count_Block3,count_ISI,count_errorFeedback,count_experiment,count_faster,count_finish,count_fixation,count_instructions1,count_instructions2,count_instructions3,count_keyboard_response,count_new_logger,count_sequence,count_stimulus,datetime,deadline,description,disable_garbage_collection,experiment_file,experiment_path,font_bold,font_family,font_italic,font_size,font_underline,foreground,form_clicks,fullscreen,height,keyboard_backend,live_row,live_row_Block1,logfile,mouse_backend,opensesame_codename,opensesame_version,repeat_cycle,response,response_finish,response_instructions1,response_instructions2,response_instructions3,response_keyboard_response,response_time,response_time_finish,response_time_instructions1,response_time_instructions2,response_time_instructions3,response_time_keyboard_response,round_decimals,sampler_backend,sound_buf_size,sound_channels,sound_freq,sound_sample_size,start,stimulus,subject_nr,subject_parity,time_Block1,time_Block2,time_Block3,time_ISI,time_errorFeedback,time_experiment,time_faster,time_finish,time_fixation,time_instructions1,time_instructions2,time_instructions3,time_keyboard_response,time_new_logger,time_sequence,time_stimulus,title,total_correct,total_response_time,total_responses,uniform_coordinates,width
100,100,527,527,black,no,legacy,legacy,legacy,0,incongruent,uniform,1,undefined,1,h,0,0,0,0,0,0,0,0,0,0,0,0,0,0,0,0,Tue Sep 24 11:29:14 2019,1500,The main experiment item,yes,FlankerTaskKBowman.osexp,/Users/KrisBow/Dropbox/GradSchoolTarleton/Fall2019/AdvQuant/Lab2,no,mono,no,18,no,white,no,yes,768,legacy,0,0,/Users/KrisBow/Dropbox/GradSchoolTarleton/Fall2019/AdvQuant/Lab2/KBsubject-2-F21.csv,legacy,Kafkaesque Koffka,3.2.6,0,h,NA,s,NA,NA,h,527,NA,33950,NA,NA,527,2,legacy,1024,2,48000,-16,experiment,SSHSS,1,odd,35472,NA,NA,NA,NA,1506,NA,NA,35567,1520,NA,NA,35677,36206,35557,35677,FlankerTaskKBowman,1,527,1,yes,1024
100,100,501.5,501.5,black,no,legacy,legacy,legacy,0,congruent,uniform,1,undefined,1,h,0,0,0,1,1,0,1,0,1,0,0,0,1,1,1,1,Tue Sep 24 11:29:14 2019,1500,The main experiment item,yes,FlankerTaskKBowman.osexp,/Users/KrisBow/Dropbox/GradSchoolTarleton/Fall2019/AdvQuant/Lab2,no,mono,no,18,no,white,no,yes,768,legacy,1,1,/Users/KrisBow/Dropbox/GradSchoolTarleton/Fall2019/AdvQuant/Lab2/KBsubject-2-F21.csv,legacy,Kafkaesque Koffka,3.2.6,0,h,NA,s,NA,NA,h,476,NA,33950,NA,NA,476,2,legacy,1024,2,48000,-16,experiment,HHHHH,1,odd,35472,NA,NA,36223,NA,1506,NA,NA,37330,1520,NA,NA,37441,37918,37320,37440,FlankerTaskKBowman,2,1003,2,yes,1024
100,100,457,457,black,no,legacy,legacy,legacy,0,incongruent,uniform,1,undefined,1,h,0,0,0,2,2,0,2,0,2,0,0,0,2,2,2,2,Tue Sep 24 11:29:14 2019,1500,The main experiment item,yes,FlankerTaskKBowman.osexp,/Users/KrisBow/Dropbox/GradSchoolTarleton/Fall2019/AdvQuant/Lab2,no,mono,no,18,no,white,no,yes,768,legacy,2,2,/Users/KrisBow/Dropbox/GradSchoolTarleton/Fall2019/AdvQuant/Lab2/KBsubject-2-F21.csv,legacy,Kafkaesque Koffka,3.2.6,0,h,NA,s,NA,NA,h,368,NA,33950,NA,NA,368,2,legacy,1024,2,48000,-16,experiment,SSHSS,1,odd,35472,NA,NA,37931,NA,1506,NA,NA,39031,1520,NA,NA,39141,39511,39020,39141,FlankerTaskKBowman,3,1371,3,yes,1024
100,100,434.5,434.5,black,no,legacy,legacy,legacy,0,congruent,uniform,1,undefined,1,h,0,0,0,3,3,0,3,0,3,0,0,0,3,3,3,3,Tue Sep 24 11:29:14 2019,1500,The main experiment item,yes,FlankerTaskKBowman.osexp,/Users/KrisBow/Dropbox/GradSchoolTarleton/Fall2019/AdvQuant/Lab2,no,mono,no,18,no,white,no,yes,768,legacy,3,3,/Users/KrisBow/Dropbox/GradSchoolTarleton/Fall2019/AdvQuant/Lab2/KBsubject-2-F21.csv,legacy,Kafkaesque Koffka,3.2.6,0,h,NA,s,NA,NA,h,367,NA,33950,NA,NA,367,2,legacy,1024,2,48000,-16,experiment,HHHHH,1,odd,35472,NA,NA,39524,NA,1506,NA,NA,40624,1520,NA,NA,40735,41104,40614,40735,FlankerTaskKBowman,4,1738,4,yes,1024
100,100,420,420,black,no,legacy,legacy,legacy,0,congruent,uniform,1,undefined,1,h,0,0,0,4,4,0,4,0,4,0,0,0,4,4,4,4,Tue Sep 24 11:29:14 2019,1500,The main experiment item,yes,FlankerTaskKBowman.osexp,/Users/KrisBow/Dropbox/GradSchoolTarleton/Fall2019/AdvQuant/Lab2,no,mono,no,18,no,white,no,yes,768,legacy,4,4,/Users/KrisBow/Dropbox/GradSchoolTarleton/Fall2019/AdvQuant/Lab2/KBsubject-2-F21.csv,legacy,Kafkaesque Koffka,3.2.6,0,h,NA,s,NA,NA,h,362,NA,33950,NA,NA,362,2,legacy,1024,2,48000,-16,experiment,HHHHH,1,odd,35472,NA,NA,41116,NA,1506,NA,NA,42218,1520,NA,NA,42329,42693,42207,42328,FlankerTaskKBowman,5,2100,5,yes,1024
100,100,424.5,424.5,black,no,legacy,legacy,legacy,0,incongruent,uniform,1,undefined,1,s,0,0,0,5,5,0,5,0,5,0,0,0,5,5,5,5,Tue Sep 24 11:29:14 2019,1500,The main experiment item,yes,FlankerTaskKBowman.osexp,/Users/KrisBow/Dropbox/GradSchoolTarleton/Fall2019/AdvQuant/Lab2,no,mono,no,18,no,white,no,yes,768,legacy,5,5,/Users/KrisBow/Dropbox/GradSchoolTarleton/Fall2019/AdvQuant/Lab2/KBsubject-2-F21.csv,legacy,Kafkaesque Koffka,3.2.6,0,s,NA,s,NA,NA,s,447,NA,33950,NA,NA,447,2,legacy,1024,2,48000,-16,experiment,HHSHH,1,odd,35472,NA,NA,42706,NA,1506,NA,NA,43807,1520,NA,NA,43918,44367,43797,43918,FlankerTaskKBowman,6,2547,6,yes,1024
100,100,427.5714286,427.5714286,black,no,legacy,legacy,legacy,0,congruent,uniform,1,undefined,1,h,0,0,0,6,6,0,6,0,6,0,0,0,6,6,6,6,Tue Sep 24 11:29:14 2019,1500,The main experiment item,yes,FlankerTaskKBowman.osexp,/Users/KrisBow/Dropbox/GradSchoolTarleton/Fall2019/AdvQuant/Lab2,no,mono,no,18,no,white,no,yes,768,legacy,6,6,/Users/KrisBow/Dropbox/GradSchoolTarleton/Fall2019/AdvQuant/Lab2/KBsubject-2-F21.csv,legacy,Kafkaesque Koffka,3.2.6,0,h,NA,s,NA,NA,h,446,NA,33950,NA,NA,446,2,legacy,1024,2,48000,-16,experiment,HHHHH,1,odd,35472,NA,NA,44380,NA,1506,NA,NA,45481,1520,NA,NA,45591,46039,45471,45591,FlankerTaskKBowman,7,2993,7,yes,1024
100,100,428.75,428.75,black,no,legacy,legacy,legacy,0,incongruent,uniform,1,undefined,1,s,0,0,0,7,7,0,7,0,7,0,0,0,7,7,7,7,Tue Sep 24 11:29:14 2019,1500,The main experiment item,yes,FlankerTaskKBowman.osexp,/Users/KrisBow/Dropbox/GradSchoolTarleton/Fall2019/AdvQuant/Lab2,no,mono,no,18,no,white,no,yes,768,legacy,7,7,/Users/KrisBow/Dropbox/GradSchoolTarleton/Fall2019/AdvQuant/Lab2/KBsubject-2-F21.csv,legacy,Kafkaesque Koffka,3.2.6,0,s,NA,s,NA,NA,s,437,NA,33950,NA,NA,437,2,legacy,1024,2,48000,-16,experiment,HHSHH,1,odd,35472,NA,NA,46052,NA,1506,NA,NA,47155,1520,NA,NA,47266,47705,47144,47266,FlankerTaskKBowman,8,3430,8,yes,1024
100,100,422.6666667,422.6666667,black,no,legacy,legacy,legacy,0,congruent,uniform,1,undefined,1,h,0,0,0,8,8,0,8,0,8,0,0,0,8,8,8,8,Tue Sep 24 11:29:14 2019,1500,The main experiment item,yes,FlankerTaskKBowman.osexp,/Users/KrisBow/Dropbox/GradSchoolTarleton/Fall2019/AdvQuant/Lab2,no,mono,no,18,no,white,no,yes,768,legacy,8,8,/Users/KrisBow/Dropbox/GradSchoolTarleton/Fall2019/AdvQuant/Lab2/KBsubject-2-F21.csv,legacy,Kafkaesque Koffka,3.2.6,0,h,NA,s,NA,NA,h,374,NA,33950,NA,NA,374,2,legacy,1024,2,48000,-16,experiment,HHHHH,1,odd,35472,NA,NA,47718,NA,1506,NA,NA,48818,1520,NA,NA,48928,49304,48808,48928,FlankerTaskKBowman,9,3804,9,yes,1024
100,100,441,441,black,no,legacy,legacy,legacy,0,incongruent,uniform,1,undefined,1,h,0,0,0,9,9,0,9,0,9,0,0,0,9,9,9,9,Tue Sep 24 11:29:14 2019,1500,The main experiment item,yes,FlankerTaskKBowman.osexp,/Users/KrisBow/Dropbox/GradSchoolTarleton/Fall2019/AdvQuant/Lab2,no,mono,no,18,no,white,no,yes,768,legacy,9,9,/Users/KrisBow/Dropbox/GradSchoolTarleton/Fall2019/AdvQuant/Lab2/KBsubject-2-F21.csv,legacy,Kafkaesque Koffka,3.2.6,0,h,NA,s,NA,NA,h,606,NA,33950,NA,NA,606,2,legacy,1024,2,48000,-16,experiment,SSHSS,1,odd,35472,NA,NA,49316,NA,1506,NA,NA,50417,1520,NA,NA,50528,51136,50407,50528,FlankerTaskKBowman,10,4410,10,yes,1024
100,100,442.0909091,442.0909091,black,no,legacy,legacy,legacy,0,congruent,uniform,1,undefined,1,s,0,0,0,10,10,0,10,0,10,0,0,0,10,10,10,10,Tue Sep 24 11:29:14 2019,1500,The main experiment item,yes,FlankerTaskKBowman.osexp,/Users/KrisBow/Dropbox/GradSchoolTarleton/Fall2019/AdvQuant/Lab2,no,mono,no,18,no,white,no,yes,768,legacy,10,10,/Users/KrisBow/Dropbox/GradSchoolTarleton/Fall2019/AdvQuant/Lab2/KBsubject-2-F21.csv,legacy,Kafkaesque Koffka,3.2.6,0,s,NA,s,NA,NA,s,453,NA,33950,NA,NA,453,2,legacy,1024,2,48000,-16,experiment,SSSSS,1,odd,35472,NA,NA,51149,NA,1506,NA,NA,52248,1520,NA,NA,52359,52814,52238,52358,FlankerTaskKBowman,11,4863,11,yes,1024
100,100,448.4166667,448.4166667,black,no,legacy,legacy,legacy,0,congruent,uniform,1,undefined,1,s,0,0,0,11,11,0,11,0,11,0,0,0,11,11,11,11,Tue Sep 24 11:29:14 2019,1500,The main experiment item,yes,FlankerTaskKBowman.osexp,/Users/KrisBow/Dropbox/GradSchoolTarleton/Fall2019/AdvQuant/Lab2,no,mono,no,18,no,white,no,yes,768,legacy,11,11,/Users/KrisBow/Dropbox/GradSchoolTarleton/Fall2019/AdvQuant/Lab2/KBsubject-2-F21.csv,legacy,Kafkaesque Koffka,3.2.6,0,s,NA,s,NA,NA,s,518,NA,33950,NA,NA,518,2,legacy,1024,2,48000,-16,experiment,SSSSS,1,odd,35472,NA,NA,52827,NA,1506,NA,NA,53928,1520,NA,NA,54039,54559,53917,54039,FlankerTaskKBowman,12,5381,12,yes,1024
100,100,459,459,black,no,legacy,legacy,legacy,0,incongruent,uniform,1,undefined,1,s,0,0,0,12,12,0,12,0,12,0,0,0,12,12,12,12,Tue Sep 24 11:29:14 2019,1500,The main experiment item,yes,FlankerTaskKBowman.osexp,/Users/KrisBow/Dropbox/GradSchoolTarleton/Fall2019/AdvQuant/Lab2,no,mono,no,18,no,white,no,yes,768,legacy,12,12,/Users/KrisBow/Dropbox/GradSchoolTarleton/Fall2019/AdvQuant/Lab2/KBsubject-2-F21.csv,legacy,Kafkaesque Koffka,3.2.6,0,s,NA,s,NA,NA,s,586,NA,33950,NA,NA,586,2,legacy,1024,2,48000,-16,experiment,HHSHH,1,odd,35472,NA,NA,54571,NA,1506,NA,NA,55672,1520,NA,NA,55784,56372,55662,55784,FlankerTaskKBowman,13,5967,13,yes,1024
100,100,460.9285714,460.9285714,black,no,legacy,legacy,legacy,0,incongruent,uniform,1,undefined,1,s,0,0,0,13,13,0,13,0,13,0,0,0,13,13,13,13,Tue Sep 24 11:29:14 2019,1500,The main experiment item,yes,FlankerTaskKBowman.osexp,/Users/KrisBow/Dropbox/GradSchoolTarleton/Fall2019/AdvQuant/Lab2,no,mono,no,18,no,white,no,yes,768,legacy,13,13,/Users/KrisBow/Dropbox/GradSchoolTarleton/Fall2019/AdvQuant/Lab2/KBsubject-2-F21.csv,legacy,Kafkaesque Koffka,3.2.6,0,s,NA,s,NA,NA,s,486,NA,33950,NA,NA,486,2,legacy,1024,2,48000,-16,experiment,HHSHH,1,odd,35472,NA,NA,56384,NA,1506,NA,NA,57492,1520,NA,NA,57602,58090,57480,57602,FlankerTaskKBowman,14,6453,14,yes,1024
100,100,460.8666667,460.8666667,black,no,legacy,legacy,legacy,0,congruent,uniform,1,undefined,1,h,0,0,0,14,14,0,14,0,14,0,0,0,14,14,14,14,Tue Sep 24 11:29:14 2019,1500,The main experiment item,yes,FlankerTaskKBowman.osexp,/Users/KrisBow/Dropbox/GradSchoolTarleton/Fall2019/AdvQuant/Lab2,no,mono,no,18,no,white,no,yes,768,legacy,14,14,/Users/KrisBow/Dropbox/GradSchoolTarleton/Fall2019/AdvQuant/Lab2/KBsubject-2-F21.csv,legacy,Kafkaesque Koffka,3.2.6,0,h,NA,s,NA,NA,h,460,NA,33950,NA,NA,460,2,legacy,1024,2,48000,-16,experiment,HHHHH,1,odd,35472,NA,NA,58104,NA,1506,NA,NA,59208,1520,NA,NA,59320,59783,59197,59320,FlankerTaskKBowman,15,6913,15,yes,1024
100,100,465.25,465.25,black,no,legacy,legacy,legacy,0,incongruent,uniform,1,undefined,1,s,0,0,0,15,15,0,15,0,15,0,0,0,15,15,15,15,Tue Sep 24 11:29:14 2019,1500,The main experiment item,yes,FlankerTaskKBowman.osexp,/Users/KrisBow/Dropbox/GradSchoolTarleton/Fall2019/AdvQuant/Lab2,no,mono,no,18,no,white,no,yes,768,legacy,15,15,/Users/KrisBow/Dropbox/GradSchoolTarleton/Fall2019/AdvQuant/Lab2/KBsubject-2-F21.csv,legacy,Kafkaesque Koffka,3.2.6,0,s,NA,s,NA,NA,s,531,NA,33950,NA,NA,531,2,legacy,1024,2,48000,-16,experiment,HHSHH,1,odd,35472,NA,NA,59795,NA,1506,NA,NA,60897,1520,NA,NA,61007,61540,60887,61007,FlankerTaskKBowman,16,7444,16,yes,1024
100,100,464.4705882,464.4705882,black,no,legacy,legacy,legacy,0,congruent,uniform,1,undefined,1,s,0,0,0,16,16,0,16,0,16,0,0,0,16,16,16,16,Tue Sep 24 11:29:14 2019,1500,The main experiment item,yes,FlankerTaskKBowman.osexp,/Users/KrisBow/Dropbox/GradSchoolTarleton/Fall2019/AdvQuant/Lab2,no,mono,no,18,no,white,no,yes,768,legacy,16,16,/Users/KrisBow/Dropbox/GradSchoolTarleton/Fall2019/AdvQuant/Lab2/KBsubject-2-F21.csv,legacy,Kafkaesque Koffka,3.2.6,0,s,NA,s,NA,NA,s,452,NA,33950,NA,NA,452,2,legacy,1024,2,48000,-16,experiment,SSSSS,1,odd,35472,NA,NA,61553,NA,1506,NA,NA,62653,1520,NA,NA,62764,63218,62643,62764,FlankerTaskKBowman,17,7896,17,yes,1024
100,100,462.4444444,462.4444444,black,no,legacy,legacy,legacy,0,congruent,uniform,1,undefined,1,h,0,0,0,17,17,0,17,0,17,0,0,0,17,17,17,17,Tue Sep 24 11:29:14 2019,1500,The main experiment item,yes,FlankerTaskKBowman.osexp,/Users/KrisBow/Dropbox/GradSchoolTarleton/Fall2019/AdvQuant/Lab2,no,mono,no,18,no,white,no,yes,768,legacy,17,17,/Users/KrisBow/Dropbox/GradSchoolTarleton/Fall2019/AdvQuant/Lab2/KBsubject-2-F21.csv,legacy,Kafkaesque Koffka,3.2.6,0,h,NA,s,NA,NA,h,428,NA,33950,NA,NA,428,2,legacy,1024,2,48000,-16,experiment,HHHHH,1,odd,35472,NA,NA,63233,NA,1506,NA,NA,64335,1520,NA,NA,64446,64876,64325,64446,FlankerTaskKBowman,18,8324,18,yes,1024
100,100,462.5263158,462.5263158,black,no,legacy,legacy,legacy,0,congruent,uniform,1,undefined,1,s,0,0,0,18,18,0,18,0,18,0,0,0,18,18,18,18,Tue Sep 24 11:29:14 2019,1500,The main experiment item,yes,FlankerTaskKBowman.osexp,/Users/KrisBow/Dropbox/GradSchoolTarleton/Fall2019/AdvQuant/Lab2,no,mono,no,18,no,white,no,yes,768,legacy,18,18,/Users/KrisBow/Dropbox/GradSchoolTarleton/Fall2019/AdvQuant/Lab2/KBsubject-2-F21.csv,legacy,Kafkaesque Koffka,3.2.6,0,s,NA,s,NA,NA,s,464,NA,33950,NA,NA,464,2,legacy,1024,2,48000,-16,experiment,SSSSS,1,odd,35472,NA,NA,64889,NA,1506,NA,NA,65989,1520,NA,NA,66100,66566,65979,66100,FlankerTaskKBowman,19,8788,19,yes,1024
100,100,465.65,465.65,black,no,legacy,legacy,legacy,0,incongruent,uniform,1,undefined,1,h,0,0,0,19,19,0,19,0,19,0,0,0,19,19,19,19,Tue Sep 24 11:29:14 2019,1500,The main experiment item,yes,FlankerTaskKBowman.osexp,/Users/KrisBow/Dropbox/GradSchoolTarleton/Fall2019/AdvQuant/Lab2,no,mono,no,18,no,white,no,yes,768,legacy,19,19,/Users/KrisBow/Dropbox/GradSchoolTarleton/Fall2019/AdvQuant/Lab2/KBsubject-2-F21.csv,legacy,Kafkaesque Koffka,3.2.6,0,h,NA,s,NA,NA,h,525,NA,33950,NA,NA,525,2,legacy,1024,2,48000,-16,experiment,SSHSS,1,odd,35472,NA,NA,66579,NA,1506,NA,NA,67680,1520,NA,NA,67790,68317,67669,67790,FlankerTaskKBowman,20,9313,20,yes,1024
100,100,471.6666667,471.6666667,black,no,legacy,legacy,legacy,0,incongruent,uniform,1,undefined,1,h,0,0,0,20,20,0,20,0,20,0,0,0,20,20,20,20,Tue Sep 24 11:29:14 2019,1500,The main experiment item,yes,FlankerTaskKBowman.osexp,/Users/KrisBow/Dropbox/GradSchoolTarleton/Fall2019/AdvQuant/Lab2,no,mono,no,18,no,white,no,yes,768,legacy,20,20,/Users/KrisBow/Dropbox/GradSchoolTarleton/Fall2019/AdvQuant/Lab2/KBsubject-2-F21.csv,legacy,Kafkaesque Koffka,3.2.6,0,h,NA,s,NA,NA,h,592,NA,33950,NA,NA,592,2,legacy,1024,2,48000,-16,experiment,SSHSS,1,odd,35472,NA,NA,68329,NA,1506,NA,NA,69430,1520,NA,NA,69541,70135,69420,69541,FlankerTaskKBowman,21,9905,21,yes,1024
100,100,472.8181818,472.8181818,black,no,legacy,legacy,legacy,0,congruent,uniform,1,undefined,1,s,0,0,0,21,21,0,21,0,21,0,0,0,21,21,21,21,Tue Sep 24 11:29:14 2019,1500,The main experiment item,yes,FlankerTaskKBowman.osexp,/Users/KrisBow/Dropbox/GradSchoolTarleton/Fall2019/AdvQuant/Lab2,no,mono,no,18,no,white,no,yes,768,legacy,21,21,/Users/KrisBow/Dropbox/GradSchoolTarleton/Fall2019/AdvQuant/Lab2/KBsubject-2-F21.csv,legacy,Kafkaesque Koffka,3.2.6,0,s,NA,s,NA,NA,s,497,NA,33950,NA,NA,497,2,legacy,1024,2,48000,-16,experiment,SSSSS,1,odd,35472,NA,NA,70147,NA,1506,NA,NA,71247,1520,NA,NA,71358,71857,71237,71358,FlankerTaskKBowman,22,10402,22,yes,1024
100,100,471.2608696,471.2608696,black,no,legacy,legacy,legacy,0,congruent,uniform,1,undefined,1,s,0,0,0,22,22,0,22,0,22,0,0,0,22,22,22,22,Tue Sep 24 11:29:14 2019,1500,The main experiment item,yes,FlankerTaskKBowman.osexp,/Users/KrisBow/Dropbox/GradSchoolTarleton/Fall2019/AdvQuant/Lab2,no,mono,no,18,no,white,no,yes,768,legacy,22,22,/Users/KrisBow/Dropbox/GradSchoolTarleton/Fall2019/AdvQuant/Lab2/KBsubject-2-F21.csv,legacy,Kafkaesque Koffka,3.2.6,0,s,NA,s,NA,NA,s,437,NA,33950,NA,NA,437,2,legacy,1024,2,48000,-16,experiment,SSSSS,1,odd,35472,NA,NA,71869,NA,1506,NA,NA,72971,1520,NA,NA,73081,73520,72960,73081,FlankerTaskKBowman,23,10839,23,yes,1024
100,100,468.2916667,468.2916667,black,no,legacy,legacy,legacy,0,congruent,uniform,1,undefined,1,s,0,0,0,23,23,0,23,0,23,0,0,0,23,23,23,23,Tue Sep 24 11:29:14 2019,1500,The main experiment item,yes,FlankerTaskKBowman.osexp,/Users/KrisBow/Dropbox/GradSchoolTarleton/Fall2019/AdvQuant/Lab2,no,mono,no,18,no,white,no,yes,768,legacy,23,23,/Users/KrisBow/Dropbox/GradSchoolTarleton/Fall2019/AdvQuant/Lab2/KBsubject-2-F21.csv,legacy,Kafkaesque Koffka,3.2.6,0,s,NA,s,NA,NA,s,400,NA,33950,NA,NA,400,2,legacy,1024,2,48000,-16,experiment,SSSSS,1,odd,35472,NA,NA,73533,NA,1506,NA,NA,74634,1520,NA,NA,74744,75146,74624,74744,FlankerTaskKBowman,24,11239,24,yes,1024
100,100,484.64,484.64,black,no,legacy,legacy,legacy,0,incongruent,uniform,1,undefined,1,s,0,0,0,24,24,0,24,0,24,0,0,0,24,24,24,24,Tue Sep 24 11:29:14 2019,1500,The main experiment item,yes,FlankerTaskKBowman.osexp,/Users/KrisBow/Dropbox/GradSchoolTarleton/Fall2019/AdvQuant/Lab2,no,mono,no,18,no,white,no,yes,768,legacy,24,24,/Users/KrisBow/Dropbox/GradSchoolTarleton/Fall2019/AdvQuant/Lab2/KBsubject-2-F21.csv,legacy,Kafkaesque Koffka,3.2.6,0,s,NA,s,NA,NA,s,877,NA,33950,NA,NA,877,2,legacy,1024,2,48000,-16,experiment,HHSHH,1,odd,35472,NA,NA,75158,NA,1506,NA,NA,76259,1520,NA,NA,76369,77248,76248,76369,FlankerTaskKBowman,25,12116,25,yes,1024
100,100,482.4615385,482.4615385,black,no,legacy,legacy,legacy,0,incongruent,uniform,1,undefined,1,h,0,0,0,25,25,0,25,0,25,0,0,0,25,25,25,25,Tue Sep 24 11:29:14 2019,1500,The main experiment item,yes,FlankerTaskKBowman.osexp,/Users/KrisBow/Dropbox/GradSchoolTarleton/Fall2019/AdvQuant/Lab2,no,mono,no,18,no,white,no,yes,768,legacy,25,25,/Users/KrisBow/Dropbox/GradSchoolTarleton/Fall2019/AdvQuant/Lab2/KBsubject-2-F21.csv,legacy,Kafkaesque Koffka,3.2.6,0,h,NA,s,NA,NA,h,428,NA,33950,NA,NA,428,2,legacy,1024,2,48000,-16,experiment,SSHSS,1,odd,35472,NA,NA,77260,NA,1506,NA,NA,78371,1520,NA,NA,78483,78913,78360,78483,FlankerTaskKBowman,26,12544,26,yes,1024
100,100,483.8148148,483.8148148,black,no,legacy,legacy,legacy,0,incongruent,uniform,1,undefined,1,h,0,0,0,26,26,0,26,0,26,0,0,0,26,26,26,26,Tue Sep 24 11:29:14 2019,1500,The main experiment item,yes,FlankerTaskKBowman.osexp,/Users/KrisBow/Dropbox/GradSchoolTarleton/Fall2019/AdvQuant/Lab2,no,mono,no,18,no,white,no,yes,768,legacy,26,26,/Users/KrisBow/Dropbox/GradSchoolTarleton/Fall2019/AdvQuant/Lab2/KBsubject-2-F21.csv,legacy,Kafkaesque Koffka,3.2.6,0,h,NA,s,NA,NA,h,519,NA,33950,NA,NA,519,2,legacy,1024,2,48000,-16,experiment,SSHSS,1,odd,35472,NA,NA,78926,NA,1506,NA,NA,80025,1520,NA,NA,80136,80657,80015,80136,FlankerTaskKBowman,27,13063,27,yes,1024
100,100,483.8214286,483.8214286,black,no,legacy,legacy,legacy,0,congruent,uniform,1,undefined,1,s,0,0,0,27,27,0,27,0,27,0,0,0,27,27,27,27,Tue Sep 24 11:29:14 2019,1500,The main experiment item,yes,FlankerTaskKBowman.osexp,/Users/KrisBow/Dropbox/GradSchoolTarleton/Fall2019/AdvQuant/Lab2,no,mono,no,18,no,white,no,yes,768,legacy,27,27,/Users/KrisBow/Dropbox/GradSchoolTarleton/Fall2019/AdvQuant/Lab2/KBsubject-2-F21.csv,legacy,Kafkaesque Koffka,3.2.6,0,s,NA,s,NA,NA,s,484,NA,33950,NA,NA,484,2,legacy,1024,2,48000,-16,experiment,SSSSS,1,odd,35472,NA,NA,80669,NA,1506,NA,NA,81770,1520,NA,NA,81881,82367,81759,81881,FlankerTaskKBowman,28,13547,28,yes,1024
100,100,482.862069,482.862069,black,no,legacy,legacy,legacy,0,congruent,uniform,1,undefined,1,s,0,0,0,28,28,0,28,0,28,0,0,0,28,28,28,28,Tue Sep 24 11:29:14 2019,1500,The main experiment item,yes,FlankerTaskKBowman.osexp,/Users/KrisBow/Dropbox/GradSchoolTarleton/Fall2019/AdvQuant/Lab2,no,mono,no,18,no,white,no,yes,768,legacy,28,28,/Users/KrisBow/Dropbox/GradSchoolTarleton/Fall2019/AdvQuant/Lab2/KBsubject-2-F21.csv,legacy,Kafkaesque Koffka,3.2.6,0,s,NA,s,NA,NA,s,456,NA,33950,NA,NA,456,2,legacy,1024,2,48000,-16,experiment,SSSSS,1,odd,35472,NA,NA,82379,NA,1506,NA,NA,83480,1520,NA,NA,83591,84049,83470,83591,FlankerTaskKBowman,29,14003,29,yes,1024
100,100,478.3333333,478.3333333,black,no,legacy,legacy,legacy,0,congruent,uniform,1,undefined,1,s,0,0,0,29,29,0,29,0,29,0,0,0,29,29,29,29,Tue Sep 24 11:29:14 2019,1500,The main experiment item,yes,FlankerTaskKBowman.osexp,/Users/KrisBow/Dropbox/GradSchoolTarleton/Fall2019/AdvQuant/Lab2,no,mono,no,18,no,white,no,yes,768,legacy,29,29,/Users/KrisBow/Dropbox/GradSchoolTarleton/Fall2019/AdvQuant/Lab2/KBsubject-2-F21.csv,legacy,Kafkaesque Koffka,3.2.6,0,s,NA,s,NA,NA,s,347,NA,33950,NA,NA,347,2,legacy,1024,2,48000,-16,experiment,SSSSS,1,odd,35472,NA,NA,84062,NA,1506,NA,NA,85164,1520,NA,NA,85275,85624,85154,85275,FlankerTaskKBowman,30,14350,30,yes,1024
100,100,479.0322581,479.0322581,black,no,legacy,legacy,legacy,0,incongruent,uniform,1,undefined,1,h,0,0,0,30,30,0,30,0,30,0,0,0,30,30,30,30,Tue Sep 24 11:29:14 2019,1500,The main experiment item,yes,FlankerTaskKBowman.osexp,/Users/KrisBow/Dropbox/GradSchoolTarleton/Fall2019/AdvQuant/Lab2,no,mono,no,18,no,white,no,yes,768,legacy,30,30,/Users/KrisBow/Dropbox/GradSchoolTarleton/Fall2019/AdvQuant/Lab2/KBsubject-2-F21.csv,legacy,Kafkaesque Koffka,3.2.6,0,h,NA,s,NA,NA,h,500,NA,33950,NA,NA,500,2,legacy,1024,2,48000,-16,experiment,SSHSS,1,odd,35472,NA,NA,85636,NA,1506,NA,NA,86737,1520,NA,NA,86848,87350,86726,86848,FlankerTaskKBowman,31,14850,31,yes,1024
100,100,478.34375,478.34375,black,no,legacy,legacy,legacy,0,congruent,uniform,1,undefined,1,h,0,0,0,31,31,0,31,0,31,0,0,0,31,31,31,31,Tue Sep 24 11:29:14 2019,1500,The main experiment item,yes,FlankerTaskKBowman.osexp,/Users/KrisBow/Dropbox/GradSchoolTarleton/Fall2019/AdvQuant/Lab2,no,mono,no,18,no,white,no,yes,768,legacy,31,31,/Users/KrisBow/Dropbox/GradSchoolTarleton/Fall2019/AdvQuant/Lab2/KBsubject-2-F21.csv,legacy,Kafkaesque Koffka,3.2.6,0,h,NA,s,NA,NA,h,457,NA,33950,NA,NA,457,2,legacy,1024,2,48000,-16,experiment,HHHHH,1,odd,35472,NA,NA,87363,NA,1506,NA,NA,88465,1520,NA,NA,88576,89035,88455,88576,FlankerTaskKBowman,32,15307,32,yes,1024
100,100,475.5151515,475.5151515,black,no,legacy,legacy,legacy,0,congruent,uniform,1,undefined,1,h,0,0,0,32,32,0,32,0,32,0,0,0,32,32,32,32,Tue Sep 24 11:29:14 2019,1500,The main experiment item,yes,FlankerTaskKBowman.osexp,/Users/KrisBow/Dropbox/GradSchoolTarleton/Fall2019/AdvQuant/Lab2,no,mono,no,18,no,white,no,yes,768,legacy,32,32,/Users/KrisBow/Dropbox/GradSchoolTarleton/Fall2019/AdvQuant/Lab2/KBsubject-2-F21.csv,legacy,Kafkaesque Koffka,3.2.6,0,h,NA,s,NA,NA,h,385,NA,33950,NA,NA,385,2,legacy,1024,2,48000,-16,experiment,HHHHH,1,odd,35472,NA,NA,89048,NA,1506,NA,NA,90149,1520,NA,NA,90259,90646,90139,90259,FlankerTaskKBowman,33,15692,33,yes,1024
100,100,476.7058824,476.7058824,black,no,legacy,legacy,legacy,0,incongruent,uniform,1,undefined,1,s,0,0,0,33,33,0,33,0,33,0,0,0,33,33,33,33,Tue Sep 24 11:29:14 2019,1500,The main experiment item,yes,FlankerTaskKBowman.osexp,/Users/KrisBow/Dropbox/GradSchoolTarleton/Fall2019/AdvQuant/Lab2,no,mono,no,18,no,white,no,yes,768,legacy,33,33,/Users/KrisBow/Dropbox/GradSchoolTarleton/Fall2019/AdvQuant/Lab2/KBsubject-2-F21.csv,legacy,Kafkaesque Koffka,3.2.6,0,s,NA,s,NA,NA,s,516,NA,33950,NA,NA,516,2,legacy,1024,2,48000,-16,experiment,HHSHH,1,odd,35472,NA,NA,90658,NA,1506,NA,NA,91759,1520,NA,NA,91870,92388,91748,91870,FlankerTaskKBowman,34,16208,34,yes,1024
100,100,475.1142857,475.1142857,black,no,legacy,legacy,legacy,0,congruent,uniform,1,undefined,1,h,0,0,0,34,34,0,34,0,34,0,0,0,34,34,34,34,Tue Sep 24 11:29:14 2019,1500,The main experiment item,yes,FlankerTaskKBowman.osexp,/Users/KrisBow/Dropbox/GradSchoolTarleton/Fall2019/AdvQuant/Lab2,no,mono,no,18,no,white,no,yes,768,legacy,34,34,/Users/KrisBow/Dropbox/GradSchoolTarleton/Fall2019/AdvQuant/Lab2/KBsubject-2-F21.csv,legacy,Kafkaesque Koffka,3.2.6,0,h,NA,s,NA,NA,h,421,NA,33950,NA,NA,421,2,legacy,1024,2,48000,-16,experiment,HHHHH,1,odd,35472,NA,NA,92400,NA,1506,NA,NA,93500,1520,NA,NA,93611,94034,93490,93610,FlankerTaskKBowman,35,16629,35,yes,1024
100,100,477.6944444,477.6944444,black,no,legacy,legacy,legacy,0,congruent,uniform,1,undefined,1,h,0,0,0,35,35,0,35,0,35,0,0,0,35,35,35,35,Tue Sep 24 11:29:14 2019,1500,The main experiment item,yes,FlankerTaskKBowman.osexp,/Users/KrisBow/Dropbox/GradSchoolTarleton/Fall2019/AdvQuant/Lab2,no,mono,no,18,no,white,no,yes,768,legacy,35,35,/Users/KrisBow/Dropbox/GradSchoolTarleton/Fall2019/AdvQuant/Lab2/KBsubject-2-F21.csv,legacy,Kafkaesque Koffka,3.2.6,0,h,NA,s,NA,NA,h,568,NA,33950,NA,NA,568,2,legacy,1024,2,48000,-16,experiment,HHHHH,1,odd,35472,NA,NA,94046,NA,1506,NA,NA,95148,1520,NA,NA,95259,95829,95137,95258,FlankerTaskKBowman,36,17197,36,yes,1024
100,100,476.8108108,476.8108108,black,no,legacy,legacy,legacy,0,congruent,uniform,1,undefined,1,s,0,0,0,36,36,0,36,0,36,0,0,0,36,36,36,36,Tue Sep 24 11:29:14 2019,1500,The main experiment item,yes,FlankerTaskKBowman.osexp,/Users/KrisBow/Dropbox/GradSchoolTarleton/Fall2019/AdvQuant/Lab2,no,mono,no,18,no,white,no,yes,768,legacy,36,36,/Users/KrisBow/Dropbox/GradSchoolTarleton/Fall2019/AdvQuant/Lab2/KBsubject-2-F21.csv,legacy,Kafkaesque Koffka,3.2.6,0,s,NA,s,NA,NA,s,445,NA,33950,NA,NA,445,2,legacy,1024,2,48000,-16,experiment,SSSSS,1,odd,35472,NA,NA,95841,NA,1506,NA,NA,96941,1520,NA,NA,97054,97501,96930,97054,FlankerTaskKBowman,37,17642,37,yes,1024
100,100,479.0789474,479.0789474,black,no,legacy,legacy,legacy,0,incongruent,uniform,1,undefined,1,s,0,0,0,37,37,0,37,0,37,0,0,0,37,37,37,37,Tue Sep 24 11:29:14 2019,1500,The main experiment item,yes,FlankerTaskKBowman.osexp,/Users/KrisBow/Dropbox/GradSchoolTarleton/Fall2019/AdvQuant/Lab2,no,mono,no,18,no,white,no,yes,768,legacy,37,37,/Users/KrisBow/Dropbox/GradSchoolTarleton/Fall2019/AdvQuant/Lab2/KBsubject-2-F21.csv,legacy,Kafkaesque Koffka,3.2.6,0,s,NA,s,NA,NA,s,563,NA,33950,NA,NA,563,2,legacy,1024,2,48000,-16,experiment,HHSHH,1,odd,35472,NA,NA,97514,NA,1506,NA,NA,98614,1520,NA,NA,98725,99290,98604,98725,FlankerTaskKBowman,38,18205,38,yes,1024
100,100,476.8205128,476.8205128,black,no,legacy,legacy,legacy,0,incongruent,uniform,1,undefined,1,s,0,0,0,38,38,0,38,0,38,0,0,0,38,38,38,38,Tue Sep 24 11:29:14 2019,1500,The main experiment item,yes,FlankerTaskKBowman.osexp,/Users/KrisBow/Dropbox/GradSchoolTarleton/Fall2019/AdvQuant/Lab2,no,mono,no,18,no,white,no,yes,768,legacy,38,38,/Users/KrisBow/Dropbox/GradSchoolTarleton/Fall2019/AdvQuant/Lab2/KBsubject-2-F21.csv,legacy,Kafkaesque Koffka,3.2.6,0,s,NA,s,NA,NA,s,391,NA,33950,NA,NA,391,2,legacy,1024,2,48000,-16,experiment,HHSHH,1,odd,35472,NA,NA,99302,NA,1506,NA,NA,100402,1520,NA,NA,100512,100905,100392,100512,FlankerTaskKBowman,39,18596,39,yes,1024
100,100,477.55,477.55,black,no,legacy,legacy,legacy,0,incongruent,uniform,1,undefined,1,s,0,0,0,39,39,0,39,0,39,0,0,0,39,39,39,39,Tue Sep 24 11:29:14 2019,1500,The main experiment item,yes,FlankerTaskKBowman.osexp,/Users/KrisBow/Dropbox/GradSchoolTarleton/Fall2019/AdvQuant/Lab2,no,mono,no,18,no,white,no,yes,768,legacy,39,39,/Users/KrisBow/Dropbox/GradSchoolTarleton/Fall2019/AdvQuant/Lab2/KBsubject-2-F21.csv,legacy,Kafkaesque Koffka,3.2.6,0,s,NA,s,NA,NA,s,506,NA,33950,NA,NA,506,2,legacy,1024,2,48000,-16,experiment,HHSHH,1,odd,35472,NA,NA,100918,NA,1506,NA,NA,102018,1520,NA,NA,102128,102636,102007,102128,FlankerTaskKBowman,40,19102,40,yes,1024
100,100,477.2682927,477.2682927,black,no,legacy,legacy,legacy,0,congruent,uniform,1,undefined,1,h,0,0,0,40,40,0,40,0,40,0,0,0,40,40,40,40,Tue Sep 24 11:29:14 2019,1500,The main experiment item,yes,FlankerTaskKBowman.osexp,/Users/KrisBow/Dropbox/GradSchoolTarleton/Fall2019/AdvQuant/Lab2,no,mono,no,18,no,white,no,yes,768,legacy,40,40,/Users/KrisBow/Dropbox/GradSchoolTarleton/Fall2019/AdvQuant/Lab2/KBsubject-2-F21.csv,legacy,Kafkaesque Koffka,3.2.6,0,h,NA,s,NA,NA,h,466,NA,33950,NA,NA,466,2,legacy,1024,2,48000,-16,experiment,HHHHH,1,odd,35472,NA,NA,102649,NA,1506,NA,NA,103749,1520,NA,NA,103860,104328,103739,103860,FlankerTaskKBowman,41,19568,41,yes,1024
100,100,478,478,black,no,legacy,legacy,legacy,0,incongruent,uniform,1,undefined,1,s,0,0,0,41,41,0,41,0,41,0,0,0,41,41,41,41,Tue Sep 24 11:29:14 2019,1500,The main experiment item,yes,FlankerTaskKBowman.osexp,/Users/KrisBow/Dropbox/GradSchoolTarleton/Fall2019/AdvQuant/Lab2,no,mono,no,18,no,white,no,yes,768,legacy,41,41,/Users/KrisBow/Dropbox/GradSchoolTarleton/Fall2019/AdvQuant/Lab2/KBsubject-2-F21.csv,legacy,Kafkaesque Koffka,3.2.6,0,s,NA,s,NA,NA,s,508,NA,33950,NA,NA,508,2,legacy,1024,2,48000,-16,experiment,HHSHH,1,odd,35472,NA,NA,104343,NA,1506,NA,NA,105444,1520,NA,NA,105555,106066,105433,105555,FlankerTaskKBowman,42,20076,42,yes,1024
100,100,478.7674419,478.7674419,black,no,legacy,legacy,legacy,0,incongruent,uniform,1,undefined,1,s,0,0,0,42,42,0,42,0,42,0,0,0,42,42,42,42,Tue Sep 24 11:29:14 2019,1500,The main experiment item,yes,FlankerTaskKBowman.osexp,/Users/KrisBow/Dropbox/GradSchoolTarleton/Fall2019/AdvQuant/Lab2,no,mono,no,18,no,white,no,yes,768,legacy,42,42,/Users/KrisBow/Dropbox/GradSchoolTarleton/Fall2019/AdvQuant/Lab2/KBsubject-2-F21.csv,legacy,Kafkaesque Koffka,3.2.6,0,s,NA,s,NA,NA,s,511,NA,33950,NA,NA,511,2,legacy,1024,2,48000,-16,experiment,HHSHH,1,odd,35472,NA,NA,106078,NA,1506,NA,NA,107179,1520,NA,NA,107289,107803,107169,107289,FlankerTaskKBowman,43,20587,43,yes,1024
100,100,481.3636364,481.3636364,black,no,legacy,legacy,legacy,0,congruent,uniform,1,undefined,1,h,0,0,0,43,43,0,43,0,43,0,0,0,43,43,43,43,Tue Sep 24 11:29:14 2019,1500,The main experiment item,yes,FlankerTaskKBowman.osexp,/Users/KrisBow/Dropbox/GradSchoolTarleton/Fall2019/AdvQuant/Lab2,no,mono,no,18,no,white,no,yes,768,legacy,43,43,/Users/KrisBow/Dropbox/GradSchoolTarleton/Fall2019/AdvQuant/Lab2/KBsubject-2-F21.csv,legacy,Kafkaesque Koffka,3.2.6,0,h,NA,s,NA,NA,h,593,NA,33950,NA,NA,593,2,legacy,1024,2,48000,-16,experiment,HHHHH,1,odd,35472,NA,NA,107815,NA,1506,NA,NA,108916,1520,NA,NA,109026,109622,108905,109026,FlankerTaskKBowman,44,21180,44,yes,1024
100,100,482.1111111,482.1111111,black,no,legacy,legacy,legacy,0,incongruent,uniform,1,undefined,1,h,0,0,0,44,44,0,44,0,44,0,0,0,44,44,44,44,Tue Sep 24 11:29:14 2019,1500,The main experiment item,yes,FlankerTaskKBowman.osexp,/Users/KrisBow/Dropbox/GradSchoolTarleton/Fall2019/AdvQuant/Lab2,no,mono,no,18,no,white,no,yes,768,legacy,44,44,/Users/KrisBow/Dropbox/GradSchoolTarleton/Fall2019/AdvQuant/Lab2/KBsubject-2-F21.csv,legacy,Kafkaesque Koffka,3.2.6,0,h,NA,s,NA,NA,h,515,NA,33950,NA,NA,515,2,legacy,1024,2,48000,-16,experiment,SSHSS,1,odd,35472,NA,NA,109634,NA,1506,NA,NA,110734,1520,NA,NA,110845,111363,110724,110844,FlankerTaskKBowman,45,21695,45,yes,1024
100,100,483.0869565,483.0869565,black,no,legacy,legacy,legacy,0,incongruent,uniform,1,undefined,1,h,0,0,0,45,45,0,45,0,45,0,0,0,45,45,45,45,Tue Sep 24 11:29:14 2019,1500,The main experiment item,yes,FlankerTaskKBowman.osexp,/Users/KrisBow/Dropbox/GradSchoolTarleton/Fall2019/AdvQuant/Lab2,no,mono,no,18,no,white,no,yes,768,legacy,45,45,/Users/KrisBow/Dropbox/GradSchoolTarleton/Fall2019/AdvQuant/Lab2/KBsubject-2-F21.csv,legacy,Kafkaesque Koffka,3.2.6,0,h,NA,s,NA,NA,h,527,NA,33950,NA,NA,527,2,legacy,1024,2,48000,-16,experiment,SSHSS,1,odd,35472,NA,NA,111375,NA,1506,NA,NA,112476,1520,NA,NA,112586,113115,112465,112586,FlankerTaskKBowman,46,22222,46,yes,1024
97.87234043,97.87234043,480.2765957,480.2765957,black,no,legacy,legacy,legacy,0,congruent,uniform,0,undefined,0,s,0,0,0,46,46,0,46,0,46,0,0,0,46,46,46,46,Tue Sep 24 11:29:14 2019,1500,The main experiment item,yes,FlankerTaskKBowman.osexp,/Users/KrisBow/Dropbox/GradSchoolTarleton/Fall2019/AdvQuant/Lab2,no,mono,no,18,no,white,no,yes,768,legacy,46,46,/Users/KrisBow/Dropbox/GradSchoolTarleton/Fall2019/AdvQuant/Lab2/KBsubject-2-F21.csv,legacy,Kafkaesque Koffka,3.2.6,0,h,NA,s,NA,NA,h,351,NA,33950,NA,NA,351,2,legacy,1024,2,48000,-16,experiment,SSSSS,1,odd,35472,NA,NA,113128,NA,1506,NA,NA,114227,1520,NA,NA,114338,114691,114217,114338,FlankerTaskKBowman,46,22573,47,yes,1024
97.91666667,97.91666667,479.375,479.375,black,no,legacy,legacy,legacy,0,incongruent,uniform,1,undefined,1,s,0,0,0,47,47,0,47,0,47,0,0,0,47,47,47,47,Tue Sep 24 11:29:14 2019,1500,The main experiment item,yes,FlankerTaskKBowman.osexp,/Users/KrisBow/Dropbox/GradSchoolTarleton/Fall2019/AdvQuant/Lab2,no,mono,no,18,no,white,no,yes,768,legacy,47,47,/Users/KrisBow/Dropbox/GradSchoolTarleton/Fall2019/AdvQuant/Lab2/KBsubject-2-F21.csv,legacy,Kafkaesque Koffka,3.2.6,0,s,NA,s,NA,NA,s,437,NA,33950,NA,NA,437,2,legacy,1024,2,48000,-16,experiment,HHSHH,1,odd,35472,NA,NA,115214,114704,1506,NA,NA,116315,1520,NA,NA,116426,116865,116305,116426,FlankerTaskKBowman,47,23010,48,yes,1024
97.95918367,97.95918367,478.6734694,478.6734694,black,no,legacy,legacy,legacy,0,incongruent,uniform,1,undefined,1,h,0,0,0,48,48,0,48,0,48,0,0,0,48,48,48,48,Tue Sep 24 11:29:14 2019,1500,The main experiment item,yes,FlankerTaskKBowman.osexp,/Users/KrisBow/Dropbox/GradSchoolTarleton/Fall2019/AdvQuant/Lab2,no,mono,no,18,no,white,no,yes,768,legacy,48,48,/Users/KrisBow/Dropbox/GradSchoolTarleton/Fall2019/AdvQuant/Lab2/KBsubject-2-F21.csv,legacy,Kafkaesque Koffka,3.2.6,0,h,NA,s,NA,NA,h,445,NA,33950,NA,NA,445,2,legacy,1024,2,48000,-16,experiment,SSHSS,1,odd,35472,NA,NA,116878,114704,1506,NA,NA,117979,1520,NA,NA,118089,118536,117969,118089,FlankerTaskKBowman,48,23455,49,yes,1024
98,98,479.72,479.72,black,no,legacy,legacy,legacy,0,incongruent,uniform,1,undefined,1,h,0,0,0,49,49,0,49,0,49,0,0,0,49,49,49,49,Tue Sep 24 11:29:14 2019,1500,The main experiment item,yes,FlankerTaskKBowman.osexp,/Users/KrisBow/Dropbox/GradSchoolTarleton/Fall2019/AdvQuant/Lab2,no,mono,no,18,no,white,no,yes,768,legacy,49,49,/Users/KrisBow/Dropbox/GradSchoolTarleton/Fall2019/AdvQuant/Lab2/KBsubject-2-F21.csv,legacy,Kafkaesque Koffka,3.2.6,0,h,NA,s,NA,NA,h,531,NA,33950,NA,NA,531,2,legacy,1024,2,48000,-16,experiment,SSHSS,1,odd,35472,NA,NA,118550,114704,1506,NA,NA,119651,1520,NA,NA,119761,120295,119640,119761,FlankerTaskKBowman,49,23986,50,yes,1024
98.03921569,98.03921569,478.6666667,478.6666667,black,no,legacy,legacy,legacy,0,congruent,uniform,1,undefined,1,s,0,0,0,50,50,0,50,0,50,0,0,0,50,50,50,50,Tue Sep 24 11:29:14 2019,1500,The main experiment item,yes,FlankerTaskKBowman.osexp,/Users/KrisBow/Dropbox/GradSchoolTarleton/Fall2019/AdvQuant/Lab2,no,mono,no,18,no,white,no,yes,768,legacy,50,50,/Users/KrisBow/Dropbox/GradSchoolTarleton/Fall2019/AdvQuant/Lab2/KBsubject-2-F21.csv,legacy,Kafkaesque Koffka,3.2.6,0,s,NA,s,NA,NA,s,426,NA,33950,NA,NA,426,2,legacy,1024,2,48000,-16,experiment,SSSSS,1,odd,35472,NA,NA,120308,114704,1506,NA,NA,121407,1520,NA,NA,121518,121946,121397,121518,FlankerTaskKBowman,50,24412,51,yes,1024
98.07692308,98.07692308,476.9807692,476.9807692,black,no,legacy,legacy,legacy,0,congruent,uniform,1,undefined,1,s,0,0,0,51,51,0,51,0,51,0,0,0,51,51,51,51,Tue Sep 24 11:29:14 2019,1500,The main experiment item,yes,FlankerTaskKBowman.osexp,/Users/KrisBow/Dropbox/GradSchoolTarleton/Fall2019/AdvQuant/Lab2,no,mono,no,18,no,white,no,yes,768,legacy,51,51,/Users/KrisBow/Dropbox/GradSchoolTarleton/Fall2019/AdvQuant/Lab2/KBsubject-2-F21.csv,legacy,Kafkaesque Koffka,3.2.6,0,s,NA,s,NA,NA,s,391,NA,33950,NA,NA,391,2,legacy,1024,2,48000,-16,experiment,SSSSS,1,odd,35472,NA,NA,121959,114704,1506,NA,NA,123061,1520,NA,NA,123172,123565,123050,123172,FlankerTaskKBowman,51,24803,52,yes,1024
98.11320755,98.11320755,478.5660377,478.5660377,black,no,legacy,legacy,legacy,0,incongruent,uniform,1,undefined,1,s,0,0,0,52,52,0,52,0,52,0,0,0,52,52,52,52,Tue Sep 24 11:29:14 2019,1500,The main experiment item,yes,FlankerTaskKBowman.osexp,/Users/KrisBow/Dropbox/GradSchoolTarleton/Fall2019/AdvQuant/Lab2,no,mono,no,18,no,white,no,yes,768,legacy,52,52,/Users/KrisBow/Dropbox/GradSchoolTarleton/Fall2019/AdvQuant/Lab2/KBsubject-2-F21.csv,legacy,Kafkaesque Koffka,3.2.6,0,s,NA,s,NA,NA,s,561,NA,33950,NA,NA,561,2,legacy,1024,2,48000,-16,experiment,HHSHH,1,odd,35472,NA,NA,123584,114704,1506,NA,NA,124685,1520,NA,NA,124796,125359,124675,124795,FlankerTaskKBowman,52,25364,53,yes,1024
98.14814815,98.14814815,479.2407407,479.2407407,black,no,legacy,legacy,legacy,0,incongruent,uniform,1,undefined,1,s,0,0,0,53,53,0,53,0,53,0,0,0,53,53,53,53,Tue Sep 24 11:29:14 2019,1500,The main experiment item,yes,FlankerTaskKBowman.osexp,/Users/KrisBow/Dropbox/GradSchoolTarleton/Fall2019/AdvQuant/Lab2,no,mono,no,18,no,white,no,yes,768,legacy,53,53,/Users/KrisBow/Dropbox/GradSchoolTarleton/Fall2019/AdvQuant/Lab2/KBsubject-2-F21.csv,legacy,Kafkaesque Koffka,3.2.6,0,s,NA,s,NA,NA,s,515,NA,33950,NA,NA,515,2,legacy,1024,2,48000,-16,experiment,HHSHH,1,odd,35472,NA,NA,125372,114704,1506,NA,NA,126473,1520,NA,NA,126584,127102,126463,126583,FlankerTaskKBowman,53,25879,54,yes,1024
96.36363636,96.36363636,478.5090909,478.5090909,black,no,legacy,legacy,legacy,0,incongruent,uniform,0,undefined,0,s,0,0,0,54,54,0,54,0,54,0,0,0,54,54,54,54,Tue Sep 24 11:29:14 2019,1500,The main experiment item,yes,FlankerTaskKBowman.osexp,/Users/KrisBow/Dropbox/GradSchoolTarleton/Fall2019/AdvQuant/Lab2,no,mono,no,18,no,white,no,yes,768,legacy,54,54,/Users/KrisBow/Dropbox/GradSchoolTarleton/Fall2019/AdvQuant/Lab2/KBsubject-2-F21.csv,legacy,Kafkaesque Koffka,3.2.6,0,h,NA,s,NA,NA,h,439,NA,33950,NA,NA,439,2,legacy,1024,2,48000,-16,experiment,HHSHH,1,odd,35472,NA,NA,127115,114704,1506,NA,NA,128216,1520,NA,NA,128327,128768,128206,128327,FlankerTaskKBowman,53,26318,55,yes,1024
96.42857143,96.42857143,479.0357143,479.0357143,black,no,legacy,legacy,legacy,0,congruent,uniform,1,undefined,1,h,0,0,0,55,55,0,55,0,55,0,0,0,55,55,55,55,Tue Sep 24 11:29:14 2019,1500,The main experiment item,yes,FlankerTaskKBowman.osexp,/Users/KrisBow/Dropbox/GradSchoolTarleton/Fall2019/AdvQuant/Lab2,no,mono,no,18,no,white,no,yes,768,legacy,55,55,/Users/KrisBow/Dropbox/GradSchoolTarleton/Fall2019/AdvQuant/Lab2/KBsubject-2-F21.csv,legacy,Kafkaesque Koffka,3.2.6,0,h,NA,s,NA,NA,h,508,NA,33950,NA,NA,508,2,legacy,1024,2,48000,-16,experiment,HHHHH,1,odd,35472,NA,NA,129294,128783,1506,NA,NA,130396,1520,NA,NA,130507,131017,130386,130507,FlankerTaskKBowman,54,26826,56,yes,1024
96.49122807,96.49122807,478.754386,478.754386,black,no,legacy,legacy,legacy,0,incongruent,uniform,1,undefined,1,s,0,0,0,56,56,0,56,0,56,0,0,0,56,56,56,56,Tue Sep 24 11:29:14 2019,1500,The main experiment item,yes,FlankerTaskKBowman.osexp,/Users/KrisBow/Dropbox/GradSchoolTarleton/Fall2019/AdvQuant/Lab2,no,mono,no,18,no,white,no,yes,768,legacy,56,56,/Users/KrisBow/Dropbox/GradSchoolTarleton/Fall2019/AdvQuant/Lab2/KBsubject-2-F21.csv,legacy,Kafkaesque Koffka,3.2.6,0,s,NA,s,NA,NA,s,463,NA,33950,NA,NA,463,2,legacy,1024,2,48000,-16,experiment,HHSHH,1,odd,35472,NA,NA,131030,128783,1506,NA,NA,132132,1520,NA,NA,132246,132711,132122,132246,FlankerTaskKBowman,55,27289,57,yes,1024
96.55172414,96.55172414,478.8103448,478.8103448,black,no,legacy,legacy,legacy,0,congruent,uniform,1,undefined,1,h,0,0,0,57,57,0,57,0,57,0,0,0,57,57,57,57,Tue Sep 24 11:29:14 2019,1500,The main experiment item,yes,FlankerTaskKBowman.osexp,/Users/KrisBow/Dropbox/GradSchoolTarleton/Fall2019/AdvQuant/Lab2,no,mono,no,18,no,white,no,yes,768,legacy,57,57,/Users/KrisBow/Dropbox/GradSchoolTarleton/Fall2019/AdvQuant/Lab2/KBsubject-2-F21.csv,legacy,Kafkaesque Koffka,3.2.6,0,h,NA,s,NA,NA,h,482,NA,33950,NA,NA,482,2,legacy,1024,2,48000,-16,experiment,HHHHH,1,odd,35472,NA,NA,132724,128783,1506,NA,NA,133826,1520,NA,NA,133937,134421,133815,133936,FlankerTaskKBowman,56,27771,58,yes,1024
96.61016949,96.61016949,478.7457627,478.7457627,black,no,legacy,legacy,legacy,0,congruent,uniform,1,undefined,1,h,0,0,0,58,58,0,58,0,58,0,0,0,58,58,58,58,Tue Sep 24 11:29:14 2019,1500,The main experiment item,yes,FlankerTaskKBowman.osexp,/Users/KrisBow/Dropbox/GradSchoolTarleton/Fall2019/AdvQuant/Lab2,no,mono,no,18,no,white,no,yes,768,legacy,58,58,/Users/KrisBow/Dropbox/GradSchoolTarleton/Fall2019/AdvQuant/Lab2/KBsubject-2-F21.csv,legacy,Kafkaesque Koffka,3.2.6,0,h,NA,s,NA,NA,h,475,NA,33950,NA,NA,475,2,legacy,1024,2,48000,-16,experiment,HHHHH,1,odd,35472,NA,NA,134434,128783,1506,NA,NA,135534,1520,NA,NA,135645,136122,135524,135645,FlankerTaskKBowman,57,28246,59,yes,1024
96.66666667,96.66666667,478.85,478.85,black,no,legacy,legacy,legacy,0,congruent,uniform,1,undefined,1,s,0,0,0,59,59,0,59,0,59,0,0,0,59,59,59,59,Tue Sep 24 11:29:14 2019,1500,The main experiment item,yes,FlankerTaskKBowman.osexp,/Users/KrisBow/Dropbox/GradSchoolTarleton/Fall2019/AdvQuant/Lab2,no,mono,no,18,no,white,no,yes,768,legacy,59,59,/Users/KrisBow/Dropbox/GradSchoolTarleton/Fall2019/AdvQuant/Lab2/KBsubject-2-F21.csv,legacy,Kafkaesque Koffka,3.2.6,0,s,NA,s,NA,NA,s,485,NA,33950,NA,NA,485,2,legacy,1024,2,48000,-16,experiment,SSSSS,1,odd,35472,NA,NA,136135,128783,1506,NA,NA,137235,1520,NA,NA,137346,137833,137225,137346,FlankerTaskKBowman,58,28731,60,yes,1024
96.72131148,96.72131148,478.8360656,478.8360656,black,no,legacy,legacy,legacy,0,incongruent,uniform,1,undefined,1,s,0,0,0,60,60,0,60,0,60,0,0,0,60,60,60,60,Tue Sep 24 11:29:14 2019,1500,The main experiment item,yes,FlankerTaskKBowman.osexp,/Users/KrisBow/Dropbox/GradSchoolTarleton/Fall2019/AdvQuant/Lab2,no,mono,no,18,no,white,no,yes,768,legacy,60,60,/Users/KrisBow/Dropbox/GradSchoolTarleton/Fall2019/AdvQuant/Lab2/KBsubject-2-F21.csv,legacy,Kafkaesque Koffka,3.2.6,0,s,NA,s,NA,NA,s,478,NA,33950,NA,NA,478,2,legacy,1024,2,48000,-16,experiment,HHSHH,1,odd,35472,NA,NA,137846,128783,1506,NA,NA,138947,1520,NA,NA,139057,139537,138936,139057,FlankerTaskKBowman,59,29209,61,yes,1024
96.77419355,96.77419355,478.3548387,478.3548387,black,no,legacy,legacy,legacy,0,congruent,uniform,1,undefined,1,h,0,0,0,61,61,0,61,0,61,0,0,0,61,61,61,61,Tue Sep 24 11:29:14 2019,1500,The main experiment item,yes,FlankerTaskKBowman.osexp,/Users/KrisBow/Dropbox/GradSchoolTarleton/Fall2019/AdvQuant/Lab2,no,mono,no,18,no,white,no,yes,768,legacy,61,61,/Users/KrisBow/Dropbox/GradSchoolTarleton/Fall2019/AdvQuant/Lab2/KBsubject-2-F21.csv,legacy,Kafkaesque Koffka,3.2.6,0,h,NA,s,NA,NA,h,449,NA,33950,NA,NA,449,2,legacy,1024,2,48000,-16,experiment,HHHHH,1,odd,35472,NA,NA,139550,128783,1506,NA,NA,140655,1520,NA,NA,140766,141217,140644,140765,FlankerTaskKBowman,60,29658,62,yes,1024
96.82539683,96.82539683,478.8571429,478.8571429,black,no,legacy,legacy,legacy,0,incongruent,uniform,1,undefined,1,h,0,0,0,62,62,0,62,0,62,0,0,0,62,62,62,62,Tue Sep 24 11:29:14 2019,1500,The main experiment item,yes,FlankerTaskKBowman.osexp,/Users/KrisBow/Dropbox/GradSchoolTarleton/Fall2019/AdvQuant/Lab2,no,mono,no,18,no,white,no,yes,768,legacy,62,62,/Users/KrisBow/Dropbox/GradSchoolTarleton/Fall2019/AdvQuant/Lab2/KBsubject-2-F21.csv,legacy,Kafkaesque Koffka,3.2.6,0,h,NA,s,NA,NA,h,510,NA,33950,NA,NA,510,2,legacy,1024,2,48000,-16,experiment,SSHSS,1,odd,35472,NA,NA,141230,128783,1506,NA,NA,142330,1520,NA,NA,142441,142953,142320,142441,FlankerTaskKBowman,61,30168,63,yes,1024
96.875,96.875,478.375,478.375,black,no,legacy,legacy,legacy,0,congruent,uniform,1,undefined,1,s,0,0,0,63,63,0,63,0,63,0,0,0,63,63,63,63,Tue Sep 24 11:29:14 2019,1500,The main experiment item,yes,FlankerTaskKBowman.osexp,/Users/KrisBow/Dropbox/GradSchoolTarleton/Fall2019/AdvQuant/Lab2,no,mono,no,18,no,white,no,yes,768,legacy,63,63,/Users/KrisBow/Dropbox/GradSchoolTarleton/Fall2019/AdvQuant/Lab2/KBsubject-2-F21.csv,legacy,Kafkaesque Koffka,3.2.6,0,s,NA,s,NA,NA,s,448,NA,33950,NA,NA,448,2,legacy,1024,2,48000,-16,experiment,SSSSS,1,odd,35472,NA,NA,142966,128783,1506,NA,NA,144065,1520,NA,NA,144176,144626,144055,144176,FlankerTaskKBowman,62,30616,64,yes,1024
96.92307692,96.92307692,478.9846154,478.9846154,black,no,legacy,legacy,legacy,0,incongruent,uniform,1,undefined,1,h,0,0,0,64,64,0,64,0,64,0,0,0,64,64,64,64,Tue Sep 24 11:29:14 2019,1500,The main experiment item,yes,FlankerTaskKBowman.osexp,/Users/KrisBow/Dropbox/GradSchoolTarleton/Fall2019/AdvQuant/Lab2,no,mono,no,18,no,white,no,yes,768,legacy,64,64,/Users/KrisBow/Dropbox/GradSchoolTarleton/Fall2019/AdvQuant/Lab2/KBsubject-2-F21.csv,legacy,Kafkaesque Koffka,3.2.6,0,h,NA,s,NA,NA,h,518,NA,33950,NA,NA,518,2,legacy,1024,2,48000,-16,experiment,SSHSS,1,odd,35472,NA,NA,144639,128783,1506,NA,NA,145741,1520,NA,NA,145852,146372,145730,145852,FlankerTaskKBowman,63,31134,65,yes,1024
96.96969697,96.96969697,478.7575758,478.7575758,black,no,legacy,legacy,legacy,0,congruent,uniform,1,undefined,1,s,0,0,0,65,65,0,65,0,65,0,0,0,65,65,65,65,Tue Sep 24 11:29:14 2019,1500,The main experiment item,yes,FlankerTaskKBowman.osexp,/Users/KrisBow/Dropbox/GradSchoolTarleton/Fall2019/AdvQuant/Lab2,no,mono,no,18,no,white,no,yes,768,legacy,65,65,/Users/KrisBow/Dropbox/GradSchoolTarleton/Fall2019/AdvQuant/Lab2/KBsubject-2-F21.csv,legacy,Kafkaesque Koffka,3.2.6,0,s,NA,s,NA,NA,s,464,NA,33950,NA,NA,464,2,legacy,1024,2,48000,-16,experiment,SSSSS,1,odd,35472,NA,NA,146385,128783,1506,NA,NA,147485,1520,NA,NA,147596,148063,147475,147595,FlankerTaskKBowman,64,31598,66,yes,1024
97.01492537,97.01492537,478.9253731,478.9253731,black,no,legacy,legacy,legacy,0,incongruent,uniform,1,undefined,1,h,0,0,0,66,66,0,66,0,66,0,0,0,66,66,66,66,Tue Sep 24 11:29:14 2019,1500,The main experiment item,yes,FlankerTaskKBowman.osexp,/Users/KrisBow/Dropbox/GradSchoolTarleton/Fall2019/AdvQuant/Lab2,no,mono,no,18,no,white,no,yes,768,legacy,66,66,/Users/KrisBow/Dropbox/GradSchoolTarleton/Fall2019/AdvQuant/Lab2/KBsubject-2-F21.csv,legacy,Kafkaesque Koffka,3.2.6,0,h,NA,s,NA,NA,h,490,NA,33950,NA,NA,490,2,legacy,1024,2,48000,-16,experiment,SSHSS,1,odd,35472,NA,NA,148075,128783,1506,NA,NA,149178,1520,NA,NA,149289,149781,149167,149288,FlankerTaskKBowman,65,32088,67,yes,1024
97.05882353,97.05882353,479.9264706,479.9264706,black,no,legacy,legacy,legacy,0,incongruent,uniform,1,undefined,1,s,0,0,0,67,67,0,67,0,67,0,0,0,67,67,67,67,Tue Sep 24 11:29:14 2019,1500,The main experiment item,yes,FlankerTaskKBowman.osexp,/Users/KrisBow/Dropbox/GradSchoolTarleton/Fall2019/AdvQuant/Lab2,no,mono,no,18,no,white,no,yes,768,legacy,67,67,/Users/KrisBow/Dropbox/GradSchoolTarleton/Fall2019/AdvQuant/Lab2/KBsubject-2-F21.csv,legacy,Kafkaesque Koffka,3.2.6,0,s,NA,s,NA,NA,s,547,NA,33950,NA,NA,547,2,legacy,1024,2,48000,-16,experiment,HHSHH,1,odd,35472,NA,NA,149794,128783,1506,NA,NA,150894,1520,NA,NA,151005,151554,150884,151005,FlankerTaskKBowman,66,32635,68,yes,1024
97.10144928,97.10144928,480.1014493,480.1014493,black,no,legacy,legacy,legacy,0,congruent,uniform,1,undefined,1,s,0,0,0,68,68,0,68,0,68,0,0,0,68,68,68,68,Tue Sep 24 11:29:14 2019,1500,The main experiment item,yes,FlankerTaskKBowman.osexp,/Users/KrisBow/Dropbox/GradSchoolTarleton/Fall2019/AdvQuant/Lab2,no,mono,no,18,no,white,no,yes,768,legacy,68,68,/Users/KrisBow/Dropbox/GradSchoolTarleton/Fall2019/AdvQuant/Lab2/KBsubject-2-F21.csv,legacy,Kafkaesque Koffka,3.2.6,0,s,NA,s,NA,NA,s,492,NA,33950,NA,NA,492,2,legacy,1024,2,48000,-16,experiment,SSSSS,1,odd,35472,NA,NA,151567,128783,1506,NA,NA,152667,1520,NA,NA,152778,153272,152657,152778,FlankerTaskKBowman,67,33127,69,yes,1024
97.14285714,97.14285714,478.8857143,478.8857143,black,no,legacy,legacy,legacy,0,congruent,uniform,1,undefined,1,h,0,0,0,69,69,0,69,0,69,0,0,0,69,69,69,69,Tue Sep 24 11:29:14 2019,1500,The main experiment item,yes,FlankerTaskKBowman.osexp,/Users/KrisBow/Dropbox/GradSchoolTarleton/Fall2019/AdvQuant/Lab2,no,mono,no,18,no,white,no,yes,768,legacy,69,69,/Users/KrisBow/Dropbox/GradSchoolTarleton/Fall2019/AdvQuant/Lab2/KBsubject-2-F21.csv,legacy,Kafkaesque Koffka,3.2.6,0,h,NA,s,NA,NA,h,395,NA,33950,NA,NA,395,2,legacy,1024,2,48000,-16,experiment,HHHHH,1,odd,35472,NA,NA,153288,128783,1506,NA,NA,154388,1520,NA,NA,154499,154896,154378,154498,FlankerTaskKBowman,68,33522,70,yes,1024
97.18309859,97.18309859,480.2676056,480.2676056,black,no,legacy,legacy,legacy,0,congruent,uniform,1,undefined,1,h,0,0,0,70,70,0,70,0,70,0,0,0,70,70,70,70,Tue Sep 24 11:29:14 2019,1500,The main experiment item,yes,FlankerTaskKBowman.osexp,/Users/KrisBow/Dropbox/GradSchoolTarleton/Fall2019/AdvQuant/Lab2,no,mono,no,18,no,white,no,yes,768,legacy,70,70,/Users/KrisBow/Dropbox/GradSchoolTarleton/Fall2019/AdvQuant/Lab2/KBsubject-2-F21.csv,legacy,Kafkaesque Koffka,3.2.6,0,h,NA,s,NA,NA,h,577,NA,33950,NA,NA,577,2,legacy,1024,2,48000,-16,experiment,HHHHH,1,odd,35472,NA,NA,154909,128783,1506,NA,NA,156008,1520,NA,NA,156119,156698,155999,156118,FlankerTaskKBowman,69,34099,71,yes,1024
97.22222222,97.22222222,481.0555556,481.0555556,black,no,legacy,legacy,legacy,0,incongruent,uniform,1,undefined,1,h,0,0,0,71,71,0,71,0,71,0,0,0,71,71,71,71,Tue Sep 24 11:29:14 2019,1500,The main experiment item,yes,FlankerTaskKBowman.osexp,/Users/KrisBow/Dropbox/GradSchoolTarleton/Fall2019/AdvQuant/Lab2,no,mono,no,18,no,white,no,yes,768,legacy,71,71,/Users/KrisBow/Dropbox/GradSchoolTarleton/Fall2019/AdvQuant/Lab2/KBsubject-2-F21.csv,legacy,Kafkaesque Koffka,3.2.6,0,h,NA,s,NA,NA,h,537,NA,33950,NA,NA,537,2,legacy,1024,2,48000,-16,experiment,SSHSS,1,odd,35472,NA,NA,156711,128783,1506,NA,NA,157813,1520,NA,NA,157924,158463,157803,157923,FlankerTaskKBowman,70,34636,72,yes,1024
97.26027397,97.26027397,480.0136986,480.0136986,black,no,legacy,legacy,legacy,0,congruent,uniform,1,undefined,1,h,0,0,0,72,72,0,72,0,72,0,0,0,72,72,72,72,Tue Sep 24 11:29:14 2019,1500,The main experiment item,yes,FlankerTaskKBowman.osexp,/Users/KrisBow/Dropbox/GradSchoolTarleton/Fall2019/AdvQuant/Lab2,no,mono,no,18,no,white,no,yes,768,legacy,72,72,/Users/KrisBow/Dropbox/GradSchoolTarleton/Fall2019/AdvQuant/Lab2/KBsubject-2-F21.csv,legacy,Kafkaesque Koffka,3.2.6,0,h,NA,s,NA,NA,h,405,NA,33950,NA,NA,405,2,legacy,1024,2,48000,-16,experiment,HHHHH,1,odd,35472,NA,NA,158475,128783,1506,NA,NA,159576,1520,NA,NA,159686,160094,159565,159686,FlankerTaskKBowman,71,35041,73,yes,1024
95.94594595,95.94594595,479.472973,479.472973,black,no,legacy,legacy,legacy,0,incongruent,uniform,0,undefined,0,h,0,0,0,73,73,0,73,0,73,0,0,0,73,73,73,73,Tue Sep 24 11:29:14 2019,1500,The main experiment item,yes,FlankerTaskKBowman.osexp,/Users/KrisBow/Dropbox/GradSchoolTarleton/Fall2019/AdvQuant/Lab2,no,mono,no,18,no,white,no,yes,768,legacy,73,73,/Users/KrisBow/Dropbox/GradSchoolTarleton/Fall2019/AdvQuant/Lab2/KBsubject-2-F21.csv,legacy,Kafkaesque Koffka,3.2.6,0,s,NA,s,NA,NA,s,440,NA,33950,NA,NA,440,2,legacy,1024,2,48000,-16,experiment,SSHSS,1,odd,35472,NA,NA,160106,128783,1506,NA,NA,161206,1520,NA,NA,161317,161759,161196,161317,FlankerTaskKBowman,71,35481,74,yes,1024
96,96,481.2266667,481.2266667,black,no,legacy,legacy,legacy,0,incongruent,uniform,1,undefined,1,h,0,0,0,74,74,0,74,0,74,0,0,0,74,74,74,74,Tue Sep 24 11:29:14 2019,1500,The main experiment item,yes,FlankerTaskKBowman.osexp,/Users/KrisBow/Dropbox/GradSchoolTarleton/Fall2019/AdvQuant/Lab2,no,mono,no,18,no,white,no,yes,768,legacy,74,74,/Users/KrisBow/Dropbox/GradSchoolTarleton/Fall2019/AdvQuant/Lab2/KBsubject-2-F21.csv,legacy,Kafkaesque Koffka,3.2.6,0,h,NA,s,NA,NA,h,611,NA,33950,NA,NA,611,2,legacy,1024,2,48000,-16,experiment,SSHSS,1,odd,35472,NA,NA,162282,161771,1506,NA,NA,163383,1520,NA,NA,163494,164108,163373,163493,FlankerTaskKBowman,72,36092,75,yes,1024
96.05263158,96.05263158,481.8157895,481.8157895,black,no,legacy,legacy,legacy,0,incongruent,uniform,1,undefined,1,s,0,0,0,75,75,0,75,0,75,0,0,0,75,75,75,75,Tue Sep 24 11:29:14 2019,1500,The main experiment item,yes,FlankerTaskKBowman.osexp,/Users/KrisBow/Dropbox/GradSchoolTarleton/Fall2019/AdvQuant/Lab2,no,mono,no,18,no,white,no,yes,768,legacy,75,75,/Users/KrisBow/Dropbox/GradSchoolTarleton/Fall2019/AdvQuant/Lab2/KBsubject-2-F21.csv,legacy,Kafkaesque Koffka,3.2.6,0,s,NA,s,NA,NA,s,526,NA,33950,NA,NA,526,2,legacy,1024,2,48000,-16,experiment,HHSHH,1,odd,35472,NA,NA,164121,161771,1506,NA,NA,165222,1520,NA,NA,165333,165862,165212,165332,FlankerTaskKBowman,73,36618,76,yes,1024
96.1038961,96.1038961,482.7272727,482.7272727,black,no,legacy,legacy,legacy,0,congruent,uniform,1,undefined,1,s,0,0,0,76,76,0,76,0,76,0,0,0,76,76,76,76,Tue Sep 24 11:29:14 2019,1500,The main experiment item,yes,FlankerTaskKBowman.osexp,/Users/KrisBow/Dropbox/GradSchoolTarleton/Fall2019/AdvQuant/Lab2,no,mono,no,18,no,white,no,yes,768,legacy,76,76,/Users/KrisBow/Dropbox/GradSchoolTarleton/Fall2019/AdvQuant/Lab2/KBsubject-2-F21.csv,legacy,Kafkaesque Koffka,3.2.6,0,s,NA,s,NA,NA,s,552,NA,33950,NA,NA,552,2,legacy,1024,2,48000,-16,experiment,SSSSS,1,odd,35472,NA,NA,165875,161771,1506,NA,NA,166974,1520,NA,NA,167085,167639,166964,167085,FlankerTaskKBowman,74,37170,77,yes,1024
96.15384615,96.15384615,483.7564103,483.7564103,black,no,legacy,legacy,legacy,0,incongruent,uniform,1,undefined,1,h,0,0,0,77,77,0,77,0,77,0,0,0,77,77,77,77,Tue Sep 24 11:29:14 2019,1500,The main experiment item,yes,FlankerTaskKBowman.osexp,/Users/KrisBow/Dropbox/GradSchoolTarleton/Fall2019/AdvQuant/Lab2,no,mono,no,18,no,white,no,yes,768,legacy,77,77,/Users/KrisBow/Dropbox/GradSchoolTarleton/Fall2019/AdvQuant/Lab2/KBsubject-2-F21.csv,legacy,Kafkaesque Koffka,3.2.6,0,h,NA,s,NA,NA,h,563,NA,33950,NA,NA,563,2,legacy,1024,2,48000,-16,experiment,SSHSS,1,odd,35472,NA,NA,167652,161771,1506,NA,NA,168752,1520,NA,NA,168862,169428,168742,168862,FlankerTaskKBowman,75,37733,78,yes,1024
96.20253165,96.20253165,484.5696203,484.5696203,black,no,legacy,legacy,legacy,0,incongruent,uniform,1,undefined,1,h,0,0,0,78,78,0,78,0,78,0,0,0,78,78,78,78,Tue Sep 24 11:29:14 2019,1500,The main experiment item,yes,FlankerTaskKBowman.osexp,/Users/KrisBow/Dropbox/GradSchoolTarleton/Fall2019/AdvQuant/Lab2,no,mono,no,18,no,white,no,yes,768,legacy,78,78,/Users/KrisBow/Dropbox/GradSchoolTarleton/Fall2019/AdvQuant/Lab2/KBsubject-2-F21.csv,legacy,Kafkaesque Koffka,3.2.6,0,h,NA,s,NA,NA,h,548,NA,33950,NA,NA,548,2,legacy,1024,2,48000,-16,experiment,SSHSS,1,odd,35472,NA,NA,169443,161771,1506,NA,NA,170545,1520,NA,NA,170655,171206,170535,170655,FlankerTaskKBowman,76,38281,79,yes,1024
96.25,96.25,484.55,484.55,black,no,legacy,legacy,legacy,0,congruent,uniform,1,undefined,1,s,0,0,0,79,79,0,79,0,79,0,0,0,79,79,79,79,Tue Sep 24 11:29:14 2019,1500,The main experiment item,yes,FlankerTaskKBowman.osexp,/Users/KrisBow/Dropbox/GradSchoolTarleton/Fall2019/AdvQuant/Lab2,no,mono,no,18,no,white,no,yes,768,legacy,79,79,/Users/KrisBow/Dropbox/GradSchoolTarleton/Fall2019/AdvQuant/Lab2/KBsubject-2-F21.csv,legacy,Kafkaesque Koffka,3.2.6,0,s,NA,s,NA,NA,s,483,NA,33950,NA,NA,483,2,legacy,1024,2,48000,-16,experiment,SSSSS,1,odd,35472,NA,NA,171219,161771,1506,NA,NA,172321,1520,NA,NA,172431,172917,172310,172431,FlankerTaskKBowman,77,38764,80,yes,1024
96.2962963,96.2962963,484.691358,484.691358,black,no,legacy,legacy,legacy,0,incongruent,uniform,1,undefined,1,h,0,0,0,80,80,0,80,0,80,0,0,0,80,80,80,80,Tue Sep 24 11:29:14 2019,600,The main experiment item,yes,FlankerTaskKBowman.osexp,/Users/KrisBow/Dropbox/GradSchoolTarleton/Fall2019/AdvQuant/Lab2,no,mono,no,18,no,white,no,yes,768,legacy,0,79,/Users/KrisBow/Dropbox/GradSchoolTarleton/Fall2019/AdvQuant/Lab2/KBsubject-2-F21.csv,legacy,Kafkaesque Koffka,3.2.6,0,h,NA,s,s,NA,h,496,NA,33950,11456,NA,496,2,legacy,1024,2,48000,-16,experiment,SSHSS,1,odd,35472,185429,NA,172930,161771,1506,NA,NA,185510,1520,173970,NA,185620,186118,185500,185620,FlankerTaskKBowman,78,39260,81,yes,1024
96.34146341,96.34146341,483.5243902,483.5243902,black,no,legacy,legacy,legacy,0,congruent,uniform,1,undefined,1,s,0,0,0,81,81,0,81,0,81,0,0,0,81,81,81,81,Tue Sep 24 11:29:14 2019,600,The main experiment item,yes,FlankerTaskKBowman.osexp,/Users/KrisBow/Dropbox/GradSchoolTarleton/Fall2019/AdvQuant/Lab2,no,mono,no,18,no,white,no,yes,768,legacy,1,79,/Users/KrisBow/Dropbox/GradSchoolTarleton/Fall2019/AdvQuant/Lab2/KBsubject-2-F21.csv,legacy,Kafkaesque Koffka,3.2.6,0,s,NA,s,s,NA,s,389,NA,33950,11456,NA,389,2,legacy,1024,2,48000,-16,experiment,SSSSS,1,odd,35472,185429,NA,186131,161771,1506,NA,NA,187232,1520,173970,NA,187342,187733,187221,187342,FlankerTaskKBowman,79,39649,82,yes,1024
96.38554217,96.38554217,483.0120482,483.0120482,black,no,legacy,legacy,legacy,0,congruent,uniform,1,undefined,1,s,0,0,0,82,82,0,82,0,82,0,0,0,82,82,82,82,Tue Sep 24 11:29:14 2019,600,The main experiment item,yes,FlankerTaskKBowman.osexp,/Users/KrisBow/Dropbox/GradSchoolTarleton/Fall2019/AdvQuant/Lab2,no,mono,no,18,no,white,no,yes,768,legacy,2,79,/Users/KrisBow/Dropbox/GradSchoolTarleton/Fall2019/AdvQuant/Lab2/KBsubject-2-F21.csv,legacy,Kafkaesque Koffka,3.2.6,0,s,NA,s,s,NA,s,441,NA,33950,11456,NA,441,2,legacy,1024,2,48000,-16,experiment,SSSSS,1,odd,35472,185429,NA,187746,161771,1506,NA,NA,188846,1520,173970,NA,188956,189400,188835,188956,FlankerTaskKBowman,80,40090,83,yes,1024
95.23809524,95.23809524,481.3452381,481.3452381,black,no,legacy,legacy,legacy,0,incongruent,uniform,0,undefined,0,h,0,0,0,83,83,0,83,0,83,0,0,0,83,83,83,83,Tue Sep 24 11:29:14 2019,600,The main experiment item,yes,FlankerTaskKBowman.osexp,/Users/KrisBow/Dropbox/GradSchoolTarleton/Fall2019/AdvQuant/Lab2,no,mono,no,18,no,white,no,yes,768,legacy,3,79,/Users/KrisBow/Dropbox/GradSchoolTarleton/Fall2019/AdvQuant/Lab2/KBsubject-2-F21.csv,legacy,Kafkaesque Koffka,3.2.6,0,s,NA,s,s,NA,s,343,NA,33950,11456,NA,343,2,legacy,1024,2,48000,-16,experiment,SSHSS,1,odd,35472,185429,NA,189413,161771,1506,NA,NA,190514,1520,173970,NA,190625,190970,190504,190625,FlankerTaskKBowman,80,40433,84,yes,1024
95.29411765,95.29411765,480.2588235,480.2588235,black,no,legacy,legacy,legacy,0,congruent,uniform,1,undefined,1,h,0,0,0,84,84,0,84,0,84,0,0,0,84,84,84,84,Tue Sep 24 11:29:14 2019,600,The main experiment item,yes,FlankerTaskKBowman.osexp,/Users/KrisBow/Dropbox/GradSchoolTarleton/Fall2019/AdvQuant/Lab2,no,mono,no,18,no,white,no,yes,768,legacy,4,79,/Users/KrisBow/Dropbox/GradSchoolTarleton/Fall2019/AdvQuant/Lab2/KBsubject-2-F21.csv,legacy,Kafkaesque Koffka,3.2.6,0,h,NA,s,s,NA,h,389,NA,33950,11456,NA,389,2,legacy,1024,2,48000,-16,experiment,HHHHH,1,odd,35472,185429,NA,191493,190983,1506,NA,NA,192594,1520,173970,NA,192704,193095,192583,192704,FlankerTaskKBowman,81,40822,85,yes,1024
95.34883721,95.34883721,480.8604651,480.8604651,black,no,legacy,legacy,legacy,0,incongruent,uniform,1,undefined,1,s,0,0,0,85,85,0,85,0,85,0,0,0,85,85,85,85,Tue Sep 24 11:29:14 2019,600,The main experiment item,yes,FlankerTaskKBowman.osexp,/Users/KrisBow/Dropbox/GradSchoolTarleton/Fall2019/AdvQuant/Lab2,no,mono,no,18,no,white,no,yes,768,legacy,5,79,/Users/KrisBow/Dropbox/GradSchoolTarleton/Fall2019/AdvQuant/Lab2/KBsubject-2-F21.csv,legacy,Kafkaesque Koffka,3.2.6,0,s,NA,s,s,NA,s,532,NA,33950,11456,NA,532,2,legacy,1024,2,48000,-16,experiment,HHSHH,1,odd,35472,185429,NA,193108,190983,1506,NA,NA,194208,1520,173970,NA,194319,194853,194198,194318,FlankerTaskKBowman,82,41354,86,yes,1024
95.40229885,95.40229885,480.3333333,480.3333333,black,no,legacy,legacy,legacy,0,incongruent,uniform,1,undefined,1,s,0,0,0,86,86,0,86,0,86,0,0,0,86,86,86,86,Tue Sep 24 11:29:14 2019,600,The main experiment item,yes,FlankerTaskKBowman.osexp,/Users/KrisBow/Dropbox/GradSchoolTarleton/Fall2019/AdvQuant/Lab2,no,mono,no,18,no,white,no,yes,768,legacy,6,79,/Users/KrisBow/Dropbox/GradSchoolTarleton/Fall2019/AdvQuant/Lab2/KBsubject-2-F21.csv,legacy,Kafkaesque Koffka,3.2.6,0,s,NA,s,s,NA,s,435,NA,33950,11456,NA,435,2,legacy,1024,2,48000,-16,experiment,HHSHH,1,odd,35472,185429,NA,194866,190983,1506,NA,NA,195967,1520,173970,NA,196077,196514,195957,196077,FlankerTaskKBowman,83,41789,87,yes,1024
95.45454545,95.45454545,479.4090909,479.4090909,black,no,legacy,legacy,legacy,0,congruent,uniform,1,undefined,1,h,0,0,0,87,87,0,87,0,87,0,0,0,87,87,87,87,Tue Sep 24 11:29:14 2019,600,The main experiment item,yes,FlankerTaskKBowman.osexp,/Users/KrisBow/Dropbox/GradSchoolTarleton/Fall2019/AdvQuant/Lab2,no,mono,no,18,no,white,no,yes,768,legacy,7,79,/Users/KrisBow/Dropbox/GradSchoolTarleton/Fall2019/AdvQuant/Lab2/KBsubject-2-F21.csv,legacy,Kafkaesque Koffka,3.2.6,0,h,NA,s,s,NA,h,399,NA,33950,11456,NA,399,2,legacy,1024,2,48000,-16,experiment,HHHHH,1,odd,35472,185429,NA,196527,190983,1506,NA,NA,197628,1520,173970,NA,197739,198140,197618,197738,FlankerTaskKBowman,84,42188,88,yes,1024
95.50561798,95.50561798,478.8539326,478.8539326,black,no,legacy,legacy,legacy,0,congruent,uniform,1,undefined,1,h,0,0,0,88,88,0,88,0,88,0,0,0,88,88,88,88,Tue Sep 24 11:29:14 2019,600,The main experiment item,yes,FlankerTaskKBowman.osexp,/Users/KrisBow/Dropbox/GradSchoolTarleton/Fall2019/AdvQuant/Lab2,no,mono,no,18,no,white,no,yes,768,legacy,8,79,/Users/KrisBow/Dropbox/GradSchoolTarleton/Fall2019/AdvQuant/Lab2/KBsubject-2-F21.csv,legacy,Kafkaesque Koffka,3.2.6,0,h,NA,s,s,NA,h,430,NA,33950,11456,NA,430,2,legacy,1024,2,48000,-16,experiment,HHHHH,1,odd,35472,185429,NA,198153,190983,1506,NA,NA,199254,1520,173970,NA,199364,199796,199244,199364,FlankerTaskKBowman,85,42618,89,yes,1024
95.55555556,95.55555556,478.6888889,478.6888889,black,no,legacy,legacy,legacy,0,incongruent,uniform,1,undefined,1,s,0,0,0,89,89,0,89,0,89,0,0,0,89,89,89,89,Tue Sep 24 11:29:14 2019,600,The main experiment item,yes,FlankerTaskKBowman.osexp,/Users/KrisBow/Dropbox/GradSchoolTarleton/Fall2019/AdvQuant/Lab2,no,mono,no,18,no,white,no,yes,768,legacy,9,79,/Users/KrisBow/Dropbox/GradSchoolTarleton/Fall2019/AdvQuant/Lab2/KBsubject-2-F21.csv,legacy,Kafkaesque Koffka,3.2.6,0,s,NA,s,s,NA,s,464,NA,33950,11456,NA,464,2,legacy,1024,2,48000,-16,experiment,HHSHH,1,odd,35472,185429,NA,199809,190983,1506,NA,NA,200910,1520,173970,NA,201021,201487,200900,201021,FlankerTaskKBowman,86,43082,90,yes,1024
95.6043956,95.6043956,478.6043956,478.6043956,black,no,legacy,legacy,legacy,0,incongruent,uniform,1,undefined,1,h,0,0,0,90,90,0,90,0,90,0,0,0,90,90,90,90,Tue Sep 24 11:29:14 2019,600,The main experiment item,yes,FlankerTaskKBowman.osexp,/Users/KrisBow/Dropbox/GradSchoolTarleton/Fall2019/AdvQuant/Lab2,no,mono,no,18,no,white,no,yes,768,legacy,10,79,/Users/KrisBow/Dropbox/GradSchoolTarleton/Fall2019/AdvQuant/Lab2/KBsubject-2-F21.csv,legacy,Kafkaesque Koffka,3.2.6,0,h,NA,s,s,NA,h,471,NA,33950,11456,NA,471,2,legacy,1024,2,48000,-16,experiment,SSHSS,1,odd,35472,185429,NA,201500,190983,1506,NA,NA,202600,1520,173970,NA,202711,203185,202589,202710,FlankerTaskKBowman,87,43553,91,yes,1024
95.65217391,95.65217391,477.6195652,477.6195652,black,no,legacy,legacy,legacy,0,congruent,uniform,1,undefined,1,s,0,0,0,91,91,0,91,0,91,0,0,0,91,91,91,91,Tue Sep 24 11:29:14 2019,600,The main experiment item,yes,FlankerTaskKBowman.osexp,/Users/KrisBow/Dropbox/GradSchoolTarleton/Fall2019/AdvQuant/Lab2,no,mono,no,18,no,white,no,yes,768,legacy,11,79,/Users/KrisBow/Dropbox/GradSchoolTarleton/Fall2019/AdvQuant/Lab2/KBsubject-2-F21.csv,legacy,Kafkaesque Koffka,3.2.6,0,s,NA,s,s,NA,s,388,NA,33950,11456,NA,388,2,legacy,1024,2,48000,-16,experiment,SSSSS,1,odd,35472,185429,NA,203197,190983,1506,NA,NA,204298,1520,173970,NA,204409,204799,204288,204409,FlankerTaskKBowman,88,43941,92,yes,1024
95.69892473,95.69892473,477.0752688,477.0752688,black,no,legacy,legacy,legacy,0,congruent,uniform,1,undefined,1,s,0,0,0,92,92,0,92,0,92,0,0,0,92,92,92,92,Tue Sep 24 11:29:14 2019,600,The main experiment item,yes,FlankerTaskKBowman.osexp,/Users/KrisBow/Dropbox/GradSchoolTarleton/Fall2019/AdvQuant/Lab2,no,mono,no,18,no,white,no,yes,768,legacy,12,79,/Users/KrisBow/Dropbox/GradSchoolTarleton/Fall2019/AdvQuant/Lab2/KBsubject-2-F21.csv,legacy,Kafkaesque Koffka,3.2.6,0,s,NA,s,s,NA,s,427,NA,33950,11456,NA,427,2,legacy,1024,2,48000,-16,experiment,SSSSS,1,odd,35472,185429,NA,204812,190983,1506,NA,NA,205912,1520,173970,NA,206023,206452,205902,206023,FlankerTaskKBowman,89,44368,93,yes,1024
95.74468085,95.74468085,476.8404255,476.8404255,black,no,legacy,legacy,legacy,0,incongruent,uniform,1,undefined,1,h,0,0,0,93,93,0,93,0,93,0,0,0,93,93,93,93,Tue Sep 24 11:29:14 2019,600,The main experiment item,yes,FlankerTaskKBowman.osexp,/Users/KrisBow/Dropbox/GradSchoolTarleton/Fall2019/AdvQuant/Lab2,no,mono,no,18,no,white,no,yes,768,legacy,13,79,/Users/KrisBow/Dropbox/GradSchoolTarleton/Fall2019/AdvQuant/Lab2/KBsubject-2-F21.csv,legacy,Kafkaesque Koffka,3.2.6,0,h,NA,s,s,NA,h,455,NA,33950,11456,NA,455,2,legacy,1024,2,48000,-16,experiment,SSHSS,1,odd,35472,185429,NA,206465,190983,1506,NA,NA,207565,1520,173970,NA,207676,208134,207555,207676,FlankerTaskKBowman,90,44823,94,yes,1024
95.78947368,95.78947368,477.4526316,477.4526316,black,no,legacy,legacy,legacy,0,incongruent,uniform,1,undefined,1,h,0,0,0,94,94,0,94,0,94,0,0,0,94,94,94,94,Tue Sep 24 11:29:14 2019,600,The main experiment item,yes,FlankerTaskKBowman.osexp,/Users/KrisBow/Dropbox/GradSchoolTarleton/Fall2019/AdvQuant/Lab2,no,mono,no,18,no,white,no,yes,768,legacy,14,79,/Users/KrisBow/Dropbox/GradSchoolTarleton/Fall2019/AdvQuant/Lab2/KBsubject-2-F21.csv,legacy,Kafkaesque Koffka,3.2.6,0,h,NA,s,s,NA,h,535,NA,33950,11456,NA,535,2,legacy,1024,2,48000,-16,experiment,SSHSS,1,odd,35472,185429,NA,208147,190983,1506,NA,NA,209247,1520,173970,NA,209357,209894,209237,209357,FlankerTaskKBowman,91,45358,95,yes,1024
95.83333333,95.83333333,478.0520833,478.0520833,black,no,legacy,legacy,legacy,0,incongruent,uniform,1,undefined,1,s,0,0,0,95,95,0,95,0,95,0,0,0,95,95,95,95,Tue Sep 24 11:29:14 2019,600,The main experiment item,yes,FlankerTaskKBowman.osexp,/Users/KrisBow/Dropbox/GradSchoolTarleton/Fall2019/AdvQuant/Lab2,no,mono,no,18,no,white,no,yes,768,legacy,15,79,/Users/KrisBow/Dropbox/GradSchoolTarleton/Fall2019/AdvQuant/Lab2/KBsubject-2-F21.csv,legacy,Kafkaesque Koffka,3.2.6,0,s,NA,s,s,NA,s,535,NA,33950,11456,NA,535,2,legacy,1024,2,48000,-16,experiment,HHSHH,1,odd,35472,185429,NA,209907,190983,1506,NA,NA,211008,1520,173970,NA,211119,211657,210999,211119,FlankerTaskKBowman,92,45893,96,yes,1024
95.87628866,95.87628866,477.2268041,477.2268041,black,no,legacy,legacy,legacy,0,congruent,uniform,1,undefined,1,s,0,0,0,96,96,0,96,0,96,0,0,0,96,96,96,96,Tue Sep 24 11:29:14 2019,600,The main experiment item,yes,FlankerTaskKBowman.osexp,/Users/KrisBow/Dropbox/GradSchoolTarleton/Fall2019/AdvQuant/Lab2,no,mono,no,18,no,white,no,yes,768,legacy,16,79,/Users/KrisBow/Dropbox/GradSchoolTarleton/Fall2019/AdvQuant/Lab2/KBsubject-2-F21.csv,legacy,Kafkaesque Koffka,3.2.6,0,s,NA,s,s,NA,s,398,NA,33950,11456,NA,398,2,legacy,1024,2,48000,-16,experiment,SSSSS,1,odd,35472,185429,NA,211670,190983,1506,NA,NA,212771,1520,173970,NA,212882,213283,212761,212882,FlankerTaskKBowman,93,46291,97,yes,1024
95.91836735,95.91836735,476.5,476.5,black,no,legacy,legacy,legacy,0,congruent,uniform,1,undefined,1,s,0,0,0,97,97,0,97,0,97,0,0,0,97,97,97,97,Tue Sep 24 11:29:14 2019,600,The main experiment item,yes,FlankerTaskKBowman.osexp,/Users/KrisBow/Dropbox/GradSchoolTarleton/Fall2019/AdvQuant/Lab2,no,mono,no,18,no,white,no,yes,768,legacy,17,79,/Users/KrisBow/Dropbox/GradSchoolTarleton/Fall2019/AdvQuant/Lab2/KBsubject-2-F21.csv,legacy,Kafkaesque Koffka,3.2.6,0,s,NA,s,s,NA,s,406,NA,33950,11456,NA,406,2,legacy,1024,2,48000,-16,experiment,SSSSS,1,odd,35472,185429,NA,213300,190983,1506,NA,NA,214400,1520,173970,NA,214511,214920,214390,214511,FlankerTaskKBowman,94,46697,98,yes,1024
95.95959596,95.95959596,475.6767677,475.6767677,black,no,legacy,legacy,legacy,0,congruent,uniform,1,undefined,1,h,0,0,0,98,98,0,98,0,98,0,0,0,98,98,98,98,Tue Sep 24 11:29:14 2019,600,The main experiment item,yes,FlankerTaskKBowman.osexp,/Users/KrisBow/Dropbox/GradSchoolTarleton/Fall2019/AdvQuant/Lab2,no,mono,no,18,no,white,no,yes,768,legacy,18,79,/Users/KrisBow/Dropbox/GradSchoolTarleton/Fall2019/AdvQuant/Lab2/KBsubject-2-F21.csv,legacy,Kafkaesque Koffka,3.2.6,0,h,NA,s,s,NA,h,395,NA,33950,11456,NA,395,2,legacy,1024,2,48000,-16,experiment,HHHHH,1,odd,35472,185429,NA,214933,190983,1506,NA,NA,216034,1520,173970,NA,216144,216542,216023,216144,FlankerTaskKBowman,95,47092,99,yes,1024
96,96,475.15,475.15,black,no,legacy,legacy,legacy,0,congruent,uniform,1,undefined,1,s,0,0,0,99,99,0,99,0,99,0,0,0,99,99,99,99,Tue Sep 24 11:29:14 2019,600,The main experiment item,yes,FlankerTaskKBowman.osexp,/Users/KrisBow/Dropbox/GradSchoolTarleton/Fall2019/AdvQuant/Lab2,no,mono,no,18,no,white,no,yes,768,legacy,19,79,/Users/KrisBow/Dropbox/GradSchoolTarleton/Fall2019/AdvQuant/Lab2/KBsubject-2-F21.csv,legacy,Kafkaesque Koffka,3.2.6,0,s,NA,s,s,NA,s,423,NA,33950,11456,NA,423,2,legacy,1024,2,48000,-16,experiment,SSSSS,1,odd,35472,185429,NA,216555,190983,1506,NA,NA,217655,1520,173970,NA,217767,218193,217645,217766,FlankerTaskKBowman,96,47515,100,yes,1024
96.03960396,96.03960396,474.8910891,474.8910891,black,no,legacy,legacy,legacy,0,congruent,uniform,1,undefined,1,h,0,0,0,100,100,0,100,0,100,0,0,0,100,100,100,100,Tue Sep 24 11:29:14 2019,600,The main experiment item,yes,FlankerTaskKBowman.osexp,/Users/KrisBow/Dropbox/GradSchoolTarleton/Fall2019/AdvQuant/Lab2,no,mono,no,18,no,white,no,yes,768,legacy,20,79,/Users/KrisBow/Dropbox/GradSchoolTarleton/Fall2019/AdvQuant/Lab2/KBsubject-2-F21.csv,legacy,Kafkaesque Koffka,3.2.6,0,h,NA,s,s,NA,h,449,NA,33950,11456,NA,449,2,legacy,1024,2,48000,-16,experiment,HHHHH,1,odd,35472,185429,NA,218206,190983,1506,NA,NA,219306,1520,173970,NA,219416,219868,219296,219416,FlankerTaskKBowman,97,47964,101,yes,1024
96.07843137,96.07843137,475.4215686,475.4215686,black,no,legacy,legacy,legacy,0,incongruent,uniform,1,undefined,1,s,0,0,0,101,101,0,101,0,101,0,0,0,101,101,101,101,Tue Sep 24 11:29:14 2019,600,The main experiment item,yes,FlankerTaskKBowman.osexp,/Users/KrisBow/Dropbox/GradSchoolTarleton/Fall2019/AdvQuant/Lab2,no,mono,no,18,no,white,no,yes,768,legacy,21,79,/Users/KrisBow/Dropbox/GradSchoolTarleton/Fall2019/AdvQuant/Lab2/KBsubject-2-F21.csv,legacy,Kafkaesque Koffka,3.2.6,0,s,NA,s,s,NA,s,529,NA,33950,11456,NA,529,2,legacy,1024,2,48000,-16,experiment,HHSHH,1,odd,35472,185429,NA,219881,190983,1506,NA,NA,220982,1520,173970,NA,221094,221626,220971,221094,FlankerTaskKBowman,98,48493,102,yes,1024
96.11650485,96.11650485,475.1747573,475.1747573,black,no,legacy,legacy,legacy,0,congruent,uniform,1,undefined,1,h,0,0,0,102,102,0,102,0,102,0,0,0,102,102,102,102,Tue Sep 24 11:29:14 2019,600,The main experiment item,yes,FlankerTaskKBowman.osexp,/Users/KrisBow/Dropbox/GradSchoolTarleton/Fall2019/AdvQuant/Lab2,no,mono,no,18,no,white,no,yes,768,legacy,22,79,/Users/KrisBow/Dropbox/GradSchoolTarleton/Fall2019/AdvQuant/Lab2/KBsubject-2-F21.csv,legacy,Kafkaesque Koffka,3.2.6,0,h,NA,s,s,NA,h,450,NA,33950,11456,NA,450,2,legacy,1024,2,48000,-16,experiment,HHHHH,1,odd,35472,185429,NA,221639,190983,1506,NA,NA,222739,1520,173970,NA,222849,223301,222729,222849,FlankerTaskKBowman,99,48943,103,yes,1024
96.15384615,96.15384615,474.75,474.75,black,no,legacy,legacy,legacy,0,congruent,uniform,1,undefined,1,h,0,0,0,103,103,0,103,0,103,0,0,0,103,103,103,103,Tue Sep 24 11:29:14 2019,600,The main experiment item,yes,FlankerTaskKBowman.osexp,/Users/KrisBow/Dropbox/GradSchoolTarleton/Fall2019/AdvQuant/Lab2,no,mono,no,18,no,white,no,yes,768,legacy,23,79,/Users/KrisBow/Dropbox/GradSchoolTarleton/Fall2019/AdvQuant/Lab2/KBsubject-2-F21.csv,legacy,Kafkaesque Koffka,3.2.6,0,h,NA,s,s,NA,h,431,NA,33950,11456,NA,431,2,legacy,1024,2,48000,-16,experiment,HHHHH,1,odd,35472,185429,NA,223314,190983,1506,NA,NA,224419,1520,173970,NA,224530,224964,224408,224529,FlankerTaskKBowman,100,49374,104,yes,1024
96.19047619,96.19047619,474.0285714,474.0285714,black,no,legacy,legacy,legacy,0,congruent,uniform,1,undefined,1,h,0,0,0,104,104,0,104,0,104,0,0,0,104,104,104,104,Tue Sep 24 11:29:14 2019,600,The main experiment item,yes,FlankerTaskKBowman.osexp,/Users/KrisBow/Dropbox/GradSchoolTarleton/Fall2019/AdvQuant/Lab2,no,mono,no,18,no,white,no,yes,768,legacy,24,79,/Users/KrisBow/Dropbox/GradSchoolTarleton/Fall2019/AdvQuant/Lab2/KBsubject-2-F21.csv,legacy,Kafkaesque Koffka,3.2.6,0,h,NA,s,s,NA,h,399,NA,33950,11456,NA,399,2,legacy,1024,2,48000,-16,experiment,HHHHH,1,odd,35472,185429,NA,224977,190983,1506,NA,NA,226076,1520,173970,NA,226187,226589,226066,226187,FlankerTaskKBowman,101,49773,105,yes,1024
96.22641509,96.22641509,473.0754717,473.0754717,black,no,legacy,legacy,legacy,0,congruent,uniform,1,undefined,1,s,0,0,0,105,105,0,105,0,105,0,0,0,105,105,105,105,Tue Sep 24 11:29:14 2019,600,The main experiment item,yes,FlankerTaskKBowman.osexp,/Users/KrisBow/Dropbox/GradSchoolTarleton/Fall2019/AdvQuant/Lab2,no,mono,no,18,no,white,no,yes,768,legacy,25,79,/Users/KrisBow/Dropbox/GradSchoolTarleton/Fall2019/AdvQuant/Lab2/KBsubject-2-F21.csv,legacy,Kafkaesque Koffka,3.2.6,0,s,NA,s,s,NA,s,373,NA,33950,11456,NA,373,2,legacy,1024,2,48000,-16,experiment,SSSSS,1,odd,35472,185429,NA,226602,190983,1506,NA,NA,227704,1520,173970,NA,227814,228190,227693,227814,FlankerTaskKBowman,102,50146,106,yes,1024
96.26168224,96.26168224,472.682243,472.682243,black,no,legacy,legacy,legacy,0,congruent,uniform,1,undefined,1,h,0,0,0,106,106,0,106,0,106,0,0,0,106,106,106,106,Tue Sep 24 11:29:14 2019,600,The main experiment item,yes,FlankerTaskKBowman.osexp,/Users/KrisBow/Dropbox/GradSchoolTarleton/Fall2019/AdvQuant/Lab2,no,mono,no,18,no,white,no,yes,768,legacy,26,79,/Users/KrisBow/Dropbox/GradSchoolTarleton/Fall2019/AdvQuant/Lab2/KBsubject-2-F21.csv,legacy,Kafkaesque Koffka,3.2.6,0,h,NA,s,s,NA,h,431,NA,33950,11456,NA,431,2,legacy,1024,2,48000,-16,experiment,HHHHH,1,odd,35472,185429,NA,228203,190983,1506,NA,NA,229304,1520,173970,NA,229415,229850,229294,229415,FlankerTaskKBowman,103,50577,107,yes,1024
95.37037037,95.37037037,471.8703704,471.8703704,black,no,legacy,legacy,legacy,0,incongruent,uniform,0,undefined,0,h,0,0,0,107,107,0,107,0,107,0,0,0,107,107,107,107,Tue Sep 24 11:29:14 2019,600,The main experiment item,yes,FlankerTaskKBowman.osexp,/Users/KrisBow/Dropbox/GradSchoolTarleton/Fall2019/AdvQuant/Lab2,no,mono,no,18,no,white,no,yes,768,legacy,27,79,/Users/KrisBow/Dropbox/GradSchoolTarleton/Fall2019/AdvQuant/Lab2/KBsubject-2-F21.csv,legacy,Kafkaesque Koffka,3.2.6,0,s,NA,s,s,NA,s,385,NA,33950,11456,NA,385,2,legacy,1024,2,48000,-16,experiment,SSHSS,1,odd,35472,185429,NA,229864,190983,1506,NA,NA,230965,1520,173970,NA,231076,231464,230954,231076,FlankerTaskKBowman,103,50962,108,yes,1024
95.41284404,95.41284404,472.1009174,472.1009174,black,no,legacy,legacy,legacy,0,incongruent,uniform,1,undefined,1,s,0,0,0,108,108,0,108,0,108,0,0,0,108,108,108,108,Tue Sep 24 11:29:14 2019,600,The main experiment item,yes,FlankerTaskKBowman.osexp,/Users/KrisBow/Dropbox/GradSchoolTarleton/Fall2019/AdvQuant/Lab2,no,mono,no,18,no,white,no,yes,768,legacy,28,79,/Users/KrisBow/Dropbox/GradSchoolTarleton/Fall2019/AdvQuant/Lab2/KBsubject-2-F21.csv,legacy,Kafkaesque Koffka,3.2.6,0,s,NA,s,s,NA,s,497,NA,33950,11456,NA,497,2,legacy,1024,2,48000,-16,experiment,HHSHH,1,odd,35472,185429,NA,231988,231477,1506,NA,NA,233087,1520,173970,NA,233198,233698,233077,233197,FlankerTaskKBowman,104,51459,109,yes,1024
95.45454545,95.45454545,471.3636364,471.3636364,black,no,legacy,legacy,legacy,0,congruent,uniform,1,undefined,1,h,0,0,0,109,109,0,109,0,109,0,0,0,109,109,109,109,Tue Sep 24 11:29:14 2019,600,The main experiment item,yes,FlankerTaskKBowman.osexp,/Users/KrisBow/Dropbox/GradSchoolTarleton/Fall2019/AdvQuant/Lab2,no,mono,no,18,no,white,no,yes,768,legacy,29,79,/Users/KrisBow/Dropbox/GradSchoolTarleton/Fall2019/AdvQuant/Lab2/KBsubject-2-F21.csv,legacy,Kafkaesque Koffka,3.2.6,0,h,NA,s,s,NA,h,391,NA,33950,11456,NA,391,2,legacy,1024,2,48000,-16,experiment,HHHHH,1,odd,35472,185429,NA,233711,231477,1506,NA,NA,234812,1520,173970,NA,234923,235317,234802,234923,FlankerTaskKBowman,105,51850,110,yes,1024
95.4954955,95.4954955,471.5225225,471.5225225,black,no,legacy,legacy,legacy,0,congruent,uniform,1,undefined,1,s,0,0,0,110,110,0,110,0,110,0,0,0,110,110,110,110,Tue Sep 24 11:29:14 2019,600,The main experiment item,yes,FlankerTaskKBowman.osexp,/Users/KrisBow/Dropbox/GradSchoolTarleton/Fall2019/AdvQuant/Lab2,no,mono,no,18,no,white,no,yes,768,legacy,30,79,/Users/KrisBow/Dropbox/GradSchoolTarleton/Fall2019/AdvQuant/Lab2/KBsubject-2-F21.csv,legacy,Kafkaesque Koffka,3.2.6,0,s,NA,s,s,NA,s,489,NA,33950,11456,NA,489,2,legacy,1024,2,48000,-16,experiment,SSSSS,1,odd,35472,185429,NA,235330,231477,1506,NA,NA,236429,1520,173970,NA,236540,237032,236419,236540,FlankerTaskKBowman,106,52339,111,yes,1024
95.53571429,95.53571429,471.6785714,471.6785714,black,no,legacy,legacy,legacy,0,incongruent,uniform,1,undefined,1,s,0,0,0,111,111,0,111,0,111,0,0,0,111,111,111,111,Tue Sep 24 11:29:14 2019,600,The main experiment item,yes,FlankerTaskKBowman.osexp,/Users/KrisBow/Dropbox/GradSchoolTarleton/Fall2019/AdvQuant/Lab2,no,mono,no,18,no,white,no,yes,768,legacy,31,79,/Users/KrisBow/Dropbox/GradSchoolTarleton/Fall2019/AdvQuant/Lab2/KBsubject-2-F21.csv,legacy,Kafkaesque Koffka,3.2.6,0,s,NA,s,s,NA,s,489,NA,33950,11456,NA,489,2,legacy,1024,2,48000,-16,experiment,HHSHH,1,odd,35472,185429,NA,237045,231477,1506,NA,NA,238147,1520,173970,NA,238257,238749,238136,238257,FlankerTaskKBowman,107,52828,112,yes,1024
95.57522124,95.57522124,471.5044248,471.5044248,black,no,legacy,legacy,legacy,0,incongruent,uniform,1,undefined,1,h,0,0,0,112,112,0,112,0,112,0,0,0,112,112,112,112,Tue Sep 24 11:29:14 2019,600,The main experiment item,yes,FlankerTaskKBowman.osexp,/Users/KrisBow/Dropbox/GradSchoolTarleton/Fall2019/AdvQuant/Lab2,no,mono,no,18,no,white,no,yes,768,legacy,32,79,/Users/KrisBow/Dropbox/GradSchoolTarleton/Fall2019/AdvQuant/Lab2/KBsubject-2-F21.csv,legacy,Kafkaesque Koffka,3.2.6,0,h,NA,s,s,NA,h,452,NA,33950,11456,NA,452,2,legacy,1024,2,48000,-16,experiment,SSHSS,1,odd,35472,185429,NA,238762,231477,1506,NA,NA,239862,1520,173970,NA,239973,240428,239852,239972,FlankerTaskKBowman,108,53280,113,yes,1024
95.61403509,95.61403509,471.3859649,471.3859649,black,no,legacy,legacy,legacy,0,incongruent,uniform,1,undefined,1,s,0,0,0,113,113,0,113,0,113,0,0,0,113,113,113,113,Tue Sep 24 11:29:14 2019,600,The main experiment item,yes,FlankerTaskKBowman.osexp,/Users/KrisBow/Dropbox/GradSchoolTarleton/Fall2019/AdvQuant/Lab2,no,mono,no,18,no,white,no,yes,768,legacy,33,79,/Users/KrisBow/Dropbox/GradSchoolTarleton/Fall2019/AdvQuant/Lab2/KBsubject-2-F21.csv,legacy,Kafkaesque Koffka,3.2.6,0,s,NA,s,s,NA,s,458,NA,33950,11456,NA,458,2,legacy,1024,2,48000,-16,experiment,HHSHH,1,odd,35472,185429,NA,240440,231477,1506,NA,NA,241544,1520,173970,NA,241654,242115,241533,241654,FlankerTaskKBowman,109,53738,114,yes,1024
95.65217391,95.65217391,471.2695652,471.2695652,black,no,legacy,legacy,legacy,0,congruent,uniform,1,undefined,1,s,0,0,0,114,114,0,114,0,114,0,0,0,114,114,114,114,Tue Sep 24 11:29:14 2019,600,The main experiment item,yes,FlankerTaskKBowman.osexp,/Users/KrisBow/Dropbox/GradSchoolTarleton/Fall2019/AdvQuant/Lab2,no,mono,no,18,no,white,no,yes,768,legacy,34,79,/Users/KrisBow/Dropbox/GradSchoolTarleton/Fall2019/AdvQuant/Lab2/KBsubject-2-F21.csv,legacy,Kafkaesque Koffka,3.2.6,0,s,NA,s,s,NA,s,458,NA,33950,11456,NA,458,2,legacy,1024,2,48000,-16,experiment,SSSSS,1,odd,35472,185429,NA,242128,231477,1506,NA,NA,243228,1520,173970,NA,243339,243800,243218,243339,FlankerTaskKBowman,110,54196,115,yes,1024
95.68965517,95.68965517,472.9396552,472.9396552,black,no,legacy,legacy,legacy,0,incongruent,uniform,1,undefined,1,s,0,0,0,115,115,0,115,0,115,0,0,0,115,115,115,115,Tue Sep 24 11:29:14 2019,600,The main experiment item,yes,FlankerTaskKBowman.osexp,/Users/KrisBow/Dropbox/GradSchoolTarleton/Fall2019/AdvQuant/Lab2,no,mono,no,18,no,white,no,yes,768,legacy,35,79,/Users/KrisBow/Dropbox/GradSchoolTarleton/Fall2019/AdvQuant/Lab2/KBsubject-2-F21.csv,legacy,Kafkaesque Koffka,3.2.6,0,s,NA,s,s,NA,s,665,NA,33950,11456,NA,665,2,legacy,1024,2,48000,-16,experiment,HHSHH,1,odd,35472,185429,NA,243816,231477,1506,NA,NA,244929,1520,173970,NA,245040,245708,244918,245040,FlankerTaskKBowman,111,54861,116,yes,1024
95.72649573,95.72649573,473.5897436,473.5897436,black,no,legacy,legacy,legacy,0,congruent,uniform,1,undefined,1,s,0,0,0,116,116,0,116,0,116,0,0,0,116,116,116,116,Tue Sep 24 11:29:14 2019,600,The main experiment item,yes,FlankerTaskKBowman.osexp,/Users/KrisBow/Dropbox/GradSchoolTarleton/Fall2019/AdvQuant/Lab2,no,mono,no,18,no,white,no,yes,768,legacy,36,79,/Users/KrisBow/Dropbox/GradSchoolTarleton/Fall2019/AdvQuant/Lab2/KBsubject-2-F21.csv,legacy,Kafkaesque Koffka,3.2.6,0,s,NA,s,s,NA,s,549,NA,33950,11456,NA,549,2,legacy,1024,2,48000,-16,experiment,SSSSS,1,odd,35472,185429,NA,246231,231477,1506,245721,NA,247331,1520,173970,NA,247442,247994,247321,247441,FlankerTaskKBowman,112,55410,117,yes,1024
95.76271186,95.76271186,472.9237288,472.9237288,black,no,legacy,legacy,legacy,0,congruent,uniform,1,undefined,1,h,0,0,0,117,117,0,117,0,117,0,0,0,117,117,117,117,Tue Sep 24 11:29:14 2019,600,The main experiment item,yes,FlankerTaskKBowman.osexp,/Users/KrisBow/Dropbox/GradSchoolTarleton/Fall2019/AdvQuant/Lab2,no,mono,no,18,no,white,no,yes,768,legacy,37,79,/Users/KrisBow/Dropbox/GradSchoolTarleton/Fall2019/AdvQuant/Lab2/KBsubject-2-F21.csv,legacy,Kafkaesque Koffka,3.2.6,0,h,NA,s,s,NA,h,395,NA,33950,11456,NA,395,2,legacy,1024,2,48000,-16,experiment,HHHHH,1,odd,35472,185429,NA,248005,231477,1506,245721,NA,249107,1520,173970,NA,249219,249617,249097,249218,FlankerTaskKBowman,113,55805,118,yes,1024
95.79831933,95.79831933,472.5042017,472.5042017,black,no,legacy,legacy,legacy,0,incongruent,uniform,1,undefined,1,h,0,0,0,118,118,0,118,0,118,0,0,0,118,118,118,118,Tue Sep 24 11:29:14 2019,600,The main experiment item,yes,FlankerTaskKBowman.osexp,/Users/KrisBow/Dropbox/GradSchoolTarleton/Fall2019/AdvQuant/Lab2,no,mono,no,18,no,white,no,yes,768,legacy,38,79,/Users/KrisBow/Dropbox/GradSchoolTarleton/Fall2019/AdvQuant/Lab2/KBsubject-2-F21.csv,legacy,Kafkaesque Koffka,3.2.6,0,h,NA,s,s,NA,h,423,NA,33950,11456,NA,423,2,legacy,1024,2,48000,-16,experiment,SSHSS,1,odd,35472,185429,NA,249629,231477,1506,245721,NA,250729,1520,173970,NA,250840,251266,250719,250840,FlankerTaskKBowman,114,56228,119,yes,1024
95.83333333,95.83333333,471.8666667,471.8666667,black,no,legacy,legacy,legacy,0,incongruent,uniform,1,undefined,1,h,0,0,0,119,119,0,119,0,119,0,0,0,119,119,119,119,Tue Sep 24 11:29:14 2019,600,The main experiment item,yes,FlankerTaskKBowman.osexp,/Users/KrisBow/Dropbox/GradSchoolTarleton/Fall2019/AdvQuant/Lab2,no,mono,no,18,no,white,no,yes,768,legacy,39,79,/Users/KrisBow/Dropbox/GradSchoolTarleton/Fall2019/AdvQuant/Lab2/KBsubject-2-F21.csv,legacy,Kafkaesque Koffka,3.2.6,0,h,NA,s,s,NA,h,396,NA,33950,11456,NA,396,2,legacy,1024,2,48000,-16,experiment,SSHSS,1,odd,35472,185429,NA,251278,231477,1506,245721,NA,252380,1520,173970,NA,252491,252890,252369,252490,FlankerTaskKBowman,115,56624,120,yes,1024
95.04132231,95.04132231,470.8099174,470.8099174,black,no,legacy,legacy,legacy,0,incongruent,uniform,0,undefined,0,s,0,0,0,120,120,0,120,0,120,0,0,0,120,120,120,120,Tue Sep 24 11:29:14 2019,600,The main experiment item,yes,FlankerTaskKBowman.osexp,/Users/KrisBow/Dropbox/GradSchoolTarleton/Fall2019/AdvQuant/Lab2,no,mono,no,18,no,white,no,yes,768,legacy,40,79,/Users/KrisBow/Dropbox/GradSchoolTarleton/Fall2019/AdvQuant/Lab2/KBsubject-2-F21.csv,legacy,Kafkaesque Koffka,3.2.6,0,h,NA,s,s,NA,h,344,NA,33950,11456,NA,344,2,legacy,1024,2,48000,-16,experiment,HHSHH,1,odd,35472,185429,NA,252902,231477,1506,245721,NA,254001,1520,173970,NA,254112,254459,253992,254112,FlankerTaskKBowman,115,56968,121,yes,1024
95.08196721,95.08196721,471.0081967,471.0081967,black,no,legacy,legacy,legacy,0,incongruent,uniform,1,undefined,1,s,0,0,0,121,121,0,121,0,121,0,0,0,121,121,121,121,Tue Sep 24 11:29:14 2019,600,The main experiment item,yes,FlankerTaskKBowman.osexp,/Users/KrisBow/Dropbox/GradSchoolTarleton/Fall2019/AdvQuant/Lab2,no,mono,no,18,no,white,no,yes,768,legacy,41,79,/Users/KrisBow/Dropbox/GradSchoolTarleton/Fall2019/AdvQuant/Lab2/KBsubject-2-F21.csv,legacy,Kafkaesque Koffka,3.2.6,0,s,NA,s,s,NA,s,495,NA,33950,11456,NA,495,2,legacy,1024,2,48000,-16,experiment,HHSHH,1,odd,35472,185429,NA,254981,254471,1506,245721,NA,256081,1520,173970,NA,256192,256690,256070,256192,FlankerTaskKBowman,116,57463,122,yes,1024
95.12195122,95.12195122,471.0487805,471.0487805,black,no,legacy,legacy,legacy,0,incongruent,uniform,1,undefined,1,h,0,0,0,122,122,0,122,0,122,0,0,0,122,122,122,122,Tue Sep 24 11:29:14 2019,600,The main experiment item,yes,FlankerTaskKBowman.osexp,/Users/KrisBow/Dropbox/GradSchoolTarleton/Fall2019/AdvQuant/Lab2,no,mono,no,18,no,white,no,yes,768,legacy,42,79,/Users/KrisBow/Dropbox/GradSchoolTarleton/Fall2019/AdvQuant/Lab2/KBsubject-2-F21.csv,legacy,Kafkaesque Koffka,3.2.6,0,h,NA,s,s,NA,h,476,NA,33950,11456,NA,476,2,legacy,1024,2,48000,-16,experiment,SSHSS,1,odd,35472,185429,NA,256702,254471,1506,245721,NA,257802,1520,173970,NA,257913,258391,257792,257912,FlankerTaskKBowman,117,57939,123,yes,1024
95.16129032,95.16129032,470.8306452,470.8306452,black,no,legacy,legacy,legacy,0,congruent,uniform,1,undefined,1,h,0,0,0,123,123,0,123,0,123,0,0,0,123,123,123,123,Tue Sep 24 11:29:14 2019,600,The main experiment item,yes,FlankerTaskKBowman.osexp,/Users/KrisBow/Dropbox/GradSchoolTarleton/Fall2019/AdvQuant/Lab2,no,mono,no,18,no,white,no,yes,768,legacy,43,79,/Users/KrisBow/Dropbox/GradSchoolTarleton/Fall2019/AdvQuant/Lab2/KBsubject-2-F21.csv,legacy,Kafkaesque Koffka,3.2.6,0,h,NA,s,s,NA,h,444,NA,33950,11456,NA,444,2,legacy,1024,2,48000,-16,experiment,HHHHH,1,odd,35472,185429,NA,258404,254471,1506,245721,NA,259506,1520,173970,NA,259616,260063,259495,259616,FlankerTaskKBowman,118,58383,124,yes,1024
94.4,94.4,469.432,469.432,black,no,legacy,legacy,legacy,0,incongruent,uniform,0,undefined,0,s,0,0,0,124,124,0,124,0,124,0,0,0,124,124,124,124,Tue Sep 24 11:29:14 2019,600,The main experiment item,yes,FlankerTaskKBowman.osexp,/Users/KrisBow/Dropbox/GradSchoolTarleton/Fall2019/AdvQuant/Lab2,no,mono,no,18,no,white,no,yes,768,legacy,44,79,/Users/KrisBow/Dropbox/GradSchoolTarleton/Fall2019/AdvQuant/Lab2/KBsubject-2-F21.csv,legacy,Kafkaesque Koffka,3.2.6,0,h,NA,s,s,NA,h,296,NA,33950,11456,NA,296,2,legacy,1024,2,48000,-16,experiment,HHSHH,1,odd,35472,185429,NA,260076,254471,1506,245721,NA,261177,1520,173970,NA,261288,261587,261167,261288,FlankerTaskKBowman,118,58679,125,yes,1024
94.44444444,94.44444444,469.2539683,469.2539683,black,no,legacy,legacy,legacy,0,congruent,uniform,1,undefined,1,s,0,0,0,125,125,0,125,0,125,0,0,0,125,125,125,125,Tue Sep 24 11:29:14 2019,600,The main experiment item,yes,FlankerTaskKBowman.osexp,/Users/KrisBow/Dropbox/GradSchoolTarleton/Fall2019/AdvQuant/Lab2,no,mono,no,18,no,white,no,yes,768,legacy,45,79,/Users/KrisBow/Dropbox/GradSchoolTarleton/Fall2019/AdvQuant/Lab2/KBsubject-2-F21.csv,legacy,Kafkaesque Koffka,3.2.6,0,s,NA,s,s,NA,s,447,NA,33950,11456,NA,447,2,legacy,1024,2,48000,-16,experiment,SSSSS,1,odd,35472,185429,NA,262111,261600,1506,245721,NA,263213,1520,173970,NA,263324,263774,263202,263323,FlankerTaskKBowman,119,59126,126,yes,1024
94.48818898,94.48818898,469.5669291,469.5669291,black,no,legacy,legacy,legacy,0,incongruent,uniform,1,undefined,1,h,0,0,0,126,126,0,126,0,126,0,0,0,126,126,126,126,Tue Sep 24 11:29:14 2019,600,The main experiment item,yes,FlankerTaskKBowman.osexp,/Users/KrisBow/Dropbox/GradSchoolTarleton/Fall2019/AdvQuant/Lab2,no,mono,no,18,no,white,no,yes,768,legacy,46,79,/Users/KrisBow/Dropbox/GradSchoolTarleton/Fall2019/AdvQuant/Lab2/KBsubject-2-F21.csv,legacy,Kafkaesque Koffka,3.2.6,0,h,NA,s,s,NA,h,509,NA,33950,11456,NA,509,2,legacy,1024,2,48000,-16,experiment,SSHSS,1,odd,35472,185429,NA,263789,261600,1506,245721,NA,264889,1520,173970,NA,265000,265512,264879,265000,FlankerTaskKBowman,120,59635,127,yes,1024
94.53125,94.53125,469.6484375,469.6484375,black,no,legacy,legacy,legacy,0,incongruent,uniform,1,undefined,1,s,0,0,0,127,127,0,127,0,127,0,0,0,127,127,127,127,Tue Sep 24 11:29:14 2019,600,The main experiment item,yes,FlankerTaskKBowman.osexp,/Users/KrisBow/Dropbox/GradSchoolTarleton/Fall2019/AdvQuant/Lab2,no,mono,no,18,no,white,no,yes,768,legacy,47,79,/Users/KrisBow/Dropbox/GradSchoolTarleton/Fall2019/AdvQuant/Lab2/KBsubject-2-F21.csv,legacy,Kafkaesque Koffka,3.2.6,0,s,NA,s,s,NA,s,480,NA,33950,11456,NA,480,2,legacy,1024,2,48000,-16,experiment,HHSHH,1,odd,35472,185429,NA,265524,261600,1506,245721,NA,266626,1520,173970,NA,266737,267220,266615,266736,FlankerTaskKBowman,121,60115,128,yes,1024
94.57364341,94.57364341,471.1937985,471.1937985,black,no,legacy,legacy,legacy,0,incongruent,uniform,1,undefined,1,h,0,0,0,128,128,0,128,0,128,0,0,0,128,128,128,128,Tue Sep 24 11:29:14 2019,600,The main experiment item,yes,FlankerTaskKBowman.osexp,/Users/KrisBow/Dropbox/GradSchoolTarleton/Fall2019/AdvQuant/Lab2,no,mono,no,18,no,white,no,yes,768,legacy,48,79,/Users/KrisBow/Dropbox/GradSchoolTarleton/Fall2019/AdvQuant/Lab2/KBsubject-2-F21.csv,legacy,Kafkaesque Koffka,3.2.6,0,h,NA,s,s,NA,h,669,NA,33950,11456,NA,669,2,legacy,1024,2,48000,-16,experiment,SSHSS,1,odd,35472,185429,NA,267233,261600,1506,245721,NA,268333,1520,173970,NA,268444,269116,268323,268443,FlankerTaskKBowman,122,60784,129,yes,1024
94.61538462,94.61538462,471.2384615,471.2384615,black,no,legacy,legacy,legacy,0,incongruent,uniform,1,undefined,1,s,0,0,0,129,129,0,129,0,129,0,0,0,129,129,129,129,Tue Sep 24 11:29:14 2019,600,The main experiment item,yes,FlankerTaskKBowman.osexp,/Users/KrisBow/Dropbox/GradSchoolTarleton/Fall2019/AdvQuant/Lab2,no,mono,no,18,no,white,no,yes,768,legacy,49,79,/Users/KrisBow/Dropbox/GradSchoolTarleton/Fall2019/AdvQuant/Lab2/KBsubject-2-F21.csv,legacy,Kafkaesque Koffka,3.2.6,0,s,NA,s,s,NA,s,477,NA,33950,11456,NA,477,2,legacy,1024,2,48000,-16,experiment,HHSHH,1,odd,35472,185429,NA,269638,261600,1506,269128,NA,270739,1520,173970,NA,270849,271329,270729,270849,FlankerTaskKBowman,123,61261,130,yes,1024
94.65648855,94.65648855,471.6030534,471.6030534,black,no,legacy,legacy,legacy,0,incongruent,uniform,1,undefined,1,h,0,0,0,130,130,0,130,0,130,0,0,0,130,130,130,130,Tue Sep 24 11:29:14 2019,600,The main experiment item,yes,FlankerTaskKBowman.osexp,/Users/KrisBow/Dropbox/GradSchoolTarleton/Fall2019/AdvQuant/Lab2,no,mono,no,18,no,white,no,yes,768,legacy,50,79,/Users/KrisBow/Dropbox/GradSchoolTarleton/Fall2019/AdvQuant/Lab2/KBsubject-2-F21.csv,legacy,Kafkaesque Koffka,3.2.6,0,h,NA,s,s,NA,h,519,NA,33950,11456,NA,519,2,legacy,1024,2,48000,-16,experiment,SSHSS,1,odd,35472,185429,NA,271341,261600,1506,269128,NA,272441,1520,173970,NA,272552,273074,272431,272551,FlankerTaskKBowman,124,61780,131,yes,1024
94.6969697,94.6969697,472.3030303,472.3030303,black,no,legacy,legacy,legacy,0,incongruent,uniform,1,undefined,1,h,0,0,0,131,131,0,131,0,131,0,0,0,131,131,131,131,Tue Sep 24 11:29:14 2019,600,The main experiment item,yes,FlankerTaskKBowman.osexp,/Users/KrisBow/Dropbox/GradSchoolTarleton/Fall2019/AdvQuant/Lab2,no,mono,no,18,no,white,no,yes,768,legacy,51,79,/Users/KrisBow/Dropbox/GradSchoolTarleton/Fall2019/AdvQuant/Lab2/KBsubject-2-F21.csv,legacy,Kafkaesque Koffka,3.2.6,0,h,NA,s,s,NA,h,564,NA,33950,11456,NA,564,2,legacy,1024,2,48000,-16,experiment,SSHSS,1,odd,35472,185429,NA,273089,261600,1506,269128,NA,274192,1520,173970,NA,274302,274869,274181,274302,FlankerTaskKBowman,125,62344,132,yes,1024
94.73684211,94.73684211,471.8195489,471.8195489,black,no,legacy,legacy,legacy,0,congruent,uniform,1,undefined,1,h,0,0,0,132,132,0,132,0,132,0,0,0,132,132,132,132,Tue Sep 24 11:29:14 2019,600,The main experiment item,yes,FlankerTaskKBowman.osexp,/Users/KrisBow/Dropbox/GradSchoolTarleton/Fall2019/AdvQuant/Lab2,no,mono,no,18,no,white,no,yes,768,legacy,52,79,/Users/KrisBow/Dropbox/GradSchoolTarleton/Fall2019/AdvQuant/Lab2/KBsubject-2-F21.csv,legacy,Kafkaesque Koffka,3.2.6,0,h,NA,s,s,NA,h,408,NA,33950,11456,NA,408,2,legacy,1024,2,48000,-16,experiment,HHHHH,1,odd,35472,185429,NA,274882,261600,1506,269128,NA,275982,1520,173970,NA,276093,276504,275971,276093,FlankerTaskKBowman,126,62752,133,yes,1024
94.7761194,94.7761194,470.8059701,470.8059701,black,no,legacy,legacy,legacy,0,congruent,uniform,1,undefined,1,s,0,0,0,133,133,0,133,0,133,0,0,0,133,133,133,133,Tue Sep 24 11:29:14 2019,600,The main experiment item,yes,FlankerTaskKBowman.osexp,/Users/KrisBow/Dropbox/GradSchoolTarleton/Fall2019/AdvQuant/Lab2,no,mono,no,18,no,white,no,yes,768,legacy,53,79,/Users/KrisBow/Dropbox/GradSchoolTarleton/Fall2019/AdvQuant/Lab2/KBsubject-2-F21.csv,legacy,Kafkaesque Koffka,3.2.6,0,s,NA,s,s,NA,s,336,NA,33950,11456,NA,336,2,legacy,1024,2,48000,-16,experiment,SSSSS,1,odd,35472,185429,NA,276517,261600,1506,269128,NA,277617,1520,173970,NA,277728,278067,277607,277727,FlankerTaskKBowman,127,63088,134,yes,1024
94.81481481,94.81481481,471.237037,471.237037,black,no,legacy,legacy,legacy,0,incongruent,uniform,1,undefined,1,s,0,0,0,134,134,0,134,0,134,0,0,0,134,134,134,134,Tue Sep 24 11:29:14 2019,600,The main experiment item,yes,FlankerTaskKBowman.osexp,/Users/KrisBow/Dropbox/GradSchoolTarleton/Fall2019/AdvQuant/Lab2,no,mono,no,18,no,white,no,yes,768,legacy,54,79,/Users/KrisBow/Dropbox/GradSchoolTarleton/Fall2019/AdvQuant/Lab2/KBsubject-2-F21.csv,legacy,Kafkaesque Koffka,3.2.6,0,s,NA,s,s,NA,s,529,NA,33950,11456,NA,529,2,legacy,1024,2,48000,-16,experiment,HHSHH,1,odd,35472,185429,NA,278079,261600,1506,269128,NA,279181,1520,173970,NA,279292,279824,279171,279292,FlankerTaskKBowman,128,63617,135,yes,1024
94.85294118,94.85294118,471.0367647,471.0367647,black,no,legacy,legacy,legacy,0,congruent,uniform,1,undefined,1,s,0,0,0,135,135,0,135,0,135,0,0,0,135,135,135,135,Tue Sep 24 11:29:14 2019,600,The main experiment item,yes,FlankerTaskKBowman.osexp,/Users/KrisBow/Dropbox/GradSchoolTarleton/Fall2019/AdvQuant/Lab2,no,mono,no,18,no,white,no,yes,768,legacy,55,79,/Users/KrisBow/Dropbox/GradSchoolTarleton/Fall2019/AdvQuant/Lab2/KBsubject-2-F21.csv,legacy,Kafkaesque Koffka,3.2.6,0,s,NA,s,s,NA,s,444,NA,33950,11456,NA,444,2,legacy,1024,2,48000,-16,experiment,SSSSS,1,odd,35472,185429,NA,279837,261600,1506,269128,NA,280937,1520,173970,NA,281049,281496,280927,281048,FlankerTaskKBowman,129,64061,136,yes,1024
94.89051095,94.89051095,471.189781,471.189781,black,no,legacy,legacy,legacy,0,incongruent,uniform,1,undefined,1,h,0,0,0,136,136,0,136,0,136,0,0,0,136,136,136,136,Tue Sep 24 11:29:14 2019,600,The main experiment item,yes,FlankerTaskKBowman.osexp,/Users/KrisBow/Dropbox/GradSchoolTarleton/Fall2019/AdvQuant/Lab2,no,mono,no,18,no,white,no,yes,768,legacy,56,79,/Users/KrisBow/Dropbox/GradSchoolTarleton/Fall2019/AdvQuant/Lab2/KBsubject-2-F21.csv,legacy,Kafkaesque Koffka,3.2.6,0,h,NA,s,s,NA,h,492,NA,33950,11456,NA,492,2,legacy,1024,2,48000,-16,experiment,SSHSS,1,odd,35472,185429,NA,281509,261600,1506,269128,NA,282612,1520,173970,NA,282722,283217,282602,282722,FlankerTaskKBowman,130,64553,137,yes,1024
94.92753623,94.92753623,471.442029,471.442029,black,no,legacy,legacy,legacy,0,incongruent,uniform,1,undefined,1,s,0,0,0,137,137,0,137,0,137,0,0,0,137,137,137,137,Tue Sep 24 11:29:14 2019,600,The main experiment item,yes,FlankerTaskKBowman.osexp,/Users/KrisBow/Dropbox/GradSchoolTarleton/Fall2019/AdvQuant/Lab2,no,mono,no,18,no,white,no,yes,768,legacy,57,79,/Users/KrisBow/Dropbox/GradSchoolTarleton/Fall2019/AdvQuant/Lab2/KBsubject-2-F21.csv,legacy,Kafkaesque Koffka,3.2.6,0,s,NA,s,s,NA,s,506,NA,33950,11456,NA,506,2,legacy,1024,2,48000,-16,experiment,HHSHH,1,odd,35472,185429,NA,283230,261600,1506,269128,NA,284331,1520,173970,NA,284442,284951,284320,284442,FlankerTaskKBowman,131,65059,138,yes,1024
94.96402878,94.96402878,471.4316547,471.4316547,black,no,legacy,legacy,legacy,0,incongruent,uniform,1,undefined,1,s,0,0,0,138,138,0,138,0,138,0,0,0,138,138,138,138,Tue Sep 24 11:29:14 2019,600,The main experiment item,yes,FlankerTaskKBowman.osexp,/Users/KrisBow/Dropbox/GradSchoolTarleton/Fall2019/AdvQuant/Lab2,no,mono,no,18,no,white,no,yes,768,legacy,58,79,/Users/KrisBow/Dropbox/GradSchoolTarleton/Fall2019/AdvQuant/Lab2/KBsubject-2-F21.csv,legacy,Kafkaesque Koffka,3.2.6,0,s,NA,s,s,NA,s,470,NA,33950,11456,NA,470,2,legacy,1024,2,48000,-16,experiment,HHSHH,1,odd,35472,185429,NA,284964,261600,1506,269128,NA,286070,1520,173970,NA,286182,286656,286055,286182,FlankerTaskKBowman,132,65529,139,yes,1024
95,95,470.8357143,470.8357143,black,no,legacy,legacy,legacy,0,incongruent,uniform,1,undefined,1,s,0,0,0,139,139,0,139,0,139,0,0,0,139,139,139,139,Tue Sep 24 11:29:14 2019,600,The main experiment item,yes,FlankerTaskKBowman.osexp,/Users/KrisBow/Dropbox/GradSchoolTarleton/Fall2019/AdvQuant/Lab2,no,mono,no,18,no,white,no,yes,768,legacy,59,79,/Users/KrisBow/Dropbox/GradSchoolTarleton/Fall2019/AdvQuant/Lab2/KBsubject-2-F21.csv,legacy,Kafkaesque Koffka,3.2.6,0,s,NA,s,s,NA,s,388,NA,33950,11456,NA,388,2,legacy,1024,2,48000,-16,experiment,HHSHH,1,odd,35472,185429,NA,286669,261600,1506,269128,NA,287771,1520,173970,NA,287882,288273,287760,287881,FlankerTaskKBowman,133,65917,140,yes,1024
95.03546099,95.03546099,471.035461,471.035461,black,no,legacy,legacy,legacy,0,incongruent,uniform,1,undefined,1,s,0,0,0,140,140,0,140,0,140,0,0,0,140,140,140,140,Tue Sep 24 11:29:14 2019,600,The main experiment item,yes,FlankerTaskKBowman.osexp,/Users/KrisBow/Dropbox/GradSchoolTarleton/Fall2019/AdvQuant/Lab2,no,mono,no,18,no,white,no,yes,768,legacy,60,79,/Users/KrisBow/Dropbox/GradSchoolTarleton/Fall2019/AdvQuant/Lab2/KBsubject-2-F21.csv,legacy,Kafkaesque Koffka,3.2.6,0,s,NA,s,s,NA,s,499,NA,33950,11456,NA,499,2,legacy,1024,2,48000,-16,experiment,HHSHH,1,odd,35472,185429,NA,288286,261600,1506,269128,NA,289387,1520,173970,NA,289498,290000,289377,289498,FlankerTaskKBowman,134,66416,141,yes,1024
95.07042254,95.07042254,470.5,470.5,black,no,legacy,legacy,legacy,0,congruent,uniform,1,undefined,1,s,0,0,0,141,141,0,141,0,141,0,0,0,141,141,141,141,Tue Sep 24 11:29:14 2019,600,The main experiment item,yes,FlankerTaskKBowman.osexp,/Users/KrisBow/Dropbox/GradSchoolTarleton/Fall2019/AdvQuant/Lab2,no,mono,no,18,no,white,no,yes,768,legacy,61,79,/Users/KrisBow/Dropbox/GradSchoolTarleton/Fall2019/AdvQuant/Lab2/KBsubject-2-F21.csv,legacy,Kafkaesque Koffka,3.2.6,0,s,NA,s,s,NA,s,395,NA,33950,11456,NA,395,2,legacy,1024,2,48000,-16,experiment,SSSSS,1,odd,35472,185429,NA,290012,261600,1506,269128,NA,291114,1520,173970,NA,291225,291623,291104,291225,FlankerTaskKBowman,135,66811,142,yes,1024
95.1048951,95.1048951,470.034965,470.034965,black,no,legacy,legacy,legacy,0,congruent,uniform,1,undefined,1,s,0,0,0,142,142,0,142,0,142,0,0,0,142,142,142,142,Tue Sep 24 11:29:14 2019,600,The main experiment item,yes,FlankerTaskKBowman.osexp,/Users/KrisBow/Dropbox/GradSchoolTarleton/Fall2019/AdvQuant/Lab2,no,mono,no,18,no,white,no,yes,768,legacy,62,79,/Users/KrisBow/Dropbox/GradSchoolTarleton/Fall2019/AdvQuant/Lab2/KBsubject-2-F21.csv,legacy,Kafkaesque Koffka,3.2.6,0,s,NA,s,s,NA,s,404,NA,33950,11456,NA,404,2,legacy,1024,2,48000,-16,experiment,SSSSS,1,odd,35472,185429,NA,291636,261600,1506,269128,NA,292737,1520,173970,NA,292848,293255,292727,292847,FlankerTaskKBowman,136,67215,143,yes,1024
95.13888889,95.13888889,469.6527778,469.6527778,black,no,legacy,legacy,legacy,0,incongruent,uniform,1,undefined,1,h,0,0,0,143,143,0,143,0,143,0,0,0,143,143,143,143,Tue Sep 24 11:29:14 2019,600,The main experiment item,yes,FlankerTaskKBowman.osexp,/Users/KrisBow/Dropbox/GradSchoolTarleton/Fall2019/AdvQuant/Lab2,no,mono,no,18,no,white,no,yes,768,legacy,63,79,/Users/KrisBow/Dropbox/GradSchoolTarleton/Fall2019/AdvQuant/Lab2/KBsubject-2-F21.csv,legacy,Kafkaesque Koffka,3.2.6,0,h,NA,s,s,NA,h,415,NA,33950,11456,NA,415,2,legacy,1024,2,48000,-16,experiment,SSHSS,1,odd,35472,185429,NA,293268,261600,1506,269128,NA,294369,1520,173970,NA,294480,294898,294358,294480,FlankerTaskKBowman,137,67630,144,yes,1024
95.17241379,95.17241379,469.5034483,469.5034483,black,no,legacy,legacy,legacy,0,congruent,uniform,1,undefined,1,h,0,0,0,144,144,0,144,0,144,0,0,0,144,144,144,144,Tue Sep 24 11:29:14 2019,600,The main experiment item,yes,FlankerTaskKBowman.osexp,/Users/KrisBow/Dropbox/GradSchoolTarleton/Fall2019/AdvQuant/Lab2,no,mono,no,18,no,white,no,yes,768,legacy,64,79,/Users/KrisBow/Dropbox/GradSchoolTarleton/Fall2019/AdvQuant/Lab2/KBsubject-2-F21.csv,legacy,Kafkaesque Koffka,3.2.6,0,h,NA,s,s,NA,h,448,NA,33950,11456,NA,448,2,legacy,1024,2,48000,-16,experiment,HHHHH,1,odd,35472,185429,NA,294911,261600,1506,269128,NA,296010,1520,173970,NA,296122,296573,296000,296121,FlankerTaskKBowman,138,68078,145,yes,1024
