acc,accuracy,average_response_time,avg_rt,background,canvas_backend,clock_backend,color_backend,compensation,condition,coordinates,correct,correct_instructions1_1,correct_keyboard_response,correct_response,count_ISI,count_block1,count_block2,count_block3,count_errorFeedback,count_experiment,count_faster,count_finish,count_fixation,count_instructions1,count_instructions1_1,count_instructions2,count_instructions3,count_keyboard_response,count_logger,count_sequence,count_stimulus,datetime,deadline,description,disable_garbage_collection,experiment_file,experiment_path,font_bold,font_family,font_italic,font_size,font_underline,foreground,form_clicks,fullscreen,height,keyboard_backend,live_row,live_row_block1,logfile,mouse_backend,opensesame_codename,opensesame_version,repeat_cycle,response,response_finish,response_instructions1,response_instructions1_1,response_instructions2,response_instructions3,response_keyboard_response,response_time,response_time_finish,response_time_instructions1,response_time_instructions1_1,response_time_instructions2,response_time_instructions3,response_time_keyboard_response,round_decimals,sampler_backend,sound_buf_size,sound_channels,sound_freq,sound_sample_size,start,stimulus,subject_nr,subject_parity,time_ISI,time_block1,time_block2,time_block3,time_errorFeedback,time_experiment,time_faster,time_finish,time_fixation,time_instructions1,time_instructions1_1,time_instructions2,time_instructions3,time_keyboard_response,time_logger,time_sequence,time_stimulus,title,total_correct,total_response_time,total_responses,uniform_coordinates,width
100,100,703,703,black,legacy,legacy,legacy,0,incongruent,uniform,1,undefined,1,h,0,0,0,0,0,0,0,0,0,NA,0,0,0,0,0,0,0,9/25/19 11:59,1500,The main experiment item,yes,BR-Flankertask.osexp,C:/Users/Breena Riley/Desktop/2019 Fall/MultQuant/lab 2.1,no,mono,no,18,no,white,no,yes,768,legacy,0,0,C:/Users/Breena Riley/Desktop/2019 Fall/MultQuant/lab 2.1/subject-3.csv,legacy,Kafkaesque Koffka,3.2.8,0,h,NA,NA,s,NA,NA,h,703,NA,NA,8941,NA,NA,703,2,legacy,1024,2,48000,-16,experiment,SSHSS,3,odd,NA,13080,NA,NA,NA,4128,NA,NA,13190,NA,4138,NA,NA,13292,13995,13188,13291,Flankertask,1,703,1,yes,1024
100,100,632.5,632.5,black,legacy,legacy,legacy,0,congruent,uniform,1,undefined,1,h,1,0,0,0,1,0,1,0,1,NA,0,0,0,1,1,1,1,9/25/19 11:59,1500,The main experiment item,yes,BR-Flankertask.osexp,C:/Users/Breena Riley/Desktop/2019 Fall/MultQuant/lab 2.1,no,mono,no,18,no,white,no,yes,768,legacy,1,1,C:/Users/Breena Riley/Desktop/2019 Fall/MultQuant/lab 2.1/subject-3.csv,legacy,Kafkaesque Koffka,3.2.8,0,h,NA,NA,s,NA,NA,h,562,NA,NA,8941,NA,NA,562,2,legacy,1024,2,48000,-16,experiment,HHHHH,3,odd,14004,13080,NA,NA,NA,4128,NA,NA,15079,NA,4138,NA,NA,15180,15742,15076,15180,Flankertask,2,1265,2,yes,1024
100,100,568,568,black,legacy,legacy,legacy,0,congruent,uniform,1,undefined,1,h,2,0,0,0,2,0,2,0,2,NA,0,0,0,2,2,2,2,9/25/19 11:59,1500,The main experiment item,yes,BR-Flankertask.osexp,C:/Users/Breena Riley/Desktop/2019 Fall/MultQuant/lab 2.1,no,mono,no,18,no,white,no,yes,768,legacy,2,2,C:/Users/Breena Riley/Desktop/2019 Fall/MultQuant/lab 2.1/subject-3.csv,legacy,Kafkaesque Koffka,3.2.8,0,h,NA,NA,s,NA,NA,h,439,NA,NA,8941,NA,NA,439,2,legacy,1024,2,48000,-16,experiment,HHHHH,3,odd,15750,13080,NA,NA,NA,4128,NA,NA,16824,NA,4138,NA,NA,16925,17364,16821,16925,Flankertask,3,1704,3,yes,1024
100,100,523.5,523.5,black,legacy,legacy,legacy,0,congruent,uniform,1,undefined,1,h,3,0,0,0,3,0,3,0,3,NA,0,0,0,3,3,3,3,9/25/19 11:59,1500,The main experiment item,yes,BR-Flankertask.osexp,C:/Users/Breena Riley/Desktop/2019 Fall/MultQuant/lab 2.1,no,mono,no,18,no,white,no,yes,768,legacy,3,3,C:/Users/Breena Riley/Desktop/2019 Fall/MultQuant/lab 2.1/subject-3.csv,legacy,Kafkaesque Koffka,3.2.8,0,h,NA,NA,s,NA,NA,h,390,NA,NA,8941,NA,NA,390,2,legacy,1024,2,48000,-16,experiment,HHHHH,3,odd,17374,13080,NA,NA,NA,4128,NA,NA,18446,NA,4138,NA,NA,18547,18938,18444,18547,Flankertask,4,2094,4,yes,1024
100,100,519.4,519.4,black,legacy,legacy,legacy,0,congruent,uniform,1,undefined,1,s,4,0,0,0,4,0,4,0,4,NA,0,0,0,4,4,4,4,9/25/19 11:59,1500,The main experiment item,yes,BR-Flankertask.osexp,C:/Users/Breena Riley/Desktop/2019 Fall/MultQuant/lab 2.1,no,mono,no,18,no,white,no,yes,768,legacy,4,4,C:/Users/Breena Riley/Desktop/2019 Fall/MultQuant/lab 2.1/subject-3.csv,legacy,Kafkaesque Koffka,3.2.8,0,s,NA,NA,s,NA,NA,s,503,NA,NA,8941,NA,NA,503,2,legacy,1024,2,48000,-16,experiment,SSSSS,3,odd,18947,13080,NA,NA,NA,4128,NA,NA,20019,NA,4138,NA,NA,20120,20624,20016,20120,Flankertask,5,2597,5,yes,1024
100,100,511.1666667,511.1666667,black,legacy,legacy,legacy,0,congruent,uniform,1,undefined,1,h,5,0,0,0,5,0,5,0,5,NA,0,0,0,5,5,5,5,9/25/19 11:59,1500,The main experiment item,yes,BR-Flankertask.osexp,C:/Users/Breena Riley/Desktop/2019 Fall/MultQuant/lab 2.1,no,mono,no,18,no,white,no,yes,768,legacy,5,5,C:/Users/Breena Riley/Desktop/2019 Fall/MultQuant/lab 2.1/subject-3.csv,legacy,Kafkaesque Koffka,3.2.8,0,h,NA,NA,s,NA,NA,h,470,NA,NA,8941,NA,NA,470,2,legacy,1024,2,48000,-16,experiment,HHHHH,3,odd,20632,13080,NA,NA,NA,4128,NA,NA,21706,NA,4138,NA,NA,21808,22278,21704,21808,Flankertask,6,3067,6,yes,1024
100,100,511.8571429,511.8571429,black,legacy,legacy,legacy,0,incongruent,uniform,1,undefined,1,h,6,0,0,0,6,0,6,0,6,NA,0,0,0,6,6,6,6,9/25/19 11:59,1500,The main experiment item,yes,BR-Flankertask.osexp,C:/Users/Breena Riley/Desktop/2019 Fall/MultQuant/lab 2.1,no,mono,no,18,no,white,no,yes,768,legacy,6,6,C:/Users/Breena Riley/Desktop/2019 Fall/MultQuant/lab 2.1/subject-3.csv,legacy,Kafkaesque Koffka,3.2.8,0,h,NA,NA,s,NA,NA,h,516,NA,NA,8941,NA,NA,516,2,legacy,1024,2,48000,-16,experiment,SSHSS,3,odd,22287,13080,NA,NA,NA,4128,NA,NA,23362,NA,4138,NA,NA,23464,23981,23359,23464,Flankertask,7,3583,7,yes,1024
100,100,495.75,495.75,black,legacy,legacy,legacy,0,congruent,uniform,1,undefined,1,s,7,0,0,0,7,0,7,0,7,NA,0,0,0,7,7,7,7,9/25/19 11:59,1500,The main experiment item,yes,BR-Flankertask.osexp,C:/Users/Breena Riley/Desktop/2019 Fall/MultQuant/lab 2.1,no,mono,no,18,no,white,no,yes,768,legacy,7,7,C:/Users/Breena Riley/Desktop/2019 Fall/MultQuant/lab 2.1/subject-3.csv,legacy,Kafkaesque Koffka,3.2.8,0,s,NA,NA,s,NA,NA,s,383,NA,NA,8941,NA,NA,383,2,legacy,1024,2,48000,-16,experiment,SSSSS,3,odd,23985,13080,NA,NA,NA,4128,NA,NA,25058,NA,4138,NA,NA,25159,25542,25055,25159,Flankertask,8,3966,8,yes,1024
100,100,485.7777778,485.7777778,black,legacy,legacy,legacy,0,incongruent,uniform,1,undefined,1,h,8,0,0,0,8,0,8,0,8,NA,0,0,0,8,8,8,8,9/25/19 11:59,1500,The main experiment item,yes,BR-Flankertask.osexp,C:/Users/Breena Riley/Desktop/2019 Fall/MultQuant/lab 2.1,no,mono,no,18,no,white,no,yes,768,legacy,8,8,C:/Users/Breena Riley/Desktop/2019 Fall/MultQuant/lab 2.1/subject-3.csv,legacy,Kafkaesque Koffka,3.2.8,0,h,NA,NA,s,NA,NA,h,406,NA,NA,8941,NA,NA,406,2,legacy,1024,2,48000,-16,experiment,SSHSS,3,odd,25550,13080,NA,NA,NA,4128,NA,NA,26635,NA,4138,NA,NA,26736,27143,26633,26736,Flankertask,9,4372,9,yes,1024
90,90,540.3,540.3,black,legacy,legacy,legacy,0,congruent,uniform,0,undefined,0,h,9,0,0,0,9,0,9,0,9,NA,0,0,0,9,9,9,9,9/25/19 11:59,1500,The main experiment item,yes,BR-Flankertask.osexp,C:/Users/Breena Riley/Desktop/2019 Fall/MultQuant/lab 2.1,no,mono,no,18,no,white,no,yes,768,legacy,9,9,C:/Users/Breena Riley/Desktop/2019 Fall/MultQuant/lab 2.1/subject-3.csv,legacy,Kafkaesque Koffka,3.2.8,0,s,NA,NA,s,NA,NA,s,1031,NA,NA,8941,NA,NA,1031,2,legacy,1024,2,48000,-16,experiment,HHHHH,3,odd,27151,13080,NA,NA,NA,4128,NA,NA,28227,NA,4138,NA,NA,28328,29359,28224,28328,Flankertask,9,5403,10,yes,1024
90.90909091,90.90909091,525.3636364,525.3636364,black,legacy,legacy,legacy,0,congruent,uniform,1,undefined,1,h,10,0,0,0,10,0,10,0,10,NA,0,0,0,10,10,10,10,9/25/19 11:59,1500,The main experiment item,yes,BR-Flankertask.osexp,C:/Users/Breena Riley/Desktop/2019 Fall/MultQuant/lab 2.1,no,mono,no,18,no,white,no,yes,768,legacy,10,10,C:/Users/Breena Riley/Desktop/2019 Fall/MultQuant/lab 2.1/subject-3.csv,legacy,Kafkaesque Koffka,3.2.8,0,h,NA,NA,s,NA,NA,h,376,NA,NA,8941,NA,NA,376,2,legacy,1024,2,48000,-16,experiment,HHHHH,3,odd,29869,13080,NA,NA,29367,4128,NA,NA,30983,NA,4138,NA,NA,31085,31461,30980,31085,Flankertask,10,5779,11,yes,1024
91.66666667,91.66666667,526.0833333,526.0833333,black,legacy,legacy,legacy,0,incongruent,uniform,1,undefined,1,s,11,0,0,0,11,0,11,0,11,NA,0,0,0,11,11,11,11,9/25/19 11:59,1500,The main experiment item,yes,BR-Flankertask.osexp,C:/Users/Breena Riley/Desktop/2019 Fall/MultQuant/lab 2.1,no,mono,no,18,no,white,no,yes,768,legacy,11,11,C:/Users/Breena Riley/Desktop/2019 Fall/MultQuant/lab 2.1/subject-3.csv,legacy,Kafkaesque Koffka,3.2.8,0,s,NA,NA,s,NA,NA,s,534,NA,NA,8941,NA,NA,534,2,legacy,1024,2,48000,-16,experiment,HHSHH,3,odd,31466,13080,NA,NA,29367,4128,NA,NA,32539,NA,4138,NA,NA,32640,33174,32536,32640,Flankertask,11,6313,12,yes,1024
84.61538462,84.61538462,513.8461538,513.8461538,black,legacy,legacy,legacy,0,incongruent,uniform,0,undefined,0,s,12,0,0,0,12,0,12,0,12,NA,0,0,0,12,12,12,12,9/25/19 11:59,1500,The main experiment item,yes,BR-Flankertask.osexp,C:/Users/Breena Riley/Desktop/2019 Fall/MultQuant/lab 2.1,no,mono,no,18,no,white,no,yes,768,legacy,12,12,C:/Users/Breena Riley/Desktop/2019 Fall/MultQuant/lab 2.1/subject-3.csv,legacy,Kafkaesque Koffka,3.2.8,0,h,NA,NA,s,NA,NA,h,367,NA,NA,8941,NA,NA,367,2,legacy,1024,2,48000,-16,experiment,HHSHH,3,odd,33182,13080,NA,NA,29367,4128,NA,NA,34255,NA,4138,NA,NA,34357,34724,34253,34357,Flankertask,11,6680,13,yes,1024
85.71428571,85.71428571,524.7857143,524.7857143,black,legacy,legacy,legacy,0,incongruent,uniform,1,undefined,1,s,13,0,0,0,13,0,13,0,13,NA,0,0,0,13,13,13,13,9/25/19 11:59,1500,The main experiment item,yes,BR-Flankertask.osexp,C:/Users/Breena Riley/Desktop/2019 Fall/MultQuant/lab 2.1,no,mono,no,18,no,white,no,yes,768,legacy,13,13,C:/Users/Breena Riley/Desktop/2019 Fall/MultQuant/lab 2.1/subject-3.csv,legacy,Kafkaesque Koffka,3.2.8,0,s,NA,NA,s,NA,NA,s,667,NA,NA,8941,NA,NA,667,2,legacy,1024,2,48000,-16,experiment,HHSHH,3,odd,35234,13080,NA,NA,34732,4128,NA,NA,36307,NA,4138,NA,NA,36410,37077,36305,36410,Flankertask,12,7347,14,yes,1024
86.66666667,86.66666667,524.2,524.2,black,legacy,legacy,legacy,0,congruent,uniform,1,undefined,1,h,14,0,0,0,14,0,14,0,14,NA,0,0,0,14,14,14,14,9/25/19 11:59,1500,The main experiment item,yes,BR-Flankertask.osexp,C:/Users/Breena Riley/Desktop/2019 Fall/MultQuant/lab 2.1,no,mono,no,18,no,white,no,yes,768,legacy,14,14,C:/Users/Breena Riley/Desktop/2019 Fall/MultQuant/lab 2.1/subject-3.csv,legacy,Kafkaesque Koffka,3.2.8,0,h,NA,NA,s,NA,NA,h,516,NA,NA,8941,NA,NA,516,2,legacy,1024,2,48000,-16,experiment,HHHHH,3,odd,37081,13080,NA,NA,34732,4128,NA,NA,38157,NA,4138,NA,NA,38258,38775,38154,38258,Flankertask,13,7863,15,yes,1024
87.5,87.5,547.5,547.5,black,legacy,legacy,legacy,0,incongruent,uniform,1,undefined,1,h,15,0,0,0,15,0,15,0,15,NA,0,0,0,15,15,15,15,9/25/19 11:59,1500,The main experiment item,yes,BR-Flankertask.osexp,C:/Users/Breena Riley/Desktop/2019 Fall/MultQuant/lab 2.1,no,mono,no,18,no,white,no,yes,768,legacy,15,15,C:/Users/Breena Riley/Desktop/2019 Fall/MultQuant/lab 2.1/subject-3.csv,legacy,Kafkaesque Koffka,3.2.8,0,h,NA,NA,s,NA,NA,h,897,NA,NA,8941,NA,NA,897,2,legacy,1024,2,48000,-16,experiment,SSHSS,3,odd,38780,13080,NA,NA,34732,4128,NA,NA,39852,NA,4138,NA,NA,39954,40851,39849,39954,Flankertask,14,8760,16,yes,1024
88.23529412,88.23529412,546.2941176,546.2941176,black,legacy,legacy,legacy,0,congruent,uniform,1,undefined,1,s,16,0,0,0,16,0,16,0,16,NA,0,0,0,16,16,16,16,9/25/19 11:59,1500,The main experiment item,yes,BR-Flankertask.osexp,C:/Users/Breena Riley/Desktop/2019 Fall/MultQuant/lab 2.1,no,mono,no,18,no,white,no,yes,768,legacy,16,16,C:/Users/Breena Riley/Desktop/2019 Fall/MultQuant/lab 2.1/subject-3.csv,legacy,Kafkaesque Koffka,3.2.8,0,s,NA,NA,s,NA,NA,s,527,NA,NA,8941,NA,NA,527,2,legacy,1024,2,48000,-16,experiment,SSSSS,3,odd,40859,13080,NA,NA,34732,4128,NA,NA,41933,NA,4138,NA,NA,42035,42562,41931,42035,Flankertask,15,9287,17,yes,1024
88.88888889,88.88888889,553.2222222,553.2222222,black,legacy,legacy,legacy,0,congruent,uniform,1,undefined,1,s,17,0,0,0,17,0,17,0,17,NA,0,0,0,17,17,17,17,9/25/19 11:59,1500,The main experiment item,yes,BR-Flankertask.osexp,C:/Users/Breena Riley/Desktop/2019 Fall/MultQuant/lab 2.1,no,mono,no,18,no,white,no,yes,768,legacy,17,17,C:/Users/Breena Riley/Desktop/2019 Fall/MultQuant/lab 2.1/subject-3.csv,legacy,Kafkaesque Koffka,3.2.8,0,s,NA,NA,s,NA,NA,s,671,NA,NA,8941,NA,NA,671,2,legacy,1024,2,48000,-16,experiment,SSSSS,3,odd,42570,13080,NA,NA,34732,4128,NA,NA,43646,NA,4138,NA,NA,43747,44418,43643,43747,Flankertask,16,9958,18,yes,1024
89.47368421,89.47368421,549.0526316,549.0526316,black,legacy,legacy,legacy,0,congruent,uniform,1,undefined,1,s,18,0,0,0,18,0,18,0,18,NA,0,0,0,18,18,18,18,9/25/19 11:59,1500,The main experiment item,yes,BR-Flankertask.osexp,C:/Users/Breena Riley/Desktop/2019 Fall/MultQuant/lab 2.1,no,mono,no,18,no,white,no,yes,768,legacy,18,18,C:/Users/Breena Riley/Desktop/2019 Fall/MultQuant/lab 2.1/subject-3.csv,legacy,Kafkaesque Koffka,3.2.8,0,s,NA,NA,s,NA,NA,s,474,NA,NA,8941,NA,NA,474,2,legacy,1024,2,48000,-16,experiment,SSSSS,3,odd,44426,13080,NA,NA,34732,4128,NA,NA,45500,NA,4138,NA,NA,45601,46075,45497,45601,Flankertask,17,10432,19,yes,1024
90,90,551,551,black,legacy,legacy,legacy,0,incongruent,uniform,1,undefined,1,h,19,0,0,0,19,0,19,0,19,NA,0,0,0,19,19,19,19,9/25/19 11:59,1500,The main experiment item,yes,BR-Flankertask.osexp,C:/Users/Breena Riley/Desktop/2019 Fall/MultQuant/lab 2.1,no,mono,no,18,no,white,no,yes,768,legacy,19,19,C:/Users/Breena Riley/Desktop/2019 Fall/MultQuant/lab 2.1/subject-3.csv,legacy,Kafkaesque Koffka,3.2.8,0,h,NA,NA,s,NA,NA,h,588,NA,NA,8941,NA,NA,588,2,legacy,1024,2,48000,-16,experiment,SSHSS,3,odd,46083,13080,NA,NA,34732,4128,NA,NA,47159,NA,4138,NA,NA,47260,47849,47156,47260,Flankertask,18,11020,20,yes,1024
85.71428571,85.71428571,544.1904762,544.1904762,black,legacy,legacy,legacy,0,congruent,uniform,0,undefined,0,s,20,0,0,0,20,0,20,0,20,NA,0,0,0,20,20,20,20,9/25/19 11:59,1500,The main experiment item,yes,BR-Flankertask.osexp,C:/Users/Breena Riley/Desktop/2019 Fall/MultQuant/lab 2.1,no,mono,no,18,no,white,no,yes,768,legacy,20,20,C:/Users/Breena Riley/Desktop/2019 Fall/MultQuant/lab 2.1/subject-3.csv,legacy,Kafkaesque Koffka,3.2.8,0,h,NA,NA,s,NA,NA,h,408,NA,NA,8941,NA,NA,408,2,legacy,1024,2,48000,-16,experiment,SSSSS,3,odd,47859,13080,NA,NA,34732,4128,NA,NA,48948,NA,4138,NA,NA,49050,49459,48946,49049,Flankertask,18,11428,21,yes,1024
86.36363636,86.36363636,555.8636364,555.8636364,black,legacy,legacy,legacy,0,incongruent,uniform,1,undefined,1,h,21,0,0,0,21,0,21,0,21,NA,0,0,0,21,21,21,21,9/25/19 11:59,1500,The main experiment item,yes,BR-Flankertask.osexp,C:/Users/Breena Riley/Desktop/2019 Fall/MultQuant/lab 2.1,no,mono,no,18,no,white,no,yes,768,legacy,21,21,C:/Users/Breena Riley/Desktop/2019 Fall/MultQuant/lab 2.1/subject-3.csv,legacy,Kafkaesque Koffka,3.2.8,0,h,NA,NA,s,NA,NA,h,801,NA,NA,8941,NA,NA,801,2,legacy,1024,2,48000,-16,experiment,SSHSS,3,odd,49969,13080,NA,NA,49467,4128,NA,NA,51043,NA,4138,NA,NA,51144,51947,51041,51144,Flankertask,19,12229,22,yes,1024
86.95652174,86.95652174,553.6521739,553.6521739,black,legacy,legacy,legacy,0,incongruent,uniform,1,undefined,1,s,22,0,0,0,22,0,22,0,22,NA,0,0,0,22,22,22,22,9/25/19 11:59,1500,The main experiment item,yes,BR-Flankertask.osexp,C:/Users/Breena Riley/Desktop/2019 Fall/MultQuant/lab 2.1,no,mono,no,18,no,white,no,yes,768,legacy,22,22,C:/Users/Breena Riley/Desktop/2019 Fall/MultQuant/lab 2.1/subject-3.csv,legacy,Kafkaesque Koffka,3.2.8,0,s,NA,NA,s,NA,NA,s,505,NA,NA,8941,NA,NA,505,2,legacy,1024,2,48000,-16,experiment,HHSHH,3,odd,51957,13080,NA,NA,49467,4128,NA,NA,53031,NA,4138,NA,NA,53132,53638,53027,53132,Flankertask,20,12734,23,yes,1024
83.33333333,83.33333333,553.75,553.75,black,legacy,legacy,legacy,0,congruent,uniform,0,undefined,0,s,23,0,0,0,23,0,23,0,23,NA,0,0,0,23,23,23,23,9/25/19 11:59,1500,The main experiment item,yes,BR-Flankertask.osexp,C:/Users/Breena Riley/Desktop/2019 Fall/MultQuant/lab 2.1,no,mono,no,18,no,white,no,yes,768,legacy,23,23,C:/Users/Breena Riley/Desktop/2019 Fall/MultQuant/lab 2.1/subject-3.csv,legacy,Kafkaesque Koffka,3.2.8,0,h,NA,NA,s,NA,NA,h,556,NA,NA,8941,NA,NA,556,2,legacy,1024,2,48000,-16,experiment,SSSSS,3,odd,53646,13080,NA,NA,49467,4128,NA,NA,54719,NA,4138,NA,NA,54820,55376,54716,54820,Flankertask,20,13290,24,yes,1024
84,84,552.6,552.6,black,legacy,legacy,legacy,0,congruent,uniform,1,undefined,1,h,24,0,0,0,24,0,24,0,24,NA,0,0,0,24,24,24,24,9/25/19 11:59,1500,The main experiment item,yes,BR-Flankertask.osexp,C:/Users/Breena Riley/Desktop/2019 Fall/MultQuant/lab 2.1,no,mono,no,18,no,white,no,yes,768,legacy,24,24,C:/Users/Breena Riley/Desktop/2019 Fall/MultQuant/lab 2.1/subject-3.csv,legacy,Kafkaesque Koffka,3.2.8,0,h,NA,NA,s,NA,NA,h,525,NA,NA,8941,NA,NA,525,2,legacy,1024,2,48000,-16,experiment,HHHHH,3,odd,55886,13080,NA,NA,55384,4128,NA,NA,56960,NA,4138,NA,NA,57063,57588,56958,57063,Flankertask,21,13815,25,yes,1024
80.76923077,80.76923077,545.6153846,545.6153846,black,legacy,legacy,legacy,0,incongruent,uniform,0,undefined,0,s,25,0,0,0,25,0,25,0,25,NA,0,0,0,25,25,25,25,9/25/19 11:59,1500,The main experiment item,yes,BR-Flankertask.osexp,C:/Users/Breena Riley/Desktop/2019 Fall/MultQuant/lab 2.1,no,mono,no,18,no,white,no,yes,768,legacy,25,25,C:/Users/Breena Riley/Desktop/2019 Fall/MultQuant/lab 2.1/subject-3.csv,legacy,Kafkaesque Koffka,3.2.8,0,h,NA,NA,s,NA,NA,h,371,NA,NA,8941,NA,NA,371,2,legacy,1024,2,48000,-16,experiment,HHSHH,3,odd,57596,13080,NA,NA,55384,4128,NA,NA,58672,NA,4138,NA,NA,58773,59144,58669,58773,Flankertask,21,14186,26,yes,1024
81.48148148,81.48148148,540.8888889,540.8888889,black,legacy,legacy,legacy,0,congruent,uniform,1,undefined,1,s,26,0,0,0,26,0,26,0,26,NA,0,0,0,26,26,26,26,9/25/19 11:59,1500,The main experiment item,yes,BR-Flankertask.osexp,C:/Users/Breena Riley/Desktop/2019 Fall/MultQuant/lab 2.1,no,mono,no,18,no,white,no,yes,768,legacy,26,26,C:/Users/Breena Riley/Desktop/2019 Fall/MultQuant/lab 2.1/subject-3.csv,legacy,Kafkaesque Koffka,3.2.8,0,s,NA,NA,s,NA,NA,s,418,NA,NA,8941,NA,NA,418,2,legacy,1024,2,48000,-16,experiment,SSSSS,3,odd,59654,13080,NA,NA,59153,4128,NA,NA,60728,NA,4138,NA,NA,60830,61248,60726,60829,Flankertask,22,14604,27,yes,1024
82.14285714,82.14285714,535.6428571,535.6428571,black,legacy,legacy,legacy,0,congruent,uniform,1,undefined,1,s,27,0,0,0,27,0,27,0,27,NA,0,0,0,27,27,27,27,9/25/19 11:59,1500,The main experiment item,yes,BR-Flankertask.osexp,C:/Users/Breena Riley/Desktop/2019 Fall/MultQuant/lab 2.1,no,mono,no,18,no,white,no,yes,768,legacy,27,27,C:/Users/Breena Riley/Desktop/2019 Fall/MultQuant/lab 2.1/subject-3.csv,legacy,Kafkaesque Koffka,3.2.8,0,s,NA,NA,s,NA,NA,s,394,NA,NA,8941,NA,NA,394,2,legacy,1024,2,48000,-16,experiment,SSSSS,3,odd,61256,13080,NA,NA,59153,4128,NA,NA,62328,NA,4138,NA,NA,62430,62825,62325,62429,Flankertask,23,14998,28,yes,1024
82.75862069,82.75862069,535.4137931,535.4137931,black,legacy,legacy,legacy,0,incongruent,uniform,1,undefined,1,s,28,0,0,0,28,0,28,0,28,NA,0,0,0,28,28,28,28,9/25/19 11:59,1500,The main experiment item,yes,BR-Flankertask.osexp,C:/Users/Breena Riley/Desktop/2019 Fall/MultQuant/lab 2.1,no,mono,no,18,no,white,no,yes,768,legacy,28,28,C:/Users/Breena Riley/Desktop/2019 Fall/MultQuant/lab 2.1/subject-3.csv,legacy,Kafkaesque Koffka,3.2.8,0,s,NA,NA,s,NA,NA,s,529,NA,NA,8941,NA,NA,529,2,legacy,1024,2,48000,-16,experiment,HHSHH,3,odd,62834,13080,NA,NA,59153,4128,NA,NA,63927,NA,4138,NA,NA,64028,64557,63923,64028,Flankertask,24,15527,29,yes,1024
83.33333333,83.33333333,533.2666667,533.2666667,black,legacy,legacy,legacy,0,incongruent,uniform,1,undefined,1,s,29,0,0,0,29,0,29,0,29,NA,0,0,0,29,29,29,29,9/25/19 11:59,1500,The main experiment item,yes,BR-Flankertask.osexp,C:/Users/Breena Riley/Desktop/2019 Fall/MultQuant/lab 2.1,no,mono,no,18,no,white,no,yes,768,legacy,29,29,C:/Users/Breena Riley/Desktop/2019 Fall/MultQuant/lab 2.1/subject-3.csv,legacy,Kafkaesque Koffka,3.2.8,0,s,NA,NA,s,NA,NA,s,471,NA,NA,8941,NA,NA,471,2,legacy,1024,2,48000,-16,experiment,HHSHH,3,odd,64565,13080,NA,NA,59153,4128,NA,NA,65644,NA,4138,NA,NA,65745,66216,65641,65745,Flankertask,25,15998,30,yes,1024
83.87096774,83.87096774,543.2580645,543.2580645,black,legacy,legacy,legacy,0,incongruent,uniform,1,undefined,1,h,30,0,0,0,30,0,30,0,30,NA,0,0,0,30,30,30,30,9/25/19 11:59,1500,The main experiment item,yes,BR-Flankertask.osexp,C:/Users/Breena Riley/Desktop/2019 Fall/MultQuant/lab 2.1,no,mono,no,18,no,white,no,yes,768,legacy,30,30,C:/Users/Breena Riley/Desktop/2019 Fall/MultQuant/lab 2.1/subject-3.csv,legacy,Kafkaesque Koffka,3.2.8,0,h,NA,NA,s,NA,NA,h,843,NA,NA,8941,NA,NA,843,2,legacy,1024,2,48000,-16,experiment,SSHSS,3,odd,66225,13080,NA,NA,59153,4128,NA,NA,67300,NA,4138,NA,NA,67401,68245,67297,67401,Flankertask,26,16841,31,yes,1024
84.375,84.375,552.5,552.5,black,legacy,legacy,legacy,0,incongruent,uniform,1,undefined,1,h,31,0,0,0,31,0,31,0,31,NA,0,0,0,31,31,31,31,9/25/19 11:59,1500,The main experiment item,yes,BR-Flankertask.osexp,C:/Users/Breena Riley/Desktop/2019 Fall/MultQuant/lab 2.1,no,mono,no,18,no,white,no,yes,768,legacy,31,31,C:/Users/Breena Riley/Desktop/2019 Fall/MultQuant/lab 2.1/subject-3.csv,legacy,Kafkaesque Koffka,3.2.8,0,h,NA,NA,s,NA,NA,h,839,NA,NA,8941,NA,NA,839,2,legacy,1024,2,48000,-16,experiment,SSHSS,3,odd,68253,13080,NA,NA,59153,4128,NA,NA,69332,NA,4138,NA,NA,69433,70272,69329,69433,Flankertask,27,17680,32,yes,1024
84.84848485,84.84848485,551.3636364,551.3636364,black,legacy,legacy,legacy,0,incongruent,uniform,1,undefined,1,h,32,0,0,0,32,0,32,0,32,NA,0,0,0,32,32,32,32,9/25/19 11:59,1500,The main experiment item,yes,BR-Flankertask.osexp,C:/Users/Breena Riley/Desktop/2019 Fall/MultQuant/lab 2.1,no,mono,no,18,no,white,no,yes,768,legacy,32,32,C:/Users/Breena Riley/Desktop/2019 Fall/MultQuant/lab 2.1/subject-3.csv,legacy,Kafkaesque Koffka,3.2.8,0,h,NA,NA,s,NA,NA,h,515,NA,NA,8941,NA,NA,515,2,legacy,1024,2,48000,-16,experiment,SSHSS,3,odd,70281,13080,NA,NA,59153,4128,NA,NA,71356,NA,4138,NA,NA,71457,71972,71354,71457,Flankertask,28,18195,33,yes,1024
85.29411765,85.29411765,558.2352941,558.2352941,black,legacy,legacy,legacy,0,incongruent,uniform,1,undefined,1,s,33,0,0,0,33,0,33,0,33,NA,0,0,0,33,33,33,33,9/25/19 11:59,1500,The main experiment item,yes,BR-Flankertask.osexp,C:/Users/Breena Riley/Desktop/2019 Fall/MultQuant/lab 2.1,no,mono,no,18,no,white,no,yes,768,legacy,33,33,C:/Users/Breena Riley/Desktop/2019 Fall/MultQuant/lab 2.1/subject-3.csv,legacy,Kafkaesque Koffka,3.2.8,0,s,NA,NA,s,NA,NA,s,785,NA,NA,8941,NA,NA,785,2,legacy,1024,2,48000,-16,experiment,HHSHH,3,odd,71980,13080,NA,NA,59153,4128,NA,NA,73056,NA,4138,NA,NA,73158,73944,73053,73157,Flankertask,29,18980,34,yes,1024
85.71428571,85.71428571,562.9714286,562.9714286,black,legacy,legacy,legacy,0,congruent,uniform,1,undefined,1,s,34,0,0,0,34,0,34,0,34,NA,0,0,0,34,34,34,34,9/25/19 11:59,1500,The main experiment item,yes,BR-Flankertask.osexp,C:/Users/Breena Riley/Desktop/2019 Fall/MultQuant/lab 2.1,no,mono,no,18,no,white,no,yes,768,legacy,34,34,C:/Users/Breena Riley/Desktop/2019 Fall/MultQuant/lab 2.1/subject-3.csv,legacy,Kafkaesque Koffka,3.2.8,0,s,NA,NA,s,NA,NA,s,724,NA,NA,8941,NA,NA,724,2,legacy,1024,2,48000,-16,experiment,SSSSS,3,odd,73952,13080,NA,NA,59153,4128,NA,NA,75026,NA,4138,NA,NA,75127,75852,75024,75127,Flankertask,30,19704,35,yes,1024
86.11111111,86.11111111,563.2222222,563.2222222,black,legacy,legacy,legacy,0,congruent,uniform,1,undefined,1,h,35,0,0,0,35,0,35,0,35,NA,0,0,0,35,35,35,35,9/25/19 11:59,1500,The main experiment item,yes,BR-Flankertask.osexp,C:/Users/Breena Riley/Desktop/2019 Fall/MultQuant/lab 2.1,no,mono,no,18,no,white,no,yes,768,legacy,35,35,C:/Users/Breena Riley/Desktop/2019 Fall/MultQuant/lab 2.1/subject-3.csv,legacy,Kafkaesque Koffka,3.2.8,0,h,NA,NA,s,NA,NA,h,572,NA,NA,8941,NA,NA,572,2,legacy,1024,2,48000,-16,experiment,HHHHH,3,odd,75860,13080,NA,NA,59153,4128,NA,NA,76945,NA,4138,NA,NA,77046,77619,76942,77046,Flankertask,31,20276,36,yes,1024
86.48648649,86.48648649,562.9459459,562.9459459,black,legacy,legacy,legacy,0,congruent,uniform,1,undefined,1,s,36,0,0,0,36,0,36,0,36,NA,0,0,0,36,36,36,36,9/25/19 11:59,1500,The main experiment item,yes,BR-Flankertask.osexp,C:/Users/Breena Riley/Desktop/2019 Fall/MultQuant/lab 2.1,no,mono,no,18,no,white,no,yes,768,legacy,36,36,C:/Users/Breena Riley/Desktop/2019 Fall/MultQuant/lab 2.1/subject-3.csv,legacy,Kafkaesque Koffka,3.2.8,0,s,NA,NA,s,NA,NA,s,553,NA,NA,8941,NA,NA,553,2,legacy,1024,2,48000,-16,experiment,SSSSS,3,odd,77627,13080,NA,NA,59153,4128,NA,NA,78702,NA,4138,NA,NA,78803,79357,78699,78803,Flankertask,32,20829,37,yes,1024
84.21052632,84.21052632,549.1842105,549.1842105,black,legacy,legacy,legacy,0,congruent,uniform,0,undefined,0,s,37,0,0,0,37,0,37,0,37,NA,0,0,0,37,37,37,37,9/25/19 11:59,1500,The main experiment item,yes,BR-Flankertask.osexp,C:/Users/Breena Riley/Desktop/2019 Fall/MultQuant/lab 2.1,no,mono,no,18,no,white,no,yes,768,legacy,37,37,C:/Users/Breena Riley/Desktop/2019 Fall/MultQuant/lab 2.1/subject-3.csv,legacy,Kafkaesque Koffka,3.2.8,0,h,NA,NA,s,NA,NA,h,40,NA,NA,8941,NA,NA,40,2,legacy,1024,2,48000,-16,experiment,SSSSS,3,odd,79365,13080,NA,NA,59153,4128,NA,NA,80441,NA,4138,NA,NA,80543,80584,80438,80543,Flankertask,32,20869,38,yes,1024
82.05128205,82.05128205,550.0512821,550.0512821,black,legacy,legacy,legacy,0,incongruent,uniform,0,undefined,0,s,38,0,0,0,38,0,38,0,38,NA,0,0,0,38,38,38,38,9/25/19 11:59,1500,The main experiment item,yes,BR-Flankertask.osexp,C:/Users/Breena Riley/Desktop/2019 Fall/MultQuant/lab 2.1,no,mono,no,18,no,white,no,yes,768,legacy,38,38,C:/Users/Breena Riley/Desktop/2019 Fall/MultQuant/lab 2.1/subject-3.csv,legacy,Kafkaesque Koffka,3.2.8,0,h,NA,NA,s,NA,NA,h,583,NA,NA,8941,NA,NA,583,2,legacy,1024,2,48000,-16,experiment,HHSHH,3,odd,81095,13080,NA,NA,80593,4128,NA,NA,82170,NA,4138,NA,NA,82272,82856,82168,82272,Flankertask,32,21452,39,yes,1024
82.5,82.5,551.325,551.325,black,legacy,legacy,legacy,0,congruent,uniform,1,undefined,1,h,39,0,0,0,39,0,39,0,39,NA,0,0,0,39,39,39,39,9/25/19 11:59,1500,The main experiment item,yes,BR-Flankertask.osexp,C:/Users/Breena Riley/Desktop/2019 Fall/MultQuant/lab 2.1,no,mono,no,18,no,white,no,yes,768,legacy,39,39,C:/Users/Breena Riley/Desktop/2019 Fall/MultQuant/lab 2.1/subject-3.csv,legacy,Kafkaesque Koffka,3.2.8,0,h,NA,NA,s,NA,NA,h,601,NA,NA,8941,NA,NA,601,2,legacy,1024,2,48000,-16,experiment,HHHHH,3,odd,83365,13080,NA,NA,82864,4128,NA,NA,84440,NA,4138,NA,NA,84541,85143,84437,84541,Flankertask,33,22053,40,yes,1024
82.92682927,82.92682927,555.4146341,555.4146341,black,legacy,legacy,legacy,0,incongruent,uniform,1,undefined,1,s,40,0,0,0,40,0,40,0,40,NA,0,0,0,40,40,40,40,9/25/19 11:59,1500,The main experiment item,yes,BR-Flankertask.osexp,C:/Users/Breena Riley/Desktop/2019 Fall/MultQuant/lab 2.1,no,mono,no,18,no,white,no,yes,768,legacy,40,40,C:/Users/Breena Riley/Desktop/2019 Fall/MultQuant/lab 2.1/subject-3.csv,legacy,Kafkaesque Koffka,3.2.8,0,s,NA,NA,s,NA,NA,s,719,NA,NA,8941,NA,NA,719,2,legacy,1024,2,48000,-16,experiment,HHSHH,3,odd,85152,13080,NA,NA,82864,4128,NA,NA,86229,NA,4138,NA,NA,86331,87050,86226,86331,Flankertask,34,22772,41,yes,1024
83.33333333,83.33333333,553.2380952,553.2380952,black,legacy,legacy,legacy,0,congruent,uniform,1,undefined,1,h,41,0,0,0,41,0,41,0,41,NA,0,0,0,41,41,41,41,9/25/19 11:59,1500,The main experiment item,yes,BR-Flankertask.osexp,C:/Users/Breena Riley/Desktop/2019 Fall/MultQuant/lab 2.1,no,mono,no,18,no,white,no,yes,768,legacy,41,41,C:/Users/Breena Riley/Desktop/2019 Fall/MultQuant/lab 2.1/subject-3.csv,legacy,Kafkaesque Koffka,3.2.8,0,h,NA,NA,s,NA,NA,h,464,NA,NA,8941,NA,NA,464,2,legacy,1024,2,48000,-16,experiment,HHHHH,3,odd,87058,13080,NA,NA,82864,4128,NA,NA,88154,NA,4138,NA,NA,88256,88720,88151,88256,Flankertask,35,23236,42,yes,1024
83.72093023,83.72093023,550.4651163,550.4651163,black,legacy,legacy,legacy,0,congruent,uniform,1,undefined,1,h,42,0,0,0,42,0,42,0,42,NA,0,0,0,42,42,42,42,9/25/19 11:59,1500,The main experiment item,yes,BR-Flankertask.osexp,C:/Users/Breena Riley/Desktop/2019 Fall/MultQuant/lab 2.1,no,mono,no,18,no,white,no,yes,768,legacy,42,42,C:/Users/Breena Riley/Desktop/2019 Fall/MultQuant/lab 2.1/subject-3.csv,legacy,Kafkaesque Koffka,3.2.8,0,h,NA,NA,s,NA,NA,h,434,NA,NA,8941,NA,NA,434,2,legacy,1024,2,48000,-16,experiment,HHHHH,3,odd,88728,13080,NA,NA,82864,4128,NA,NA,89804,NA,4138,NA,NA,89905,90340,89801,89905,Flankertask,36,23670,43,yes,1024
84.09090909,84.09090909,548.6363636,548.6363636,black,legacy,legacy,legacy,0,congruent,uniform,1,undefined,1,s,43,0,0,0,43,0,43,0,43,NA,0,0,0,43,43,43,43,9/25/19 11:59,1500,The main experiment item,yes,BR-Flankertask.osexp,C:/Users/Breena Riley/Desktop/2019 Fall/MultQuant/lab 2.1,no,mono,no,18,no,white,no,yes,768,legacy,43,43,C:/Users/Breena Riley/Desktop/2019 Fall/MultQuant/lab 2.1/subject-3.csv,legacy,Kafkaesque Koffka,3.2.8,0,s,NA,NA,s,NA,NA,s,470,NA,NA,8941,NA,NA,470,2,legacy,1024,2,48000,-16,experiment,SSSSS,3,odd,90349,13080,NA,NA,82864,4128,NA,NA,91422,NA,4138,NA,NA,91523,91994,91419,91523,Flankertask,37,24140,44,yes,1024
84.44444444,84.44444444,546.4666667,546.4666667,black,legacy,legacy,legacy,0,congruent,uniform,1,undefined,1,s,44,0,0,0,44,0,44,0,44,NA,0,0,0,44,44,44,44,9/25/19 11:59,1500,The main experiment item,yes,BR-Flankertask.osexp,C:/Users/Breena Riley/Desktop/2019 Fall/MultQuant/lab 2.1,no,mono,no,18,no,white,no,yes,768,legacy,44,44,C:/Users/Breena Riley/Desktop/2019 Fall/MultQuant/lab 2.1/subject-3.csv,legacy,Kafkaesque Koffka,3.2.8,0,s,NA,NA,s,NA,NA,s,451,NA,NA,8941,NA,NA,451,2,legacy,1024,2,48000,-16,experiment,SSSSS,3,odd,92001,13080,NA,NA,82864,4128,NA,NA,93081,NA,4138,NA,NA,93183,93634,93079,93183,Flankertask,38,24591,45,yes,1024
82.60869565,82.60869565,545.4130435,545.4130435,black,legacy,legacy,legacy,0,incongruent,uniform,0,undefined,0,s,45,0,0,0,45,0,45,0,45,NA,0,0,0,45,45,45,45,9/25/19 11:59,1500,The main experiment item,yes,BR-Flankertask.osexp,C:/Users/Breena Riley/Desktop/2019 Fall/MultQuant/lab 2.1,no,mono,no,18,no,white,no,yes,768,legacy,45,45,C:/Users/Breena Riley/Desktop/2019 Fall/MultQuant/lab 2.1/subject-3.csv,legacy,Kafkaesque Koffka,3.2.8,0,h,NA,NA,s,NA,NA,h,498,NA,NA,8941,NA,NA,498,2,legacy,1024,2,48000,-16,experiment,HHSHH,3,odd,93642,13080,NA,NA,82864,4128,NA,NA,94717,NA,4138,NA,NA,94817,95316,94714,94817,Flankertask,38,25089,46,yes,1024
82.9787234,82.9787234,546.0425532,546.0425532,black,legacy,legacy,legacy,0,incongruent,uniform,1,undefined,1,s,46,0,0,0,46,0,46,0,46,NA,0,0,0,46,46,46,46,9/25/19 11:59,1500,The main experiment item,yes,BR-Flankertask.osexp,C:/Users/Breena Riley/Desktop/2019 Fall/MultQuant/lab 2.1,no,mono,no,18,no,white,no,yes,768,legacy,46,46,C:/Users/Breena Riley/Desktop/2019 Fall/MultQuant/lab 2.1/subject-3.csv,legacy,Kafkaesque Koffka,3.2.8,0,s,NA,NA,s,NA,NA,s,575,NA,NA,8941,NA,NA,575,2,legacy,1024,2,48000,-16,experiment,HHSHH,3,odd,95824,13080,NA,NA,95323,4128,NA,NA,96909,NA,4138,NA,NA,97011,97587,96906,97010,Flankertask,39,25664,47,yes,1024
83.33333333,83.33333333,552,552,black,legacy,legacy,legacy,0,incongruent,uniform,1,undefined,1,h,47,0,0,0,47,0,47,0,47,NA,0,0,0,47,47,47,47,9/25/19 11:59,1500,The main experiment item,yes,BR-Flankertask.osexp,C:/Users/Breena Riley/Desktop/2019 Fall/MultQuant/lab 2.1,no,mono,no,18,no,white,no,yes,768,legacy,47,47,C:/Users/Breena Riley/Desktop/2019 Fall/MultQuant/lab 2.1/subject-3.csv,legacy,Kafkaesque Koffka,3.2.8,0,h,NA,NA,s,NA,NA,h,832,NA,NA,8941,NA,NA,832,2,legacy,1024,2,48000,-16,experiment,SSHSS,3,odd,97594,13080,NA,NA,95323,4128,NA,NA,98670,NA,4138,NA,NA,98771,99604,98667,98771,Flankertask,40,26496,48,yes,1024
83.67346939,83.67346939,551.7346939,551.7346939,black,legacy,legacy,legacy,0,incongruent,uniform,1,undefined,1,s,48,0,0,0,48,0,48,0,48,NA,0,0,0,48,48,48,48,9/25/19 11:59,1500,The main experiment item,yes,BR-Flankertask.osexp,C:/Users/Breena Riley/Desktop/2019 Fall/MultQuant/lab 2.1,no,mono,no,18,no,white,no,yes,768,legacy,48,48,C:/Users/Breena Riley/Desktop/2019 Fall/MultQuant/lab 2.1/subject-3.csv,legacy,Kafkaesque Koffka,3.2.8,0,s,NA,NA,s,NA,NA,s,539,NA,NA,8941,NA,NA,539,2,legacy,1024,2,48000,-16,experiment,HHSHH,3,odd,99612,13080,NA,NA,95323,4128,NA,NA,100689,NA,4138,NA,NA,100790,101329,100686,100790,Flankertask,41,27035,49,yes,1024
84,84,549.3,549.3,black,legacy,legacy,legacy,0,congruent,uniform,1,undefined,1,s,49,0,0,0,49,0,49,0,49,NA,0,0,0,49,49,49,49,9/25/19 11:59,1500,The main experiment item,yes,BR-Flankertask.osexp,C:/Users/Breena Riley/Desktop/2019 Fall/MultQuant/lab 2.1,no,mono,no,18,no,white,no,yes,768,legacy,49,49,C:/Users/Breena Riley/Desktop/2019 Fall/MultQuant/lab 2.1/subject-3.csv,legacy,Kafkaesque Koffka,3.2.8,0,s,NA,NA,s,NA,NA,s,430,NA,NA,8941,NA,NA,430,2,legacy,1024,2,48000,-16,experiment,SSSSS,3,odd,101337,13080,NA,NA,95323,4128,NA,NA,102412,NA,4138,NA,NA,102513,102944,102410,102513,Flankertask,42,27465,50,yes,1024
84.31372549,84.31372549,549.4901961,549.4901961,black,legacy,legacy,legacy,0,incongruent,uniform,1,undefined,1,h,50,0,0,0,50,0,50,0,50,NA,0,0,0,50,50,50,50,9/25/19 11:59,1500,The main experiment item,yes,BR-Flankertask.osexp,C:/Users/Breena Riley/Desktop/2019 Fall/MultQuant/lab 2.1,no,mono,no,18,no,white,no,yes,768,legacy,50,50,C:/Users/Breena Riley/Desktop/2019 Fall/MultQuant/lab 2.1/subject-3.csv,legacy,Kafkaesque Koffka,3.2.8,0,h,NA,NA,s,NA,NA,h,559,NA,NA,8941,NA,NA,559,2,legacy,1024,2,48000,-16,experiment,SSHSS,3,odd,102955,13080,NA,NA,95323,4128,NA,NA,104028,NA,4138,NA,NA,104129,104688,104026,104129,Flankertask,43,28024,51,yes,1024
84.61538462,84.61538462,551.0192308,551.0192308,black,legacy,legacy,legacy,0,incongruent,uniform,1,undefined,1,h,51,0,0,0,51,0,51,0,51,NA,0,0,0,51,51,51,51,9/25/19 11:59,1500,The main experiment item,yes,BR-Flankertask.osexp,C:/Users/Breena Riley/Desktop/2019 Fall/MultQuant/lab 2.1,no,mono,no,18,no,white,no,yes,768,legacy,51,51,C:/Users/Breena Riley/Desktop/2019 Fall/MultQuant/lab 2.1/subject-3.csv,legacy,Kafkaesque Koffka,3.2.8,0,h,NA,NA,s,NA,NA,h,629,NA,NA,8941,NA,NA,629,2,legacy,1024,2,48000,-16,experiment,SSHSS,3,odd,104697,13080,NA,NA,95323,4128,NA,NA,105773,NA,4138,NA,NA,105874,106504,105770,105874,Flankertask,44,28653,52,yes,1024
84.90566038,84.90566038,549.1886792,549.1886792,black,legacy,legacy,legacy,0,congruent,uniform,1,undefined,1,s,52,0,0,0,52,0,52,0,52,NA,0,0,0,52,52,52,52,9/25/19 11:59,1500,The main experiment item,yes,BR-Flankertask.osexp,C:/Users/Breena Riley/Desktop/2019 Fall/MultQuant/lab 2.1,no,mono,no,18,no,white,no,yes,768,legacy,52,52,C:/Users/Breena Riley/Desktop/2019 Fall/MultQuant/lab 2.1/subject-3.csv,legacy,Kafkaesque Koffka,3.2.8,0,s,NA,NA,s,NA,NA,s,454,NA,NA,8941,NA,NA,454,2,legacy,1024,2,48000,-16,experiment,SSSSS,3,odd,106512,13080,NA,NA,95323,4128,NA,NA,107585,NA,4138,NA,NA,107686,108140,107582,107686,Flankertask,45,29107,53,yes,1024
85.18518519,85.18518519,545.9814815,545.9814815,black,legacy,legacy,legacy,0,congruent,uniform,1,undefined,1,h,53,0,0,0,53,0,53,0,53,NA,0,0,0,53,53,53,53,9/25/19 11:59,1500,The main experiment item,yes,BR-Flankertask.osexp,C:/Users/Breena Riley/Desktop/2019 Fall/MultQuant/lab 2.1,no,mono,no,18,no,white,no,yes,768,legacy,53,53,C:/Users/Breena Riley/Desktop/2019 Fall/MultQuant/lab 2.1/subject-3.csv,legacy,Kafkaesque Koffka,3.2.8,0,h,NA,NA,s,NA,NA,h,376,NA,NA,8941,NA,NA,376,2,legacy,1024,2,48000,-16,experiment,HHHHH,3,odd,108148,13080,NA,NA,95323,4128,NA,NA,109222,NA,4138,NA,NA,109323,109700,109219,109323,Flankertask,46,29483,54,yes,1024
85.45454545,85.45454545,545.6909091,545.6909091,black,legacy,legacy,legacy,0,incongruent,uniform,1,undefined,1,s,54,0,0,0,54,0,54,0,54,NA,0,0,0,54,54,54,54,9/25/19 11:59,1500,The main experiment item,yes,BR-Flankertask.osexp,C:/Users/Breena Riley/Desktop/2019 Fall/MultQuant/lab 2.1,no,mono,no,18,no,white,no,yes,768,legacy,54,54,C:/Users/Breena Riley/Desktop/2019 Fall/MultQuant/lab 2.1/subject-3.csv,legacy,Kafkaesque Koffka,3.2.8,0,s,NA,NA,s,NA,NA,s,530,NA,NA,8941,NA,NA,530,2,legacy,1024,2,48000,-16,experiment,HHSHH,3,odd,109708,13080,NA,NA,95323,4128,NA,NA,110783,NA,4138,NA,NA,110885,111416,110780,110885,Flankertask,47,30013,55,yes,1024
85.71428571,85.71428571,544.7142857,544.7142857,black,legacy,legacy,legacy,0,congruent,uniform,1,undefined,1,s,55,0,0,0,55,0,55,0,55,NA,0,0,0,55,55,55,55,9/25/19 11:59,1500,The main experiment item,yes,BR-Flankertask.osexp,C:/Users/Breena Riley/Desktop/2019 Fall/MultQuant/lab 2.1,no,mono,no,18,no,white,no,yes,768,legacy,55,55,C:/Users/Breena Riley/Desktop/2019 Fall/MultQuant/lab 2.1/subject-3.csv,legacy,Kafkaesque Koffka,3.2.8,0,s,NA,NA,s,NA,NA,s,491,NA,NA,8941,NA,NA,491,2,legacy,1024,2,48000,-16,experiment,SSSSS,3,odd,111424,13080,NA,NA,95323,4128,NA,NA,112497,NA,4138,NA,NA,112598,113089,112494,112598,Flankertask,48,30504,56,yes,1024
85.96491228,85.96491228,541.3859649,541.3859649,black,legacy,legacy,legacy,0,congruent,uniform,1,undefined,1,h,56,0,0,0,56,0,56,0,56,NA,0,0,0,56,56,56,56,9/25/19 11:59,1500,The main experiment item,yes,BR-Flankertask.osexp,C:/Users/Breena Riley/Desktop/2019 Fall/MultQuant/lab 2.1,no,mono,no,18,no,white,no,yes,768,legacy,56,56,C:/Users/Breena Riley/Desktop/2019 Fall/MultQuant/lab 2.1/subject-3.csv,legacy,Kafkaesque Koffka,3.2.8,0,h,NA,NA,s,NA,NA,h,355,NA,NA,8941,NA,NA,355,2,legacy,1024,2,48000,-16,experiment,HHHHH,3,odd,113098,13080,NA,NA,95323,4128,NA,NA,114173,NA,4138,NA,NA,114274,114630,114170,114274,Flankertask,49,30859,57,yes,1024
84.48275862,84.48275862,538.1724138,538.1724138,black,legacy,legacy,legacy,0,incongruent,uniform,0,undefined,0,h,57,0,0,0,57,0,57,0,57,NA,0,0,0,57,57,57,57,9/25/19 11:59,1500,The main experiment item,yes,BR-Flankertask.osexp,C:/Users/Breena Riley/Desktop/2019 Fall/MultQuant/lab 2.1,no,mono,no,18,no,white,no,yes,768,legacy,57,57,C:/Users/Breena Riley/Desktop/2019 Fall/MultQuant/lab 2.1/subject-3.csv,legacy,Kafkaesque Koffka,3.2.8,0,s,NA,NA,s,NA,NA,s,355,NA,NA,8941,NA,NA,355,2,legacy,1024,2,48000,-16,experiment,SSHSS,3,odd,114638,13080,NA,NA,95323,4128,NA,NA,115714,NA,4138,NA,NA,115815,116171,115711,115815,Flankertask,49,31214,58,yes,1024
83.05084746,83.05084746,539.0338983,539.0338983,black,legacy,legacy,legacy,0,incongruent,uniform,0,undefined,0,h,58,0,0,0,58,0,58,0,58,NA,0,0,0,58,58,58,58,9/25/19 11:59,1500,The main experiment item,yes,BR-Flankertask.osexp,C:/Users/Breena Riley/Desktop/2019 Fall/MultQuant/lab 2.1,no,mono,no,18,no,white,no,yes,768,legacy,58,58,C:/Users/Breena Riley/Desktop/2019 Fall/MultQuant/lab 2.1/subject-3.csv,legacy,Kafkaesque Koffka,3.2.8,0,s,NA,NA,s,NA,NA,s,589,NA,NA,8941,NA,NA,589,2,legacy,1024,2,48000,-16,experiment,SSHSS,3,odd,116680,13080,NA,NA,116179,4128,NA,NA,117753,NA,4138,NA,NA,117854,118444,117751,117854,Flankertask,49,31803,59,yes,1024
83.33333333,83.33333333,542.15,542.15,black,legacy,legacy,legacy,0,congruent,uniform,1,undefined,1,s,59,0,0,0,59,0,59,0,59,NA,0,0,0,59,59,59,59,9/25/19 11:59,1500,The main experiment item,yes,BR-Flankertask.osexp,C:/Users/Breena Riley/Desktop/2019 Fall/MultQuant/lab 2.1,no,mono,no,18,no,white,no,yes,768,legacy,59,59,C:/Users/Breena Riley/Desktop/2019 Fall/MultQuant/lab 2.1/subject-3.csv,legacy,Kafkaesque Koffka,3.2.8,0,s,NA,NA,s,NA,NA,s,726,NA,NA,8941,NA,NA,726,2,legacy,1024,2,48000,-16,experiment,SSSSS,3,odd,118953,13080,NA,NA,118452,4128,NA,NA,120029,NA,4138,NA,NA,120130,120857,120026,120130,Flankertask,50,32529,60,yes,1024
83.60655738,83.60655738,544.3278689,544.3278689,black,legacy,legacy,legacy,0,incongruent,uniform,1,undefined,1,h,60,0,0,0,60,0,60,0,60,NA,0,0,0,60,60,60,60,9/25/19 11:59,1500,The main experiment item,yes,BR-Flankertask.osexp,C:/Users/Breena Riley/Desktop/2019 Fall/MultQuant/lab 2.1,no,mono,no,18,no,white,no,yes,768,legacy,60,60,C:/Users/Breena Riley/Desktop/2019 Fall/MultQuant/lab 2.1/subject-3.csv,legacy,Kafkaesque Koffka,3.2.8,0,h,NA,NA,s,NA,NA,h,675,NA,NA,8941,NA,NA,675,2,legacy,1024,2,48000,-16,experiment,SSHSS,3,odd,120865,13080,NA,NA,118452,4128,NA,NA,121945,NA,4138,NA,NA,122046,122722,121943,122046,Flankertask,51,33204,61,yes,1024
83.87096774,83.87096774,543.2096774,543.2096774,black,legacy,legacy,legacy,0,incongruent,uniform,1,undefined,1,h,61,0,0,0,61,0,61,0,61,NA,0,0,0,61,61,61,61,9/25/19 11:59,1500,The main experiment item,yes,BR-Flankertask.osexp,C:/Users/Breena Riley/Desktop/2019 Fall/MultQuant/lab 2.1,no,mono,no,18,no,white,no,yes,768,legacy,61,61,C:/Users/Breena Riley/Desktop/2019 Fall/MultQuant/lab 2.1/subject-3.csv,legacy,Kafkaesque Koffka,3.2.8,0,h,NA,NA,s,NA,NA,h,475,NA,NA,8941,NA,NA,475,2,legacy,1024,2,48000,-16,experiment,SSHSS,3,odd,122731,13080,NA,NA,118452,4128,NA,NA,123806,NA,4138,NA,NA,123908,124384,123804,123908,Flankertask,52,33679,62,yes,1024
84.12698413,84.12698413,540.6825397,540.6825397,black,legacy,legacy,legacy,0,incongruent,uniform,1,undefined,1,h,62,0,0,0,62,0,62,0,62,NA,0,0,0,62,62,62,62,9/25/19 11:59,1500,The main experiment item,yes,BR-Flankertask.osexp,C:/Users/Breena Riley/Desktop/2019 Fall/MultQuant/lab 2.1,no,mono,no,18,no,white,no,yes,768,legacy,62,62,C:/Users/Breena Riley/Desktop/2019 Fall/MultQuant/lab 2.1/subject-3.csv,legacy,Kafkaesque Koffka,3.2.8,0,h,NA,NA,s,NA,NA,h,384,NA,NA,8941,NA,NA,384,2,legacy,1024,2,48000,-16,experiment,SSHSS,3,odd,124392,13080,NA,NA,118452,4128,NA,NA,125466,NA,4138,NA,NA,125568,125953,125463,125568,Flankertask,53,34063,63,yes,1024
82.8125,82.8125,538.375,538.375,black,legacy,legacy,legacy,0,congruent,uniform,0,undefined,0,s,63,0,0,0,63,0,63,0,63,NA,0,0,0,63,63,63,63,9/25/19 11:59,1500,The main experiment item,yes,BR-Flankertask.osexp,C:/Users/Breena Riley/Desktop/2019 Fall/MultQuant/lab 2.1,no,mono,no,18,no,white,no,yes,768,legacy,63,63,C:/Users/Breena Riley/Desktop/2019 Fall/MultQuant/lab 2.1/subject-3.csv,legacy,Kafkaesque Koffka,3.2.8,0,h,NA,NA,s,NA,NA,h,393,NA,NA,8941,NA,NA,393,2,legacy,1024,2,48000,-16,experiment,SSSSS,3,odd,125961,13080,NA,NA,118452,4128,NA,NA,127035,NA,4138,NA,NA,127137,127530,127032,127137,Flankertask,53,34456,64,yes,1024
83.07692308,83.07692308,543.4923077,543.4923077,black,legacy,legacy,legacy,0,incongruent,uniform,1,undefined,1,s,64,0,0,0,64,0,64,0,64,NA,0,0,0,64,64,64,64,9/25/19 11:59,1500,The main experiment item,yes,BR-Flankertask.osexp,C:/Users/Breena Riley/Desktop/2019 Fall/MultQuant/lab 2.1,no,mono,no,18,no,white,no,yes,768,legacy,64,64,C:/Users/Breena Riley/Desktop/2019 Fall/MultQuant/lab 2.1/subject-3.csv,legacy,Kafkaesque Koffka,3.2.8,0,s,NA,NA,s,NA,NA,s,871,NA,NA,8941,NA,NA,871,2,legacy,1024,2,48000,-16,experiment,HHSHH,3,odd,128039,13080,NA,NA,127538,4128,NA,NA,129115,NA,4138,NA,NA,129217,130088,129112,129216,Flankertask,54,35327,65,yes,1024
83.33333333,83.33333333,544.2121212,544.2121212,black,legacy,legacy,legacy,0,incongruent,uniform,1,undefined,1,s,65,0,0,0,65,0,65,0,65,NA,0,0,0,65,65,65,65,9/25/19 11:59,1500,The main experiment item,yes,BR-Flankertask.osexp,C:/Users/Breena Riley/Desktop/2019 Fall/MultQuant/lab 2.1,no,mono,no,18,no,white,no,yes,768,legacy,65,65,C:/Users/Breena Riley/Desktop/2019 Fall/MultQuant/lab 2.1/subject-3.csv,legacy,Kafkaesque Koffka,3.2.8,0,s,NA,NA,s,NA,NA,s,591,NA,NA,8941,NA,NA,591,2,legacy,1024,2,48000,-16,experiment,HHSHH,3,odd,130093,13080,NA,NA,127538,4128,NA,NA,131168,NA,4138,NA,NA,131270,131862,131165,131269,Flankertask,55,35918,66,yes,1024
83.58208955,83.58208955,546.0447761,546.0447761,black,legacy,legacy,legacy,0,incongruent,uniform,1,undefined,1,h,66,0,0,0,66,0,66,0,66,NA,0,0,0,66,66,66,66,9/25/19 11:59,1500,The main experiment item,yes,BR-Flankertask.osexp,C:/Users/Breena Riley/Desktop/2019 Fall/MultQuant/lab 2.1,no,mono,no,18,no,white,no,yes,768,legacy,66,66,C:/Users/Breena Riley/Desktop/2019 Fall/MultQuant/lab 2.1/subject-3.csv,legacy,Kafkaesque Koffka,3.2.8,0,h,NA,NA,s,NA,NA,h,667,NA,NA,8941,NA,NA,667,2,legacy,1024,2,48000,-16,experiment,SSHSS,3,odd,131869,13080,NA,NA,127538,4128,NA,NA,132978,NA,4138,NA,NA,133080,133748,132975,133080,Flankertask,56,36585,67,yes,1024
83.82352941,83.82352941,545.9852941,545.9852941,black,legacy,legacy,legacy,0,congruent,uniform,1,undefined,1,h,67,0,0,0,67,0,67,0,67,NA,0,0,0,67,67,67,67,9/25/19 11:59,1500,The main experiment item,yes,BR-Flankertask.osexp,C:/Users/Breena Riley/Desktop/2019 Fall/MultQuant/lab 2.1,no,mono,no,18,no,white,no,yes,768,legacy,67,67,C:/Users/Breena Riley/Desktop/2019 Fall/MultQuant/lab 2.1/subject-3.csv,legacy,Kafkaesque Koffka,3.2.8,0,h,NA,NA,s,NA,NA,h,542,NA,NA,8941,NA,NA,542,2,legacy,1024,2,48000,-16,experiment,HHHHH,3,odd,133755,13080,NA,NA,127538,4128,NA,NA,134831,NA,4138,NA,NA,134932,135474,134828,134932,Flankertask,57,37127,68,yes,1024
84.05797101,84.05797101,554.9565217,554.9565217,black,legacy,legacy,legacy,0,incongruent,uniform,1,undefined,1,s,68,0,0,0,68,0,68,0,68,NA,0,0,0,68,68,68,68,9/25/19 11:59,1500,The main experiment item,yes,BR-Flankertask.osexp,C:/Users/Breena Riley/Desktop/2019 Fall/MultQuant/lab 2.1,no,mono,no,18,no,white,no,yes,768,legacy,68,68,C:/Users/Breena Riley/Desktop/2019 Fall/MultQuant/lab 2.1/subject-3.csv,legacy,Kafkaesque Koffka,3.2.8,0,s,NA,NA,s,NA,NA,s,1165,NA,NA,8941,NA,NA,1165,2,legacy,1024,2,48000,-16,experiment,HHSHH,3,odd,135483,13080,NA,NA,127538,4128,NA,NA,136559,NA,4138,NA,NA,136661,137827,136556,136661,Flankertask,58,38292,69,yes,1024
84.28571429,84.28571429,554.5,554.5,black,legacy,legacy,legacy,0,incongruent,uniform,1,undefined,1,s,69,0,0,0,69,0,69,0,69,NA,0,0,0,69,69,69,69,9/25/19 11:59,1500,The main experiment item,yes,BR-Flankertask.osexp,C:/Users/Breena Riley/Desktop/2019 Fall/MultQuant/lab 2.1,no,mono,no,18,no,white,no,yes,768,legacy,69,69,C:/Users/Breena Riley/Desktop/2019 Fall/MultQuant/lab 2.1/subject-3.csv,legacy,Kafkaesque Koffka,3.2.8,0,s,NA,NA,s,NA,NA,s,523,NA,NA,8941,NA,NA,523,2,legacy,1024,2,48000,-16,experiment,HHSHH,3,odd,137836,13080,NA,NA,127538,4128,NA,NA,138929,NA,4138,NA,NA,139030,139553,138926,139030,Flankertask,59,38815,70,yes,1024
84.50704225,84.50704225,553.3380282,553.3380282,black,legacy,legacy,legacy,0,congruent,uniform,1,undefined,1,s,70,0,0,0,70,0,70,0,70,NA,0,0,0,70,70,70,70,9/25/19 11:59,1500,The main experiment item,yes,BR-Flankertask.osexp,C:/Users/Breena Riley/Desktop/2019 Fall/MultQuant/lab 2.1,no,mono,no,18,no,white,no,yes,768,legacy,70,70,C:/Users/Breena Riley/Desktop/2019 Fall/MultQuant/lab 2.1/subject-3.csv,legacy,Kafkaesque Koffka,3.2.8,0,s,NA,NA,s,NA,NA,s,472,NA,NA,8941,NA,NA,472,2,legacy,1024,2,48000,-16,experiment,SSSSS,3,odd,139561,13080,NA,NA,127538,4128,NA,NA,140639,NA,4138,NA,NA,140740,141213,140637,140740,Flankertask,60,39287,71,yes,1024
83.33333333,83.33333333,553.5694444,553.5694444,black,legacy,legacy,legacy,0,incongruent,uniform,0,undefined,0,s,71,0,0,0,71,0,71,0,71,NA,0,0,0,71,71,71,71,9/25/19 11:59,1500,The main experiment item,yes,BR-Flankertask.osexp,C:/Users/Breena Riley/Desktop/2019 Fall/MultQuant/lab 2.1,no,mono,no,18,no,white,no,yes,768,legacy,71,71,C:/Users/Breena Riley/Desktop/2019 Fall/MultQuant/lab 2.1/subject-3.csv,legacy,Kafkaesque Koffka,3.2.8,0,h,NA,NA,s,NA,NA,h,570,NA,NA,8941,NA,NA,570,2,legacy,1024,2,48000,-16,experiment,HHSHH,3,odd,141220,13080,NA,NA,127538,4128,NA,NA,142294,NA,4138,NA,NA,142396,142967,142291,142396,Flankertask,60,39857,72,yes,1024
83.56164384,83.56164384,553.369863,553.369863,black,legacy,legacy,legacy,0,congruent,uniform,1,undefined,1,h,72,0,0,0,72,0,72,0,72,NA,0,0,0,72,72,72,72,9/25/19 11:59,1500,The main experiment item,yes,BR-Flankertask.osexp,C:/Users/Breena Riley/Desktop/2019 Fall/MultQuant/lab 2.1,no,mono,no,18,no,white,no,yes,768,legacy,72,72,C:/Users/Breena Riley/Desktop/2019 Fall/MultQuant/lab 2.1/subject-3.csv,legacy,Kafkaesque Koffka,3.2.8,0,h,NA,NA,s,NA,NA,h,539,NA,NA,8941,NA,NA,539,2,legacy,1024,2,48000,-16,experiment,HHHHH,3,odd,143476,13080,NA,NA,142975,4128,NA,NA,144548,NA,4138,NA,NA,144649,145188,144545,144649,Flankertask,61,40396,73,yes,1024
82.43243243,82.43243243,552.7972973,552.7972973,black,legacy,legacy,legacy,0,incongruent,uniform,0,undefined,0,h,73,0,0,0,73,0,73,0,73,NA,0,0,0,73,73,73,73,9/25/19 11:59,1500,The main experiment item,yes,BR-Flankertask.osexp,C:/Users/Breena Riley/Desktop/2019 Fall/MultQuant/lab 2.1,no,mono,no,18,no,white,no,yes,768,legacy,73,73,C:/Users/Breena Riley/Desktop/2019 Fall/MultQuant/lab 2.1/subject-3.csv,legacy,Kafkaesque Koffka,3.2.8,0,s,NA,NA,s,NA,NA,s,511,NA,NA,8941,NA,NA,511,2,legacy,1024,2,48000,-16,experiment,SSHSS,3,odd,145196,13080,NA,NA,142975,4128,NA,NA,146270,NA,4138,NA,NA,146372,146885,146268,146372,Flankertask,61,40907,74,yes,1024
82.66666667,82.66666667,552.44,552.44,black,legacy,legacy,legacy,0,congruent,uniform,1,undefined,1,h,74,0,0,0,74,0,74,0,74,NA,0,0,0,74,74,74,74,9/25/19 11:59,1500,The main experiment item,yes,BR-Flankertask.osexp,C:/Users/Breena Riley/Desktop/2019 Fall/MultQuant/lab 2.1,no,mono,no,18,no,white,no,yes,768,legacy,74,74,C:/Users/Breena Riley/Desktop/2019 Fall/MultQuant/lab 2.1/subject-3.csv,legacy,Kafkaesque Koffka,3.2.8,0,h,NA,NA,s,NA,NA,h,526,NA,NA,8941,NA,NA,526,2,legacy,1024,2,48000,-16,experiment,HHHHH,3,odd,147397,13080,NA,NA,146895,4128,NA,NA,148482,NA,4138,NA,NA,148584,149111,148480,148583,Flankertask,62,41433,75,yes,1024
82.89473684,82.89473684,551.5263158,551.5263158,black,legacy,legacy,legacy,0,congruent,uniform,1,undefined,1,h,75,0,0,0,75,0,75,0,75,NA,0,0,0,75,75,75,75,9/25/19 11:59,1500,The main experiment item,yes,BR-Flankertask.osexp,C:/Users/Breena Riley/Desktop/2019 Fall/MultQuant/lab 2.1,no,mono,no,18,no,white,no,yes,768,legacy,75,75,C:/Users/Breena Riley/Desktop/2019 Fall/MultQuant/lab 2.1/subject-3.csv,legacy,Kafkaesque Koffka,3.2.8,0,h,NA,NA,s,NA,NA,h,483,NA,NA,8941,NA,NA,483,2,legacy,1024,2,48000,-16,experiment,HHHHH,3,odd,149118,13080,NA,NA,146895,4128,NA,NA,150193,NA,4138,NA,NA,150294,150778,150190,150294,Flankertask,63,41916,76,yes,1024
83.11688312,83.11688312,550.7402597,550.7402597,black,legacy,legacy,legacy,0,congruent,uniform,1,undefined,1,h,76,0,0,0,76,0,76,0,76,NA,0,0,0,76,76,76,76,9/25/19 11:59,1500,The main experiment item,yes,BR-Flankertask.osexp,C:/Users/Breena Riley/Desktop/2019 Fall/MultQuant/lab 2.1,no,mono,no,18,no,white,no,yes,768,legacy,76,76,C:/Users/Breena Riley/Desktop/2019 Fall/MultQuant/lab 2.1/subject-3.csv,legacy,Kafkaesque Koffka,3.2.8,0,h,NA,NA,s,NA,NA,h,491,NA,NA,8941,NA,NA,491,2,legacy,1024,2,48000,-16,experiment,HHHHH,3,odd,150787,13080,NA,NA,146895,4128,NA,NA,151861,NA,4138,NA,NA,151962,152454,151858,151962,Flankertask,64,42407,77,yes,1024
83.33333333,83.33333333,549.2820513,549.2820513,black,legacy,legacy,legacy,0,incongruent,uniform,1,undefined,1,h,77,0,0,0,77,0,77,0,77,NA,0,0,0,77,77,77,77,9/25/19 11:59,1500,The main experiment item,yes,BR-Flankertask.osexp,C:/Users/Breena Riley/Desktop/2019 Fall/MultQuant/lab 2.1,no,mono,no,18,no,white,no,yes,768,legacy,77,77,C:/Users/Breena Riley/Desktop/2019 Fall/MultQuant/lab 2.1/subject-3.csv,legacy,Kafkaesque Koffka,3.2.8,0,h,NA,NA,s,NA,NA,h,437,NA,NA,8941,NA,NA,437,2,legacy,1024,2,48000,-16,experiment,SSHSS,3,odd,152462,13080,NA,NA,146895,4128,NA,NA,153534,NA,4138,NA,NA,153635,154073,153532,153635,Flankertask,65,42844,78,yes,1024
83.5443038,83.5443038,549.2278481,549.2278481,black,legacy,legacy,legacy,0,incongruent,uniform,1,undefined,1,s,78,0,0,0,78,0,78,0,78,NA,0,0,0,78,78,78,78,9/25/19 11:59,1500,The main experiment item,yes,BR-Flankertask.osexp,C:/Users/Breena Riley/Desktop/2019 Fall/MultQuant/lab 2.1,no,mono,no,18,no,white,no,yes,768,legacy,78,78,C:/Users/Breena Riley/Desktop/2019 Fall/MultQuant/lab 2.1/subject-3.csv,legacy,Kafkaesque Koffka,3.2.8,0,s,NA,NA,s,NA,NA,s,545,NA,NA,8941,NA,NA,545,2,legacy,1024,2,48000,-16,experiment,HHSHH,3,odd,154077,13080,NA,NA,146895,4128,NA,NA,155151,NA,4138,NA,NA,155252,155798,155148,155252,Flankertask,66,43389,79,yes,1024
83.75,83.75,548.0625,548.0625,black,legacy,legacy,legacy,0,congruent,uniform,1,undefined,1,h,79,0,0,0,79,0,79,0,79,NA,0,0,0,79,79,79,79,9/25/19 11:59,1500,The main experiment item,yes,BR-Flankertask.osexp,C:/Users/Breena Riley/Desktop/2019 Fall/MultQuant/lab 2.1,no,mono,no,18,no,white,no,yes,768,legacy,79,79,C:/Users/Breena Riley/Desktop/2019 Fall/MultQuant/lab 2.1/subject-3.csv,legacy,Kafkaesque Koffka,3.2.8,0,h,NA,NA,s,NA,NA,h,456,NA,NA,8941,NA,NA,456,2,legacy,1024,2,48000,-16,experiment,HHHHH,3,odd,155806,13080,NA,NA,146895,4128,NA,NA,156882,NA,4138,NA,NA,156983,157440,156878,156983,Flankertask,67,43845,80,yes,1024
83.95061728,83.95061728,549.1481481,549.1481481,black,legacy,legacy,legacy,0,incongruent,uniform,1,undefined,1,h,80,0,0,0,80,0,80,0,80,NA,0,0,0,80,80,80,80,9/25/19 11:59,600,The main experiment item,yes,BR-Flankertask.osexp,C:/Users/Breena Riley/Desktop/2019 Fall/MultQuant/lab 2.1,no,mono,no,18,no,white,no,yes,768,legacy,0,79,C:/Users/Breena Riley/Desktop/2019 Fall/MultQuant/lab 2.1/subject-3.csv,legacy,Kafkaesque Koffka,3.2.8,0,h,NA,NA,s,h,NA,h,636,NA,NA,8941,1079,NA,636,2,legacy,1024,2,48000,-16,experiment,SSHSS,3,odd,157447,13080,159542,NA,146895,4128,NA,NA,159608,NA,4138,158462,NA,159710,160346,159606,159709,Flankertask,68,44481,81,yes,1024
82.92682927,82.92682927,546.5609756,546.5609756,black,legacy,legacy,legacy,0,congruent,uniform,0,undefined,0,s,81,0,0,0,81,0,81,0,81,NA,0,0,0,81,81,81,81,9/25/19 11:59,600,The main experiment item,yes,BR-Flankertask.osexp,C:/Users/Breena Riley/Desktop/2019 Fall/MultQuant/lab 2.1,no,mono,no,18,no,white,no,yes,768,legacy,1,79,C:/Users/Breena Riley/Desktop/2019 Fall/MultQuant/lab 2.1/subject-3.csv,legacy,Kafkaesque Koffka,3.2.8,0,h,NA,NA,s,h,NA,h,337,NA,NA,8941,1079,NA,337,2,legacy,1024,2,48000,-16,experiment,SSSSS,3,odd,160856,13080,159542,NA,146895,4128,160354,NA,161934,NA,4138,158462,NA,162036,162374,161931,162036,Flankertask,68,44818,82,yes,1024
83.13253012,83.13253012,545.6506024,545.6506024,black,legacy,legacy,legacy,0,congruent,uniform,1,undefined,1,h,82,0,0,0,82,0,82,0,82,NA,0,0,0,82,82,82,82,9/25/19 11:59,600,The main experiment item,yes,BR-Flankertask.osexp,C:/Users/Breena Riley/Desktop/2019 Fall/MultQuant/lab 2.1,no,mono,no,18,no,white,no,yes,768,legacy,2,79,C:/Users/Breena Riley/Desktop/2019 Fall/MultQuant/lab 2.1/subject-3.csv,legacy,Kafkaesque Koffka,3.2.8,0,h,NA,NA,s,h,NA,h,471,NA,NA,8941,1079,NA,471,2,legacy,1024,2,48000,-16,experiment,HHHHH,3,odd,162883,13080,159542,NA,162381,4128,160354,NA,163956,NA,4138,158462,NA,164057,164529,163953,164057,Flankertask,69,45289,83,yes,1024
83.33333333,83.33333333,543.5238095,543.5238095,black,legacy,legacy,legacy,0,congruent,uniform,1,undefined,1,s,83,0,0,0,83,0,83,0,83,NA,0,0,0,83,83,83,83,9/25/19 11:59,600,The main experiment item,yes,BR-Flankertask.osexp,C:/Users/Breena Riley/Desktop/2019 Fall/MultQuant/lab 2.1,no,mono,no,18,no,white,no,yes,768,legacy,3,79,C:/Users/Breena Riley/Desktop/2019 Fall/MultQuant/lab 2.1/subject-3.csv,legacy,Kafkaesque Koffka,3.2.8,0,s,NA,NA,s,h,NA,s,367,NA,NA,8941,1079,NA,367,2,legacy,1024,2,48000,-16,experiment,SSSSS,3,odd,164537,13080,159542,NA,162381,4128,160354,NA,165611,NA,4138,158462,NA,165712,166079,165609,165712,Flankertask,70,45656,84,yes,1024
83.52941176,83.52941176,541.8705882,541.8705882,black,legacy,legacy,legacy,0,incongruent,uniform,1,undefined,1,s,84,0,0,0,84,0,84,0,84,NA,0,0,0,84,84,84,84,9/25/19 11:59,600,The main experiment item,yes,BR-Flankertask.osexp,C:/Users/Breena Riley/Desktop/2019 Fall/MultQuant/lab 2.1,no,mono,no,18,no,white,no,yes,768,legacy,4,79,C:/Users/Breena Riley/Desktop/2019 Fall/MultQuant/lab 2.1/subject-3.csv,legacy,Kafkaesque Koffka,3.2.8,0,s,NA,NA,s,h,NA,s,403,NA,NA,8941,1079,NA,403,2,legacy,1024,2,48000,-16,experiment,HHSHH,3,odd,166087,13080,159542,NA,162381,4128,160354,NA,167159,NA,4138,158462,NA,167260,167664,167156,167260,Flankertask,71,46059,85,yes,1024
83.72093023,83.72093023,539.4069767,539.4069767,black,legacy,legacy,legacy,0,incongruent,uniform,1,undefined,1,h,85,0,0,0,85,0,85,0,85,NA,0,0,0,85,85,85,85,9/25/19 11:59,600,The main experiment item,yes,BR-Flankertask.osexp,C:/Users/Breena Riley/Desktop/2019 Fall/MultQuant/lab 2.1,no,mono,no,18,no,white,no,yes,768,legacy,5,79,C:/Users/Breena Riley/Desktop/2019 Fall/MultQuant/lab 2.1/subject-3.csv,legacy,Kafkaesque Koffka,3.2.8,0,h,NA,NA,s,h,NA,h,330,NA,NA,8941,1079,NA,330,2,legacy,1024,2,48000,-16,experiment,SSHSS,3,odd,167673,13080,159542,NA,162381,4128,160354,NA,168747,NA,4138,158462,NA,168849,169180,168744,168849,Flankertask,72,46389,86,yes,1024
83.90804598,83.90804598,537,537,black,legacy,legacy,legacy,0,congruent,uniform,1,undefined,1,s,86,0,0,0,86,0,86,0,86,NA,0,0,0,86,86,86,86,9/25/19 11:59,600,The main experiment item,yes,BR-Flankertask.osexp,C:/Users/Breena Riley/Desktop/2019 Fall/MultQuant/lab 2.1,no,mono,no,18,no,white,no,yes,768,legacy,6,79,C:/Users/Breena Riley/Desktop/2019 Fall/MultQuant/lab 2.1/subject-3.csv,legacy,Kafkaesque Koffka,3.2.8,0,s,NA,NA,s,h,NA,s,330,NA,NA,8941,1079,NA,330,2,legacy,1024,2,48000,-16,experiment,SSSSS,3,odd,169189,13080,159542,NA,162381,4128,160354,NA,170263,NA,4138,158462,NA,170364,170695,170260,170364,Flankertask,73,46719,87,yes,1024
82.95454545,82.95454545,535.5,535.5,black,legacy,legacy,legacy,0,incongruent,uniform,0,undefined,0,s,87,0,0,0,87,0,87,0,87,NA,0,0,0,87,87,87,87,9/25/19 11:59,600,The main experiment item,yes,BR-Flankertask.osexp,C:/Users/Breena Riley/Desktop/2019 Fall/MultQuant/lab 2.1,no,mono,no,18,no,white,no,yes,768,legacy,7,79,C:/Users/Breena Riley/Desktop/2019 Fall/MultQuant/lab 2.1/subject-3.csv,legacy,Kafkaesque Koffka,3.2.8,0,h,NA,NA,s,h,NA,h,405,NA,NA,8941,1079,NA,405,2,legacy,1024,2,48000,-16,experiment,HHSHH,3,odd,170703,13080,159542,NA,162381,4128,160354,NA,171778,NA,4138,158462,NA,171880,172286,171775,171880,Flankertask,73,47124,88,yes,1024
83.14606742,83.14606742,535.6629213,535.6629213,black,legacy,legacy,legacy,0,congruent,uniform,1,undefined,1,h,88,0,0,0,88,0,88,0,88,NA,0,0,0,88,88,88,88,9/25/19 11:59,600,The main experiment item,yes,BR-Flankertask.osexp,C:/Users/Breena Riley/Desktop/2019 Fall/MultQuant/lab 2.1,no,mono,no,18,no,white,no,yes,768,legacy,8,79,C:/Users/Breena Riley/Desktop/2019 Fall/MultQuant/lab 2.1/subject-3.csv,legacy,Kafkaesque Koffka,3.2.8,0,h,NA,NA,s,h,NA,h,550,NA,NA,8941,1079,NA,550,2,legacy,1024,2,48000,-16,experiment,HHHHH,3,odd,172795,13080,159542,NA,172294,4128,160354,NA,173870,NA,4138,158462,NA,173971,174522,173867,173971,Flankertask,74,47674,89,yes,1024
83.33333333,83.33333333,534.8222222,534.8222222,black,legacy,legacy,legacy,0,congruent,uniform,1,undefined,1,h,89,0,0,0,89,0,89,0,89,NA,0,0,0,89,89,89,89,9/25/19 11:59,600,The main experiment item,yes,BR-Flankertask.osexp,C:/Users/Breena Riley/Desktop/2019 Fall/MultQuant/lab 2.1,no,mono,no,18,no,white,no,yes,768,legacy,9,79,C:/Users/Breena Riley/Desktop/2019 Fall/MultQuant/lab 2.1/subject-3.csv,legacy,Kafkaesque Koffka,3.2.8,0,h,NA,NA,s,h,NA,h,460,NA,NA,8941,1079,NA,460,2,legacy,1024,2,48000,-16,experiment,HHHHH,3,odd,174530,13080,159542,NA,172294,4128,160354,NA,175603,NA,4138,158462,NA,175704,176165,175601,175704,Flankertask,75,48134,90,yes,1024
83.51648352,83.51648352,533.3076923,533.3076923,black,legacy,legacy,legacy,0,congruent,uniform,1,undefined,1,s,90,0,0,0,90,0,90,0,90,NA,0,0,0,90,90,90,90,9/25/19 11:59,600,The main experiment item,yes,BR-Flankertask.osexp,C:/Users/Breena Riley/Desktop/2019 Fall/MultQuant/lab 2.1,no,mono,no,18,no,white,no,yes,768,legacy,10,79,C:/Users/Breena Riley/Desktop/2019 Fall/MultQuant/lab 2.1/subject-3.csv,legacy,Kafkaesque Koffka,3.2.8,0,s,NA,NA,s,h,NA,s,397,NA,NA,8941,1079,NA,397,2,legacy,1024,2,48000,-16,experiment,SSSSS,3,odd,176173,13080,159542,NA,172294,4128,160354,NA,177252,NA,4138,158462,NA,177353,177751,177249,177353,Flankertask,76,48531,91,yes,1024
83.69565217,83.69565217,534.0869565,534.0869565,black,legacy,legacy,legacy,0,congruent,uniform,1,undefined,1,h,91,0,0,0,91,0,91,0,91,NA,0,0,0,91,91,91,91,9/25/19 11:59,600,The main experiment item,yes,BR-Flankertask.osexp,C:/Users/Breena Riley/Desktop/2019 Fall/MultQuant/lab 2.1,no,mono,no,18,no,white,no,yes,768,legacy,11,79,C:/Users/Breena Riley/Desktop/2019 Fall/MultQuant/lab 2.1/subject-3.csv,legacy,Kafkaesque Koffka,3.2.8,0,h,NA,NA,s,h,NA,h,605,NA,NA,8941,1079,NA,605,2,legacy,1024,2,48000,-16,experiment,HHHHH,3,odd,177756,13080,159542,NA,172294,4128,160354,NA,178832,NA,4138,158462,NA,178933,179539,178829,178933,Flankertask,77,49136,92,yes,1024
83.87096774,83.87096774,534.3333333,534.3333333,black,legacy,legacy,legacy,0,incongruent,uniform,1,undefined,1,h,92,0,0,0,92,0,92,0,92,NA,0,0,0,92,92,92,92,9/25/19 11:59,600,The main experiment item,yes,BR-Flankertask.osexp,C:/Users/Breena Riley/Desktop/2019 Fall/MultQuant/lab 2.1,no,mono,no,18,no,white,no,yes,768,legacy,12,79,C:/Users/Breena Riley/Desktop/2019 Fall/MultQuant/lab 2.1/subject-3.csv,legacy,Kafkaesque Koffka,3.2.8,0,h,NA,NA,s,h,NA,h,557,NA,NA,8941,1079,NA,557,2,legacy,1024,2,48000,-16,experiment,SSHSS,3,odd,180048,13080,159542,NA,172294,4128,179547,NA,181122,NA,4138,158462,NA,181223,181781,181119,181223,Flankertask,78,49693,93,yes,1024
84.04255319,84.04255319,533.8510638,533.8510638,black,legacy,legacy,legacy,0,congruent,uniform,1,undefined,1,s,93,0,0,0,93,0,93,0,93,NA,0,0,0,93,93,93,93,9/25/19 11:59,600,The main experiment item,yes,BR-Flankertask.osexp,C:/Users/Breena Riley/Desktop/2019 Fall/MultQuant/lab 2.1,no,mono,no,18,no,white,no,yes,768,legacy,13,79,C:/Users/Breena Riley/Desktop/2019 Fall/MultQuant/lab 2.1/subject-3.csv,legacy,Kafkaesque Koffka,3.2.8,0,s,NA,NA,s,h,NA,s,489,NA,NA,8941,1079,NA,489,2,legacy,1024,2,48000,-16,experiment,SSSSS,3,odd,181789,13080,159542,NA,172294,4128,179547,NA,182862,NA,4138,158462,NA,182963,183453,182859,182963,Flankertask,79,50182,94,yes,1024
84.21052632,84.21052632,533.2315789,533.2315789,black,legacy,legacy,legacy,0,incongruent,uniform,1,undefined,1,h,94,0,0,0,94,0,94,0,94,NA,0,0,0,94,94,94,94,9/25/19 11:59,600,The main experiment item,yes,BR-Flankertask.osexp,C:/Users/Breena Riley/Desktop/2019 Fall/MultQuant/lab 2.1,no,mono,no,18,no,white,no,yes,768,legacy,14,79,C:/Users/Breena Riley/Desktop/2019 Fall/MultQuant/lab 2.1/subject-3.csv,legacy,Kafkaesque Koffka,3.2.8,0,h,NA,NA,s,h,NA,h,475,NA,NA,8941,1079,NA,475,2,legacy,1024,2,48000,-16,experiment,SSHSS,3,odd,183461,13080,159542,NA,172294,4128,179547,NA,184534,NA,4138,158462,NA,184637,185113,184532,184637,Flankertask,80,50657,95,yes,1024
83.33333333,83.33333333,532.34375,532.34375,black,legacy,legacy,legacy,0,congruent,uniform,0,undefined,0,h,95,0,0,0,95,0,95,0,95,NA,0,0,0,95,95,95,95,9/25/19 11:59,600,The main experiment item,yes,BR-Flankertask.osexp,C:/Users/Breena Riley/Desktop/2019 Fall/MultQuant/lab 2.1,no,mono,no,18,no,white,no,yes,768,legacy,15,79,C:/Users/Breena Riley/Desktop/2019 Fall/MultQuant/lab 2.1/subject-3.csv,legacy,Kafkaesque Koffka,3.2.8,0,s,NA,NA,s,h,NA,s,448,NA,NA,8941,1079,NA,448,2,legacy,1024,2,48000,-16,experiment,HHHHH,3,odd,185121,13080,159542,NA,172294,4128,179547,NA,186194,NA,4138,158462,NA,186295,186744,186191,186295,Flankertask,80,51105,96,yes,1024
83.50515464,83.50515464,533.5876289,533.5876289,black,legacy,legacy,legacy,0,congruent,uniform,1,undefined,1,s,96,0,0,0,96,0,96,0,96,NA,0,0,0,96,96,96,96,9/25/19 11:59,600,The main experiment item,yes,BR-Flankertask.osexp,C:/Users/Breena Riley/Desktop/2019 Fall/MultQuant/lab 2.1,no,mono,no,18,no,white,no,yes,768,legacy,16,79,C:/Users/Breena Riley/Desktop/2019 Fall/MultQuant/lab 2.1/subject-3.csv,legacy,Kafkaesque Koffka,3.2.8,0,s,NA,NA,s,h,NA,s,653,NA,NA,8941,1079,NA,653,2,legacy,1024,2,48000,-16,experiment,SSSSS,3,odd,187255,13080,159542,NA,186753,4128,179547,NA,188327,NA,4138,158462,NA,188429,189084,188324,188428,Flankertask,81,51758,97,yes,1024
83.67346939,83.67346939,533.8367347,533.8367347,black,legacy,legacy,legacy,0,incongruent,uniform,1,undefined,1,h,97,0,0,0,97,0,97,0,97,NA,0,0,0,97,97,97,97,9/25/19 11:59,600,The main experiment item,yes,BR-Flankertask.osexp,C:/Users/Breena Riley/Desktop/2019 Fall/MultQuant/lab 2.1,no,mono,no,18,no,white,no,yes,768,legacy,17,79,C:/Users/Breena Riley/Desktop/2019 Fall/MultQuant/lab 2.1/subject-3.csv,legacy,Kafkaesque Koffka,3.2.8,0,h,NA,NA,s,h,NA,h,558,NA,NA,8941,1079,NA,558,2,legacy,1024,2,48000,-16,experiment,SSHSS,3,odd,189593,13080,159542,NA,186753,4128,189091,NA,190669,NA,4138,158462,NA,190771,191330,190666,190770,Flankertask,82,52316,98,yes,1024
83.83838384,83.83838384,534.4646465,534.4646465,black,legacy,legacy,legacy,0,incongruent,uniform,1,undefined,1,h,98,0,0,0,98,0,98,0,98,NA,0,0,0,98,98,98,98,9/25/19 11:59,600,The main experiment item,yes,BR-Flankertask.osexp,C:/Users/Breena Riley/Desktop/2019 Fall/MultQuant/lab 2.1,no,mono,no,18,no,white,no,yes,768,legacy,18,79,C:/Users/Breena Riley/Desktop/2019 Fall/MultQuant/lab 2.1/subject-3.csv,legacy,Kafkaesque Koffka,3.2.8,0,h,NA,NA,s,h,NA,h,596,NA,NA,8941,1079,NA,596,2,legacy,1024,2,48000,-16,experiment,SSHSS,3,odd,191338,13080,159542,NA,186753,4128,189091,NA,192411,NA,4138,158462,NA,192513,193109,192408,192513,Flankertask,83,52912,99,yes,1024
84,84,534.62,534.62,black,legacy,legacy,legacy,0,incongruent,uniform,1,undefined,1,h,99,0,0,0,99,0,99,0,99,NA,0,0,0,99,99,99,99,9/25/19 11:59,600,The main experiment item,yes,BR-Flankertask.osexp,C:/Users/Breena Riley/Desktop/2019 Fall/MultQuant/lab 2.1,no,mono,no,18,no,white,no,yes,768,legacy,19,79,C:/Users/Breena Riley/Desktop/2019 Fall/MultQuant/lab 2.1/subject-3.csv,legacy,Kafkaesque Koffka,3.2.8,0,h,NA,NA,s,h,NA,h,550,NA,NA,8941,1079,NA,550,2,legacy,1024,2,48000,-16,experiment,SSHSS,3,odd,193118,13080,159542,NA,186753,4128,189091,NA,194193,NA,4138,158462,NA,194294,194846,194190,194294,Flankertask,84,53462,100,yes,1024
84.15841584,84.15841584,534.3663366,534.3663366,black,legacy,legacy,legacy,0,congruent,uniform,1,undefined,1,s,100,0,0,0,100,0,100,0,100,NA,0,0,0,100,100,100,100,9/25/19 11:59,600,The main experiment item,yes,BR-Flankertask.osexp,C:/Users/Breena Riley/Desktop/2019 Fall/MultQuant/lab 2.1,no,mono,no,18,no,white,no,yes,768,legacy,20,79,C:/Users/Breena Riley/Desktop/2019 Fall/MultQuant/lab 2.1/subject-3.csv,legacy,Kafkaesque Koffka,3.2.8,0,s,NA,NA,s,h,NA,s,509,NA,NA,8941,1079,NA,509,2,legacy,1024,2,48000,-16,experiment,SSSSS,3,odd,194854,13080,159542,NA,186753,4128,189091,NA,195956,NA,4138,158462,NA,196058,196569,195953,196057,Flankertask,85,53971,101,yes,1024
84.31372549,84.31372549,535.6862745,535.6862745,black,legacy,legacy,legacy,0,incongruent,uniform,1,undefined,1,s,101,0,0,0,101,0,101,0,101,NA,0,0,0,101,101,101,101,9/25/19 11:59,600,The main experiment item,yes,BR-Flankertask.osexp,C:/Users/Breena Riley/Desktop/2019 Fall/MultQuant/lab 2.1,no,mono,no,18,no,white,no,yes,768,legacy,21,79,C:/Users/Breena Riley/Desktop/2019 Fall/MultQuant/lab 2.1/subject-3.csv,legacy,Kafkaesque Koffka,3.2.8,0,s,NA,NA,s,h,NA,s,669,NA,NA,8941,1079,NA,669,2,legacy,1024,2,48000,-16,experiment,HHSHH,3,odd,196577,13080,159542,NA,186753,4128,189091,NA,197653,NA,4138,158462,NA,197754,198424,197650,197754,Flankertask,86,54640,102,yes,1024
84.46601942,84.46601942,536.1941748,536.1941748,black,legacy,legacy,legacy,0,incongruent,uniform,1,undefined,1,s,102,0,0,0,102,0,102,0,102,NA,0,0,0,102,102,102,102,9/25/19 11:59,600,The main experiment item,yes,BR-Flankertask.osexp,C:/Users/Breena Riley/Desktop/2019 Fall/MultQuant/lab 2.1,no,mono,no,18,no,white,no,yes,768,legacy,22,79,C:/Users/Breena Riley/Desktop/2019 Fall/MultQuant/lab 2.1/subject-3.csv,legacy,Kafkaesque Koffka,3.2.8,0,s,NA,NA,s,h,NA,s,588,NA,NA,8941,1079,NA,588,2,legacy,1024,2,48000,-16,experiment,HHSHH,3,odd,198935,13080,159542,NA,186753,4128,198433,NA,200008,NA,4138,158462,NA,200110,200700,200005,200109,Flankertask,87,55228,103,yes,1024
84.61538462,84.61538462,535.8269231,535.8269231,black,legacy,legacy,legacy,0,incongruent,uniform,1,undefined,1,s,103,0,0,0,103,0,103,0,103,NA,0,0,0,103,103,103,103,9/25/19 11:59,600,The main experiment item,yes,BR-Flankertask.osexp,C:/Users/Breena Riley/Desktop/2019 Fall/MultQuant/lab 2.1,no,mono,no,18,no,white,no,yes,768,legacy,23,79,C:/Users/Breena Riley/Desktop/2019 Fall/MultQuant/lab 2.1/subject-3.csv,legacy,Kafkaesque Koffka,3.2.8,0,s,NA,NA,s,h,NA,s,498,NA,NA,8941,1079,NA,498,2,legacy,1024,2,48000,-16,experiment,HHSHH,3,odd,200708,13080,159542,NA,186753,4128,198433,NA,201783,NA,4138,158462,NA,201885,202384,201780,201885,Flankertask,88,55726,104,yes,1024
84.76190476,84.76190476,533.9428571,533.9428571,black,legacy,legacy,legacy,0,congruent,uniform,1,undefined,1,s,104,0,0,0,104,0,104,0,104,NA,0,0,0,104,104,104,104,9/25/19 11:59,600,The main experiment item,yes,BR-Flankertask.osexp,C:/Users/Breena Riley/Desktop/2019 Fall/MultQuant/lab 2.1,no,mono,no,18,no,white,no,yes,768,legacy,24,79,C:/Users/Breena Riley/Desktop/2019 Fall/MultQuant/lab 2.1/subject-3.csv,legacy,Kafkaesque Koffka,3.2.8,0,s,NA,NA,s,h,NA,s,338,NA,NA,8941,1079,NA,338,2,legacy,1024,2,48000,-16,experiment,SSSSS,3,odd,202393,13080,159542,NA,186753,4128,198433,NA,203466,NA,4138,158462,NA,203567,203906,203464,203567,Flankertask,89,56064,105,yes,1024
84.90566038,84.90566038,532.4433962,532.4433962,black,legacy,legacy,legacy,0,congruent,uniform,1,undefined,1,s,105,0,0,0,105,0,105,0,105,NA,0,0,0,105,105,105,105,9/25/19 11:59,600,The main experiment item,yes,BR-Flankertask.osexp,C:/Users/Breena Riley/Desktop/2019 Fall/MultQuant/lab 2.1,no,mono,no,18,no,white,no,yes,768,legacy,25,79,C:/Users/Breena Riley/Desktop/2019 Fall/MultQuant/lab 2.1/subject-3.csv,legacy,Kafkaesque Koffka,3.2.8,0,s,NA,NA,s,h,NA,s,375,NA,NA,8941,1079,NA,375,2,legacy,1024,2,48000,-16,experiment,SSSSS,3,odd,203914,13080,159542,NA,186753,4128,198433,NA,205006,NA,4138,158462,NA,205107,205483,205003,205107,Flankertask,90,56439,106,yes,1024
85.04672897,85.04672897,532.4859813,532.4859813,black,legacy,legacy,legacy,0,congruent,uniform,1,undefined,1,h,106,0,0,0,106,0,106,0,106,NA,0,0,0,106,106,106,106,9/25/19 11:59,600,The main experiment item,yes,BR-Flankertask.osexp,C:/Users/Breena Riley/Desktop/2019 Fall/MultQuant/lab 2.1,no,mono,no,18,no,white,no,yes,768,legacy,26,79,C:/Users/Breena Riley/Desktop/2019 Fall/MultQuant/lab 2.1/subject-3.csv,legacy,Kafkaesque Koffka,3.2.8,0,h,NA,NA,s,h,NA,h,537,NA,NA,8941,1079,NA,537,2,legacy,1024,2,48000,-16,experiment,HHHHH,3,odd,205491,13080,159542,NA,186753,4128,198433,NA,206572,NA,4138,158462,NA,206673,207211,206569,206673,Flankertask,91,56976,107,yes,1024
85.18518519,85.18518519,533.9537037,533.9537037,black,legacy,legacy,legacy,0,incongruent,uniform,1,undefined,1,s,107,0,0,0,107,0,107,0,107,NA,0,0,0,107,107,107,107,9/25/19 11:59,600,The main experiment item,yes,BR-Flankertask.osexp,C:/Users/Breena Riley/Desktop/2019 Fall/MultQuant/lab 2.1,no,mono,no,18,no,white,no,yes,768,legacy,27,79,C:/Users/Breena Riley/Desktop/2019 Fall/MultQuant/lab 2.1/subject-3.csv,legacy,Kafkaesque Koffka,3.2.8,0,s,NA,NA,s,h,NA,s,691,NA,NA,8941,1079,NA,691,2,legacy,1024,2,48000,-16,experiment,HHSHH,3,odd,207219,13080,159542,NA,186753,4128,198433,NA,208293,NA,4138,158462,NA,208394,209087,208291,208394,Flankertask,92,57667,108,yes,1024
84.40366972,84.40366972,534.3486239,534.3486239,black,legacy,legacy,legacy,0,incongruent,uniform,0,undefined,0,h,108,0,0,0,108,0,108,0,108,NA,0,0,0,108,108,108,108,9/25/19 11:59,600,The main experiment item,yes,BR-Flankertask.osexp,C:/Users/Breena Riley/Desktop/2019 Fall/MultQuant/lab 2.1,no,mono,no,18,no,white,no,yes,768,legacy,28,79,C:/Users/Breena Riley/Desktop/2019 Fall/MultQuant/lab 2.1/subject-3.csv,legacy,Kafkaesque Koffka,3.2.8,0,s,NA,NA,s,h,NA,s,577,NA,NA,8941,1079,NA,577,2,legacy,1024,2,48000,-16,experiment,SSHSS,3,odd,209597,13080,159542,NA,186753,4128,209095,NA,210675,NA,4138,158462,NA,210777,211355,210672,210777,Flankertask,92,58244,109,yes,1024
84.54545455,84.54545455,534.6090909,534.6090909,black,legacy,legacy,legacy,0,incongruent,uniform,1,undefined,1,h,109,0,0,0,109,0,109,0,109,NA,0,0,0,109,109,109,109,9/25/19 11:59,600,The main experiment item,yes,BR-Flankertask.osexp,C:/Users/Breena Riley/Desktop/2019 Fall/MultQuant/lab 2.1,no,mono,no,18,no,white,no,yes,768,legacy,29,79,C:/Users/Breena Riley/Desktop/2019 Fall/MultQuant/lab 2.1/subject-3.csv,legacy,Kafkaesque Koffka,3.2.8,0,h,NA,NA,s,h,NA,h,563,NA,NA,8941,1079,NA,563,2,legacy,1024,2,48000,-16,experiment,SSHSS,3,odd,211864,13080,159542,NA,211363,4128,209095,NA,212949,NA,4138,158462,NA,213050,213614,212946,213050,Flankertask,93,58807,110,yes,1024
84.68468468,84.68468468,535.3423423,535.3423423,black,legacy,legacy,legacy,0,incongruent,uniform,1,undefined,1,s,110,0,0,0,110,0,110,0,110,NA,0,0,0,110,110,110,110,9/25/19 11:59,600,The main experiment item,yes,BR-Flankertask.osexp,C:/Users/Breena Riley/Desktop/2019 Fall/MultQuant/lab 2.1,no,mono,no,18,no,white,no,yes,768,legacy,30,79,C:/Users/Breena Riley/Desktop/2019 Fall/MultQuant/lab 2.1/subject-3.csv,legacy,Kafkaesque Koffka,3.2.8,0,s,NA,NA,s,h,NA,s,616,NA,NA,8941,1079,NA,616,2,legacy,1024,2,48000,-16,experiment,HHSHH,3,odd,213622,13080,159542,NA,211363,4128,209095,NA,214695,NA,4138,158462,NA,214796,215414,214693,214796,Flankertask,94,59423,111,yes,1024
84.82142857,84.82142857,534.5446429,534.5446429,black,legacy,legacy,legacy,0,incongruent,uniform,1,undefined,1,s,111,0,0,0,111,0,111,0,111,NA,0,0,0,111,111,111,111,9/25/19 11:59,600,The main experiment item,yes,BR-Flankertask.osexp,C:/Users/Breena Riley/Desktop/2019 Fall/MultQuant/lab 2.1,no,mono,no,18,no,white,no,yes,768,legacy,31,79,C:/Users/Breena Riley/Desktop/2019 Fall/MultQuant/lab 2.1/subject-3.csv,legacy,Kafkaesque Koffka,3.2.8,0,s,NA,NA,s,h,NA,s,446,NA,NA,8941,1079,NA,446,2,legacy,1024,2,48000,-16,experiment,HHSHH,3,odd,215923,13080,159542,NA,211363,4128,215422,NA,217004,NA,4138,158462,NA,217105,217552,217002,217105,Flankertask,95,59869,112,yes,1024
84.95575221,84.95575221,534.7876106,534.7876106,black,legacy,legacy,legacy,0,congruent,uniform,1,undefined,1,s,112,0,0,0,112,0,112,0,112,NA,0,0,0,112,112,112,112,9/25/19 11:59,600,The main experiment item,yes,BR-Flankertask.osexp,C:/Users/Breena Riley/Desktop/2019 Fall/MultQuant/lab 2.1,no,mono,no,18,no,white,no,yes,768,legacy,32,79,C:/Users/Breena Riley/Desktop/2019 Fall/MultQuant/lab 2.1/subject-3.csv,legacy,Kafkaesque Koffka,3.2.8,0,s,NA,NA,s,h,NA,s,562,NA,NA,8941,1079,NA,562,2,legacy,1024,2,48000,-16,experiment,SSSSS,3,odd,217560,13080,159542,NA,211363,4128,215422,NA,218636,NA,4138,158462,NA,218738,219302,218634,218738,Flankertask,96,60431,113,yes,1024
84.21052632,84.21052632,533.0438596,533.0438596,black,legacy,legacy,legacy,0,incongruent,uniform,0,undefined,0,h,113,0,0,0,113,0,113,0,113,NA,0,0,0,113,113,113,113,9/25/19 11:59,600,The main experiment item,yes,BR-Flankertask.osexp,C:/Users/Breena Riley/Desktop/2019 Fall/MultQuant/lab 2.1,no,mono,no,18,no,white,no,yes,768,legacy,33,79,C:/Users/Breena Riley/Desktop/2019 Fall/MultQuant/lab 2.1/subject-3.csv,legacy,Kafkaesque Koffka,3.2.8,0,s,NA,NA,s,h,NA,s,336,NA,NA,8941,1079,NA,336,2,legacy,1024,2,48000,-16,experiment,SSHSS,3,odd,219310,13080,159542,NA,211363,4128,215422,NA,220384,NA,4138,158462,NA,220485,220822,220381,220485,Flankertask,96,60767,114,yes,1024
84.34782609,84.34782609,532.3304348,532.3304348,black,legacy,legacy,legacy,0,congruent,uniform,1,undefined,1,s,114,0,0,0,114,0,114,0,114,NA,0,0,0,114,114,114,114,9/25/19 11:59,600,The main experiment item,yes,BR-Flankertask.osexp,C:/Users/Breena Riley/Desktop/2019 Fall/MultQuant/lab 2.1,no,mono,no,18,no,white,no,yes,768,legacy,34,79,C:/Users/Breena Riley/Desktop/2019 Fall/MultQuant/lab 2.1/subject-3.csv,legacy,Kafkaesque Koffka,3.2.8,0,s,NA,NA,s,h,NA,s,451,NA,NA,8941,1079,NA,451,2,legacy,1024,2,48000,-16,experiment,SSSSS,3,odd,221331,13080,159542,NA,220830,4128,215422,NA,222405,NA,4138,158462,NA,222506,222959,222402,222506,Flankertask,97,61218,115,yes,1024
84.48275862,84.48275862,531.5689655,531.5689655,black,legacy,legacy,legacy,0,congruent,uniform,1,undefined,1,s,115,0,0,0,115,0,115,0,115,NA,0,0,0,115,115,115,115,9/25/19 11:59,600,The main experiment item,yes,BR-Flankertask.osexp,C:/Users/Breena Riley/Desktop/2019 Fall/MultQuant/lab 2.1,no,mono,no,18,no,white,no,yes,768,legacy,35,79,C:/Users/Breena Riley/Desktop/2019 Fall/MultQuant/lab 2.1/subject-3.csv,legacy,Kafkaesque Koffka,3.2.8,0,s,NA,NA,s,h,NA,s,444,NA,NA,8941,1079,NA,444,2,legacy,1024,2,48000,-16,experiment,SSSSS,3,odd,222967,13080,159542,NA,220830,4128,215422,NA,224040,NA,4138,158462,NA,224142,224586,224037,224142,Flankertask,98,61662,116,yes,1024
84.61538462,84.61538462,532.7606838,532.7606838,black,legacy,legacy,legacy,0,congruent,uniform,1,undefined,1,h,116,0,0,0,116,0,116,0,116,NA,0,0,0,116,116,116,116,9/25/19 11:59,600,The main experiment item,yes,BR-Flankertask.osexp,C:/Users/Breena Riley/Desktop/2019 Fall/MultQuant/lab 2.1,no,mono,no,18,no,white,no,yes,768,legacy,36,79,C:/Users/Breena Riley/Desktop/2019 Fall/MultQuant/lab 2.1/subject-3.csv,legacy,Kafkaesque Koffka,3.2.8,0,h,NA,NA,s,h,NA,h,671,NA,NA,8941,1079,NA,671,2,legacy,1024,2,48000,-16,experiment,HHHHH,3,odd,224594,13080,159542,NA,220830,4128,215422,NA,225666,NA,4138,158462,NA,225768,226440,225664,225768,Flankertask,99,62333,117,yes,1024
84.74576271,84.74576271,534.3813559,534.3813559,black,legacy,legacy,legacy,0,congruent,uniform,1,undefined,1,h,117,0,0,0,117,0,117,0,117,NA,0,0,0,117,117,117,117,9/25/19 11:59,600,The main experiment item,yes,BR-Flankertask.osexp,C:/Users/Breena Riley/Desktop/2019 Fall/MultQuant/lab 2.1,no,mono,no,18,no,white,no,yes,768,legacy,37,79,C:/Users/Breena Riley/Desktop/2019 Fall/MultQuant/lab 2.1/subject-3.csv,legacy,Kafkaesque Koffka,3.2.8,0,h,NA,NA,s,h,NA,h,724,NA,NA,8941,1079,NA,724,2,legacy,1024,2,48000,-16,experiment,HHHHH,3,odd,226948,13080,159542,NA,220830,4128,226447,NA,228023,NA,4138,158462,NA,228125,228850,228021,228125,Flankertask,100,63057,118,yes,1024
84.87394958,84.87394958,534.7563025,534.7563025,black,legacy,legacy,legacy,0,congruent,uniform,1,undefined,1,h,118,0,0,0,118,0,118,0,118,NA,0,0,0,118,118,118,118,9/25/19 11:59,600,The main experiment item,yes,BR-Flankertask.osexp,C:/Users/Breena Riley/Desktop/2019 Fall/MultQuant/lab 2.1,no,mono,no,18,no,white,no,yes,768,legacy,38,79,C:/Users/Breena Riley/Desktop/2019 Fall/MultQuant/lab 2.1/subject-3.csv,legacy,Kafkaesque Koffka,3.2.8,0,h,NA,NA,s,h,NA,h,579,NA,NA,8941,1079,NA,579,2,legacy,1024,2,48000,-16,experiment,HHHHH,3,odd,229359,13080,159542,NA,220830,4128,228858,NA,230434,NA,4138,158462,NA,230535,231115,230431,230535,Flankertask,101,63636,119,yes,1024
85,85,534.2166667,534.2166667,black,legacy,legacy,legacy,0,congruent,uniform,1,undefined,1,h,119,0,0,0,119,0,119,0,119,NA,0,0,0,119,119,119,119,9/25/19 11:59,600,The main experiment item,yes,BR-Flankertask.osexp,C:/Users/Breena Riley/Desktop/2019 Fall/MultQuant/lab 2.1,no,mono,no,18,no,white,no,yes,768,legacy,39,79,C:/Users/Breena Riley/Desktop/2019 Fall/MultQuant/lab 2.1/subject-3.csv,legacy,Kafkaesque Koffka,3.2.8,0,h,NA,NA,s,h,NA,h,470,NA,NA,8941,1079,NA,470,2,legacy,1024,2,48000,-16,experiment,HHHHH,3,odd,231122,13080,159542,NA,220830,4128,228858,NA,232195,NA,4138,158462,NA,232297,232768,232192,232296,Flankertask,102,64106,120,yes,1024
85.12396694,85.12396694,533.8264463,533.8264463,black,legacy,legacy,legacy,0,incongruent,uniform,1,undefined,1,s,120,0,0,0,120,0,120,0,120,NA,0,0,0,120,120,120,120,9/25/19 11:59,600,The main experiment item,yes,BR-Flankertask.osexp,C:/Users/Breena Riley/Desktop/2019 Fall/MultQuant/lab 2.1,no,mono,no,18,no,white,no,yes,768,legacy,40,79,C:/Users/Breena Riley/Desktop/2019 Fall/MultQuant/lab 2.1/subject-3.csv,legacy,Kafkaesque Koffka,3.2.8,0,s,NA,NA,s,h,NA,s,487,NA,NA,8941,1079,NA,487,2,legacy,1024,2,48000,-16,experiment,HHSHH,3,odd,232776,13080,159542,NA,220830,4128,228858,NA,233853,NA,4138,158462,NA,233954,234443,233850,233954,Flankertask,103,64593,121,yes,1024
85.24590164,85.24590164,533.295082,533.295082,black,legacy,legacy,legacy,0,congruent,uniform,1,undefined,1,s,121,0,0,0,121,0,121,0,121,NA,0,0,0,121,121,121,121,9/25/19 11:59,600,The main experiment item,yes,BR-Flankertask.osexp,C:/Users/Breena Riley/Desktop/2019 Fall/MultQuant/lab 2.1,no,mono,no,18,no,white,no,yes,768,legacy,41,79,C:/Users/Breena Riley/Desktop/2019 Fall/MultQuant/lab 2.1/subject-3.csv,legacy,Kafkaesque Koffka,3.2.8,0,s,NA,NA,s,h,NA,s,469,NA,NA,8941,1079,NA,469,2,legacy,1024,2,48000,-16,experiment,SSSSS,3,odd,234451,13080,159542,NA,220830,4128,228858,NA,235527,NA,4138,158462,NA,235628,236099,235525,235628,Flankertask,104,65062,122,yes,1024
85.36585366,85.36585366,533.495935,533.495935,black,legacy,legacy,legacy,0,incongruent,uniform,1,undefined,1,s,122,0,0,0,122,0,122,0,122,NA,0,0,0,122,122,122,122,9/25/19 11:59,600,The main experiment item,yes,BR-Flankertask.osexp,C:/Users/Breena Riley/Desktop/2019 Fall/MultQuant/lab 2.1,no,mono,no,18,no,white,no,yes,768,legacy,42,79,C:/Users/Breena Riley/Desktop/2019 Fall/MultQuant/lab 2.1/subject-3.csv,legacy,Kafkaesque Koffka,3.2.8,0,s,NA,NA,s,h,NA,s,558,NA,NA,8941,1079,NA,558,2,legacy,1024,2,48000,-16,experiment,HHSHH,3,odd,236106,13080,159542,NA,220830,4128,228858,NA,237180,NA,4138,158462,NA,237281,237840,237177,237281,Flankertask,105,65620,123,yes,1024
85.48387097,85.48387097,533.6693548,533.6693548,black,legacy,legacy,legacy,0,incongruent,uniform,1,undefined,1,h,123,0,0,0,123,0,123,0,123,NA,0,0,0,123,123,123,123,9/25/19 11:59,600,The main experiment item,yes,BR-Flankertask.osexp,C:/Users/Breena Riley/Desktop/2019 Fall/MultQuant/lab 2.1,no,mono,no,18,no,white,no,yes,768,legacy,43,79,C:/Users/Breena Riley/Desktop/2019 Fall/MultQuant/lab 2.1/subject-3.csv,legacy,Kafkaesque Koffka,3.2.8,0,h,NA,NA,s,h,NA,h,555,NA,NA,8941,1079,NA,555,2,legacy,1024,2,48000,-16,experiment,SSHSS,3,odd,237848,13080,159542,NA,220830,4128,228858,NA,238935,NA,4138,158462,NA,239036,239593,238932,239036,Flankertask,106,66175,124,yes,1024
85.6,85.6,533.16,533.16,black,legacy,legacy,legacy,0,congruent,uniform,1,undefined,1,s,124,0,0,0,124,0,124,0,124,NA,0,0,0,124,124,124,124,9/25/19 11:59,600,The main experiment item,yes,BR-Flankertask.osexp,C:/Users/Breena Riley/Desktop/2019 Fall/MultQuant/lab 2.1,no,mono,no,18,no,white,no,yes,768,legacy,44,79,C:/Users/Breena Riley/Desktop/2019 Fall/MultQuant/lab 2.1/subject-3.csv,legacy,Kafkaesque Koffka,3.2.8,0,s,NA,NA,s,h,NA,s,470,NA,NA,8941,1079,NA,470,2,legacy,1024,2,48000,-16,experiment,SSSSS,3,odd,239600,13080,159542,NA,220830,4128,228858,NA,240678,NA,4138,158462,NA,240779,241250,240675,240779,Flankertask,107,66645,125,yes,1024
85.71428571,85.71428571,533.8095238,533.8095238,black,legacy,legacy,legacy,0,incongruent,uniform,1,undefined,1,h,125,0,0,0,125,0,125,0,125,NA,0,0,0,125,125,125,125,9/25/19 11:59,600,The main experiment item,yes,BR-Flankertask.osexp,C:/Users/Breena Riley/Desktop/2019 Fall/MultQuant/lab 2.1,no,mono,no,18,no,white,no,yes,768,legacy,45,79,C:/Users/Breena Riley/Desktop/2019 Fall/MultQuant/lab 2.1/subject-3.csv,legacy,Kafkaesque Koffka,3.2.8,0,h,NA,NA,s,h,NA,h,615,NA,NA,8941,1079,NA,615,2,legacy,1024,2,48000,-16,experiment,SSHSS,3,odd,241258,13080,159542,NA,220830,4128,228858,NA,242333,NA,4138,158462,NA,242436,243053,242331,242436,Flankertask,108,67260,126,yes,1024
85.82677165,85.82677165,533.6929134,533.6929134,black,legacy,legacy,legacy,0,incongruent,uniform,1,undefined,1,s,126,0,0,0,126,0,126,0,126,NA,0,0,0,126,126,126,126,9/25/19 11:59,600,The main experiment item,yes,BR-Flankertask.osexp,C:/Users/Breena Riley/Desktop/2019 Fall/MultQuant/lab 2.1,no,mono,no,18,no,white,no,yes,768,legacy,46,79,C:/Users/Breena Riley/Desktop/2019 Fall/MultQuant/lab 2.1/subject-3.csv,legacy,Kafkaesque Koffka,3.2.8,0,s,NA,NA,s,h,NA,s,519,NA,NA,8941,1079,NA,519,2,legacy,1024,2,48000,-16,experiment,HHSHH,3,odd,243561,13080,159542,NA,220830,4128,243060,NA,244635,NA,4138,158462,NA,244736,245257,244632,244736,Flankertask,109,67779,127,yes,1024
85.9375,85.9375,534.4140625,534.4140625,black,legacy,legacy,legacy,0,congruent,uniform,1,undefined,1,h,127,0,0,0,127,0,127,0,127,NA,0,0,0,127,127,127,127,9/25/19 11:59,600,The main experiment item,yes,BR-Flankertask.osexp,C:/Users/Breena Riley/Desktop/2019 Fall/MultQuant/lab 2.1,no,mono,no,18,no,white,no,yes,768,legacy,47,79,C:/Users/Breena Riley/Desktop/2019 Fall/MultQuant/lab 2.1/subject-3.csv,legacy,Kafkaesque Koffka,3.2.8,0,h,NA,NA,s,h,NA,h,626,NA,NA,8941,1079,NA,626,2,legacy,1024,2,48000,-16,experiment,HHHHH,3,odd,245265,13080,159542,NA,220830,4128,243060,NA,246340,NA,4138,158462,NA,246442,247071,246337,246442,Flankertask,110,68405,128,yes,1024
86.04651163,86.04651163,533.6744186,533.6744186,black,legacy,legacy,legacy,0,congruent,uniform,1,undefined,1,h,128,0,0,0,128,0,128,0,128,NA,0,0,0,128,128,128,128,9/25/19 11:59,600,The main experiment item,yes,BR-Flankertask.osexp,C:/Users/Breena Riley/Desktop/2019 Fall/MultQuant/lab 2.1,no,mono,no,18,no,white,no,yes,768,legacy,48,79,C:/Users/Breena Riley/Desktop/2019 Fall/MultQuant/lab 2.1/subject-3.csv,legacy,Kafkaesque Koffka,3.2.8,0,h,NA,NA,s,h,NA,h,439,NA,NA,8941,1079,NA,439,2,legacy,1024,2,48000,-16,experiment,HHHHH,3,odd,247579,13080,159542,NA,220830,4128,247078,NA,248654,NA,4138,158462,NA,248755,249196,248652,248755,Flankertask,111,68844,129,yes,1024
85.38461538,85.38461538,533.7076923,533.7076923,black,legacy,legacy,legacy,0,incongruent,uniform,0,undefined,0,h,129,0,0,0,129,0,129,0,129,NA,0,0,0,129,129,129,129,9/25/19 11:59,600,The main experiment item,yes,BR-Flankertask.osexp,C:/Users/Breena Riley/Desktop/2019 Fall/MultQuant/lab 2.1,no,mono,no,18,no,white,no,yes,768,legacy,49,79,C:/Users/Breena Riley/Desktop/2019 Fall/MultQuant/lab 2.1/subject-3.csv,legacy,Kafkaesque Koffka,3.2.8,0,s,NA,NA,s,h,NA,s,538,NA,NA,8941,1079,NA,538,2,legacy,1024,2,48000,-16,experiment,SSHSS,3,odd,249203,13080,159542,NA,220830,4128,247078,NA,250298,NA,4138,158462,NA,250399,250938,250296,250399,Flankertask,111,69382,130,yes,1024
85.49618321,85.49618321,533.4961832,533.4961832,black,legacy,legacy,legacy,0,congruent,uniform,1,undefined,1,h,130,0,0,0,130,0,130,0,130,NA,0,0,0,130,130,130,130,9/25/19 11:59,600,The main experiment item,yes,BR-Flankertask.osexp,C:/Users/Breena Riley/Desktop/2019 Fall/MultQuant/lab 2.1,no,mono,no,18,no,white,no,yes,768,legacy,50,79,C:/Users/Breena Riley/Desktop/2019 Fall/MultQuant/lab 2.1/subject-3.csv,legacy,Kafkaesque Koffka,3.2.8,0,h,NA,NA,s,h,NA,h,506,NA,NA,8941,1079,NA,506,2,legacy,1024,2,48000,-16,experiment,HHHHH,3,odd,251448,13080,159542,NA,250947,4128,247078,NA,252522,NA,4138,158462,NA,252623,253130,252519,252623,Flankertask,112,69888,131,yes,1024
85.60606061,85.60606061,533.7651515,533.7651515,black,legacy,legacy,legacy,0,incongruent,uniform,1,undefined,1,s,131,0,0,0,131,0,131,0,131,NA,0,0,0,131,131,131,131,9/25/19 11:59,600,The main experiment item,yes,BR-Flankertask.osexp,C:/Users/Breena Riley/Desktop/2019 Fall/MultQuant/lab 2.1,no,mono,no,18,no,white,no,yes,768,legacy,51,79,C:/Users/Breena Riley/Desktop/2019 Fall/MultQuant/lab 2.1/subject-3.csv,legacy,Kafkaesque Koffka,3.2.8,0,s,NA,NA,s,h,NA,s,569,NA,NA,8941,1079,NA,569,2,legacy,1024,2,48000,-16,experiment,HHSHH,3,odd,253139,13080,159542,NA,250947,4128,247078,NA,254213,NA,4138,158462,NA,254314,254886,254211,254314,Flankertask,113,70457,132,yes,1024
85.71428571,85.71428571,533.6992481,533.6992481,black,legacy,legacy,legacy,0,incongruent,uniform,1,undefined,1,s,132,0,0,0,132,0,132,0,132,NA,0,0,0,132,132,132,132,9/25/19 11:59,600,The main experiment item,yes,BR-Flankertask.osexp,C:/Users/Breena Riley/Desktop/2019 Fall/MultQuant/lab 2.1,no,mono,no,18,no,white,no,yes,768,legacy,52,79,C:/Users/Breena Riley/Desktop/2019 Fall/MultQuant/lab 2.1/subject-3.csv,legacy,Kafkaesque Koffka,3.2.8,0,s,NA,NA,s,h,NA,s,525,NA,NA,8941,1079,NA,525,2,legacy,1024,2,48000,-16,experiment,HHSHH,3,odd,254895,13080,159542,NA,250947,4128,247078,NA,256000,NA,4138,158462,NA,256102,256628,255998,256102,Flankertask,114,70982,133,yes,1024
85.82089552,85.82089552,533.7686567,533.7686567,black,legacy,legacy,legacy,0,congruent,uniform,1,undefined,1,h,133,0,0,0,133,0,133,0,133,NA,0,0,0,133,133,133,133,9/25/19 11:59,600,The main experiment item,yes,BR-Flankertask.osexp,C:/Users/Breena Riley/Desktop/2019 Fall/MultQuant/lab 2.1,no,mono,no,18,no,white,no,yes,768,legacy,53,79,C:/Users/Breena Riley/Desktop/2019 Fall/MultQuant/lab 2.1/subject-3.csv,legacy,Kafkaesque Koffka,3.2.8,0,h,NA,NA,s,h,NA,h,543,NA,NA,8941,1079,NA,543,2,legacy,1024,2,48000,-16,experiment,HHHHH,3,odd,256636,13080,159542,NA,250947,4128,247078,NA,257710,NA,4138,158462,NA,257811,258355,257708,257811,Flankertask,115,71525,134,yes,1024
85.92592593,85.92592593,533.8592593,533.8592593,black,legacy,legacy,legacy,0,congruent,uniform,1,undefined,1,h,134,0,0,0,134,0,134,0,134,NA,0,0,0,134,134,134,134,9/25/19 11:59,600,The main experiment item,yes,BR-Flankertask.osexp,C:/Users/Breena Riley/Desktop/2019 Fall/MultQuant/lab 2.1,no,mono,no,18,no,white,no,yes,768,legacy,54,79,C:/Users/Breena Riley/Desktop/2019 Fall/MultQuant/lab 2.1/subject-3.csv,legacy,Kafkaesque Koffka,3.2.8,0,h,NA,NA,s,h,NA,h,546,NA,NA,8941,1079,NA,546,2,legacy,1024,2,48000,-16,experiment,HHHHH,3,odd,258363,13080,159542,NA,250947,4128,247078,NA,259436,NA,4138,158462,NA,259537,260084,259433,259537,Flankertask,116,72071,135,yes,1024
86.02941176,86.02941176,534.5882353,534.5882353,black,legacy,legacy,legacy,0,incongruent,uniform,1,undefined,1,s,135,0,0,0,135,0,135,0,135,NA,0,0,0,135,135,135,135,9/25/19 11:59,600,The main experiment item,yes,BR-Flankertask.osexp,C:/Users/Breena Riley/Desktop/2019 Fall/MultQuant/lab 2.1,no,mono,no,18,no,white,no,yes,768,legacy,55,79,C:/Users/Breena Riley/Desktop/2019 Fall/MultQuant/lab 2.1/subject-3.csv,legacy,Kafkaesque Koffka,3.2.8,0,s,NA,NA,s,h,NA,s,633,NA,NA,8941,1079,NA,633,2,legacy,1024,2,48000,-16,experiment,HHSHH,3,odd,260092,13080,159542,NA,250947,4128,247078,NA,261166,NA,4138,158462,NA,261268,261904,261163,261267,Flankertask,117,72704,136,yes,1024
86.13138686,86.13138686,535.3576642,535.3576642,black,legacy,legacy,legacy,0,congruent,uniform,1,undefined,1,s,136,0,0,0,136,0,136,0,136,NA,0,0,0,136,136,136,136,9/25/19 11:59,600,The main experiment item,yes,BR-Flankertask.osexp,C:/Users/Breena Riley/Desktop/2019 Fall/MultQuant/lab 2.1,no,mono,no,18,no,white,no,yes,768,legacy,56,79,C:/Users/Breena Riley/Desktop/2019 Fall/MultQuant/lab 2.1/subject-3.csv,legacy,Kafkaesque Koffka,3.2.8,0,s,NA,NA,s,h,NA,s,640,NA,NA,8941,1079,NA,640,2,legacy,1024,2,48000,-16,experiment,SSSSS,3,odd,262416,13080,159542,NA,250947,4128,261914,NA,263489,NA,4138,158462,NA,263590,264232,263486,263590,Flankertask,118,73344,137,yes,1024
86.23188406,86.23188406,534.2898551,534.2898551,black,legacy,legacy,legacy,0,congruent,uniform,1,undefined,1,s,137,0,0,0,137,0,137,0,137,NA,0,0,0,137,137,137,137,9/25/19 11:59,600,The main experiment item,yes,BR-Flankertask.osexp,C:/Users/Breena Riley/Desktop/2019 Fall/MultQuant/lab 2.1,no,mono,no,18,no,white,no,yes,768,legacy,57,79,C:/Users/Breena Riley/Desktop/2019 Fall/MultQuant/lab 2.1/subject-3.csv,legacy,Kafkaesque Koffka,3.2.8,0,s,NA,NA,s,h,NA,s,388,NA,NA,8941,1079,NA,388,2,legacy,1024,2,48000,-16,experiment,SSSSS,3,odd,264741,13080,159542,NA,250947,4128,264240,NA,265814,NA,4138,158462,NA,265915,266304,265811,265915,Flankertask,119,73732,138,yes,1024
86.33093525,86.33093525,532.4604317,532.4604317,black,legacy,legacy,legacy,0,congruent,uniform,1,undefined,1,s,138,0,0,0,138,0,138,0,138,NA,0,0,0,138,138,138,138,9/25/19 11:59,600,The main experiment item,yes,BR-Flankertask.osexp,C:/Users/Breena Riley/Desktop/2019 Fall/MultQuant/lab 2.1,no,mono,no,18,no,white,no,yes,768,legacy,58,79,C:/Users/Breena Riley/Desktop/2019 Fall/MultQuant/lab 2.1/subject-3.csv,legacy,Kafkaesque Koffka,3.2.8,0,s,NA,NA,s,h,NA,s,280,NA,NA,8941,1079,NA,280,2,legacy,1024,2,48000,-16,experiment,SSSSS,3,odd,266312,13080,159542,NA,250947,4128,264240,NA,267386,NA,4138,158462,NA,267488,267769,267383,267488,Flankertask,120,74012,139,yes,1024
85.71428571,85.71428571,531.0785714,531.0785714,black,legacy,legacy,legacy,0,congruent,uniform,0,undefined,0,h,139,0,0,0,139,0,139,0,139,NA,0,0,0,139,139,139,139,9/25/19 11:59,600,The main experiment item,yes,BR-Flankertask.osexp,C:/Users/Breena Riley/Desktop/2019 Fall/MultQuant/lab 2.1,no,mono,no,18,no,white,no,yes,768,legacy,59,79,C:/Users/Breena Riley/Desktop/2019 Fall/MultQuant/lab 2.1/subject-3.csv,legacy,Kafkaesque Koffka,3.2.8,0,s,NA,NA,s,h,NA,s,339,NA,NA,8941,1079,NA,339,2,legacy,1024,2,48000,-16,experiment,HHHHH,3,odd,267774,13080,159542,NA,250947,4128,264240,NA,268847,NA,4138,158462,NA,268948,269288,268844,268948,Flankertask,120,74351,140,yes,1024
85.81560284,85.81560284,530.4042553,530.4042553,black,legacy,legacy,legacy,0,incongruent,uniform,1,undefined,1,s,140,0,0,0,140,0,140,0,140,NA,0,0,0,140,140,140,140,9/25/19 11:59,600,The main experiment item,yes,BR-Flankertask.osexp,C:/Users/Breena Riley/Desktop/2019 Fall/MultQuant/lab 2.1,no,mono,no,18,no,white,no,yes,768,legacy,60,79,C:/Users/Breena Riley/Desktop/2019 Fall/MultQuant/lab 2.1/subject-3.csv,legacy,Kafkaesque Koffka,3.2.8,0,s,NA,NA,s,h,NA,s,436,NA,NA,8941,1079,NA,436,2,legacy,1024,2,48000,-16,experiment,HHSHH,3,odd,269797,13080,159542,NA,269296,4128,264240,NA,270874,NA,4138,158462,NA,270976,271413,270871,270976,Flankertask,121,74787,141,yes,1024
85.91549296,85.91549296,530.6901408,530.6901408,black,legacy,legacy,legacy,0,incongruent,uniform,1,undefined,1,h,141,0,0,0,141,0,141,0,141,NA,0,0,0,141,141,141,141,9/25/19 11:59,600,The main experiment item,yes,BR-Flankertask.osexp,C:/Users/Breena Riley/Desktop/2019 Fall/MultQuant/lab 2.1,no,mono,no,18,no,white,no,yes,768,legacy,61,79,C:/Users/Breena Riley/Desktop/2019 Fall/MultQuant/lab 2.1/subject-3.csv,legacy,Kafkaesque Koffka,3.2.8,0,h,NA,NA,s,h,NA,h,571,NA,NA,8941,1079,NA,571,2,legacy,1024,2,48000,-16,experiment,SSHSS,3,odd,271423,13080,159542,NA,269296,4128,264240,NA,272495,NA,4138,158462,NA,272596,273168,272492,272596,Flankertask,122,75358,142,yes,1024
86.01398601,86.01398601,531.4335664,531.4335664,black,legacy,legacy,legacy,0,incongruent,uniform,1,undefined,1,s,142,0,0,0,142,0,142,0,142,NA,0,0,0,142,142,142,142,9/25/19 11:59,600,The main experiment item,yes,BR-Flankertask.osexp,C:/Users/Breena Riley/Desktop/2019 Fall/MultQuant/lab 2.1,no,mono,no,18,no,white,no,yes,768,legacy,62,79,C:/Users/Breena Riley/Desktop/2019 Fall/MultQuant/lab 2.1/subject-3.csv,legacy,Kafkaesque Koffka,3.2.8,0,s,NA,NA,s,h,NA,s,637,NA,NA,8941,1079,NA,637,2,legacy,1024,2,48000,-16,experiment,HHSHH,3,odd,273176,13080,159542,NA,269296,4128,264240,NA,274250,NA,4138,158462,NA,274351,274989,274247,274351,Flankertask,123,75995,143,yes,1024
85.41666667,85.41666667,531.0902778,531.0902778,black,legacy,legacy,legacy,0,incongruent,uniform,0,undefined,0,h,143,0,0,0,143,0,143,0,143,NA,0,0,0,143,143,143,143,9/25/19 11:59,600,The main experiment item,yes,BR-Flankertask.osexp,C:/Users/Breena Riley/Desktop/2019 Fall/MultQuant/lab 2.1,no,mono,no,18,no,white,no,yes,768,legacy,63,79,C:/Users/Breena Riley/Desktop/2019 Fall/MultQuant/lab 2.1/subject-3.csv,legacy,Kafkaesque Koffka,3.2.8,0,s,NA,NA,s,h,NA,s,482,NA,NA,8941,1079,NA,482,2,legacy,1024,2,48000,-16,experiment,SSHSS,3,odd,275498,13080,159542,NA,269296,4128,274997,NA,276577,NA,4138,158462,NA,276679,277163,276575,276679,Flankertask,123,76477,144,yes,1024
85.51724138,85.51724138,531.0758621,531.0758621,black,legacy,legacy,legacy,0,incongruent,uniform,1,undefined,1,h,144,0,0,0,144,0,144,0,144,NA,0,0,0,144,144,144,144,9/25/19 11:59,600,The main experiment item,yes,BR-Flankertask.osexp,C:/Users/Breena Riley/Desktop/2019 Fall/MultQuant/lab 2.1,no,mono,no,18,no,white,no,yes,768,legacy,64,79,C:/Users/Breena Riley/Desktop/2019 Fall/MultQuant/lab 2.1/subject-3.csv,legacy,Kafkaesque Koffka,3.2.8,0,h,NA,NA,s,h,NA,h,529,NA,NA,8941,1079,NA,529,2,legacy,1024,2,48000,-16,experiment,SSHSS,3,odd,277672,13080,159542,NA,277171,4128,274997,NA,278743,NA,4138,158462,NA,278844,279375,278741,278844,Flankertask,124,77006,145,yes,1024
85.61643836,85.61643836,531.0068493,531.0068493,black,legacy,legacy,legacy,0,congruent,uniform,1,undefined,1,h,145,0,0,0,145,0,145,0,145,NA,0,0,0,145,145,145,145,9/25/19 11:59,600,The main experiment item,yes,BR-Flankertask.osexp,C:/Users/Breena Riley/Desktop/2019 Fall/MultQuant/lab 2.1,no,mono,no,18,no,white,no,yes,768,legacy,65,79,C:/Users/Breena Riley/Desktop/2019 Fall/MultQuant/lab 2.1/subject-3.csv,legacy,Kafkaesque Koffka,3.2.8,0,h,NA,NA,s,h,NA,h,521,NA,NA,8941,1079,NA,521,2,legacy,1024,2,48000,-16,experiment,HHHHH,3,odd,279383,13080,159542,NA,277171,4128,274997,NA,280459,NA,4138,158462,NA,280561,281084,280456,280561,Flankertask,125,77527,146,yes,1024
85.71428571,85.71428571,530.3265306,530.3265306,black,legacy,legacy,legacy,0,congruent,uniform,1,undefined,1,h,146,0,0,0,146,0,146,0,146,NA,0,0,0,146,146,146,146,9/25/19 11:59,600,The main experiment item,yes,BR-Flankertask.osexp,C:/Users/Breena Riley/Desktop/2019 Fall/MultQuant/lab 2.1,no,mono,no,18,no,white,no,yes,768,legacy,66,79,C:/Users/Breena Riley/Desktop/2019 Fall/MultQuant/lab 2.1/subject-3.csv,legacy,Kafkaesque Koffka,3.2.8,0,h,NA,NA,s,h,NA,h,431,NA,NA,8941,1079,NA,431,2,legacy,1024,2,48000,-16,experiment,HHHHH,3,odd,281092,13080,159542,NA,277171,4128,274997,NA,282166,NA,4138,158462,NA,282268,282700,282163,282267,Flankertask,126,77958,147,yes,1024
85.81081081,85.81081081,529.4324324,529.4324324,black,legacy,legacy,legacy,0,congruent,uniform,1,undefined,1,s,147,0,0,0,147,0,147,0,147,NA,0,0,0,147,147,147,147,9/25/19 11:59,600,The main experiment item,yes,BR-Flankertask.osexp,C:/Users/Breena Riley/Desktop/2019 Fall/MultQuant/lab 2.1,no,mono,no,18,no,white,no,yes,768,legacy,67,79,C:/Users/Breena Riley/Desktop/2019 Fall/MultQuant/lab 2.1/subject-3.csv,legacy,Kafkaesque Koffka,3.2.8,0,s,NA,NA,s,h,NA,s,398,NA,NA,8941,1079,NA,398,2,legacy,1024,2,48000,-16,experiment,SSSSS,3,odd,282708,13080,159542,NA,277171,4128,274997,NA,283784,NA,4138,158462,NA,283886,284286,283781,283886,Flankertask,127,78356,148,yes,1024
85.90604027,85.90604027,528.8791946,528.8791946,black,legacy,legacy,legacy,0,congruent,uniform,1,undefined,1,s,148,0,0,0,148,0,148,0,148,NA,0,0,0,148,148,148,148,9/25/19 11:59,600,The main experiment item,yes,BR-Flankertask.osexp,C:/Users/Breena Riley/Desktop/2019 Fall/MultQuant/lab 2.1,no,mono,no,18,no,white,no,yes,768,legacy,68,79,C:/Users/Breena Riley/Desktop/2019 Fall/MultQuant/lab 2.1/subject-3.csv,legacy,Kafkaesque Koffka,3.2.8,0,s,NA,NA,s,h,NA,s,447,NA,NA,8941,1079,NA,447,2,legacy,1024,2,48000,-16,experiment,SSSSS,3,odd,284294,13080,159542,NA,277171,4128,274997,NA,285366,NA,4138,158462,NA,285468,285919,285363,285468,Flankertask,128,78803,149,yes,1024
86,86,529.1,529.1,black,legacy,legacy,legacy,0,incongruent,uniform,1,undefined,1,h,149,0,0,0,149,0,149,0,149,NA,0,0,0,149,149,149,149,9/25/19 11:59,600,The main experiment item,yes,BR-Flankertask.osexp,C:/Users/Breena Riley/Desktop/2019 Fall/MultQuant/lab 2.1,no,mono,no,18,no,white,no,yes,768,legacy,69,79,C:/Users/Breena Riley/Desktop/2019 Fall/MultQuant/lab 2.1/subject-3.csv,legacy,Kafkaesque Koffka,3.2.8,0,h,NA,NA,s,h,NA,h,562,NA,NA,8941,1079,NA,562,2,legacy,1024,2,48000,-16,experiment,SSHSS,3,odd,285928,13080,159542,NA,277171,4128,274997,NA,287001,NA,4138,158462,NA,287102,287665,286998,287102,Flankertask,129,79365,150,yes,1024
86.09271523,86.09271523,529.0397351,529.0397351,black,legacy,legacy,legacy,0,incongruent,uniform,1,undefined,1,h,150,0,0,0,150,0,150,0,150,NA,0,0,0,150,150,150,150,9/25/19 11:59,600,The main experiment item,yes,BR-Flankertask.osexp,C:/Users/Breena Riley/Desktop/2019 Fall/MultQuant/lab 2.1,no,mono,no,18,no,white,no,yes,768,legacy,70,79,C:/Users/Breena Riley/Desktop/2019 Fall/MultQuant/lab 2.1/subject-3.csv,legacy,Kafkaesque Koffka,3.2.8,0,h,NA,NA,s,h,NA,h,520,NA,NA,8941,1079,NA,520,2,legacy,1024,2,48000,-16,experiment,SSHSS,3,odd,287674,13080,159542,NA,277171,4128,274997,NA,288747,NA,4138,158462,NA,288849,289369,288745,288849,Flankertask,130,79885,151,yes,1024
86.18421053,86.18421053,528.7368421,528.7368421,black,legacy,legacy,legacy,0,incongruent,uniform,1,undefined,1,s,151,0,0,0,151,0,151,0,151,NA,0,0,0,151,151,151,151,9/25/19 11:59,600,The main experiment item,yes,BR-Flankertask.osexp,C:/Users/Breena Riley/Desktop/2019 Fall/MultQuant/lab 2.1,no,mono,no,18,no,white,no,yes,768,legacy,71,79,C:/Users/Breena Riley/Desktop/2019 Fall/MultQuant/lab 2.1/subject-3.csv,legacy,Kafkaesque Koffka,3.2.8,0,s,NA,NA,s,h,NA,s,483,NA,NA,8941,1079,NA,483,2,legacy,1024,2,48000,-16,experiment,HHSHH,3,odd,289377,13080,159542,NA,277171,4128,274997,NA,290453,NA,4138,158462,NA,290554,291039,290450,290554,Flankertask,131,80368,152,yes,1024
