acc,accuracy,average_response_time,avg_rt,background,canvas_backend,clock_backend,color_backend,compensation,condition,coordinates,correct,correct_instructions1,correct_keyboard_response,correct_response,count_Block1,count_Block2,count_Block3,count_errorFeedback,count_experiment,count_faster,count_finish,count_fixation,count_instructions1,count_instructions2,count_instructions3,count_isi,count_keyboard_response,count_logger,count_sequence,count_sketchpad,count_sketchpad_1,count_stimulus,datetime,deadline,description,disable_garbage_collection,experiment_file,experiment_path,font_bold,font_family,font_italic,font_size,font_underline,foreground,form_clicks,fullscreen,height,keyboard_backend,live_row,live_row_Block1,logfile,mouse_backend,opensesame_codename,opensesame_version,repeat_cycle,response,response_finish,response_instructions1,response_instructions2,response_instructions3,response_keyboard_response,response_sketchpad,response_sketchpad_1,response_time,response_time_finish,response_time_instructions1,response_time_instructions2,response_time_instructions3,response_time_keyboard_response,response_time_sketchpad,response_time_sketchpad_1,round_decimals,sampler_backend,sound_buf_size,sound_channels,sound_freq,sound_sample_size,start,stimulus,subject_nr,subject_parity,time_Block1,time_Block2,time_Block3,time_errorFeedback,time_experiment,time_faster,time_finish,time_fixation,time_instructions1,time_instructions2,time_instructions3,time_isi,time_keyboard_response,time_logger,time_sequence,time_sketchpad,time_sketchpad_1,time_stimulus,title,total_correct,total_response_time,total_responses,uniform_coordinates,width
100,100,660,660,black,legacy,legacy,legacy,0,congruent,uniform,1,undefined,1,s,0,0,0,0,0,0,0,0,0,0,0,0,0,0,0,NA,NA,0,9/25/19 17:00,1500,The main experiment item,yes,Week4submit.osexp,C:/Users/DLGoupil/Desktop,no,mono,no,18,no,white,no,yes,768,legacy,0,0,C:/Users/DLGoupil/Desktop/subject-2.1.csv,legacy,Kafkaesque Koffka,3.2.8,0,s,NA,s,NA,NA,s,NA,NA,660,NA,230006,NA,NA,660,NA,NA,2,legacy,1024,2,48000,-16,experiment,SSSSS,2,even,232992,NA,NA,NA,2980,NA,NA,233228,2984,NA,NA,NA,233330,233991,233225,NA,NA,233330,Week4submit,1,660,1,yes,1024
100,100,560,560,black,legacy,legacy,legacy,0,congruent,uniform,1,undefined,1,h,0,0,0,1,0,1,0,1,0,0,0,1,1,1,1,NA,NA,1,9/25/19 17:00,1500,The main experiment item,yes,Week4submit.osexp,C:/Users/DLGoupil/Desktop,no,mono,no,18,no,white,no,yes,768,legacy,1,1,C:/Users/DLGoupil/Desktop/subject-2.1.csv,legacy,Kafkaesque Koffka,3.2.8,0,h,NA,s,NA,NA,h,NA,NA,460,NA,230006,NA,NA,460,NA,NA,2,legacy,1024,2,48000,-16,experiment,HHHHH,2,even,232992,NA,NA,NA,2980,NA,NA,235100,2984,NA,NA,234002,235203,235663,235097,NA,NA,235203,Week4submit,2,1120,2,yes,1024
100,100,493,493,black,legacy,legacy,legacy,0,congruent,uniform,1,undefined,1,s,0,0,0,2,0,2,0,2,0,0,0,2,2,2,2,NA,NA,2,9/25/19 17:00,1500,The main experiment item,yes,Week4submit.osexp,C:/Users/DLGoupil/Desktop,no,mono,no,18,no,white,no,yes,768,legacy,2,2,C:/Users/DLGoupil/Desktop/subject-2.1.csv,legacy,Kafkaesque Koffka,3.2.8,0,s,NA,s,NA,NA,s,NA,NA,359,NA,230006,NA,NA,359,NA,NA,2,legacy,1024,2,48000,-16,experiment,SSSSS,2,even,232992,NA,NA,NA,2980,NA,NA,236768,2984,NA,NA,235668,236871,237231,236765,NA,NA,236871,Week4submit,3,1479,3,yes,1024
75,75,467,467,black,legacy,legacy,legacy,0,incongruent,uniform,0,undefined,0,h,0,0,0,3,0,3,0,3,0,0,0,3,3,3,3,NA,NA,3,9/25/19 17:00,1500,The main experiment item,yes,Week4submit.osexp,C:/Users/DLGoupil/Desktop,no,mono,no,18,no,white,no,yes,768,legacy,3,3,C:/Users/DLGoupil/Desktop/subject-2.1.csv,legacy,Kafkaesque Koffka,3.2.8,0,s,NA,s,NA,NA,s,NA,NA,389,NA,230006,NA,NA,389,NA,NA,2,legacy,1024,2,48000,-16,experiment,SSHSS,2,even,232992,NA,NA,NA,2980,NA,NA,238347,2984,NA,NA,237236,238450,238839,238344,NA,NA,238450,Week4submit,3,1868,4,yes,1024
80,80,456.2,456.2,black,legacy,legacy,legacy,0,congruent,uniform,1,undefined,1,h,0,0,0,4,0,4,0,4,0,0,0,4,4,4,4,NA,NA,4,9/25/19 17:00,1500,The main experiment item,yes,Week4submit.osexp,C:/Users/DLGoupil/Desktop,no,mono,no,18,no,white,no,yes,768,legacy,4,4,C:/Users/DLGoupil/Desktop/subject-2.1.csv,legacy,Kafkaesque Koffka,3.2.8,0,h,NA,s,NA,NA,h,NA,NA,413,NA,230006,NA,NA,413,NA,NA,2,legacy,1024,2,48000,-16,experiment,HHHHH,2,even,232992,NA,NA,238844,2980,NA,NA,240451,2984,NA,NA,239347,240554,240967,240448,NA,NA,240554,Week4submit,4,2281,5,yes,1024
83.33333333,83.33333333,450.3333333,450.3333333,black,legacy,legacy,legacy,0,congruent,uniform,1,undefined,1,h,0,0,0,5,0,5,0,5,0,0,0,5,5,5,5,NA,NA,5,9/25/19 17:00,1500,The main experiment item,yes,Week4submit.osexp,C:/Users/DLGoupil/Desktop,no,mono,no,18,no,white,no,yes,768,legacy,5,5,C:/Users/DLGoupil/Desktop/subject-2.1.csv,legacy,Kafkaesque Koffka,3.2.8,0,h,NA,s,NA,NA,h,NA,NA,421,NA,230006,NA,NA,421,NA,NA,2,legacy,1024,2,48000,-16,experiment,HHHHH,2,even,232992,NA,NA,238844,2980,NA,NA,242075,2984,NA,NA,240972,242178,242599,242072,NA,NA,242178,Week4submit,5,2702,6,yes,1024
85.71428571,85.71428571,461,461,black,legacy,legacy,legacy,0,incongruent,uniform,1,undefined,1,h,0,0,0,6,0,6,0,6,0,0,0,6,6,6,6,NA,NA,6,9/25/19 17:00,1500,The main experiment item,yes,Week4submit.osexp,C:/Users/DLGoupil/Desktop,no,mono,no,18,no,white,no,yes,768,legacy,6,6,C:/Users/DLGoupil/Desktop/subject-2.1.csv,legacy,Kafkaesque Koffka,3.2.8,0,h,NA,s,NA,NA,h,NA,NA,525,NA,230006,NA,NA,525,NA,NA,2,legacy,1024,2,48000,-16,experiment,SSHSS,2,even,232992,NA,NA,238844,2980,NA,NA,243715,2984,NA,NA,242605,243818,244343,243712,NA,NA,243818,Week4submit,6,3227,7,yes,1024
87.5,87.5,454.125,454.125,black,legacy,legacy,legacy,0,congruent,uniform,1,undefined,1,h,0,0,0,7,0,7,0,7,0,0,0,7,7,7,7,NA,NA,7,9/25/19 17:00,1500,The main experiment item,yes,Week4submit.osexp,C:/Users/DLGoupil/Desktop,no,mono,no,18,no,white,no,yes,768,legacy,7,7,C:/Users/DLGoupil/Desktop/subject-2.1.csv,legacy,Kafkaesque Koffka,3.2.8,0,h,NA,s,NA,NA,h,NA,NA,406,NA,230006,NA,NA,406,NA,NA,2,legacy,1024,2,48000,-16,experiment,HHHHH,2,even,232992,NA,NA,238844,2980,NA,NA,245458,2984,NA,NA,244349,245561,245967,245455,NA,NA,245561,Week4submit,7,3633,8,yes,1024
88.88888889,88.88888889,448.8888889,448.8888889,black,legacy,legacy,legacy,0,congruent,uniform,1,undefined,1,h,0,0,0,8,0,8,0,8,0,0,0,8,8,8,8,NA,NA,8,9/25/19 17:00,1500,The main experiment item,yes,Week4submit.osexp,C:/Users/DLGoupil/Desktop,no,mono,no,18,no,white,no,yes,768,legacy,8,8,C:/Users/DLGoupil/Desktop/subject-2.1.csv,legacy,Kafkaesque Koffka,3.2.8,0,h,NA,s,NA,NA,h,NA,NA,407,NA,230006,NA,NA,407,NA,NA,2,legacy,1024,2,48000,-16,experiment,HHHHH,2,even,232992,NA,NA,238844,2980,NA,NA,247081,2984,NA,NA,245972,247184,247591,247079,NA,NA,247184,Week4submit,8,4040,9,yes,1024
90,90,444.2,444.2,black,legacy,legacy,legacy,0,congruent,uniform,1,undefined,1,h,0,0,0,9,0,9,0,9,0,0,0,9,9,9,9,NA,NA,9,9/25/19 17:00,1500,The main experiment item,yes,Week4submit.osexp,C:/Users/DLGoupil/Desktop,no,mono,no,18,no,white,no,yes,768,legacy,9,9,C:/Users/DLGoupil/Desktop/subject-2.1.csv,legacy,Kafkaesque Koffka,3.2.8,0,h,NA,s,NA,NA,h,NA,NA,402,NA,230006,NA,NA,402,NA,NA,2,legacy,1024,2,48000,-16,experiment,HHHHH,2,even,232992,NA,NA,238844,2980,NA,NA,248725,2984,NA,NA,247615,248828,249231,248722,NA,NA,248828,Week4submit,9,4442,10,yes,1024
90.90909091,90.90909091,435.6363636,435.6363636,black,legacy,legacy,legacy,0,congruent,uniform,1,undefined,1,h,0,0,0,10,0,10,0,10,0,0,0,10,10,10,10,NA,NA,10,9/25/19 17:00,1500,The main experiment item,yes,Week4submit.osexp,C:/Users/DLGoupil/Desktop,no,mono,no,18,no,white,no,yes,768,legacy,10,10,C:/Users/DLGoupil/Desktop/subject-2.1.csv,legacy,Kafkaesque Koffka,3.2.8,0,h,NA,s,NA,NA,h,NA,NA,350,NA,230006,NA,NA,350,NA,NA,2,legacy,1024,2,48000,-16,experiment,HHHHH,2,even,232992,NA,NA,238844,2980,NA,NA,250345,2984,NA,NA,249236,250449,250799,250343,NA,NA,250449,Week4submit,10,4792,11,yes,1024
91.66666667,91.66666667,441.3333333,441.3333333,black,legacy,legacy,legacy,0,incongruent,uniform,1,undefined,1,s,0,0,0,11,0,11,0,11,0,0,0,11,11,11,11,NA,NA,11,9/25/19 17:00,1500,The main experiment item,yes,Week4submit.osexp,C:/Users/DLGoupil/Desktop,no,mono,no,18,no,white,no,yes,768,legacy,11,11,C:/Users/DLGoupil/Desktop/subject-2.1.csv,legacy,Kafkaesque Koffka,3.2.8,0,s,NA,s,NA,NA,s,NA,NA,504,NA,230006,NA,NA,504,NA,NA,2,legacy,1024,2,48000,-16,experiment,HHSHH,2,even,232992,NA,NA,238844,2980,NA,NA,251911,2984,NA,NA,250805,252014,252519,251908,NA,NA,252014,Week4submit,11,5296,12,yes,1024
92.30769231,92.30769231,439.2307692,439.2307692,black,legacy,legacy,legacy,0,incongruent,uniform,1,undefined,1,h,0,0,0,12,0,12,0,12,0,0,0,12,12,12,12,NA,NA,12,9/25/19 17:00,1500,The main experiment item,yes,Week4submit.osexp,C:/Users/DLGoupil/Desktop,no,mono,no,18,no,white,no,yes,768,legacy,12,12,C:/Users/DLGoupil/Desktop/subject-2.1.csv,legacy,Kafkaesque Koffka,3.2.8,0,h,NA,s,NA,NA,h,NA,NA,414,NA,230006,NA,NA,414,NA,NA,2,legacy,1024,2,48000,-16,experiment,SSHSS,2,even,232992,NA,NA,238844,2980,NA,NA,253625,2984,NA,NA,252524,253728,254143,253622,NA,NA,253728,Week4submit,12,5710,13,yes,1024
92.85714286,92.85714286,444.1428571,444.1428571,black,legacy,legacy,legacy,0,incongruent,uniform,1,undefined,1,h,0,0,0,13,0,13,0,13,0,0,0,13,13,13,13,NA,NA,13,9/25/19 17:00,1500,The main experiment item,yes,Week4submit.osexp,C:/Users/DLGoupil/Desktop,no,mono,no,18,no,white,no,yes,768,legacy,13,13,C:/Users/DLGoupil/Desktop/subject-2.1.csv,legacy,Kafkaesque Koffka,3.2.8,0,h,NA,s,NA,NA,h,NA,NA,508,NA,230006,NA,NA,508,NA,NA,2,legacy,1024,2,48000,-16,experiment,SSHSS,2,even,232992,NA,NA,238844,2980,NA,NA,255251,2984,NA,NA,254148,255354,255863,255248,NA,NA,255354,Week4submit,13,6218,14,yes,1024
93.33333333,93.33333333,445.7333333,445.7333333,black,legacy,legacy,legacy,0,incongruent,uniform,1,undefined,1,h,0,0,0,14,0,14,0,14,0,0,0,14,14,14,14,NA,NA,14,9/25/19 17:00,1500,The main experiment item,yes,Week4submit.osexp,C:/Users/DLGoupil/Desktop,no,mono,no,18,no,white,no,yes,768,legacy,14,14,C:/Users/DLGoupil/Desktop/subject-2.1.csv,legacy,Kafkaesque Koffka,3.2.8,0,h,NA,s,NA,NA,h,NA,NA,468,NA,230006,NA,NA,468,NA,NA,2,legacy,1024,2,48000,-16,experiment,SSHSS,2,even,232992,NA,NA,238844,2980,NA,NA,256979,2984,NA,NA,255869,257082,257551,256976,NA,NA,257082,Week4submit,14,6686,15,yes,1024
93.75,93.75,455.4375,455.4375,black,legacy,legacy,legacy,0,incongruent,uniform,1,undefined,1,s,0,0,0,15,0,15,0,15,0,0,0,15,15,15,15,NA,NA,15,9/25/19 17:00,1500,The main experiment item,yes,Week4submit.osexp,C:/Users/DLGoupil/Desktop,no,mono,no,18,no,white,no,yes,768,legacy,15,15,C:/Users/DLGoupil/Desktop/subject-2.1.csv,legacy,Kafkaesque Koffka,3.2.8,0,s,NA,s,NA,NA,s,NA,NA,601,NA,230006,NA,NA,601,NA,NA,2,legacy,1024,2,48000,-16,experiment,HHSHH,2,even,232992,NA,NA,238844,2980,NA,NA,258662,2984,NA,NA,257556,258765,259367,258659,NA,NA,258765,Week4submit,15,7287,16,yes,1024
94.11764706,94.11764706,455.2352941,455.2352941,black,legacy,legacy,legacy,0,incongruent,uniform,1,undefined,1,s,0,0,0,16,0,16,0,16,0,0,0,16,16,16,16,NA,NA,16,9/25/19 17:00,1500,The main experiment item,yes,Week4submit.osexp,C:/Users/DLGoupil/Desktop,no,mono,no,18,no,white,no,yes,768,legacy,16,16,C:/Users/DLGoupil/Desktop/subject-2.1.csv,legacy,Kafkaesque Koffka,3.2.8,0,s,NA,s,NA,NA,s,NA,NA,452,NA,230006,NA,NA,452,NA,NA,2,legacy,1024,2,48000,-16,experiment,HHSHH,2,even,232992,NA,NA,238844,2980,NA,NA,260475,2984,NA,NA,259372,260578,261031,260472,NA,NA,260578,Week4submit,16,7739,17,yes,1024
94.44444444,94.44444444,453,453,black,legacy,legacy,legacy,0,incongruent,uniform,1,undefined,1,s,0,0,0,17,0,17,0,17,0,0,0,17,17,17,17,NA,NA,17,9/25/19 17:00,1500,The main experiment item,yes,Week4submit.osexp,C:/Users/DLGoupil/Desktop,no,mono,no,18,no,white,no,yes,768,legacy,17,17,C:/Users/DLGoupil/Desktop/subject-2.1.csv,legacy,Kafkaesque Koffka,3.2.8,0,s,NA,s,NA,NA,s,NA,NA,415,NA,230006,NA,NA,415,NA,NA,2,legacy,1024,2,48000,-16,experiment,HHSHH,2,even,232992,NA,NA,238844,2980,NA,NA,262144,2984,NA,NA,261036,262247,262663,262141,NA,NA,262247,Week4submit,17,8154,18,yes,1024
94.73684211,94.73684211,454.3684211,454.3684211,black,legacy,legacy,legacy,0,incongruent,uniform,1,undefined,1,h,0,0,0,18,0,18,0,18,0,0,0,18,18,18,18,NA,NA,18,9/25/19 17:00,1500,The main experiment item,yes,Week4submit.osexp,C:/Users/DLGoupil/Desktop,no,mono,no,18,no,white,no,yes,768,legacy,18,18,C:/Users/DLGoupil/Desktop/subject-2.1.csv,legacy,Kafkaesque Koffka,3.2.8,0,h,NA,s,NA,NA,h,NA,NA,479,NA,230006,NA,NA,479,NA,NA,2,legacy,1024,2,48000,-16,experiment,SSHSS,2,even,232992,NA,NA,238844,2980,NA,NA,263768,2984,NA,NA,262668,263871,264351,263765,NA,NA,263871,Week4submit,18,8633,19,yes,1024
95,95,457.5,457.5,black,legacy,legacy,legacy,0,congruent,uniform,1,undefined,1,h,0,0,0,19,0,19,0,19,0,0,0,19,19,19,19,NA,NA,19,9/25/19 17:00,1500,The main experiment item,yes,Week4submit.osexp,C:/Users/DLGoupil/Desktop,no,mono,no,18,no,white,no,yes,768,legacy,19,19,C:/Users/DLGoupil/Desktop/subject-2.1.csv,legacy,Kafkaesque Koffka,3.2.8,0,h,NA,s,NA,NA,h,NA,NA,517,NA,230006,NA,NA,517,NA,NA,2,legacy,1024,2,48000,-16,experiment,HHHHH,2,even,232992,NA,NA,238844,2980,NA,NA,265466,2984,NA,NA,264356,265569,266087,265463,NA,NA,265569,Week4submit,19,9150,20,yes,1024
95.23809524,95.23809524,457.6190476,457.6190476,black,legacy,legacy,legacy,0,incongruent,uniform,1,undefined,1,h,0,0,0,20,0,20,0,20,0,0,0,20,20,20,20,NA,NA,20,9/25/19 17:00,1500,The main experiment item,yes,Week4submit.osexp,C:/Users/DLGoupil/Desktop,no,mono,no,18,no,white,no,yes,768,legacy,20,20,C:/Users/DLGoupil/Desktop/subject-2.1.csv,legacy,Kafkaesque Koffka,3.2.8,0,h,NA,s,NA,NA,h,NA,NA,460,NA,230006,NA,NA,460,NA,NA,2,legacy,1024,2,48000,-16,experiment,SSHSS,2,even,232992,NA,NA,238844,2980,NA,NA,267195,2984,NA,NA,266092,267298,267759,267192,NA,NA,267298,Week4submit,20,9610,21,yes,1024
95.45454545,95.45454545,454.5,454.5,black,legacy,legacy,legacy,0,incongruent,uniform,1,undefined,1,s,0,0,0,21,0,21,0,21,0,0,0,21,21,21,21,NA,NA,21,9/25/19 17:00,1500,The main experiment item,yes,Week4submit.osexp,C:/Users/DLGoupil/Desktop,no,mono,no,18,no,white,no,yes,768,legacy,21,21,C:/Users/DLGoupil/Desktop/subject-2.1.csv,legacy,Kafkaesque Koffka,3.2.8,0,s,NA,s,NA,NA,s,NA,NA,389,NA,230006,NA,NA,389,NA,NA,2,legacy,1024,2,48000,-16,experiment,HHSHH,2,even,232992,NA,NA,238844,2980,NA,NA,268866,2984,NA,NA,267764,268969,269359,268863,NA,NA,268969,Week4submit,21,9999,22,yes,1024
95.65217391,95.65217391,453.3478261,453.3478261,black,legacy,legacy,legacy,0,congruent,uniform,1,undefined,1,h,0,0,0,22,0,22,0,22,0,0,0,22,22,22,22,NA,NA,22,9/25/19 17:00,1500,The main experiment item,yes,Week4submit.osexp,C:/Users/DLGoupil/Desktop,no,mono,no,18,no,white,no,yes,768,legacy,22,22,C:/Users/DLGoupil/Desktop/subject-2.1.csv,legacy,Kafkaesque Koffka,3.2.8,0,h,NA,s,NA,NA,h,NA,NA,428,NA,230006,NA,NA,428,NA,NA,2,legacy,1024,2,48000,-16,experiment,HHHHH,2,even,232992,NA,NA,238844,2980,NA,NA,270475,2984,NA,NA,269364,270578,271007,270472,NA,NA,270578,Week4submit,22,10427,23,yes,1024
95.83333333,95.83333333,451.2916667,451.2916667,black,legacy,legacy,legacy,0,congruent,uniform,1,undefined,1,h,0,0,0,23,0,23,0,23,0,0,0,23,23,23,23,NA,NA,23,9/25/19 17:00,1500,The main experiment item,yes,Week4submit.osexp,C:/Users/DLGoupil/Desktop,no,mono,no,18,no,white,no,yes,768,legacy,23,23,C:/Users/DLGoupil/Desktop/subject-2.1.csv,legacy,Kafkaesque Koffka,3.2.8,0,h,NA,s,NA,NA,h,NA,NA,404,NA,230006,NA,NA,404,NA,NA,2,legacy,1024,2,48000,-16,experiment,HHHHH,2,even,232992,NA,NA,238844,2980,NA,NA,272115,2984,NA,NA,271012,272218,272623,272112,NA,NA,272218,Week4submit,23,10831,24,yes,1024
96,96,451.64,451.64,black,legacy,legacy,legacy,0,congruent,uniform,1,undefined,1,s,0,0,0,24,0,24,0,24,0,0,0,24,24,24,24,NA,NA,24,9/25/19 17:00,1500,The main experiment item,yes,Week4submit.osexp,C:/Users/DLGoupil/Desktop,no,mono,no,18,no,white,no,yes,768,legacy,24,24,C:/Users/DLGoupil/Desktop/subject-2.1.csv,legacy,Kafkaesque Koffka,3.2.8,0,s,NA,s,NA,NA,s,NA,NA,460,NA,230006,NA,NA,460,NA,NA,2,legacy,1024,2,48000,-16,experiment,SSSSS,2,even,232992,NA,NA,238844,2980,NA,NA,273731,2984,NA,NA,272628,273834,274295,273728,NA,NA,273834,Week4submit,24,11291,25,yes,1024
96.15384615,96.15384615,449.4615385,449.4615385,black,legacy,legacy,legacy,0,incongruent,uniform,1,undefined,1,h,0,0,0,25,0,25,0,25,0,0,0,25,25,25,25,NA,NA,25,9/25/19 17:00,1500,The main experiment item,yes,Week4submit.osexp,C:/Users/DLGoupil/Desktop,no,mono,no,18,no,white,no,yes,768,legacy,25,25,C:/Users/DLGoupil/Desktop/subject-2.1.csv,legacy,Kafkaesque Koffka,3.2.8,0,h,NA,s,NA,NA,h,NA,NA,395,NA,230006,NA,NA,395,NA,NA,2,legacy,1024,2,48000,-16,experiment,SSHSS,2,even,232992,NA,NA,238844,2980,NA,NA,275403,2984,NA,NA,274300,275507,275903,275401,NA,NA,275507,Week4submit,25,11686,26,yes,1024
96.2962963,96.2962963,449.962963,449.962963,black,legacy,legacy,legacy,0,incongruent,uniform,1,undefined,1,h,0,0,0,26,0,26,0,26,0,0,0,26,26,26,26,NA,NA,26,9/25/19 17:00,1500,The main experiment item,yes,Week4submit.osexp,C:/Users/DLGoupil/Desktop,no,mono,no,18,no,white,no,yes,768,legacy,26,26,C:/Users/DLGoupil/Desktop/subject-2.1.csv,legacy,Kafkaesque Koffka,3.2.8,0,h,NA,s,NA,NA,h,NA,NA,463,NA,230006,NA,NA,463,NA,NA,2,legacy,1024,2,48000,-16,experiment,SSHSS,2,even,232992,NA,NA,238844,2980,NA,NA,277017,2984,NA,NA,275908,277120,277583,277014,NA,NA,277120,Week4submit,26,12149,27,yes,1024
92.85714286,92.85714286,448.9285714,448.9285714,black,legacy,legacy,legacy,0,congruent,uniform,0,undefined,0,h,0,0,0,27,0,27,0,27,0,0,0,27,27,27,27,NA,NA,27,9/25/19 17:00,1500,The main experiment item,yes,Week4submit.osexp,C:/Users/DLGoupil/Desktop,no,mono,no,18,no,white,no,yes,768,legacy,27,27,C:/Users/DLGoupil/Desktop/subject-2.1.csv,legacy,Kafkaesque Koffka,3.2.8,0,s,NA,s,NA,NA,s,NA,NA,421,NA,230006,NA,NA,421,NA,NA,2,legacy,1024,2,48000,-16,experiment,HHHHH,2,even,232992,NA,NA,238844,2980,NA,NA,278699,2984,NA,NA,277589,278802,279223,278696,NA,NA,278802,Week4submit,26,12570,28,yes,1024
93.10344828,93.10344828,452.6551724,452.6551724,black,legacy,legacy,legacy,0,incongruent,uniform,1,undefined,1,s,0,0,0,28,0,28,0,28,0,0,0,28,28,28,28,NA,NA,28,9/25/19 17:00,1500,The main experiment item,yes,Week4submit.osexp,C:/Users/DLGoupil/Desktop,no,mono,no,18,no,white,no,yes,768,legacy,28,28,C:/Users/DLGoupil/Desktop/subject-2.1.csv,legacy,Kafkaesque Koffka,3.2.8,0,s,NA,s,NA,NA,s,NA,NA,557,NA,230006,NA,NA,557,NA,NA,2,legacy,1024,2,48000,-16,experiment,HHSHH,2,even,232992,NA,NA,279229,2980,NA,NA,280834,2984,NA,NA,279732,280937,281495,280831,NA,NA,280937,Week4submit,27,13127,29,yes,1024
93.33333333,93.33333333,453.7,453.7,black,legacy,legacy,legacy,0,incongruent,uniform,1,undefined,1,s,0,0,0,29,0,29,0,29,0,0,0,29,29,29,29,NA,NA,29,9/25/19 17:00,1500,The main experiment item,yes,Week4submit.osexp,C:/Users/DLGoupil/Desktop,no,mono,no,18,no,white,no,yes,768,legacy,29,29,C:/Users/DLGoupil/Desktop/subject-2.1.csv,legacy,Kafkaesque Koffka,3.2.8,0,s,NA,s,NA,NA,s,NA,NA,484,NA,230006,NA,NA,484,NA,NA,2,legacy,1024,2,48000,-16,experiment,HHSHH,2,even,232992,NA,NA,279229,2980,NA,NA,282603,2984,NA,NA,281500,282707,283191,282601,NA,NA,282707,Week4submit,28,13611,30,yes,1024
93.5483871,93.5483871,451.5806452,451.5806452,black,legacy,legacy,legacy,0,congruent,uniform,1,undefined,1,h,0,0,0,30,0,30,0,30,0,0,0,30,30,30,30,NA,NA,30,9/25/19 17:00,1500,The main experiment item,yes,Week4submit.osexp,C:/Users/DLGoupil/Desktop,no,mono,no,18,no,white,no,yes,768,legacy,30,30,C:/Users/DLGoupil/Desktop/subject-2.1.csv,legacy,Kafkaesque Koffka,3.2.8,0,h,NA,s,NA,NA,h,NA,NA,388,NA,230006,NA,NA,388,NA,NA,2,legacy,1024,2,48000,-16,experiment,HHHHH,2,even,232992,NA,NA,279229,2980,NA,NA,284308,2984,NA,NA,283197,284411,284799,284305,NA,NA,284411,Week4submit,29,13999,31,yes,1024
93.75,93.75,448.59375,448.59375,black,legacy,legacy,legacy,0,incongruent,uniform,1,undefined,1,s,0,0,0,31,0,31,0,31,0,0,0,31,31,31,31,NA,NA,31,9/25/19 17:00,1500,The main experiment item,yes,Week4submit.osexp,C:/Users/DLGoupil/Desktop,no,mono,no,18,no,white,no,yes,768,legacy,31,31,C:/Users/DLGoupil/Desktop/subject-2.1.csv,legacy,Kafkaesque Koffka,3.2.8,0,s,NA,s,NA,NA,s,NA,NA,356,NA,230006,NA,NA,356,NA,NA,2,legacy,1024,2,48000,-16,experiment,HHSHH,2,even,232992,NA,NA,279229,2980,NA,NA,285908,2984,NA,NA,284805,286011,286367,285905,NA,NA,286011,Week4submit,30,14355,32,yes,1024
93.93939394,93.93939394,448.4242424,448.4242424,black,legacy,legacy,legacy,0,congruent,uniform,1,undefined,1,s,0,0,0,32,0,32,0,32,0,0,0,32,32,32,32,NA,NA,32,9/25/19 17:00,1500,The main experiment item,yes,Week4submit.osexp,C:/Users/DLGoupil/Desktop,no,mono,no,18,no,white,no,yes,768,legacy,32,32,C:/Users/DLGoupil/Desktop/subject-2.1.csv,legacy,Kafkaesque Koffka,3.2.8,0,s,NA,s,NA,NA,s,NA,NA,443,NA,230006,NA,NA,443,NA,NA,2,legacy,1024,2,48000,-16,experiment,SSSSS,2,even,232992,NA,NA,279229,2980,NA,NA,287485,2984,NA,NA,286373,287588,288031,287482,NA,NA,287588,Week4submit,31,14798,33,yes,1024
94.11764706,94.11764706,447.5588235,447.5588235,black,legacy,legacy,legacy,0,congruent,uniform,1,undefined,1,s,0,0,0,33,0,33,0,33,0,0,0,33,33,33,33,NA,NA,33,9/25/19 17:00,1500,The main experiment item,yes,Week4submit.osexp,C:/Users/DLGoupil/Desktop,no,mono,no,18,no,white,no,yes,768,legacy,33,33,C:/Users/DLGoupil/Desktop/subject-2.1.csv,legacy,Kafkaesque Koffka,3.2.8,0,s,NA,s,NA,NA,s,NA,NA,419,NA,230006,NA,NA,419,NA,NA,2,legacy,1024,2,48000,-16,experiment,SSSSS,2,even,232992,NA,NA,279229,2980,NA,NA,289141,2984,NA,NA,288037,289244,289663,289138,NA,NA,289244,Week4submit,32,15217,34,yes,1024
94.28571429,94.28571429,444.7714286,444.7714286,black,legacy,legacy,legacy,0,congruent,uniform,1,undefined,1,s,0,0,0,34,0,34,0,34,0,0,0,34,34,34,34,NA,NA,34,9/25/19 17:00,1500,The main experiment item,yes,Week4submit.osexp,C:/Users/DLGoupil/Desktop,no,mono,no,18,no,white,no,yes,768,legacy,34,34,C:/Users/DLGoupil/Desktop/subject-2.1.csv,legacy,Kafkaesque Koffka,3.2.8,0,s,NA,s,NA,NA,s,NA,NA,350,NA,230006,NA,NA,350,NA,NA,2,legacy,1024,2,48000,-16,experiment,SSSSS,2,even,232992,NA,NA,279229,2980,NA,NA,290770,2984,NA,NA,289669,290873,291223,290767,NA,NA,290873,Week4submit,33,15567,35,yes,1024
94.44444444,94.44444444,445.6944444,445.6944444,black,legacy,legacy,legacy,0,incongruent,uniform,1,undefined,1,s,0,0,0,35,0,35,0,35,0,0,0,35,35,35,35,NA,NA,35,9/25/19 17:00,1500,The main experiment item,yes,Week4submit.osexp,C:/Users/DLGoupil/Desktop,no,mono,no,18,no,white,no,yes,768,legacy,35,35,C:/Users/DLGoupil/Desktop/subject-2.1.csv,legacy,Kafkaesque Koffka,3.2.8,0,s,NA,s,NA,NA,s,NA,NA,478,NA,230006,NA,NA,478,NA,NA,2,legacy,1024,2,48000,-16,experiment,HHSHH,2,even,232992,NA,NA,279229,2980,NA,NA,292330,2984,NA,NA,291229,292433,292911,292327,NA,NA,292433,Week4submit,34,16045,36,yes,1024
94.59459459,94.59459459,443.9459459,443.9459459,black,legacy,legacy,legacy,0,congruent,uniform,1,undefined,1,s,0,0,0,36,0,36,0,36,0,0,0,36,36,36,36,NA,NA,36,9/25/19 17:00,1500,The main experiment item,yes,Week4submit.osexp,C:/Users/DLGoupil/Desktop,no,mono,no,18,no,white,no,yes,768,legacy,36,36,C:/Users/DLGoupil/Desktop/subject-2.1.csv,legacy,Kafkaesque Koffka,3.2.8,0,s,NA,s,NA,NA,s,NA,NA,381,NA,230006,NA,NA,381,NA,NA,2,legacy,1024,2,48000,-16,experiment,SSSSS,2,even,232992,NA,NA,279229,2980,NA,NA,294027,2984,NA,NA,292917,294130,294511,294024,NA,NA,294130,Week4submit,35,16426,37,yes,1024
94.73684211,94.73684211,442.1842105,442.1842105,black,legacy,legacy,legacy,0,incongruent,uniform,1,undefined,1,s,0,0,0,37,0,37,0,37,0,0,0,37,37,37,37,NA,NA,37,9/25/19 17:00,1500,The main experiment item,yes,Week4submit.osexp,C:/Users/DLGoupil/Desktop,no,mono,no,18,no,white,no,yes,768,legacy,37,37,C:/Users/DLGoupil/Desktop/subject-2.1.csv,legacy,Kafkaesque Koffka,3.2.8,0,s,NA,s,NA,NA,s,NA,NA,377,NA,230006,NA,NA,377,NA,NA,2,legacy,1024,2,48000,-16,experiment,HHSHH,2,even,232992,NA,NA,279229,2980,NA,NA,295622,2984,NA,NA,294517,295725,296103,295620,NA,NA,295725,Week4submit,36,16803,38,yes,1024
94.87179487,94.87179487,441.5641026,441.5641026,black,legacy,legacy,legacy,0,congruent,uniform,1,undefined,1,s,0,0,0,38,0,38,0,38,0,0,0,38,38,38,38,NA,NA,38,9/25/19 17:00,1500,The main experiment item,yes,Week4submit.osexp,C:/Users/DLGoupil/Desktop,no,mono,no,18,no,white,no,yes,768,legacy,38,38,C:/Users/DLGoupil/Desktop/subject-2.1.csv,legacy,Kafkaesque Koffka,3.2.8,0,s,NA,s,NA,NA,s,NA,NA,418,NA,230006,NA,NA,418,NA,NA,2,legacy,1024,2,48000,-16,experiment,SSSSS,2,even,232992,NA,NA,279229,2980,NA,NA,297213,2984,NA,NA,296108,297316,297735,297210,NA,NA,297316,Week4submit,37,17221,39,yes,1024
95,95,442.35,442.35,black,legacy,legacy,legacy,0,incongruent,uniform,1,undefined,1,s,0,0,0,39,0,39,0,39,0,0,0,39,39,39,39,NA,NA,39,9/25/19 17:00,1500,The main experiment item,yes,Week4submit.osexp,C:/Users/DLGoupil/Desktop,no,mono,no,18,no,white,no,yes,768,legacy,39,39,C:/Users/DLGoupil/Desktop/subject-2.1.csv,legacy,Kafkaesque Koffka,3.2.8,0,s,NA,s,NA,NA,s,NA,NA,473,NA,230006,NA,NA,473,NA,NA,2,legacy,1024,2,48000,-16,experiment,HHSHH,2,even,232992,NA,NA,279229,2980,NA,NA,298838,2984,NA,NA,297740,298941,299415,298835,NA,NA,298941,Week4submit,38,17694,40,yes,1024
95.12195122,95.12195122,441.6341463,441.6341463,black,legacy,legacy,legacy,0,congruent,uniform,1,undefined,1,s,0,0,0,40,0,40,0,40,0,0,0,40,40,40,40,NA,NA,40,9/25/19 17:00,1500,The main experiment item,yes,Week4submit.osexp,C:/Users/DLGoupil/Desktop,no,mono,no,18,no,white,no,yes,768,legacy,40,40,C:/Users/DLGoupil/Desktop/subject-2.1.csv,legacy,Kafkaesque Koffka,3.2.8,0,s,NA,s,NA,NA,s,NA,NA,413,NA,230006,NA,NA,413,NA,NA,2,legacy,1024,2,48000,-16,experiment,SSSSS,2,even,232992,NA,NA,279229,2980,NA,NA,300522,2984,NA,NA,299420,300625,301039,300519,NA,NA,300625,Week4submit,39,18107,41,yes,1024
95.23809524,95.23809524,443.7857143,443.7857143,black,legacy,legacy,legacy,0,incongruent,uniform,1,undefined,1,h,0,0,0,41,0,41,0,41,0,0,0,41,41,41,41,NA,NA,41,9/25/19 17:00,1500,The main experiment item,yes,Week4submit.osexp,C:/Users/DLGoupil/Desktop,no,mono,no,18,no,white,no,yes,768,legacy,41,41,C:/Users/DLGoupil/Desktop/subject-2.1.csv,legacy,Kafkaesque Koffka,3.2.8,0,h,NA,s,NA,NA,h,NA,NA,532,NA,230006,NA,NA,532,NA,NA,2,legacy,1024,2,48000,-16,experiment,SSHSS,2,even,232992,NA,NA,279229,2980,NA,NA,302155,2984,NA,NA,301044,302258,302791,302152,NA,NA,302258,Week4submit,40,18639,42,yes,1024
95.34883721,95.34883721,443.7674419,443.7674419,black,legacy,legacy,legacy,0,incongruent,uniform,1,undefined,1,h,0,0,0,42,0,42,0,42,0,0,0,42,42,42,42,NA,NA,42,9/25/19 17:00,1500,The main experiment item,yes,Week4submit.osexp,C:/Users/DLGoupil/Desktop,no,mono,no,18,no,white,no,yes,768,legacy,42,42,C:/Users/DLGoupil/Desktop/subject-2.1.csv,legacy,Kafkaesque Koffka,3.2.8,0,h,NA,s,NA,NA,h,NA,NA,443,NA,230006,NA,NA,443,NA,NA,2,legacy,1024,2,48000,-16,experiment,SSHSS,2,even,232992,NA,NA,279229,2980,NA,NA,303901,2984,NA,NA,302796,304003,304447,303898,NA,NA,304003,Week4submit,41,19082,43,yes,1024
93.18181818,93.18181818,443.9772727,443.9772727,black,legacy,legacy,legacy,0,congruent,uniform,0,undefined,0,s,0,0,0,43,0,43,0,43,0,0,0,43,43,43,43,NA,NA,43,9/25/19 17:00,1500,The main experiment item,yes,Week4submit.osexp,C:/Users/DLGoupil/Desktop,no,mono,no,18,no,white,no,yes,768,legacy,43,43,C:/Users/DLGoupil/Desktop/subject-2.1.csv,legacy,Kafkaesque Koffka,3.2.8,0,h,NA,s,NA,NA,h,NA,NA,453,NA,230006,NA,NA,453,NA,NA,2,legacy,1024,2,48000,-16,experiment,SSSSS,2,even,232992,NA,NA,279229,2980,NA,NA,305554,2984,NA,NA,304452,305657,306111,305551,NA,NA,305657,Week4submit,41,19535,44,yes,1024
93.33333333,93.33333333,445.8666667,445.8666667,black,legacy,legacy,legacy,0,congruent,uniform,1,undefined,1,h,0,0,0,44,0,44,0,44,0,0,0,44,44,44,44,NA,NA,44,9/25/19 17:00,1500,The main experiment item,yes,Week4submit.osexp,C:/Users/DLGoupil/Desktop,no,mono,no,18,no,white,no,yes,768,legacy,44,44,C:/Users/DLGoupil/Desktop/subject-2.1.csv,legacy,Kafkaesque Koffka,3.2.8,0,h,NA,s,NA,NA,h,NA,NA,529,NA,230006,NA,NA,529,NA,NA,2,legacy,1024,2,48000,-16,experiment,HHHHH,2,even,232992,NA,NA,306116,2980,NA,NA,307718,2984,NA,NA,306619,307821,308351,307715,NA,NA,307821,Week4submit,42,20064,45,yes,1024
93.47826087,93.47826087,445.8695652,445.8695652,black,legacy,legacy,legacy,0,congruent,uniform,1,undefined,1,s,0,0,0,45,0,45,0,45,0,0,0,45,45,45,45,NA,NA,45,9/25/19 17:00,1500,The main experiment item,yes,Week4submit.osexp,C:/Users/DLGoupil/Desktop,no,mono,no,18,no,white,no,yes,768,legacy,45,45,C:/Users/DLGoupil/Desktop/subject-2.1.csv,legacy,Kafkaesque Koffka,3.2.8,0,s,NA,s,NA,NA,s,NA,NA,446,NA,230006,NA,NA,446,NA,NA,2,legacy,1024,2,48000,-16,experiment,SSSSS,2,even,232992,NA,NA,306116,2980,NA,NA,309457,2984,NA,NA,308356,309560,310007,309454,NA,NA,309560,Week4submit,43,20510,46,yes,1024
93.61702128,93.61702128,448.3829787,448.3829787,black,legacy,legacy,legacy,0,incongruent,uniform,1,undefined,1,h,0,0,0,46,0,46,0,46,0,0,0,46,46,46,46,NA,NA,46,9/25/19 17:00,1500,The main experiment item,yes,Week4submit.osexp,C:/Users/DLGoupil/Desktop,no,mono,no,18,no,white,no,yes,768,legacy,46,46,C:/Users/DLGoupil/Desktop/subject-2.1.csv,legacy,Kafkaesque Koffka,3.2.8,0,h,NA,s,NA,NA,h,NA,NA,564,NA,230006,NA,NA,564,NA,NA,2,legacy,1024,2,48000,-16,experiment,SSHSS,2,even,232992,NA,NA,306116,2980,NA,NA,311115,2984,NA,NA,310012,311218,311783,311112,NA,NA,311218,Week4submit,44,21074,47,yes,1024
91.66666667,91.66666667,446.9791667,446.9791667,black,legacy,legacy,legacy,0,incongruent,uniform,0,undefined,0,h,0,0,0,47,0,47,0,47,0,0,0,47,47,47,47,NA,NA,47,9/25/19 17:00,1500,The main experiment item,yes,Week4submit.osexp,C:/Users/DLGoupil/Desktop,no,mono,no,18,no,white,no,yes,768,legacy,47,47,C:/Users/DLGoupil/Desktop/subject-2.1.csv,legacy,Kafkaesque Koffka,3.2.8,0,s,NA,s,NA,NA,s,NA,NA,381,NA,230006,NA,NA,381,NA,NA,2,legacy,1024,2,48000,-16,experiment,SSHSS,2,even,232992,NA,NA,306116,2980,NA,NA,312898,2984,NA,NA,311788,313001,313383,312896,NA,NA,313001,Week4submit,44,21455,48,yes,1024
91.83673469,91.83673469,448.9795918,448.9795918,black,legacy,legacy,legacy,0,congruent,uniform,1,undefined,1,h,0,0,0,48,0,48,0,48,0,0,0,48,48,48,48,NA,NA,48,9/25/19 17:00,1500,The main experiment item,yes,Week4submit.osexp,C:/Users/DLGoupil/Desktop,no,mono,no,18,no,white,no,yes,768,legacy,48,48,C:/Users/DLGoupil/Desktop/subject-2.1.csv,legacy,Kafkaesque Koffka,3.2.8,0,h,NA,s,NA,NA,h,NA,NA,545,NA,230006,NA,NA,545,NA,NA,2,legacy,1024,2,48000,-16,experiment,HHHHH,2,even,232992,NA,NA,313388,2980,NA,NA,314998,2984,NA,NA,313892,315101,315647,314995,NA,NA,315101,Week4submit,45,22000,49,yes,1024
92,92,448.38,448.38,black,legacy,legacy,legacy,0,congruent,uniform,1,undefined,1,h,0,0,0,49,0,49,0,49,0,0,0,49,49,49,49,NA,NA,49,9/25/19 17:00,1500,The main experiment item,yes,Week4submit.osexp,C:/Users/DLGoupil/Desktop,no,mono,no,18,no,white,no,yes,768,legacy,49,49,C:/Users/DLGoupil/Desktop/subject-2.1.csv,legacy,Kafkaesque Koffka,3.2.8,0,h,NA,s,NA,NA,h,NA,NA,419,NA,230006,NA,NA,419,NA,NA,2,legacy,1024,2,48000,-16,experiment,HHHHH,2,even,232992,NA,NA,313388,2980,NA,NA,316764,2984,NA,NA,315653,316867,317287,316762,NA,NA,316867,Week4submit,46,22419,50,yes,1024
92.15686275,92.15686275,448.372549,448.372549,black,legacy,legacy,legacy,0,congruent,uniform,1,undefined,1,s,0,0,0,50,0,50,0,50,0,0,0,50,50,50,50,NA,NA,50,9/25/19 17:00,1500,The main experiment item,yes,Week4submit.osexp,C:/Users/DLGoupil/Desktop,no,mono,no,18,no,white,no,yes,768,legacy,50,50,C:/Users/DLGoupil/Desktop/subject-2.1.csv,legacy,Kafkaesque Koffka,3.2.8,0,s,NA,s,NA,NA,s,NA,NA,448,NA,230006,NA,NA,448,NA,NA,2,legacy,1024,2,48000,-16,experiment,SSSSS,2,even,232992,NA,NA,313388,2980,NA,NA,318399,2984,NA,NA,317293,318502,318951,318396,NA,NA,318502,Week4submit,47,22867,51,yes,1024
92.30769231,92.30769231,448.6153846,448.6153846,black,legacy,legacy,legacy,0,congruent,uniform,1,undefined,1,s,0,0,0,51,0,51,0,51,0,0,0,51,51,51,51,NA,NA,51,9/25/19 17:00,1500,The main experiment item,yes,Week4submit.osexp,C:/Users/DLGoupil/Desktop,no,mono,no,18,no,white,no,yes,768,legacy,51,51,C:/Users/DLGoupil/Desktop/subject-2.1.csv,legacy,Kafkaesque Koffka,3.2.8,0,s,NA,s,NA,NA,s,NA,NA,461,NA,230006,NA,NA,461,NA,NA,2,legacy,1024,2,48000,-16,experiment,SSSSS,2,even,232992,NA,NA,313388,2980,NA,NA,320065,2984,NA,NA,318956,320169,320631,320063,NA,NA,320169,Week4submit,48,23328,52,yes,1024
92.45283019,92.45283019,449.3018868,449.3018868,black,legacy,legacy,legacy,0,incongruent,uniform,1,undefined,1,h,0,0,0,52,0,52,0,52,0,0,0,52,52,52,52,NA,NA,52,9/25/19 17:00,1500,The main experiment item,yes,Week4submit.osexp,C:/Users/DLGoupil/Desktop,no,mono,no,18,no,white,no,yes,768,legacy,52,52,C:/Users/DLGoupil/Desktop/subject-2.1.csv,legacy,Kafkaesque Koffka,3.2.8,0,h,NA,s,NA,NA,h,NA,NA,485,NA,230006,NA,NA,485,NA,NA,2,legacy,1024,2,48000,-16,experiment,SSHSS,2,even,232992,NA,NA,313388,2980,NA,NA,321746,2984,NA,NA,320636,321849,322335,321743,NA,NA,321849,Week4submit,49,23813,53,yes,1024
92.59259259,92.59259259,449.9074074,449.9074074,black,legacy,legacy,legacy,0,incongruent,uniform,1,undefined,1,s,0,0,0,53,0,53,0,53,0,0,0,53,53,53,53,NA,NA,53,9/25/19 17:00,1500,The main experiment item,yes,Week4submit.osexp,C:/Users/DLGoupil/Desktop,no,mono,no,18,no,white,no,yes,768,legacy,53,53,C:/Users/DLGoupil/Desktop/subject-2.1.csv,legacy,Kafkaesque Koffka,3.2.8,0,s,NA,s,NA,NA,s,NA,NA,482,NA,230006,NA,NA,482,NA,NA,2,legacy,1024,2,48000,-16,experiment,HHSHH,2,even,232992,NA,NA,313388,2980,NA,NA,323437,2984,NA,NA,322340,323540,324023,323434,NA,NA,323540,Week4submit,50,24295,54,yes,1024
92.72727273,92.72727273,450.2727273,450.2727273,black,legacy,legacy,legacy,0,congruent,uniform,1,undefined,1,h,0,0,0,54,0,54,0,54,0,0,0,54,54,54,54,NA,NA,54,9/25/19 17:00,1500,The main experiment item,yes,Week4submit.osexp,C:/Users/DLGoupil/Desktop,no,mono,no,18,no,white,no,yes,768,legacy,54,54,C:/Users/DLGoupil/Desktop/subject-2.1.csv,legacy,Kafkaesque Koffka,3.2.8,0,h,NA,s,NA,NA,h,NA,NA,470,NA,230006,NA,NA,470,NA,NA,2,legacy,1024,2,48000,-16,experiment,HHHHH,2,even,232992,NA,NA,313388,2980,NA,NA,325137,2984,NA,NA,324028,325240,325711,325134,NA,NA,325240,Week4submit,51,24765,55,yes,1024
92.85714286,92.85714286,451.9642857,451.9642857,black,legacy,legacy,legacy,0,incongruent,uniform,1,undefined,1,h,0,0,0,55,0,55,0,55,0,0,0,55,55,55,55,NA,NA,55,9/25/19 17:00,1500,The main experiment item,yes,Week4submit.osexp,C:/Users/DLGoupil/Desktop,no,mono,no,18,no,white,no,yes,768,legacy,55,55,C:/Users/DLGoupil/Desktop/subject-2.1.csv,legacy,Kafkaesque Koffka,3.2.8,0,h,NA,s,NA,NA,h,NA,NA,545,NA,230006,NA,NA,545,NA,NA,2,legacy,1024,2,48000,-16,experiment,SSHSS,2,even,232992,NA,NA,313388,2980,NA,NA,326822,2984,NA,NA,325716,326925,327471,326819,NA,NA,326925,Week4submit,52,25310,56,yes,1024
92.98245614,92.98245614,451.8070175,451.8070175,black,legacy,legacy,legacy,0,incongruent,uniform,1,undefined,1,s,0,0,0,56,0,56,0,56,0,0,0,56,56,56,56,NA,NA,56,9/25/19 17:00,1500,The main experiment item,yes,Week4submit.osexp,C:/Users/DLGoupil/Desktop,no,mono,no,18,no,white,no,yes,768,legacy,56,56,C:/Users/DLGoupil/Desktop/subject-2.1.csv,legacy,Kafkaesque Koffka,3.2.8,0,s,NA,s,NA,NA,s,NA,NA,443,NA,230006,NA,NA,443,NA,NA,2,legacy,1024,2,48000,-16,experiment,HHSHH,2,even,232992,NA,NA,313388,2980,NA,NA,328588,2984,NA,NA,327476,328691,329135,328585,NA,NA,328691,Week4submit,53,25753,57,yes,1024
93.10344828,93.10344828,450.7068966,450.7068966,black,legacy,legacy,legacy,0,incongruent,uniform,1,undefined,1,s,0,0,0,57,0,57,0,57,0,0,0,57,57,57,57,NA,NA,57,9/25/19 17:00,1500,The main experiment item,yes,Week4submit.osexp,C:/Users/DLGoupil/Desktop,no,mono,no,18,no,white,no,yes,768,legacy,57,57,C:/Users/DLGoupil/Desktop/subject-2.1.csv,legacy,Kafkaesque Koffka,3.2.8,0,s,NA,s,NA,NA,s,NA,NA,388,NA,230006,NA,NA,388,NA,NA,2,legacy,1024,2,48000,-16,experiment,HHSHH,2,even,232992,NA,NA,313388,2980,NA,NA,330244,2984,NA,NA,329140,330346,330735,330241,NA,NA,330346,Week4submit,54,26141,58,yes,1024
93.22033898,93.22033898,450.0847458,450.0847458,black,legacy,legacy,legacy,0,incongruent,uniform,1,undefined,1,s,0,0,0,58,0,58,0,58,0,0,0,58,58,58,58,NA,NA,58,9/25/19 17:00,1500,The main experiment item,yes,Week4submit.osexp,C:/Users/DLGoupil/Desktop,no,mono,no,18,no,white,no,yes,768,legacy,58,58,C:/Users/DLGoupil/Desktop/subject-2.1.csv,legacy,Kafkaesque Koffka,3.2.8,0,s,NA,s,NA,NA,s,NA,NA,414,NA,230006,NA,NA,414,NA,NA,2,legacy,1024,2,48000,-16,experiment,HHSHH,2,even,232992,NA,NA,313388,2980,NA,NA,331841,2984,NA,NA,330740,331944,332359,331838,NA,NA,331944,Week4submit,55,26555,59,yes,1024
93.33333333,93.33333333,451.4666667,451.4666667,black,legacy,legacy,legacy,0,incongruent,uniform,1,undefined,1,h,0,0,0,59,0,59,0,59,0,0,0,59,59,59,59,NA,NA,59,9/25/19 17:00,1500,The main experiment item,yes,Week4submit.osexp,C:/Users/DLGoupil/Desktop,no,mono,no,18,no,white,no,yes,768,legacy,59,59,C:/Users/DLGoupil/Desktop/subject-2.1.csv,legacy,Kafkaesque Koffka,3.2.8,0,h,NA,s,NA,NA,h,NA,NA,533,NA,230006,NA,NA,533,NA,NA,2,legacy,1024,2,48000,-16,experiment,SSHSS,2,even,232992,NA,NA,313388,2980,NA,NA,333474,2984,NA,NA,332364,333577,334111,333471,NA,NA,333577,Week4submit,56,27088,60,yes,1024
93.44262295,93.44262295,450.5245902,450.5245902,black,legacy,legacy,legacy,0,congruent,uniform,1,undefined,1,s,0,0,0,60,0,60,0,60,0,0,0,60,60,60,60,NA,NA,60,9/25/19 17:00,1500,The main experiment item,yes,Week4submit.osexp,C:/Users/DLGoupil/Desktop,no,mono,no,18,no,white,no,yes,768,legacy,60,60,C:/Users/DLGoupil/Desktop/subject-2.1.csv,legacy,Kafkaesque Koffka,3.2.8,0,s,NA,s,NA,NA,s,NA,NA,394,NA,230006,NA,NA,394,NA,NA,2,legacy,1024,2,48000,-16,experiment,SSSSS,2,even,232992,NA,NA,313388,2980,NA,NA,335221,2984,NA,NA,334116,335324,335719,335218,NA,NA,335324,Week4submit,57,27482,61,yes,1024
93.5483871,93.5483871,450.4354839,450.4354839,black,legacy,legacy,legacy,0,congruent,uniform,1,undefined,1,s,0,0,0,61,0,61,0,61,0,0,0,61,61,61,61,NA,NA,61,9/25/19 17:00,1500,The main experiment item,yes,Week4submit.osexp,C:/Users/DLGoupil/Desktop,no,mono,no,18,no,white,no,yes,768,legacy,61,61,C:/Users/DLGoupil/Desktop/subject-2.1.csv,legacy,Kafkaesque Koffka,3.2.8,0,s,NA,s,NA,NA,s,NA,NA,445,NA,230006,NA,NA,445,NA,NA,2,legacy,1024,2,48000,-16,experiment,SSSSS,2,even,232992,NA,NA,313388,2980,NA,NA,336834,2984,NA,NA,335724,336937,337383,336831,NA,NA,336937,Week4submit,58,27927,62,yes,1024
93.65079365,93.65079365,451.015873,451.015873,black,legacy,legacy,legacy,0,incongruent,uniform,1,undefined,1,s,0,0,0,62,0,62,0,62,0,0,0,62,62,62,62,NA,NA,62,9/25/19 17:00,1500,The main experiment item,yes,Week4submit.osexp,C:/Users/DLGoupil/Desktop,no,mono,no,18,no,white,no,yes,768,legacy,62,62,C:/Users/DLGoupil/Desktop/subject-2.1.csv,legacy,Kafkaesque Koffka,3.2.8,0,s,NA,s,NA,NA,s,NA,NA,487,NA,230006,NA,NA,487,NA,NA,2,legacy,1024,2,48000,-16,experiment,HHSHH,2,even,232992,NA,NA,313388,2980,NA,NA,338496,2984,NA,NA,337389,338599,339087,338493,NA,NA,338599,Week4submit,59,28414,63,yes,1024
93.75,93.75,453.484375,453.484375,black,legacy,legacy,legacy,0,incongruent,uniform,1,undefined,1,h,0,0,0,63,0,63,0,63,0,0,0,63,63,63,63,NA,NA,63,9/25/19 17:00,1500,The main experiment item,yes,Week4submit.osexp,C:/Users/DLGoupil/Desktop,no,mono,no,18,no,white,no,yes,768,legacy,63,63,C:/Users/DLGoupil/Desktop/subject-2.1.csv,legacy,Kafkaesque Koffka,3.2.8,0,h,NA,s,NA,NA,h,NA,NA,609,NA,230006,NA,NA,609,NA,NA,2,legacy,1024,2,48000,-16,experiment,SSHSS,2,even,232992,NA,NA,313388,2980,NA,NA,340191,2984,NA,NA,339093,340294,340904,340188,NA,NA,340294,Week4submit,60,29023,64,yes,1024
93.84615385,93.84615385,453.3846154,453.3846154,black,legacy,legacy,legacy,0,congruent,uniform,1,undefined,1,s,0,0,0,64,0,64,0,64,0,0,0,64,64,64,64,NA,NA,64,9/25/19 17:00,1500,The main experiment item,yes,Week4submit.osexp,C:/Users/DLGoupil/Desktop,no,mono,no,18,no,white,no,yes,768,legacy,64,64,C:/Users/DLGoupil/Desktop/subject-2.1.csv,legacy,Kafkaesque Koffka,3.2.8,0,s,NA,s,NA,NA,s,NA,NA,447,NA,230006,NA,NA,447,NA,NA,2,legacy,1024,2,48000,-16,experiment,SSSSS,2,even,232992,NA,NA,313388,2980,NA,NA,342009,2984,NA,NA,340909,342112,342560,342006,NA,NA,342112,Week4submit,61,29470,65,yes,1024
93.93939394,93.93939394,454.5606061,454.5606061,black,legacy,legacy,legacy,0,incongruent,uniform,1,undefined,1,s,0,0,0,65,0,65,0,65,0,0,0,65,65,65,65,NA,NA,65,9/25/19 17:00,1500,The main experiment item,yes,Week4submit.osexp,C:/Users/DLGoupil/Desktop,no,mono,no,18,no,white,no,yes,768,legacy,65,65,C:/Users/DLGoupil/Desktop/subject-2.1.csv,legacy,Kafkaesque Koffka,3.2.8,0,s,NA,s,NA,NA,s,NA,NA,531,NA,230006,NA,NA,531,NA,NA,2,legacy,1024,2,48000,-16,experiment,HHSHH,2,even,232992,NA,NA,313388,2980,NA,NA,343676,2984,NA,NA,342565,343779,344311,343673,NA,NA,343779,Week4submit,62,30001,66,yes,1024
94.02985075,94.02985075,455.4328358,455.4328358,black,legacy,legacy,legacy,0,incongruent,uniform,1,undefined,1,h,0,0,0,66,0,66,0,66,0,0,0,66,66,66,66,NA,NA,66,9/25/19 17:00,1500,The main experiment item,yes,Week4submit.osexp,C:/Users/DLGoupil/Desktop,no,mono,no,18,no,white,no,yes,768,legacy,66,66,C:/Users/DLGoupil/Desktop/subject-2.1.csv,legacy,Kafkaesque Koffka,3.2.8,0,h,NA,s,NA,NA,h,NA,NA,513,NA,230006,NA,NA,513,NA,NA,2,legacy,1024,2,48000,-16,experiment,SSHSS,2,even,232992,NA,NA,313388,2980,NA,NA,345414,2984,NA,NA,344318,345517,346031,345411,NA,NA,345517,Week4submit,63,30514,67,yes,1024
94.11764706,94.11764706,455.3088235,455.3088235,black,legacy,legacy,legacy,0,incongruent,uniform,1,undefined,1,s,0,0,0,67,0,67,0,67,0,0,0,67,67,67,67,NA,NA,67,9/25/19 17:00,1500,The main experiment item,yes,Week4submit.osexp,C:/Users/DLGoupil/Desktop,no,mono,no,18,no,white,no,yes,768,legacy,67,67,C:/Users/DLGoupil/Desktop/subject-2.1.csv,legacy,Kafkaesque Koffka,3.2.8,0,s,NA,s,NA,NA,s,NA,NA,447,NA,230006,NA,NA,447,NA,NA,2,legacy,1024,2,48000,-16,experiment,HHSHH,2,even,232992,NA,NA,313388,2980,NA,NA,347137,2984,NA,NA,346036,347240,347688,347134,NA,NA,347240,Week4submit,64,30961,68,yes,1024
94.20289855,94.20289855,455.6086957,455.6086957,black,legacy,legacy,legacy,0,incongruent,uniform,1,undefined,1,s,0,0,0,68,0,68,0,68,0,0,0,68,68,68,68,NA,NA,68,9/25/19 17:00,1500,The main experiment item,yes,Week4submit.osexp,C:/Users/DLGoupil/Desktop,no,mono,no,18,no,white,no,yes,768,legacy,68,68,C:/Users/DLGoupil/Desktop/subject-2.1.csv,legacy,Kafkaesque Koffka,3.2.8,0,s,NA,s,NA,NA,s,NA,NA,476,NA,230006,NA,NA,476,NA,NA,2,legacy,1024,2,48000,-16,experiment,HHSHH,2,even,232992,NA,NA,313388,2980,NA,NA,348804,2984,NA,NA,347693,348907,349384,348801,NA,NA,348907,Week4submit,65,31437,69,yes,1024
94.28571429,94.28571429,455.4,455.4,black,legacy,legacy,legacy,0,congruent,uniform,1,undefined,1,s,0,0,0,69,0,69,0,69,0,0,0,69,69,69,69,NA,NA,69,9/25/19 17:00,1500,The main experiment item,yes,Week4submit.osexp,C:/Users/DLGoupil/Desktop,no,mono,no,18,no,white,no,yes,768,legacy,69,69,C:/Users/DLGoupil/Desktop/subject-2.1.csv,legacy,Kafkaesque Koffka,3.2.8,0,s,NA,s,NA,NA,s,NA,NA,441,NA,230006,NA,NA,441,NA,NA,2,legacy,1024,2,48000,-16,experiment,SSSSS,2,even,232992,NA,NA,313388,2980,NA,NA,350494,2984,NA,NA,349389,350597,351039,350491,NA,NA,350597,Week4submit,66,31878,70,yes,1024
94.36619718,94.36619718,455.7042254,455.7042254,black,legacy,legacy,legacy,0,congruent,uniform,1,undefined,1,h,0,0,0,70,0,70,0,70,0,0,0,70,70,70,70,NA,NA,70,9/25/19 17:00,1500,The main experiment item,yes,Week4submit.osexp,C:/Users/DLGoupil/Desktop,no,mono,no,18,no,white,no,yes,768,legacy,70,70,C:/Users/DLGoupil/Desktop/subject-2.1.csv,legacy,Kafkaesque Koffka,3.2.8,0,h,NA,s,NA,NA,h,NA,NA,477,NA,230006,NA,NA,477,NA,NA,2,legacy,1024,2,48000,-16,experiment,HHHHH,2,even,232992,NA,NA,313388,2980,NA,NA,352146,2984,NA,NA,351044,352249,352728,352143,NA,NA,352249,Week4submit,67,32355,71,yes,1024
94.44444444,94.44444444,455.0277778,455.0277778,black,legacy,legacy,legacy,0,congruent,uniform,1,undefined,1,s,0,0,0,71,0,71,0,71,0,0,0,71,71,71,71,NA,NA,71,9/25/19 17:00,1500,The main experiment item,yes,Week4submit.osexp,C:/Users/DLGoupil/Desktop,no,mono,no,18,no,white,no,yes,768,legacy,71,71,C:/Users/DLGoupil/Desktop/subject-2.1.csv,legacy,Kafkaesque Koffka,3.2.8,0,s,NA,s,NA,NA,s,NA,NA,407,NA,230006,NA,NA,407,NA,NA,2,legacy,1024,2,48000,-16,experiment,SSSSS,2,even,232992,NA,NA,313388,2980,NA,NA,353833,2984,NA,NA,352733,353936,354344,353830,NA,NA,353936,Week4submit,68,32762,72,yes,1024
94.52054795,94.52054795,454.1917808,454.1917808,black,legacy,legacy,legacy,0,congruent,uniform,1,undefined,1,s,0,0,0,72,0,72,0,72,0,0,0,72,72,72,72,NA,NA,72,9/25/19 17:00,1500,The main experiment item,yes,Week4submit.osexp,C:/Users/DLGoupil/Desktop,no,mono,no,18,no,white,no,yes,768,legacy,72,72,C:/Users/DLGoupil/Desktop/subject-2.1.csv,legacy,Kafkaesque Koffka,3.2.8,0,s,NA,s,NA,NA,s,NA,NA,394,NA,230006,NA,NA,394,NA,NA,2,legacy,1024,2,48000,-16,experiment,SSSSS,2,even,232992,NA,NA,313388,2980,NA,NA,355454,2984,NA,NA,354349,355557,355952,355451,NA,NA,355557,Week4submit,69,33156,73,yes,1024
94.59459459,94.59459459,454.2432432,454.2432432,black,legacy,legacy,legacy,0,congruent,uniform,1,undefined,1,h,0,0,0,73,0,73,0,73,0,0,0,73,73,73,73,NA,NA,73,9/25/19 17:00,1500,The main experiment item,yes,Week4submit.osexp,C:/Users/DLGoupil/Desktop,no,mono,no,18,no,white,no,yes,768,legacy,73,73,C:/Users/DLGoupil/Desktop/subject-2.1.csv,legacy,Kafkaesque Koffka,3.2.8,0,h,NA,s,NA,NA,h,NA,NA,458,NA,230006,NA,NA,458,NA,NA,2,legacy,1024,2,48000,-16,experiment,HHHHH,2,even,232992,NA,NA,313388,2980,NA,NA,357062,2984,NA,NA,355957,357165,357624,357059,NA,NA,357165,Week4submit,70,33614,74,yes,1024
94.66666667,94.66666667,455.4,455.4,black,legacy,legacy,legacy,0,incongruent,uniform,1,undefined,1,h,0,0,0,74,0,74,0,74,0,0,0,74,74,74,74,NA,NA,74,9/25/19 17:00,1500,The main experiment item,yes,Week4submit.osexp,C:/Users/DLGoupil/Desktop,no,mono,no,18,no,white,no,yes,768,legacy,74,74,C:/Users/DLGoupil/Desktop/subject-2.1.csv,legacy,Kafkaesque Koffka,3.2.8,0,h,NA,s,NA,NA,h,NA,NA,541,NA,230006,NA,NA,541,NA,NA,2,legacy,1024,2,48000,-16,experiment,SSHSS,2,even,232992,NA,NA,313388,2980,NA,NA,358739,2984,NA,NA,357629,358842,359384,358736,NA,NA,358842,Week4submit,71,34155,75,yes,1024
94.73684211,94.73684211,455.9078947,455.9078947,black,legacy,legacy,legacy,0,congruent,uniform,1,undefined,1,h,0,0,0,75,0,75,0,75,0,0,0,75,75,75,75,NA,NA,75,9/25/19 17:00,1500,The main experiment item,yes,Week4submit.osexp,C:/Users/DLGoupil/Desktop,no,mono,no,18,no,white,no,yes,768,legacy,75,75,C:/Users/DLGoupil/Desktop/subject-2.1.csv,legacy,Kafkaesque Koffka,3.2.8,0,h,NA,s,NA,NA,h,NA,NA,494,NA,230006,NA,NA,494,NA,NA,2,legacy,1024,2,48000,-16,experiment,HHHHH,2,even,232992,NA,NA,313388,2980,NA,NA,360490,2984,NA,NA,359389,360593,361088,360487,NA,NA,360593,Week4submit,72,34649,76,yes,1024
94.80519481,94.80519481,455.6623377,455.6623377,black,legacy,legacy,legacy,0,congruent,uniform,1,undefined,1,h,0,0,0,76,0,76,0,76,0,0,0,76,76,76,76,NA,NA,76,9/25/19 17:00,1500,The main experiment item,yes,Week4submit.osexp,C:/Users/DLGoupil/Desktop,no,mono,no,18,no,white,no,yes,768,legacy,76,76,C:/Users/DLGoupil/Desktop/subject-2.1.csv,legacy,Kafkaesque Koffka,3.2.8,0,h,NA,s,NA,NA,h,NA,NA,437,NA,230006,NA,NA,437,NA,NA,2,legacy,1024,2,48000,-16,experiment,HHHHH,2,even,232992,NA,NA,313388,2980,NA,NA,362195,2984,NA,NA,361093,362298,362736,362193,NA,NA,362298,Week4submit,73,35086,77,yes,1024
94.87179487,94.87179487,455.5897436,455.5897436,black,legacy,legacy,legacy,0,incongruent,uniform,1,undefined,1,s,0,0,0,77,0,77,0,77,0,0,0,77,77,77,77,NA,NA,77,9/25/19 17:00,1500,The main experiment item,yes,Week4submit.osexp,C:/Users/DLGoupil/Desktop,no,mono,no,18,no,white,no,yes,768,legacy,77,77,C:/Users/DLGoupil/Desktop/subject-2.1.csv,legacy,Kafkaesque Koffka,3.2.8,0,s,NA,s,NA,NA,s,NA,NA,450,NA,230006,NA,NA,450,NA,NA,2,legacy,1024,2,48000,-16,experiment,HHSHH,2,even,232992,NA,NA,313388,2980,NA,NA,363845,2984,NA,NA,362741,363948,364399,363843,NA,NA,363948,Week4submit,74,35536,78,yes,1024
94.93670886,94.93670886,456.3417722,456.3417722,black,legacy,legacy,legacy,0,congruent,uniform,1,undefined,1,s,0,0,0,78,0,78,0,78,0,0,0,78,78,78,78,NA,NA,78,9/25/19 17:00,1500,The main experiment item,yes,Week4submit.osexp,C:/Users/DLGoupil/Desktop,no,mono,no,18,no,white,no,yes,768,legacy,78,78,C:/Users/DLGoupil/Desktop/subject-2.1.csv,legacy,Kafkaesque Koffka,3.2.8,0,s,NA,s,NA,NA,s,NA,NA,515,NA,230006,NA,NA,515,NA,NA,2,legacy,1024,2,48000,-16,experiment,SSSSS,2,even,232992,NA,NA,313388,2980,NA,NA,365516,2984,NA,NA,364405,365620,366136,365514,NA,NA,365620,Week4submit,75,36051,79,yes,1024
95,95,457.4,457.4,black,legacy,legacy,legacy,0,incongruent,uniform,1,undefined,1,h,0,0,0,79,0,79,0,79,0,0,0,79,79,79,79,NA,NA,79,9/25/19 17:00,1500,The main experiment item,yes,Week4submit.osexp,C:/Users/DLGoupil/Desktop,no,mono,no,18,no,white,no,yes,768,legacy,79,79,C:/Users/DLGoupil/Desktop/subject-2.1.csv,legacy,Kafkaesque Koffka,3.2.8,0,h,NA,s,NA,NA,h,NA,NA,541,NA,230006,NA,NA,541,NA,NA,2,legacy,1024,2,48000,-16,experiment,SSHSS,2,even,232992,NA,NA,313388,2980,NA,NA,367243,2984,NA,NA,366141,367346,367888,367240,NA,NA,367346,Week4submit,76,36592,80,yes,1024
95.0617284,95.0617284,458.3950617,458.3950617,black,legacy,legacy,legacy,0,congruent,uniform,1,undefined,1,h,0,0,0,80,0,80,0,80,0,0,0,80,80,80,80,NA,NA,80,9/25/19 17:00,600,The main experiment item,yes,Week4submit.osexp,C:/Users/DLGoupil/Desktop,no,mono,no,18,no,white,no,yes,768,legacy,0,79,C:/Users/DLGoupil/Desktop/subject-2.1.csv,legacy,Kafkaesque Koffka,3.2.8,0,h,NA,s,h,NA,h,NA,NA,538,NA,230006,6648,NA,538,NA,NA,2,legacy,1024,2,48000,-16,experiment,HHHHH,2,even,232992,375568,NA,313388,2980,NA,NA,375662,2984,368919,NA,367893,375765,376304,375660,NA,NA,375765,Week4submit,77,37130,81,yes,1024
95.12195122,95.12195122,457.2682927,457.2682927,black,legacy,legacy,legacy,0,congruent,uniform,1,undefined,1,s,0,0,0,81,0,81,0,81,0,0,0,81,81,81,81,NA,NA,81,9/25/19 17:00,600,The main experiment item,yes,Week4submit.osexp,C:/Users/DLGoupil/Desktop,no,mono,no,18,no,white,no,yes,768,legacy,1,79,C:/Users/DLGoupil/Desktop/subject-2.1.csv,legacy,Kafkaesque Koffka,3.2.8,0,s,NA,s,h,NA,s,NA,NA,366,NA,230006,6648,NA,366,NA,NA,2,legacy,1024,2,48000,-16,experiment,SSSSS,2,even,232992,375568,NA,313388,2980,NA,NA,377410,2984,368919,NA,376309,377513,377880,377407,NA,NA,377513,Week4submit,78,37496,82,yes,1024
95.18072289,95.18072289,457.939759,457.939759,black,legacy,legacy,legacy,0,incongruent,uniform,1,undefined,1,h,0,0,0,82,0,82,0,82,0,0,0,82,82,82,82,NA,NA,82,9/25/19 17:00,600,The main experiment item,yes,Week4submit.osexp,C:/Users/DLGoupil/Desktop,no,mono,no,18,no,white,no,yes,768,legacy,2,79,C:/Users/DLGoupil/Desktop/subject-2.1.csv,legacy,Kafkaesque Koffka,3.2.8,0,h,NA,s,h,NA,h,NA,NA,513,NA,230006,6648,NA,513,NA,NA,2,legacy,1024,2,48000,-16,experiment,SSHSS,2,even,232992,375568,NA,313388,2980,NA,NA,378991,2984,368919,NA,377885,379094,379608,378988,NA,NA,379094,Week4submit,79,38009,83,yes,1024
95.23809524,95.23809524,457.3452381,457.3452381,black,legacy,legacy,legacy,0,incongruent,uniform,1,undefined,1,s,0,0,0,83,0,83,0,83,0,0,0,83,83,83,83,NA,NA,83,9/25/19 17:00,600,The main experiment item,yes,Week4submit.osexp,C:/Users/DLGoupil/Desktop,no,mono,no,18,no,white,no,yes,768,legacy,3,79,C:/Users/DLGoupil/Desktop/subject-2.1.csv,legacy,Kafkaesque Koffka,3.2.8,0,s,NA,s,h,NA,s,NA,NA,408,NA,230006,6648,NA,408,NA,NA,2,legacy,1024,2,48000,-16,experiment,HHSHH,2,even,232992,375568,NA,313388,2980,NA,NA,380712,2984,368919,NA,379613,380815,381224,380709,NA,NA,380815,Week4submit,80,38417,84,yes,1024
94.11764706,94.11764706,456.1764706,456.1764706,black,legacy,legacy,legacy,0,incongruent,uniform,0,undefined,0,s,0,0,0,84,0,84,0,84,0,0,0,84,84,84,84,NA,NA,84,9/25/19 17:00,600,The main experiment item,yes,Week4submit.osexp,C:/Users/DLGoupil/Desktop,no,mono,no,18,no,white,no,yes,768,legacy,4,79,C:/Users/DLGoupil/Desktop/subject-2.1.csv,legacy,Kafkaesque Koffka,3.2.8,0,h,NA,s,h,NA,h,NA,NA,358,NA,230006,6648,NA,358,NA,NA,2,legacy,1024,2,48000,-16,experiment,HHSHH,2,even,232992,375568,NA,313388,2980,NA,NA,382330,2984,368919,NA,381229,382433,382792,382327,NA,NA,382433,Week4submit,80,38775,85,yes,1024
94.18604651,94.18604651,455.9883721,455.9883721,black,legacy,legacy,legacy,0,incongruent,uniform,1,undefined,1,s,0,0,0,85,0,85,0,85,0,0,0,85,85,85,85,NA,NA,85,9/25/19 17:00,600,The main experiment item,yes,Week4submit.osexp,C:/Users/DLGoupil/Desktop,no,mono,no,18,no,white,no,yes,768,legacy,5,79,C:/Users/DLGoupil/Desktop/subject-2.1.csv,legacy,Kafkaesque Koffka,3.2.8,0,s,NA,s,h,NA,s,NA,NA,440,NA,230006,6648,NA,440,NA,NA,2,legacy,1024,2,48000,-16,experiment,HHSHH,2,even,232992,375568,NA,382797,2980,NA,NA,384400,2984,368919,NA,383300,384503,384944,384398,NA,NA,384503,Week4submit,81,39215,86,yes,1024
94.25287356,94.25287356,455.8735632,455.8735632,black,legacy,legacy,legacy,0,incongruent,uniform,1,undefined,1,s,0,0,0,86,0,86,0,86,0,0,0,86,86,86,86,NA,NA,86,9/25/19 17:00,600,The main experiment item,yes,Week4submit.osexp,C:/Users/DLGoupil/Desktop,no,mono,no,18,no,white,no,yes,768,legacy,6,79,C:/Users/DLGoupil/Desktop/subject-2.1.csv,legacy,Kafkaesque Koffka,3.2.8,0,s,NA,s,h,NA,s,NA,NA,446,NA,230006,6648,NA,446,NA,NA,2,legacy,1024,2,48000,-16,experiment,HHSHH,2,even,232992,375568,NA,382797,2980,NA,NA,386050,2984,368919,NA,384949,386153,386600,386047,NA,NA,386153,Week4submit,82,39661,87,yes,1024
94.31818182,94.31818182,457.1818182,457.1818182,black,legacy,legacy,legacy,0,incongruent,uniform,1,undefined,1,h,0,0,0,87,0,87,0,87,0,0,0,87,87,87,87,NA,NA,87,9/25/19 17:00,600,The main experiment item,yes,Week4submit.osexp,C:/Users/DLGoupil/Desktop,no,mono,no,18,no,white,no,yes,768,legacy,7,79,C:/Users/DLGoupil/Desktop/subject-2.1.csv,legacy,Kafkaesque Koffka,3.2.8,0,h,NA,s,h,NA,h,NA,NA,571,NA,230006,6648,NA,571,NA,NA,2,legacy,1024,2,48000,-16,experiment,SSHSS,2,even,232992,375568,NA,382797,2980,NA,NA,387717,2984,368919,NA,386605,387820,388392,387714,NA,NA,387820,Week4submit,83,40232,88,yes,1024
94.38202247,94.38202247,457.0224719,457.0224719,black,legacy,legacy,legacy,0,incongruent,uniform,1,undefined,1,h,0,0,0,88,0,88,0,88,0,0,0,88,88,88,88,NA,NA,88,9/25/19 17:00,600,The main experiment item,yes,Week4submit.osexp,C:/Users/DLGoupil/Desktop,no,mono,no,18,no,white,no,yes,768,legacy,8,79,C:/Users/DLGoupil/Desktop/subject-2.1.csv,legacy,Kafkaesque Koffka,3.2.8,0,h,NA,s,h,NA,h,NA,NA,443,NA,230006,6648,NA,443,NA,NA,2,legacy,1024,2,48000,-16,experiment,SSHSS,2,even,232992,375568,NA,382797,2980,NA,NA,389492,2984,368919,NA,388397,389596,390040,389490,NA,NA,389596,Week4submit,84,40675,89,yes,1024
94.44444444,94.44444444,456.3666667,456.3666667,black,legacy,legacy,legacy,0,congruent,uniform,1,undefined,1,s,0,0,0,89,0,89,0,89,0,0,0,89,89,89,89,NA,NA,89,9/25/19 17:00,600,The main experiment item,yes,Week4submit.osexp,C:/Users/DLGoupil/Desktop,no,mono,no,18,no,white,no,yes,768,legacy,9,79,C:/Users/DLGoupil/Desktop/subject-2.1.csv,legacy,Kafkaesque Koffka,3.2.8,0,s,NA,s,h,NA,s,NA,NA,398,NA,230006,6648,NA,398,NA,NA,2,legacy,1024,2,48000,-16,experiment,SSSSS,2,even,232992,375568,NA,382797,2980,NA,NA,391146,2984,368919,NA,390045,391249,391648,391143,NA,NA,391249,Week4submit,85,41073,90,yes,1024
94.50549451,94.50549451,456.6263736,456.6263736,black,legacy,legacy,legacy,0,congruent,uniform,1,undefined,1,h,0,0,0,90,0,90,0,90,0,0,0,90,90,90,90,NA,NA,90,9/25/19 17:00,600,The main experiment item,yes,Week4submit.osexp,C:/Users/DLGoupil/Desktop,no,mono,no,18,no,white,no,yes,768,legacy,10,79,C:/Users/DLGoupil/Desktop/subject-2.1.csv,legacy,Kafkaesque Koffka,3.2.8,0,h,NA,s,h,NA,h,NA,NA,480,NA,230006,6648,NA,480,NA,NA,2,legacy,1024,2,48000,-16,experiment,HHHHH,2,even,232992,375568,NA,382797,2980,NA,NA,392760,2984,368919,NA,391653,392863,393344,392757,NA,NA,392863,Week4submit,86,41553,91,yes,1024
94.56521739,94.56521739,455.8913043,455.8913043,black,legacy,legacy,legacy,0,congruent,uniform,1,undefined,1,s,0,0,0,91,0,91,0,91,0,0,0,91,91,91,91,NA,NA,91,9/25/19 17:00,600,The main experiment item,yes,Week4submit.osexp,C:/Users/DLGoupil/Desktop,no,mono,no,18,no,white,no,yes,768,legacy,11,79,C:/Users/DLGoupil/Desktop/subject-2.1.csv,legacy,Kafkaesque Koffka,3.2.8,0,s,NA,s,h,NA,s,NA,NA,389,NA,230006,6648,NA,389,NA,NA,2,legacy,1024,2,48000,-16,experiment,SSSSS,2,even,232992,375568,NA,382797,2980,NA,NA,394451,2984,368919,NA,393349,394554,394944,394448,NA,NA,394554,Week4submit,87,41942,92,yes,1024
94.62365591,94.62365591,457.311828,457.311828,black,legacy,legacy,legacy,0,congruent,uniform,1,undefined,1,s,0,0,0,92,0,92,0,92,0,0,0,92,92,92,92,NA,NA,92,9/25/19 17:00,600,The main experiment item,yes,Week4submit.osexp,C:/Users/DLGoupil/Desktop,no,mono,no,18,no,white,no,yes,768,legacy,12,79,C:/Users/DLGoupil/Desktop/subject-2.1.csv,legacy,Kafkaesque Koffka,3.2.8,0,s,NA,s,h,NA,s,NA,NA,588,NA,230006,6648,NA,588,NA,NA,2,legacy,1024,2,48000,-16,experiment,SSSSS,2,even,232992,375568,NA,382797,2980,NA,NA,396060,2984,368919,NA,394949,396163,396752,396057,NA,NA,396163,Week4submit,88,42530,93,yes,1024
94.68085106,94.68085106,457.712766,457.712766,black,legacy,legacy,legacy,0,incongruent,uniform,1,undefined,1,h,0,0,0,93,0,93,0,93,0,0,0,93,93,93,93,NA,NA,93,9/25/19 17:00,600,The main experiment item,yes,Week4submit.osexp,C:/Users/DLGoupil/Desktop,no,mono,no,18,no,white,no,yes,768,legacy,13,79,C:/Users/DLGoupil/Desktop/subject-2.1.csv,legacy,Kafkaesque Koffka,3.2.8,0,h,NA,s,h,NA,h,NA,NA,495,NA,230006,6648,NA,495,NA,NA,2,legacy,1024,2,48000,-16,experiment,SSHSS,2,even,232992,375568,NA,382797,2980,NA,NA,397864,2984,368919,NA,396757,397967,398464,397861,NA,NA,397967,Week4submit,89,43025,94,yes,1024
94.73684211,94.73684211,458.7368421,458.7368421,black,legacy,legacy,legacy,0,incongruent,uniform,1,undefined,1,s,0,0,0,94,0,94,0,94,0,0,0,94,94,94,94,NA,NA,94,9/25/19 17:00,600,The main experiment item,yes,Week4submit.osexp,C:/Users/DLGoupil/Desktop,no,mono,no,18,no,white,no,yes,768,legacy,14,79,C:/Users/DLGoupil/Desktop/subject-2.1.csv,legacy,Kafkaesque Koffka,3.2.8,0,s,NA,s,h,NA,s,NA,NA,555,NA,230006,6648,NA,555,NA,NA,2,legacy,1024,2,48000,-16,experiment,HHSHH,2,even,232992,375568,NA,382797,2980,NA,NA,399597,2984,368919,NA,398485,399700,400256,399594,NA,NA,399700,Week4submit,90,43580,95,yes,1024
94.79166667,94.79166667,459.6875,459.6875,black,legacy,legacy,legacy,0,incongruent,uniform,1,undefined,1,h,0,0,0,95,0,95,0,95,0,0,0,95,95,95,95,NA,NA,95,9/25/19 17:00,600,The main experiment item,yes,Week4submit.osexp,C:/Users/DLGoupil/Desktop,no,mono,no,18,no,white,no,yes,768,legacy,15,79,C:/Users/DLGoupil/Desktop/subject-2.1.csv,legacy,Kafkaesque Koffka,3.2.8,0,h,NA,s,h,NA,h,NA,NA,550,NA,230006,6648,NA,550,NA,NA,2,legacy,1024,2,48000,-16,experiment,SSHSS,2,even,232992,375568,NA,382797,2980,NA,NA,401369,2984,368919,NA,400261,401472,402024,401366,NA,NA,401472,Week4submit,91,44130,96,yes,1024
93.81443299,93.81443299,460.1237113,460.1237113,black,legacy,legacy,legacy,0,incongruent,uniform,0,undefined,0,h,0,0,0,96,0,96,0,96,0,0,0,96,96,96,96,NA,NA,96,9/25/19 17:00,600,The main experiment item,yes,Week4submit.osexp,C:/Users/DLGoupil/Desktop,no,mono,no,18,no,white,no,yes,768,legacy,16,79,C:/Users/DLGoupil/Desktop/subject-2.1.csv,legacy,Kafkaesque Koffka,3.2.8,0,s,NA,s,h,NA,s,NA,NA,502,NA,230006,6648,NA,502,NA,NA,2,legacy,1024,2,48000,-16,experiment,SSHSS,2,even,232992,375568,NA,382797,2980,NA,NA,403137,2984,368919,NA,402029,403240,403744,403134,NA,NA,403240,Week4submit,91,44632,97,yes,1024
93.87755102,93.87755102,460.9897959,460.9897959,black,legacy,legacy,legacy,0,congruent,uniform,1,undefined,1,s,0,0,0,97,0,97,0,97,0,0,0,97,97,97,97,NA,NA,97,9/25/19 17:00,600,The main experiment item,yes,Week4submit.osexp,C:/Users/DLGoupil/Desktop,no,mono,no,18,no,white,no,yes,768,legacy,17,79,C:/Users/DLGoupil/Desktop/subject-2.1.csv,legacy,Kafkaesque Koffka,3.2.8,0,s,NA,s,h,NA,s,NA,NA,545,NA,230006,6648,NA,545,NA,NA,2,legacy,1024,2,48000,-16,experiment,SSSSS,2,even,232992,375568,NA,403749,2980,NA,NA,405358,2984,368919,NA,404252,405461,406008,405355,NA,NA,405461,Week4submit,92,45177,98,yes,1024
93.93939394,93.93939394,461.1111111,461.1111111,black,legacy,legacy,legacy,0,congruent,uniform,1,undefined,1,s,0,0,0,98,0,98,0,98,0,0,0,98,98,98,98,NA,NA,98,9/25/19 17:00,600,The main experiment item,yes,Week4submit.osexp,C:/Users/DLGoupil/Desktop,no,mono,no,18,no,white,no,yes,768,legacy,18,79,C:/Users/DLGoupil/Desktop/subject-2.1.csv,legacy,Kafkaesque Koffka,3.2.8,0,s,NA,s,h,NA,s,NA,NA,473,NA,230006,6648,NA,473,NA,NA,2,legacy,1024,2,48000,-16,experiment,SSSSS,2,even,232992,375568,NA,403749,2980,NA,NA,407126,2984,368919,NA,406013,407229,407704,407123,NA,NA,407229,Week4submit,93,45650,99,yes,1024
94,94,461.24,461.24,black,legacy,legacy,legacy,0,congruent,uniform,1,undefined,1,h,0,0,0,99,0,99,0,99,0,0,0,99,99,99,99,NA,NA,99,9/25/19 17:00,600,The main experiment item,yes,Week4submit.osexp,C:/Users/DLGoupil/Desktop,no,mono,no,18,no,white,no,yes,768,legacy,19,79,C:/Users/DLGoupil/Desktop/subject-2.1.csv,legacy,Kafkaesque Koffka,3.2.8,0,h,NA,s,h,NA,h,NA,NA,474,NA,230006,6648,NA,474,NA,NA,2,legacy,1024,2,48000,-16,experiment,HHHHH,2,even,232992,375568,NA,403749,2980,NA,NA,408814,2984,368919,NA,407709,408917,409392,408811,NA,NA,408917,Week4submit,94,46124,100,yes,1024
94.05940594,94.05940594,461.3960396,461.3960396,black,legacy,legacy,legacy,0,congruent,uniform,1,undefined,1,h,0,0,0,100,0,100,0,100,0,0,0,100,100,100,100,NA,NA,100,9/25/19 17:00,600,The main experiment item,yes,Week4submit.osexp,C:/Users/DLGoupil/Desktop,no,mono,no,18,no,white,no,yes,768,legacy,20,79,C:/Users/DLGoupil/Desktop/subject-2.1.csv,legacy,Kafkaesque Koffka,3.2.8,0,h,NA,s,h,NA,h,NA,NA,477,NA,230006,6648,NA,477,NA,NA,2,legacy,1024,2,48000,-16,experiment,HHHHH,2,even,232992,375568,NA,403749,2980,NA,NA,410499,2984,368919,NA,409397,410602,411080,410496,NA,NA,410602,Week4submit,95,46601,101,yes,1024
94.11764706,94.11764706,461.3921569,461.3921569,black,legacy,legacy,legacy,0,incongruent,uniform,1,undefined,1,h,0,0,0,101,0,101,0,101,0,0,0,101,101,101,101,NA,NA,101,9/25/19 17:00,600,The main experiment item,yes,Week4submit.osexp,C:/Users/DLGoupil/Desktop,no,mono,no,18,no,white,no,yes,768,legacy,21,79,C:/Users/DLGoupil/Desktop/subject-2.1.csv,legacy,Kafkaesque Koffka,3.2.8,0,h,NA,s,h,NA,h,NA,NA,461,NA,230006,6648,NA,461,NA,NA,2,legacy,1024,2,48000,-16,experiment,SSHSS,2,even,232992,375568,NA,403749,2980,NA,NA,412195,2984,368919,NA,411085,412297,412760,412192,NA,NA,412297,Week4submit,96,47062,102,yes,1024
94.17475728,94.17475728,461.5533981,461.5533981,black,legacy,legacy,legacy,0,congruent,uniform,1,undefined,1,h,0,0,0,102,0,102,0,102,0,0,0,102,102,102,102,NA,NA,102,9/25/19 17:00,600,The main experiment item,yes,Week4submit.osexp,C:/Users/DLGoupil/Desktop,no,mono,no,18,no,white,no,yes,768,legacy,22,79,C:/Users/DLGoupil/Desktop/subject-2.1.csv,legacy,Kafkaesque Koffka,3.2.8,0,h,NA,s,h,NA,h,NA,NA,478,NA,230006,6648,NA,478,NA,NA,2,legacy,1024,2,48000,-16,experiment,HHHHH,2,even,232992,375568,NA,403749,2980,NA,NA,413865,2984,368919,NA,412765,413968,414448,413863,NA,NA,413968,Week4submit,97,47540,103,yes,1024
94.23076923,94.23076923,461.5096154,461.5096154,black,legacy,legacy,legacy,0,congruent,uniform,1,undefined,1,s,0,0,0,103,0,103,0,103,0,0,0,103,103,103,103,NA,NA,103,9/25/19 17:00,600,The main experiment item,yes,Week4submit.osexp,C:/Users/DLGoupil/Desktop,no,mono,no,18,no,white,no,yes,768,legacy,23,79,C:/Users/DLGoupil/Desktop/subject-2.1.csv,legacy,Kafkaesque Koffka,3.2.8,0,s,NA,s,h,NA,s,NA,NA,457,NA,230006,6648,NA,457,NA,NA,2,legacy,1024,2,48000,-16,experiment,SSSSS,2,even,232992,375568,NA,403749,2980,NA,NA,415551,2984,368919,NA,414453,415654,416112,415548,NA,NA,415654,Week4submit,98,47997,104,yes,1024
94.28571429,94.28571429,461.5809524,461.5809524,black,legacy,legacy,legacy,0,congruent,uniform,1,undefined,1,h,0,0,0,104,0,104,0,104,0,0,0,104,104,104,104,NA,NA,104,9/25/19 17:00,600,The main experiment item,yes,Week4submit.osexp,C:/Users/DLGoupil/Desktop,no,mono,no,18,no,white,no,yes,768,legacy,24,79,C:/Users/DLGoupil/Desktop/subject-2.1.csv,legacy,Kafkaesque Koffka,3.2.8,0,h,NA,s,h,NA,h,NA,NA,469,NA,230006,6648,NA,469,NA,NA,2,legacy,1024,2,48000,-16,experiment,HHHHH,2,even,232992,375568,NA,403749,2980,NA,NA,417219,2984,368919,NA,416117,417322,417792,417216,NA,NA,417322,Week4submit,99,48466,105,yes,1024
94.33962264,94.33962264,460.8396226,460.8396226,black,legacy,legacy,legacy,0,congruent,uniform,1,undefined,1,s,0,0,0,105,0,105,0,105,0,0,0,105,105,105,105,NA,NA,105,9/25/19 17:00,600,The main experiment item,yes,Week4submit.osexp,C:/Users/DLGoupil/Desktop,no,mono,no,18,no,white,no,yes,768,legacy,25,79,C:/Users/DLGoupil/Desktop/subject-2.1.csv,legacy,Kafkaesque Koffka,3.2.8,0,s,NA,s,h,NA,s,NA,NA,383,NA,230006,6648,NA,383,NA,NA,2,legacy,1024,2,48000,-16,experiment,SSSSS,2,even,232992,375568,NA,403749,2980,NA,NA,418897,2984,368919,NA,417797,419000,419384,418894,NA,NA,419000,Week4submit,100,48849,106,yes,1024
94.39252336,94.39252336,461.5981308,461.5981308,black,legacy,legacy,legacy,0,incongruent,uniform,1,undefined,1,h,0,0,0,106,0,106,0,106,0,0,0,106,106,106,106,NA,NA,106,9/25/19 17:00,600,The main experiment item,yes,Week4submit.osexp,C:/Users/DLGoupil/Desktop,no,mono,no,18,no,white,no,yes,768,legacy,26,79,C:/Users/DLGoupil/Desktop/subject-2.1.csv,legacy,Kafkaesque Koffka,3.2.8,0,h,NA,s,h,NA,h,NA,NA,542,NA,230006,6648,NA,542,NA,NA,2,legacy,1024,2,48000,-16,experiment,SSHSS,2,even,232992,375568,NA,403749,2980,NA,NA,420490,2984,368919,NA,419389,420593,421136,420487,NA,NA,420593,Week4submit,101,49391,107,yes,1024
94.44444444,94.44444444,461.7592593,461.7592593,black,legacy,legacy,legacy,0,incongruent,uniform,1,undefined,1,s,0,0,0,107,0,107,0,107,0,0,0,107,107,107,107,NA,NA,107,9/25/19 17:00,600,The main experiment item,yes,Week4submit.osexp,C:/Users/DLGoupil/Desktop,no,mono,no,18,no,white,no,yes,768,legacy,27,79,C:/Users/DLGoupil/Desktop/subject-2.1.csv,legacy,Kafkaesque Koffka,3.2.8,0,s,NA,s,h,NA,s,NA,NA,479,NA,230006,6648,NA,479,NA,NA,2,legacy,1024,2,48000,-16,experiment,HHSHH,2,even,232992,375568,NA,403749,2980,NA,NA,422250,2984,368919,NA,421141,422352,422832,422247,NA,NA,422352,Week4submit,102,49870,108,yes,1024
94.49541284,94.49541284,461.9082569,461.9082569,black,legacy,legacy,legacy,0,incongruent,uniform,1,undefined,1,h,0,0,0,108,0,108,0,108,0,0,0,108,108,108,108,NA,NA,108,9/25/19 17:00,600,The main experiment item,yes,Week4submit.osexp,C:/Users/DLGoupil/Desktop,no,mono,no,18,no,white,no,yes,768,legacy,28,79,C:/Users/DLGoupil/Desktop/subject-2.1.csv,legacy,Kafkaesque Koffka,3.2.8,0,h,NA,s,h,NA,h,NA,NA,478,NA,230006,6648,NA,478,NA,NA,2,legacy,1024,2,48000,-16,experiment,SSHSS,2,even,232992,375568,NA,403749,2980,NA,NA,423938,2984,368919,NA,422837,424041,424520,423936,NA,NA,424041,Week4submit,103,50348,109,yes,1024
94.54545455,94.54545455,461.1636364,461.1636364,black,legacy,legacy,legacy,0,incongruent,uniform,1,undefined,1,s,0,0,0,109,0,109,0,109,0,0,0,109,109,109,109,NA,NA,109,9/25/19 17:00,600,The main experiment item,yes,Week4submit.osexp,C:/Users/DLGoupil/Desktop,no,mono,no,18,no,white,no,yes,768,legacy,29,79,C:/Users/DLGoupil/Desktop/subject-2.1.csv,legacy,Kafkaesque Koffka,3.2.8,0,s,NA,s,h,NA,s,NA,NA,380,NA,230006,6648,NA,380,NA,NA,2,legacy,1024,2,48000,-16,experiment,HHSHH,2,even,232992,375568,NA,403749,2980,NA,NA,425636,2984,368919,NA,424525,425739,426120,425634,NA,NA,425739,Week4submit,104,50728,110,yes,1024
94.59459459,94.59459459,464,464,black,legacy,legacy,legacy,0,incongruent,uniform,1,undefined,1,s,0,0,0,110,0,110,0,110,0,0,0,110,110,110,110,NA,NA,110,9/25/19 17:00,600,The main experiment item,yes,Week4submit.osexp,C:/Users/DLGoupil/Desktop,no,mono,no,18,no,white,no,yes,768,legacy,30,79,C:/Users/DLGoupil/Desktop/subject-2.1.csv,legacy,Kafkaesque Koffka,3.2.8,0,s,NA,s,h,NA,s,NA,NA,776,NA,230006,6648,NA,776,NA,NA,2,legacy,1024,2,48000,-16,experiment,HHSHH,2,even,232992,375568,NA,403749,2980,NA,NA,427232,2984,368919,NA,426125,427335,428112,427229,NA,NA,427335,Week4submit,105,51504,111,yes,1024
94.64285714,94.64285714,464.2589286,464.2589286,black,legacy,legacy,legacy,0,congruent,uniform,1,undefined,1,h,0,0,0,111,0,111,0,111,0,0,0,111,111,111,111,NA,NA,111,9/25/19 17:00,600,The main experiment item,yes,Week4submit.osexp,C:/Users/DLGoupil/Desktop,no,mono,no,18,no,white,no,yes,768,legacy,31,79,C:/Users/DLGoupil/Desktop/subject-2.1.csv,legacy,Kafkaesque Koffka,3.2.8,0,h,NA,s,h,NA,h,NA,NA,493,NA,230006,6648,NA,493,NA,NA,2,legacy,1024,2,48000,-16,experiment,HHHHH,2,even,232992,375568,NA,403749,2980,428117,NA,429722,2984,368919,NA,428620,429826,430320,429720,NA,NA,429826,Week4submit,106,51997,112,yes,1024
93.80530973,93.80530973,463.6902655,463.6902655,black,legacy,legacy,legacy,0,incongruent,uniform,0,undefined,0,h,0,0,0,112,0,112,0,112,0,0,0,112,112,112,112,NA,NA,112,9/25/19 17:00,600,The main experiment item,yes,Week4submit.osexp,C:/Users/DLGoupil/Desktop,no,mono,no,18,no,white,no,yes,768,legacy,32,79,C:/Users/DLGoupil/Desktop/subject-2.1.csv,legacy,Kafkaesque Koffka,3.2.8,0,s,NA,s,h,NA,s,NA,NA,400,NA,230006,6648,NA,400,NA,NA,2,legacy,1024,2,48000,-16,experiment,SSHSS,2,even,232992,375568,NA,403749,2980,428117,NA,431432,2984,368919,NA,430325,431535,431936,431429,NA,NA,431535,Week4submit,106,52397,113,yes,1024
93.85964912,93.85964912,464.3070175,464.3070175,black,legacy,legacy,legacy,0,congruent,uniform,1,undefined,1,h,0,0,0,113,0,113,0,113,0,0,0,113,113,113,113,NA,NA,113,9/25/19 17:00,600,The main experiment item,yes,Week4submit.osexp,C:/Users/DLGoupil/Desktop,no,mono,no,18,no,white,no,yes,768,legacy,33,79,C:/Users/DLGoupil/Desktop/subject-2.1.csv,legacy,Kafkaesque Koffka,3.2.8,0,h,NA,s,h,NA,h,NA,NA,534,NA,230006,6648,NA,534,NA,NA,2,legacy,1024,2,48000,-16,experiment,HHHHH,2,even,232992,375568,NA,431942,2980,428117,NA,433546,2984,368919,NA,432445,433649,434184,433543,NA,NA,433649,Week4submit,107,52931,114,yes,1024
93.91304348,93.91304348,463.9130435,463.9130435,black,legacy,legacy,legacy,0,congruent,uniform,1,undefined,1,s,0,0,0,114,0,114,0,114,0,0,0,114,114,114,114,NA,NA,114,9/25/19 17:00,600,The main experiment item,yes,Week4submit.osexp,C:/Users/DLGoupil/Desktop,no,mono,no,18,no,white,no,yes,768,legacy,34,79,C:/Users/DLGoupil/Desktop/subject-2.1.csv,legacy,Kafkaesque Koffka,3.2.8,0,s,NA,s,h,NA,s,NA,NA,419,NA,230006,6648,NA,419,NA,NA,2,legacy,1024,2,48000,-16,experiment,SSSSS,2,even,232992,375568,NA,431942,2980,428117,NA,435293,2984,368919,NA,434190,435396,435816,435290,NA,NA,435396,Week4submit,108,53350,115,yes,1024
93.96551724,93.96551724,463.4568966,463.4568966,black,legacy,legacy,legacy,0,congruent,uniform,1,undefined,1,h,0,0,0,115,0,115,0,115,0,0,0,115,115,115,115,NA,NA,115,9/25/19 17:00,600,The main experiment item,yes,Week4submit.osexp,C:/Users/DLGoupil/Desktop,no,mono,no,18,no,white,no,yes,768,legacy,35,79,C:/Users/DLGoupil/Desktop/subject-2.1.csv,legacy,Kafkaesque Koffka,3.2.8,0,h,NA,s,h,NA,h,NA,NA,411,NA,230006,6648,NA,411,NA,NA,2,legacy,1024,2,48000,-16,experiment,HHHHH,2,even,232992,375568,NA,431942,2980,428117,NA,436925,2984,368919,NA,435821,437028,437440,436922,NA,NA,437028,Week4submit,109,53761,116,yes,1024
94.01709402,94.01709402,463.4358974,463.4358974,black,legacy,legacy,legacy,0,incongruent,uniform,1,undefined,1,s,0,0,0,116,0,116,0,116,0,0,0,116,116,116,116,NA,NA,116,9/25/19 17:00,600,The main experiment item,yes,Week4submit.osexp,C:/Users/DLGoupil/Desktop,no,mono,no,18,no,white,no,yes,768,legacy,36,79,C:/Users/DLGoupil/Desktop/subject-2.1.csv,legacy,Kafkaesque Koffka,3.2.8,0,s,NA,s,h,NA,s,NA,NA,461,NA,230006,6648,NA,461,NA,NA,2,legacy,1024,2,48000,-16,experiment,HHSHH,2,even,232992,375568,NA,431942,2980,428117,NA,438547,2984,368919,NA,437446,438650,439112,438544,NA,NA,438650,Week4submit,110,54222,117,yes,1024
94.06779661,94.06779661,463.6525424,463.6525424,black,legacy,legacy,legacy,0,incongruent,uniform,1,undefined,1,s,0,0,0,117,0,117,0,117,0,0,0,117,117,117,117,NA,NA,117,9/25/19 17:00,600,The main experiment item,yes,Week4submit.osexp,C:/Users/DLGoupil/Desktop,no,mono,no,18,no,white,no,yes,768,legacy,37,79,C:/Users/DLGoupil/Desktop/subject-2.1.csv,legacy,Kafkaesque Koffka,3.2.8,0,s,NA,s,h,NA,s,NA,NA,489,NA,230006,6648,NA,489,NA,NA,2,legacy,1024,2,48000,-16,experiment,HHSHH,2,even,232992,375568,NA,431942,2980,428117,NA,440223,2984,368919,NA,439118,440326,440816,440220,NA,NA,440326,Week4submit,111,54711,118,yes,1024
94.11764706,94.11764706,463.9831933,463.9831933,black,legacy,legacy,legacy,0,congruent,uniform,1,undefined,1,h,0,0,0,118,0,118,0,118,0,0,0,118,118,118,118,NA,NA,118,9/25/19 17:00,600,The main experiment item,yes,Week4submit.osexp,C:/Users/DLGoupil/Desktop,no,mono,no,18,no,white,no,yes,768,legacy,38,79,C:/Users/DLGoupil/Desktop/subject-2.1.csv,legacy,Kafkaesque Koffka,3.2.8,0,h,NA,s,h,NA,h,NA,NA,503,NA,230006,6648,NA,503,NA,NA,2,legacy,1024,2,48000,-16,experiment,HHHHH,2,even,232992,375568,NA,431942,2980,428117,NA,441928,2984,368919,NA,440821,442032,442536,441926,NA,NA,442032,Week4submit,112,55214,119,yes,1024
94.16666667,94.16666667,466.2916667,466.2916667,black,legacy,legacy,legacy,0,incongruent,uniform,1,undefined,1,h,0,0,0,119,0,119,0,119,0,0,0,119,119,119,119,NA,NA,119,9/25/19 17:00,600,The main experiment item,yes,Week4submit.osexp,C:/Users/DLGoupil/Desktop,no,mono,no,18,no,white,no,yes,768,legacy,39,79,C:/Users/DLGoupil/Desktop/subject-2.1.csv,legacy,Kafkaesque Koffka,3.2.8,0,h,NA,s,h,NA,h,NA,NA,741,NA,230006,6648,NA,741,NA,NA,2,legacy,1024,2,48000,-16,experiment,SSHSS,2,even,232992,375568,NA,431942,2980,428117,NA,443635,2984,368919,NA,442541,443738,444480,443632,NA,NA,443738,Week4submit,113,55955,120,yes,1024
94.21487603,94.21487603,466.6033058,466.6033058,black,legacy,legacy,legacy,0,congruent,uniform,1,undefined,1,h,0,0,0,120,0,120,0,120,0,0,0,120,120,120,120,NA,NA,120,9/25/19 17:00,600,The main experiment item,yes,Week4submit.osexp,C:/Users/DLGoupil/Desktop,no,mono,no,18,no,white,no,yes,768,legacy,40,79,C:/Users/DLGoupil/Desktop/subject-2.1.csv,legacy,Kafkaesque Koffka,3.2.8,0,h,NA,s,h,NA,h,NA,NA,504,NA,230006,6648,NA,504,NA,NA,2,legacy,1024,2,48000,-16,experiment,HHHHH,2,even,232992,375568,NA,431942,2980,444485,NA,446096,2984,368919,NA,444988,446199,446704,446093,NA,NA,446199,Week4submit,114,56459,121,yes,1024
94.26229508,94.26229508,466.2786885,466.2786885,black,legacy,legacy,legacy,0,congruent,uniform,1,undefined,1,h,0,0,0,121,0,121,0,121,0,0,0,121,121,121,121,NA,NA,121,9/25/19 17:00,600,The main experiment item,yes,Week4submit.osexp,C:/Users/DLGoupil/Desktop,no,mono,no,18,no,white,no,yes,768,legacy,41,79,C:/Users/DLGoupil/Desktop/subject-2.1.csv,legacy,Kafkaesque Koffka,3.2.8,0,h,NA,s,h,NA,h,NA,NA,427,NA,230006,6648,NA,427,NA,NA,2,legacy,1024,2,48000,-16,experiment,HHHHH,2,even,232992,375568,NA,431942,2980,444485,NA,447803,2984,368919,NA,446709,447907,448336,447801,NA,NA,447907,Week4submit,115,56886,122,yes,1024
94.30894309,94.30894309,465.9105691,465.9105691,black,legacy,legacy,legacy,0,congruent,uniform,1,undefined,1,h,0,0,0,122,0,122,0,122,0,0,0,122,122,122,122,NA,NA,122,9/25/19 17:00,600,The main experiment item,yes,Week4submit.osexp,C:/Users/DLGoupil/Desktop,no,mono,no,18,no,white,no,yes,768,legacy,42,79,C:/Users/DLGoupil/Desktop/subject-2.1.csv,legacy,Kafkaesque Koffka,3.2.8,0,h,NA,s,h,NA,h,NA,NA,421,NA,230006,6648,NA,421,NA,NA,2,legacy,1024,2,48000,-16,experiment,HHHHH,2,even,232992,375568,NA,431942,2980,444485,NA,449444,2984,368919,NA,448341,449546,449968,449441,NA,NA,449546,Week4submit,116,57307,123,yes,1024
94.35483871,94.35483871,465.5,465.5,black,legacy,legacy,legacy,0,congruent,uniform,1,undefined,1,s,0,0,0,123,0,123,0,123,0,0,0,123,123,123,123,NA,NA,123,9/25/19 17:00,600,The main experiment item,yes,Week4submit.osexp,C:/Users/DLGoupil/Desktop,no,mono,no,18,no,white,no,yes,768,legacy,43,79,C:/Users/DLGoupil/Desktop/subject-2.1.csv,legacy,Kafkaesque Koffka,3.2.8,0,s,NA,s,h,NA,s,NA,NA,415,NA,230006,6648,NA,415,NA,NA,2,legacy,1024,2,48000,-16,experiment,SSSSS,2,even,232992,375568,NA,431942,2980,444485,NA,451080,2984,368919,NA,449973,451183,451600,451077,NA,NA,451183,Week4submit,117,57722,124,yes,1024
94.4,94.4,465.256,465.256,black,legacy,legacy,legacy,0,congruent,uniform,1,undefined,1,h,0,0,0,124,0,124,0,124,0,0,0,124,124,124,124,NA,NA,124,9/25/19 17:00,600,The main experiment item,yes,Week4submit.osexp,C:/Users/DLGoupil/Desktop,no,mono,no,18,no,white,no,yes,768,legacy,44,79,C:/Users/DLGoupil/Desktop/subject-2.1.csv,legacy,Kafkaesque Koffka,3.2.8,0,h,NA,s,h,NA,h,NA,NA,435,NA,230006,6648,NA,435,NA,NA,2,legacy,1024,2,48000,-16,experiment,HHHHH,2,even,232992,375568,NA,431942,2980,444485,NA,453068,2984,368919,NA,451968,453171,453608,453065,NA,NA,453171,Week4submit,118,58157,125,yes,1024
94.44444444,94.44444444,465.4047619,465.4047619,black,legacy,legacy,legacy,0,congruent,uniform,1,undefined,1,s,0,0,0,125,0,125,0,125,0,0,0,125,125,125,125,NA,NA,125,9/25/19 17:00,600,The main experiment item,yes,Week4submit.osexp,C:/Users/DLGoupil/Desktop,no,mono,no,18,no,white,no,yes,768,legacy,45,79,C:/Users/DLGoupil/Desktop/subject-2.1.csv,legacy,Kafkaesque Koffka,3.2.8,0,s,NA,s,h,NA,s,NA,NA,484,NA,230006,6648,NA,484,NA,NA,2,legacy,1024,2,48000,-16,experiment,SSSSS,2,even,232992,375568,NA,431942,2980,444485,NA,454715,2984,368919,NA,453613,454818,455304,454712,NA,NA,454818,Week4submit,119,58641,126,yes,1024
94.48818898,94.48818898,465.8582677,465.8582677,black,legacy,legacy,legacy,0,incongruent,uniform,1,undefined,1,s,0,0,0,126,0,126,0,126,0,0,0,126,126,126,126,NA,NA,126,9/25/19 17:00,600,The main experiment item,yes,Week4submit.osexp,C:/Users/DLGoupil/Desktop,no,mono,no,18,no,white,no,yes,768,legacy,46,79,C:/Users/DLGoupil/Desktop/subject-2.1.csv,legacy,Kafkaesque Koffka,3.2.8,0,s,NA,s,h,NA,s,NA,NA,523,NA,230006,6648,NA,523,NA,NA,2,legacy,1024,2,48000,-16,experiment,HHSHH,2,even,232992,375568,NA,431942,2980,444485,NA,456420,2984,368919,NA,455309,456523,457048,456417,NA,NA,456523,Week4submit,120,59164,127,yes,1024
94.53125,94.53125,465.7109375,465.7109375,black,legacy,legacy,legacy,0,congruent,uniform,1,undefined,1,s,0,0,0,127,0,127,0,127,0,0,0,127,127,127,127,NA,NA,127,9/25/19 17:00,600,The main experiment item,yes,Week4submit.osexp,C:/Users/DLGoupil/Desktop,no,mono,no,18,no,white,no,yes,768,legacy,47,79,C:/Users/DLGoupil/Desktop/subject-2.1.csv,legacy,Kafkaesque Koffka,3.2.8,0,s,NA,s,h,NA,s,NA,NA,447,NA,230006,6648,NA,447,NA,NA,2,legacy,1024,2,48000,-16,experiment,SSSSS,2,even,232992,375568,NA,431942,2980,444485,NA,458161,2984,368919,NA,457053,458264,458713,458158,NA,NA,458264,Week4submit,121,59611,128,yes,1024
94.57364341,94.57364341,464.9922481,464.9922481,black,legacy,legacy,legacy,0,congruent,uniform,1,undefined,1,s,0,0,0,128,0,128,0,128,0,0,0,128,128,128,128,NA,NA,128,9/25/19 17:00,600,The main experiment item,yes,Week4submit.osexp,C:/Users/DLGoupil/Desktop,no,mono,no,18,no,white,no,yes,768,legacy,48,79,C:/Users/DLGoupil/Desktop/subject-2.1.csv,legacy,Kafkaesque Koffka,3.2.8,0,s,NA,s,h,NA,s,NA,NA,373,NA,230006,6648,NA,373,NA,NA,2,legacy,1024,2,48000,-16,experiment,SSSSS,2,even,232992,375568,NA,431942,2980,444485,NA,459818,2984,368919,NA,458718,459921,460296,459815,NA,NA,459921,Week4submit,122,59984,129,yes,1024
94.61538462,94.61538462,464.6230769,464.6230769,black,legacy,legacy,legacy,0,congruent,uniform,1,undefined,1,h,0,0,0,129,0,129,0,129,0,0,0,129,129,129,129,NA,NA,129,9/25/19 17:00,600,The main experiment item,yes,Week4submit.osexp,C:/Users/DLGoupil/Desktop,no,mono,no,18,no,white,no,yes,768,legacy,49,79,C:/Users/DLGoupil/Desktop/subject-2.1.csv,legacy,Kafkaesque Koffka,3.2.8,0,h,NA,s,h,NA,h,NA,NA,417,NA,230006,6648,NA,417,NA,NA,2,legacy,1024,2,48000,-16,experiment,HHHHH,2,even,232992,375568,NA,431942,2980,444485,NA,461406,2984,368919,NA,460301,461509,461928,461403,NA,NA,461509,Week4submit,123,60401,130,yes,1024
94.65648855,94.65648855,464.0610687,464.0610687,black,legacy,legacy,legacy,0,congruent,uniform,1,undefined,1,s,0,0,0,130,0,130,0,130,0,0,0,130,130,130,130,NA,NA,130,9/25/19 17:00,600,The main experiment item,yes,Week4submit.osexp,C:/Users/DLGoupil/Desktop,no,mono,no,18,no,white,no,yes,768,legacy,50,79,C:/Users/DLGoupil/Desktop/subject-2.1.csv,legacy,Kafkaesque Koffka,3.2.8,0,s,NA,s,h,NA,s,NA,NA,391,NA,230006,6648,NA,391,NA,NA,2,legacy,1024,2,48000,-16,experiment,SSSSS,2,even,232992,375568,NA,431942,2980,444485,NA,463032,2984,368919,NA,461933,463135,463528,463029,NA,NA,463135,Week4submit,124,60792,131,yes,1024
94.6969697,94.6969697,463.7575758,463.7575758,black,legacy,legacy,legacy,0,congruent,uniform,1,undefined,1,s,0,0,0,131,0,131,0,131,0,0,0,131,131,131,131,NA,NA,131,9/25/19 17:00,600,The main experiment item,yes,Week4submit.osexp,C:/Users/DLGoupil/Desktop,no,mono,no,18,no,white,no,yes,768,legacy,51,79,C:/Users/DLGoupil/Desktop/subject-2.1.csv,legacy,Kafkaesque Koffka,3.2.8,0,s,NA,s,h,NA,s,NA,NA,424,NA,230006,6648,NA,424,NA,NA,2,legacy,1024,2,48000,-16,experiment,SSSSS,2,even,232992,375568,NA,431942,2980,444485,NA,464639,2984,368919,NA,463533,464742,465168,464636,NA,NA,464742,Week4submit,125,61216,132,yes,1024
94.73684211,94.73684211,463.4360902,463.4360902,black,legacy,legacy,legacy,0,incongruent,uniform,1,undefined,1,s,0,0,0,132,0,132,0,132,0,0,0,132,132,132,132,NA,NA,132,9/25/19 17:00,600,The main experiment item,yes,Week4submit.osexp,C:/Users/DLGoupil/Desktop,no,mono,no,18,no,white,no,yes,768,legacy,52,79,C:/Users/DLGoupil/Desktop/subject-2.1.csv,legacy,Kafkaesque Koffka,3.2.8,0,s,NA,s,h,NA,s,NA,NA,421,NA,230006,6648,NA,421,NA,NA,2,legacy,1024,2,48000,-16,experiment,HHSHH,2,even,232992,375568,NA,431942,2980,444485,NA,466274,2984,368919,NA,465173,466377,466800,466271,NA,NA,466377,Week4submit,126,61637,133,yes,1024
94.7761194,94.7761194,463.2537313,463.2537313,black,legacy,legacy,legacy,0,incongruent,uniform,1,undefined,1,h,0,0,0,133,0,133,0,133,0,0,0,133,133,133,133,NA,NA,133,9/25/19 17:00,600,The main experiment item,yes,Week4submit.osexp,C:/Users/DLGoupil/Desktop,no,mono,no,18,no,white,no,yes,768,legacy,53,79,C:/Users/DLGoupil/Desktop/subject-2.1.csv,legacy,Kafkaesque Koffka,3.2.8,0,h,NA,s,h,NA,h,NA,NA,439,NA,230006,6648,NA,439,NA,NA,2,legacy,1024,2,48000,-16,experiment,SSHSS,2,even,232992,375568,NA,431942,2980,444485,NA,467912,2984,368919,NA,466807,468015,468456,467909,NA,NA,468015,Week4submit,127,62076,134,yes,1024
94.07407407,94.07407407,463.6222222,463.6222222,black,legacy,legacy,legacy,0,incongruent,uniform,0,undefined,0,s,0,0,0,134,0,134,0,134,0,0,0,134,134,134,134,NA,NA,134,9/25/19 17:00,600,The main experiment item,yes,Week4submit.osexp,C:/Users/DLGoupil/Desktop,no,mono,no,18,no,white,no,yes,768,legacy,54,79,C:/Users/DLGoupil/Desktop/subject-2.1.csv,legacy,Kafkaesque Koffka,3.2.8,0,h,NA,s,h,NA,h,NA,NA,513,NA,230006,6648,NA,513,NA,NA,2,legacy,1024,2,48000,-16,experiment,HHSHH,2,even,232992,375568,NA,431942,2980,444485,NA,469566,2984,368919,NA,468461,469669,470184,469563,NA,NA,469669,Week4submit,127,62589,135,yes,1024
93.38235294,93.38235294,463.5441176,463.5441176,black,legacy,legacy,legacy,0,congruent,uniform,0,undefined,0,h,0,0,0,135,0,135,0,135,0,0,0,135,135,135,135,NA,NA,135,9/25/19 17:00,600,The main experiment item,yes,Week4submit.osexp,C:/Users/DLGoupil/Desktop,no,mono,no,18,no,white,no,yes,768,legacy,55,79,C:/Users/DLGoupil/Desktop/subject-2.1.csv,legacy,Kafkaesque Koffka,3.2.8,0,s,NA,s,h,NA,s,NA,NA,453,NA,230006,6648,NA,453,NA,NA,2,legacy,1024,2,48000,-16,experiment,HHHHH,2,even,232992,375568,NA,470189,2980,444485,NA,471793,2984,368919,NA,470692,471897,472352,471791,NA,NA,471897,Week4submit,127,63042,136,yes,1024
93.43065693,93.43065693,464.2481752,464.2481752,black,legacy,legacy,legacy,0,congruent,uniform,1,undefined,1,h,0,0,0,136,0,136,0,136,0,0,0,136,136,136,136,NA,NA,136,9/25/19 17:00,600,The main experiment item,yes,Week4submit.osexp,C:/Users/DLGoupil/Desktop,no,mono,no,18,no,white,no,yes,768,legacy,56,79,C:/Users/DLGoupil/Desktop/subject-2.1.csv,legacy,Kafkaesque Koffka,3.2.8,0,h,NA,s,h,NA,h,NA,NA,560,NA,230006,6648,NA,560,NA,NA,2,legacy,1024,2,48000,-16,experiment,HHHHH,2,even,232992,375568,NA,472357,2980,444485,NA,473967,2984,368919,NA,472860,474070,474632,473964,NA,NA,474070,Week4submit,128,63602,137,yes,1024
93.47826087,93.47826087,463.673913,463.673913,black,legacy,legacy,legacy,0,incongruent,uniform,1,undefined,1,s,0,0,0,137,0,137,0,137,0,0,0,137,137,137,137,NA,NA,137,9/25/19 17:00,600,The main experiment item,yes,Week4submit.osexp,C:/Users/DLGoupil/Desktop,no,mono,no,18,no,white,no,yes,768,legacy,57,79,C:/Users/DLGoupil/Desktop/subject-2.1.csv,legacy,Kafkaesque Koffka,3.2.8,0,s,NA,s,h,NA,s,NA,NA,385,NA,230006,6648,NA,385,NA,NA,2,legacy,1024,2,48000,-16,experiment,HHSHH,2,even,232992,375568,NA,472357,2980,444485,NA,475743,2984,368919,NA,474637,475845,476232,475740,NA,NA,475845,Week4submit,129,63987,138,yes,1024
93.52517986,93.52517986,464.1151079,464.1151079,black,legacy,legacy,legacy,0,incongruent,uniform,1,undefined,1,s,0,0,0,138,0,138,0,138,0,0,0,138,138,138,138,NA,NA,138,9/25/19 17:00,600,The main experiment item,yes,Week4submit.osexp,C:/Users/DLGoupil/Desktop,no,mono,no,18,no,white,no,yes,768,legacy,58,79,C:/Users/DLGoupil/Desktop/subject-2.1.csv,legacy,Kafkaesque Koffka,3.2.8,0,s,NA,s,h,NA,s,NA,NA,525,NA,230006,6648,NA,525,NA,NA,2,legacy,1024,2,48000,-16,experiment,HHSHH,2,even,232992,375568,NA,472357,2980,444485,NA,477337,2984,368919,NA,476237,477441,477968,477335,NA,NA,477441,Week4submit,130,64512,139,yes,1024
93.57142857,93.57142857,464.3714286,464.3714286,black,legacy,legacy,legacy,0,congruent,uniform,1,undefined,1,h,0,0,0,139,0,139,0,139,0,0,0,139,139,139,139,NA,NA,139,9/25/19 17:00,600,The main experiment item,yes,Week4submit.osexp,C:/Users/DLGoupil/Desktop,no,mono,no,18,no,white,no,yes,768,legacy,59,79,C:/Users/DLGoupil/Desktop/subject-2.1.csv,legacy,Kafkaesque Koffka,3.2.8,0,h,NA,s,h,NA,h,NA,NA,500,NA,230006,6648,NA,500,NA,NA,2,legacy,1024,2,48000,-16,experiment,HHHHH,2,even,232992,375568,NA,472357,2980,444485,NA,479067,2984,368919,NA,477973,479170,479672,479064,NA,NA,479170,Week4submit,131,65012,140,yes,1024
93.61702128,93.61702128,464.3120567,464.3120567,black,legacy,legacy,legacy,0,congruent,uniform,1,undefined,1,h,0,0,0,140,0,140,0,140,0,0,0,140,140,140,140,NA,NA,140,9/25/19 17:00,600,The main experiment item,yes,Week4submit.osexp,C:/Users/DLGoupil/Desktop,no,mono,no,18,no,white,no,yes,768,legacy,60,79,C:/Users/DLGoupil/Desktop/subject-2.1.csv,legacy,Kafkaesque Koffka,3.2.8,0,h,NA,s,h,NA,h,NA,NA,456,NA,230006,6648,NA,456,NA,NA,2,legacy,1024,2,48000,-16,experiment,HHHHH,2,even,232992,375568,NA,472357,2980,444485,NA,480783,2984,368919,NA,479677,480886,481344,480780,NA,NA,480886,Week4submit,132,65468,141,yes,1024
93.66197183,93.66197183,464.415493,464.415493,black,legacy,legacy,legacy,0,incongruent,uniform,1,undefined,1,s,0,0,0,141,0,141,0,141,0,0,0,141,141,141,141,NA,NA,141,9/25/19 17:00,600,The main experiment item,yes,Week4submit.osexp,C:/Users/DLGoupil/Desktop,no,mono,no,18,no,white,no,yes,768,legacy,61,79,C:/Users/DLGoupil/Desktop/subject-2.1.csv,legacy,Kafkaesque Koffka,3.2.8,0,s,NA,s,h,NA,s,NA,NA,479,NA,230006,6648,NA,479,NA,NA,2,legacy,1024,2,48000,-16,experiment,HHSHH,2,even,232992,375568,NA,472357,2980,444485,NA,482457,2984,368919,NA,481349,482560,483041,482454,NA,NA,482560,Week4submit,133,65947,142,yes,1024
93.70629371,93.70629371,464.1048951,464.1048951,black,legacy,legacy,legacy,0,congruent,uniform,1,undefined,1,s,0,0,0,142,0,142,0,142,0,0,0,142,142,142,142,NA,NA,142,9/25/19 17:00,600,The main experiment item,yes,Week4submit.osexp,C:/Users/DLGoupil/Desktop,no,mono,no,18,no,white,no,yes,768,legacy,62,79,C:/Users/DLGoupil/Desktop/subject-2.1.csv,legacy,Kafkaesque Koffka,3.2.8,0,s,NA,s,h,NA,s,NA,NA,420,NA,230006,6648,NA,420,NA,NA,2,legacy,1024,2,48000,-16,experiment,SSSSS,2,even,232992,375568,NA,472357,2980,444485,NA,484148,2984,368919,NA,483046,484251,484673,484145,NA,NA,484251,Week4submit,134,66367,143,yes,1024
93.75,93.75,464.4652778,464.4652778,black,legacy,legacy,legacy,0,incongruent,uniform,1,undefined,1,s,0,0,0,143,0,143,0,143,0,0,0,143,143,143,143,NA,NA,143,9/25/19 17:00,600,The main experiment item,yes,Week4submit.osexp,C:/Users/DLGoupil/Desktop,no,mono,no,18,no,white,no,yes,768,legacy,63,79,C:/Users/DLGoupil/Desktop/subject-2.1.csv,legacy,Kafkaesque Koffka,3.2.8,0,s,NA,s,h,NA,s,NA,NA,516,NA,230006,6648,NA,516,NA,NA,2,legacy,1024,2,48000,-16,experiment,HHSHH,2,even,232992,375568,NA,472357,2980,444485,NA,485787,2984,368919,NA,484678,485890,486408,485784,NA,NA,485890,Week4submit,135,66883,144,yes,1024
93.79310345,93.79310345,465.537931,465.537931,black,legacy,legacy,legacy,0,incongruent,uniform,1,undefined,1,h,0,0,0,144,0,144,0,144,0,0,0,144,144,144,144,NA,NA,144,9/25/19 17:00,600,The main experiment item,yes,Week4submit.osexp,C:/Users/DLGoupil/Desktop,no,mono,no,18,no,white,no,yes,768,legacy,64,79,C:/Users/DLGoupil/Desktop/subject-2.1.csv,legacy,Kafkaesque Koffka,3.2.8,0,h,NA,s,h,NA,h,NA,NA,620,NA,230006,6648,NA,620,NA,NA,2,legacy,1024,2,48000,-16,experiment,SSHSS,2,even,232992,375568,NA,472357,2980,444485,NA,487523,2984,368919,NA,486413,487626,488248,487520,NA,NA,487626,Week4submit,136,67503,145,yes,1024
93.83561644,93.83561644,465.6849315,465.6849315,black,legacy,legacy,legacy,0,incongruent,uniform,1,undefined,1,h,0,0,0,145,0,145,0,145,0,0,0,145,145,145,145,NA,NA,145,9/25/19 17:00,600,The main experiment item,yes,Week4submit.osexp,C:/Users/DLGoupil/Desktop,no,mono,no,18,no,white,no,yes,768,legacy,65,79,C:/Users/DLGoupil/Desktop/subject-2.1.csv,legacy,Kafkaesque Koffka,3.2.8,0,h,NA,s,h,NA,h,NA,NA,487,NA,230006,6648,NA,487,NA,NA,2,legacy,1024,2,48000,-16,experiment,SSHSS,2,even,232992,375568,NA,472357,2980,488253,NA,489864,2984,368919,NA,488756,489967,490456,489862,NA,NA,489967,Week4submit,137,67990,146,yes,1024
93.87755102,93.87755102,465.3673469,465.3673469,black,legacy,legacy,legacy,0,congruent,uniform,1,undefined,1,s,0,0,0,146,0,146,0,146,0,0,0,146,146,146,146,NA,NA,146,9/25/19 17:00,600,The main experiment item,yes,Week4submit.osexp,C:/Users/DLGoupil/Desktop,no,mono,no,18,no,white,no,yes,768,legacy,66,79,C:/Users/DLGoupil/Desktop/subject-2.1.csv,legacy,Kafkaesque Koffka,3.2.8,0,s,NA,s,h,NA,s,NA,NA,419,NA,230006,6648,NA,419,NA,NA,2,legacy,1024,2,48000,-16,experiment,SSSSS,2,even,232992,375568,NA,472357,2980,488253,NA,491556,2984,368919,NA,490461,491659,492080,491553,NA,NA,491659,Week4submit,138,68409,147,yes,1024
93.91891892,93.91891892,465.7972973,465.7972973,black,legacy,legacy,legacy,0,incongruent,uniform,1,undefined,1,h,0,0,0,147,0,147,0,147,0,0,0,147,147,147,147,NA,NA,147,9/25/19 17:00,600,The main experiment item,yes,Week4submit.osexp,C:/Users/DLGoupil/Desktop,no,mono,no,18,no,white,no,yes,768,legacy,67,79,C:/Users/DLGoupil/Desktop/subject-2.1.csv,legacy,Kafkaesque Koffka,3.2.8,0,h,NA,s,h,NA,h,NA,NA,529,NA,230006,6648,NA,529,NA,NA,2,legacy,1024,2,48000,-16,experiment,SSHSS,2,even,232992,375568,NA,472357,2980,488253,NA,493198,2984,368919,NA,492085,493301,493832,493195,NA,NA,493301,Week4submit,139,68938,148,yes,1024
93.95973154,93.95973154,466.0604027,466.0604027,black,legacy,legacy,legacy,0,congruent,uniform,1,undefined,1,h,0,0,0,148,0,148,0,148,0,0,0,148,148,148,148,NA,NA,148,9/25/19 17:00,600,The main experiment item,yes,Week4submit.osexp,C:/Users/DLGoupil/Desktop,no,mono,no,18,no,white,no,yes,768,legacy,68,79,C:/Users/DLGoupil/Desktop/subject-2.1.csv,legacy,Kafkaesque Koffka,3.2.8,0,h,NA,s,h,NA,h,NA,NA,505,NA,230006,6648,NA,505,NA,NA,2,legacy,1024,2,48000,-16,experiment,HHHHH,2,even,232992,375568,NA,472357,2980,488253,NA,494942,2984,368919,NA,493837,495045,495552,494939,NA,NA,495045,Week4submit,140,69443,149,yes,1024
94,94,466.0733333,466.0733333,black,legacy,legacy,legacy,0,incongruent,uniform,1,undefined,1,h,0,0,0,149,0,149,0,149,0,0,0,149,149,149,149,NA,NA,149,9/25/19 17:00,600,The main experiment item,yes,Week4submit.osexp,C:/Users/DLGoupil/Desktop,no,mono,no,18,no,white,no,yes,768,legacy,69,79,C:/Users/DLGoupil/Desktop/subject-2.1.csv,legacy,Kafkaesque Koffka,3.2.8,0,h,NA,s,h,NA,h,NA,NA,468,NA,230006,6648,NA,468,NA,NA,2,legacy,1024,2,48000,-16,experiment,SSHSS,2,even,232992,375568,NA,472357,2980,488253,NA,496659,2984,368919,NA,495557,496762,497232,496656,NA,NA,496762,Week4submit,141,69911,150,yes,1024
94.0397351,94.0397351,465.6688742,465.6688742,black,legacy,legacy,legacy,0,congruent,uniform,1,undefined,1,s,0,0,0,150,0,150,0,150,0,0,0,150,150,150,150,NA,NA,150,9/25/19 17:00,600,The main experiment item,yes,Week4submit.osexp,C:/Users/DLGoupil/Desktop,no,mono,no,18,no,white,no,yes,768,legacy,70,79,C:/Users/DLGoupil/Desktop/subject-2.1.csv,legacy,Kafkaesque Koffka,3.2.8,0,s,NA,s,h,NA,s,NA,NA,405,NA,230006,6648,NA,405,NA,NA,2,legacy,1024,2,48000,-16,experiment,SSSSS,2,even,232992,375568,NA,472357,2980,488253,NA,498337,2984,368919,NA,497237,498441,498848,498335,NA,NA,498441,Week4submit,142,70316,151,yes,1024
94.07894737,94.07894737,465.4736842,465.4736842,black,legacy,legacy,legacy,0,incongruent,uniform,1,undefined,1,h,0,0,0,151,0,151,0,151,0,0,0,151,151,151,151,NA,NA,151,9/25/19 17:00,600,The main experiment item,yes,Week4submit.osexp,C:/Users/DLGoupil/Desktop,no,mono,no,18,no,white,no,yes,768,legacy,71,79,C:/Users/DLGoupil/Desktop/subject-2.1.csv,legacy,Kafkaesque Koffka,3.2.8,0,h,NA,s,h,NA,h,NA,NA,436,NA,230006,6648,NA,436,NA,NA,2,legacy,1024,2,48000,-16,experiment,SSHSS,2,even,232992,375568,NA,472357,2980,488253,NA,499955,2984,368919,NA,498853,500058,500496,499952,NA,NA,500058,Week4submit,143,70752,152,yes,1024
94.11764706,94.11764706,465.6535948,465.6535948,black,legacy,legacy,legacy,0,congruent,uniform,1,undefined,1,s,0,0,0,152,0,152,0,152,0,0,0,152,152,152,152,NA,NA,152,9/25/19 17:00,600,The main experiment item,yes,Week4submit.osexp,C:/Users/DLGoupil/Desktop,no,mono,no,18,no,white,no,yes,768,legacy,72,79,C:/Users/DLGoupil/Desktop/subject-2.1.csv,legacy,Kafkaesque Koffka,3.2.8,0,s,NA,s,h,NA,s,NA,NA,493,NA,230006,6648,NA,493,NA,NA,2,legacy,1024,2,48000,-16,experiment,SSSSS,2,even,232992,375568,NA,472357,2980,488253,NA,501603,2984,368919,NA,500501,501706,502201,501600,NA,NA,501706,Week4submit,144,71245,153,yes,1024
94.15584416,94.15584416,466.4090909,466.4090909,black,legacy,legacy,legacy,0,incongruent,uniform,1,undefined,1,h,0,0,0,153,0,153,0,153,0,0,0,153,153,153,153,NA,NA,153,9/25/19 17:00,600,The main experiment item,yes,Week4submit.osexp,C:/Users/DLGoupil/Desktop,no,mono,no,18,no,white,no,yes,768,legacy,73,79,C:/Users/DLGoupil/Desktop/subject-2.1.csv,legacy,Kafkaesque Koffka,3.2.8,0,h,NA,s,h,NA,h,NA,NA,582,NA,230006,6648,NA,582,NA,NA,2,legacy,1024,2,48000,-16,experiment,SSHSS,2,even,232992,375568,NA,472357,2980,488253,NA,503314,2984,368919,NA,502207,503417,504001,503311,NA,NA,503417,Week4submit,145,71827,154,yes,1024
94.19354839,94.19354839,466.8967742,466.8967742,black,legacy,legacy,legacy,0,incongruent,uniform,1,undefined,1,h,0,0,0,154,0,154,0,154,0,0,0,154,154,154,154,NA,NA,154,9/25/19 17:00,600,The main experiment item,yes,Week4submit.osexp,C:/Users/DLGoupil/Desktop,no,mono,no,18,no,white,no,yes,768,legacy,74,79,C:/Users/DLGoupil/Desktop/subject-2.1.csv,legacy,Kafkaesque Koffka,3.2.8,0,h,NA,s,h,NA,h,NA,NA,542,NA,230006,6648,NA,542,NA,NA,2,legacy,1024,2,48000,-16,experiment,SSHSS,2,even,232992,375568,NA,472357,2980,488253,NA,505114,2984,368919,NA,504006,505217,505761,505111,NA,NA,505217,Week4submit,146,72369,155,yes,1024
94.23076923,94.23076923,467.3653846,467.3653846,black,legacy,legacy,legacy,0,incongruent,uniform,1,undefined,1,s,0,0,0,155,0,155,0,155,0,0,0,155,155,155,155,NA,NA,155,9/25/19 17:00,600,The main experiment item,yes,Week4submit.osexp,C:/Users/DLGoupil/Desktop,no,mono,no,18,no,white,no,yes,768,legacy,75,79,C:/Users/DLGoupil/Desktop/subject-2.1.csv,legacy,Kafkaesque Koffka,3.2.8,0,s,NA,s,h,NA,s,NA,NA,540,NA,230006,6648,NA,540,NA,NA,2,legacy,1024,2,48000,-16,experiment,HHSHH,2,even,232992,375568,NA,472357,2980,488253,NA,506876,2984,368919,NA,505766,506979,507521,506873,NA,NA,506979,Week4submit,147,72909,156,yes,1024
94.26751592,94.26751592,467.5796178,467.5796178,black,legacy,legacy,legacy,0,incongruent,uniform,1,undefined,1,s,0,0,0,156,0,156,0,156,0,0,0,156,156,156,156,NA,NA,156,9/25/19 17:00,600,The main experiment item,yes,Week4submit.osexp,C:/Users/DLGoupil/Desktop,no,mono,no,18,no,white,no,yes,768,legacy,76,79,C:/Users/DLGoupil/Desktop/subject-2.1.csv,legacy,Kafkaesque Koffka,3.2.8,0,s,NA,s,h,NA,s,NA,NA,501,NA,230006,6648,NA,501,NA,NA,2,legacy,1024,2,48000,-16,experiment,HHSHH,2,even,232992,375568,NA,472357,2980,488253,NA,508627,2984,368919,NA,507526,508730,509233,508624,NA,NA,508730,Week4submit,148,73410,157,yes,1024
94.30379747,94.30379747,467.2341772,467.2341772,black,legacy,legacy,legacy,0,congruent,uniform,1,undefined,1,s,0,0,0,157,0,157,0,157,0,0,0,157,157,157,157,NA,NA,157,9/25/19 17:00,600,The main experiment item,yes,Week4submit.osexp,C:/Users/DLGoupil/Desktop,no,mono,no,18,no,white,no,yes,768,legacy,77,79,C:/Users/DLGoupil/Desktop/subject-2.1.csv,legacy,Kafkaesque Koffka,3.2.8,0,s,NA,s,h,NA,s,NA,NA,413,NA,230006,6648,NA,413,NA,NA,2,legacy,1024,2,48000,-16,experiment,SSSSS,2,even,232992,375568,NA,472357,2980,488253,NA,510339,2984,368919,NA,509238,510442,510857,510336,NA,NA,510442,Week4submit,149,73823,158,yes,1024
94.33962264,94.33962264,467.3836478,467.3836478,black,legacy,legacy,legacy,0,incongruent,uniform,1,undefined,1,h,0,0,0,158,0,158,0,158,0,0,0,158,158,158,158,NA,NA,158,9/25/19 17:00,600,The main experiment item,yes,Week4submit.osexp,C:/Users/DLGoupil/Desktop,no,mono,no,18,no,white,no,yes,768,legacy,78,79,C:/Users/DLGoupil/Desktop/subject-2.1.csv,legacy,Kafkaesque Koffka,3.2.8,0,h,NA,s,h,NA,h,NA,NA,491,NA,230006,6648,NA,491,NA,NA,2,legacy,1024,2,48000,-16,experiment,SSHSS,2,even,232992,375568,NA,472357,2980,488253,NA,511965,2984,368919,NA,510862,512068,512561,511962,NA,NA,512068,Week4submit,150,74314,159,yes,1024
94.375,94.375,466.8875,466.8875,black,legacy,legacy,legacy,0,incongruent,uniform,1,undefined,1,s,0,0,0,159,0,159,0,159,0,0,0,159,159,159,159,NA,NA,159,9/25/19 17:00,600,The main experiment item,yes,Week4submit.osexp,C:/Users/DLGoupil/Desktop,no,mono,no,18,no,white,no,yes,768,legacy,79,79,C:/Users/DLGoupil/Desktop/subject-2.1.csv,legacy,Kafkaesque Koffka,3.2.8,0,s,NA,s,h,NA,s,NA,NA,388,NA,230006,6648,NA,388,NA,NA,2,legacy,1024,2,48000,-16,experiment,HHSHH,2,even,232992,375568,NA,472357,2980,488253,NA,513668,2984,368919,NA,512566,513771,514161,513665,NA,NA,513771,Week4submit,151,74702,160,yes,1024
94.40993789,94.40993789,467.515528,467.515528,black,legacy,legacy,legacy,0,incongruent,uniform,1,undefined,1,h,0,0,0,160,0,160,0,160,0,0,0,160,160,160,160,NA,NA,160,9/25/19 17:00,300,The main experiment item,yes,Week4submit.osexp,C:/Users/DLGoupil/Desktop,no,mono,no,18,no,white,no,yes,768,legacy,0,79,C:/Users/DLGoupil/Desktop/subject-2.1.csv,legacy,Kafkaesque Koffka,3.2.8,0,h,NA,s,h,s,h,NA,NA,568,NA,230006,6648,2609,568,NA,NA,2,legacy,1024,2,48000,-16,experiment,SSHSS,2,even,232992,375568,517801,472357,2980,488253,NA,517896,2984,368919,515190,514166,517999,518569,517894,NA,NA,517999,Week4submit,152,75270,161,yes,1024
94.44444444,94.44444444,467.1419753,467.1419753,black,legacy,legacy,legacy,0,incongruent,uniform,1,undefined,1,h,0,0,0,161,0,161,0,161,0,0,0,161,161,161,161,NA,NA,161,9/25/19 17:00,300,The main experiment item,yes,Week4submit.osexp,C:/Users/DLGoupil/Desktop,no,mono,no,18,no,white,no,yes,768,legacy,1,79,C:/Users/DLGoupil/Desktop/subject-2.1.csv,legacy,Kafkaesque Koffka,3.2.8,0,h,NA,s,h,s,h,NA,NA,407,NA,230006,6648,2609,407,NA,NA,2,legacy,1024,2,48000,-16,experiment,SSHSS,2,even,232992,375568,517801,472357,2980,518574,NA,520177,2984,368919,515190,519077,520280,520689,520174,NA,NA,520280,Week4submit,153,75677,162,yes,1024
94.47852761,94.47852761,466.3558282,466.3558282,black,legacy,legacy,legacy,0,congruent,uniform,1,undefined,1,s,0,0,0,162,0,162,0,162,0,0,0,162,162,162,162,NA,NA,162,9/25/19 17:00,300,The main experiment item,yes,Week4submit.osexp,C:/Users/DLGoupil/Desktop,no,mono,no,18,no,white,no,yes,768,legacy,2,79,C:/Users/DLGoupil/Desktop/subject-2.1.csv,legacy,Kafkaesque Koffka,3.2.8,0,s,NA,s,h,s,s,NA,NA,339,NA,230006,6648,2609,339,NA,NA,2,legacy,1024,2,48000,-16,experiment,SSSSS,2,even,232992,375568,517801,472357,2980,520694,NA,522301,2984,368919,515190,521197,522404,522745,522298,NA,NA,522404,Week4submit,154,76016,163,yes,1024
