acc,accuracy,average_response_time,avg_rt,background,canvas_backend,clock_backend,color_backend,compensation,condition,coordinates,correct,correct_Instruction1,correct_Keyboard_Response,correct_response,count_Block1,count_Block2,count_Block3,count_ErrorFeedback,count_Faster,count_Finish,count_Fixation,count_ISI,count_Instruction1,count_Instruction2,count_Instruction3,count_Keyboard_Response,count_Logger,count_Sequence,count_Stimulus,count_experiment,datetime,deadline,description,disable_garbage_collection,experiment_file,experiment_path,font_bold,font_family,font_italic,font_size,font_underline,foreground,form_clicks,fullscreen,height,keyboard_backend,live_row,live_row_Block1,logfile,mouse_backend,opensesame_codename,opensesame_version,repeat_cycle,response,response_Finish,response_Instruction1,response_Instruction2,response_Instruction3,response_Keyboard_Response,response_time,response_time_Finish,response_time_Instruction1,response_time_Instruction2,response_time_Instruction3,response_time_Keyboard_Response,round_decimals,sampler_backend,sound_buf_size,sound_channels,sound_freq,sound_sample_size,start,stimulus,subject_nr,subject_parity,time_Block1,time_Block2,time_Block3,time_ErrorFeedback,time_Faster,time_Finish,time_Fixation,time_ISI,time_Instruction1,time_Instruction2,time_Instruction3,time_Keyboard_Response,time_Logger,time_Sequence,time_Stimulus,time_experiment,title,total_correct,total_response_time,total_responses,uniform_coordinates,width
100,100,1046,1046,black,legacy,legacy,legacy,0,incongruent,uniform,1,undefined,1,h,0,0,0,0,0,0,0,0,0,0,0,0,0,0,0,0,Sun Sep 29 12:35:57 2019,1500,The main experiment item,yes,FlankerTest.osexp,/Users/Linzi/Desktop,no,mono,no,18,no,white,no,yes,768,legacy,0,0,/Users/Linzi/Desktop/LM-subject-3f55.csv,legacy,Kafkaesque Koffka,3.2.8,0,h,NA,s,NA,NA,h,1046,NA,53800,NA,NA,1046,2,legacy,1024,2,48000,-16,experiment,SSHSS,3,odd,59558,NA,NA,NA,NA,NA,59837,NA,5740,NA,NA,59963,61013,59811,59963,5700,Flanker Test,1,1046,1,yes,1024
100,100,919,919,black,legacy,legacy,legacy,0,congruent,uniform,1,undefined,1,h,0,0,0,1,1,0,1,1,0,0,0,1,1,1,1,0,Sun Sep 29 12:35:57 2019,1500,The main experiment item,yes,FlankerTest.osexp,/Users/Linzi/Desktop,no,mono,no,18,no,white,no,yes,768,legacy,1,1,/Users/Linzi/Desktop/LM-subject-3f55.csv,legacy,Kafkaesque Koffka,3.2.8,0,h,NA,s,NA,NA,h,792,NA,53800,NA,NA,792,2,legacy,1024,2,48000,-16,experiment,HHHHH,3,odd,59558,NA,NA,NA,NA,NA,62338,61060,5740,NA,NA,62464,63259,62312,62464,5700,Flanker Test,2,1838,2,yes,1024
100,100,850,850,black,legacy,legacy,legacy,0,congruent,uniform,1,undefined,1,s,0,0,0,2,2,0,2,2,0,0,0,2,2,2,2,0,Sun Sep 29 12:35:57 2019,1500,The main experiment item,yes,FlankerTest.osexp,/Users/Linzi/Desktop,no,mono,no,18,no,white,no,yes,768,legacy,2,2,/Users/Linzi/Desktop/LM-subject-3f55.csv,legacy,Kafkaesque Koffka,3.2.8,0,s,NA,s,NA,NA,s,712,NA,53800,NA,NA,712,2,legacy,1024,2,48000,-16,experiment,SSSSS,3,odd,59558,NA,NA,NA,NA,NA,64548,63290,5740,NA,NA,64674,65389,64521,64674,5700,Flanker Test,3,2550,3,yes,1024
100,100,816.75,816.75,black,legacy,legacy,legacy,0,incongruent,uniform,1,undefined,1,s,0,0,0,3,3,0,3,3,0,0,0,3,3,3,3,0,Sun Sep 29 12:35:57 2019,1500,The main experiment item,yes,FlankerTest.osexp,/Users/Linzi/Desktop,no,mono,no,18,no,white,no,yes,768,legacy,3,3,/Users/Linzi/Desktop/LM-subject-3f55.csv,legacy,Kafkaesque Koffka,3.2.8,0,s,NA,s,NA,NA,s,717,NA,53800,NA,NA,717,2,legacy,1024,2,48000,-16,experiment,HHSHH,3,odd,59558,NA,NA,NA,NA,NA,66681,65420,5740,NA,NA,66808,67528,66654,66808,5700,Flanker Test,4,3267,4,yes,1024
100,100,800.8,800.8,black,legacy,legacy,legacy,0,incongruent,uniform,1,undefined,1,s,0,0,0,4,4,0,4,4,0,0,0,4,4,4,4,0,Sun Sep 29 12:35:57 2019,1500,The main experiment item,yes,FlankerTest.osexp,/Users/Linzi/Desktop,no,mono,no,18,no,white,no,yes,768,legacy,4,4,/Users/Linzi/Desktop/LM-subject-3f55.csv,legacy,Kafkaesque Koffka,3.2.8,0,s,NA,s,NA,NA,s,737,NA,53800,NA,NA,737,2,legacy,1024,2,48000,-16,experiment,HHSHH,3,odd,59558,NA,NA,NA,NA,NA,68820,67559,5740,NA,NA,68947,69687,68794,68946,5700,Flanker Test,5,4004,5,yes,1024
100,100,808.1666667,808.1666667,black,legacy,legacy,legacy,0,incongruent,uniform,1,undefined,1,h,0,0,0,5,5,0,5,5,0,0,0,5,5,5,5,0,Sun Sep 29 12:35:57 2019,1500,The main experiment item,yes,FlankerTest.osexp,/Users/Linzi/Desktop,no,mono,no,18,no,white,no,yes,768,legacy,5,5,/Users/Linzi/Desktop/LM-subject-3f55.csv,legacy,Kafkaesque Koffka,3.2.8,0,h,NA,s,NA,NA,h,845,NA,53800,NA,NA,845,2,legacy,1024,2,48000,-16,experiment,SSHSS,3,odd,59558,NA,NA,NA,NA,NA,70977,69718,5740,NA,NA,71104,71952,70950,71103,5700,Flanker Test,6,4849,6,yes,1024
100,100,800.7142857,800.7142857,black,legacy,legacy,legacy,0,congruent,uniform,1,undefined,1,s,0,0,0,6,6,0,6,6,0,0,0,6,6,6,6,0,Sun Sep 29 12:35:57 2019,1500,The main experiment item,yes,FlankerTest.osexp,/Users/Linzi/Desktop,no,mono,no,18,no,white,no,yes,768,legacy,6,6,/Users/Linzi/Desktop/LM-subject-3f55.csv,legacy,Kafkaesque Koffka,3.2.8,0,s,NA,s,NA,NA,s,756,NA,53800,NA,NA,756,2,legacy,1024,2,48000,-16,experiment,SSSSS,3,odd,59558,NA,NA,NA,NA,NA,73241,71983,5740,NA,NA,73367,74127,73215,73366,5700,Flanker Test,7,5605,7,yes,1024
100,100,790.875,790.875,black,legacy,legacy,legacy,0,congruent,uniform,1,undefined,1,s,0,0,0,7,7,0,7,7,0,0,0,7,7,7,7,0,Sun Sep 29 12:35:57 2019,1500,The main experiment item,yes,FlankerTest.osexp,/Users/Linzi/Desktop,no,mono,no,18,no,white,no,yes,768,legacy,7,7,/Users/Linzi/Desktop/LM-subject-3f55.csv,legacy,Kafkaesque Koffka,3.2.8,0,s,NA,s,NA,NA,s,722,NA,53800,NA,NA,722,2,legacy,1024,2,48000,-16,experiment,SSSSS,3,odd,59558,NA,NA,NA,NA,NA,75417,74158,5740,NA,NA,75543,76269,75390,75543,5700,Flanker Test,8,6327,8,yes,1024
100,100,798.4444444,798.4444444,black,legacy,legacy,legacy,0,congruent,uniform,1,undefined,1,s,0,0,0,8,8,0,8,8,0,0,0,8,8,8,8,0,Sun Sep 29 12:35:57 2019,1500,The main experiment item,yes,FlankerTest.osexp,/Users/Linzi/Desktop,no,mono,no,18,no,white,no,yes,768,legacy,8,8,/Users/Linzi/Desktop/LM-subject-3f55.csv,legacy,Kafkaesque Koffka,3.2.8,0,s,NA,s,NA,NA,s,859,NA,53800,NA,NA,859,2,legacy,1024,2,48000,-16,experiment,SSSSS,3,odd,59558,NA,NA,NA,NA,NA,77564,76301,5740,NA,NA,77690,78553,77536,77690,5700,Flanker Test,9,7186,9,yes,1024
100,100,808.7,808.7,black,legacy,legacy,legacy,0,incongruent,uniform,1,undefined,1,s,0,0,0,9,9,0,9,9,0,0,0,9,9,9,9,0,Sun Sep 29 12:35:57 2019,1500,The main experiment item,yes,FlankerTest.osexp,/Users/Linzi/Desktop,no,mono,no,18,no,white,no,yes,768,legacy,9,9,/Users/Linzi/Desktop/LM-subject-3f55.csv,legacy,Kafkaesque Koffka,3.2.8,0,s,NA,s,NA,NA,s,901,NA,53800,NA,NA,901,2,legacy,1024,2,48000,-16,experiment,HHSHH,3,odd,59558,NA,NA,NA,NA,NA,79846,78585,5740,NA,NA,79972,80876,79819,79972,5700,Flanker Test,10,8087,10,yes,1024
100,100,791.5454545,791.5454545,black,legacy,legacy,legacy,0,incongruent,uniform,1,undefined,1,s,0,0,0,10,10,0,10,10,0,0,0,10,10,10,10,0,Sun Sep 29 12:35:57 2019,1500,The main experiment item,yes,FlankerTest.osexp,/Users/Linzi/Desktop,no,mono,no,18,no,white,no,yes,768,legacy,10,10,/Users/Linzi/Desktop/LM-subject-3f55.csv,legacy,Kafkaesque Koffka,3.2.8,0,s,NA,s,NA,NA,s,620,NA,53800,NA,NA,620,2,legacy,1024,2,48000,-16,experiment,HHSHH,3,odd,59558,NA,NA,NA,NA,NA,82167,80908,5740,NA,NA,82293,82917,82141,82292,5700,Flanker Test,11,8707,11,yes,1024
100,100,785.1666667,785.1666667,black,legacy,legacy,legacy,0,congruent,uniform,1,undefined,1,h,0,0,0,11,11,0,11,11,0,0,0,11,11,11,11,0,Sun Sep 29 12:35:57 2019,1500,The main experiment item,yes,FlankerTest.osexp,/Users/Linzi/Desktop,no,mono,no,18,no,white,no,yes,768,legacy,11,11,/Users/Linzi/Desktop/LM-subject-3f55.csv,legacy,Kafkaesque Koffka,3.2.8,0,h,NA,s,NA,NA,h,715,NA,53800,NA,NA,715,2,legacy,1024,2,48000,-16,experiment,HHHHH,3,odd,59558,NA,NA,NA,NA,NA,84223,82948,5740,NA,NA,84349,85068,84196,84349,5700,Flanker Test,12,9422,12,yes,1024
100,100,777.3846154,777.3846154,black,legacy,legacy,legacy,0,incongruent,uniform,1,undefined,1,h,0,0,0,12,12,0,12,12,0,0,0,12,12,12,12,0,Sun Sep 29 12:35:57 2019,1500,The main experiment item,yes,FlankerTest.osexp,/Users/Linzi/Desktop,no,mono,no,18,no,white,no,yes,768,legacy,12,12,/Users/Linzi/Desktop/LM-subject-3f55.csv,legacy,Kafkaesque Koffka,3.2.8,0,h,NA,s,NA,NA,h,684,NA,53800,NA,NA,684,2,legacy,1024,2,48000,-16,experiment,SSHSS,3,odd,59558,NA,NA,NA,NA,NA,86362,85101,5740,NA,NA,86490,87178,86336,86489,5700,Flanker Test,13,10106,13,yes,1024
100,100,787.0714286,787.0714286,black,legacy,legacy,legacy,0,congruent,uniform,1,undefined,1,s,0,0,0,13,13,0,13,13,0,0,0,13,13,13,13,0,Sun Sep 29 12:35:57 2019,1500,The main experiment item,yes,FlankerTest.osexp,/Users/Linzi/Desktop,no,mono,no,18,no,white,no,yes,768,legacy,13,13,/Users/Linzi/Desktop/LM-subject-3f55.csv,legacy,Kafkaesque Koffka,3.2.8,0,s,NA,s,NA,NA,s,913,NA,53800,NA,NA,913,2,legacy,1024,2,48000,-16,experiment,SSSSS,3,odd,59558,NA,NA,NA,NA,NA,88469,87209,5740,NA,NA,88595,89512,88442,88594,5700,Flanker Test,14,11019,14,yes,1024
100,100,789.7333333,789.7333333,black,legacy,legacy,legacy,0,incongruent,uniform,1,undefined,1,s,0,0,0,14,14,0,14,14,0,0,0,14,14,14,14,0,Sun Sep 29 12:35:57 2019,1500,The main experiment item,yes,FlankerTest.osexp,/Users/Linzi/Desktop,no,mono,no,18,no,white,no,yes,768,legacy,14,14,/Users/Linzi/Desktop/LM-subject-3f55.csv,legacy,Kafkaesque Koffka,3.2.8,0,s,NA,s,NA,NA,s,827,NA,53800,NA,NA,827,2,legacy,1024,2,48000,-16,experiment,HHSHH,3,odd,59558,NA,NA,NA,NA,NA,90803,89543,5740,NA,NA,90929,91760,90776,90929,5700,Flanker Test,15,11846,15,yes,1024
100,100,779.9375,779.9375,black,legacy,legacy,legacy,0,congruent,uniform,1,undefined,1,s,0,0,0,15,15,0,15,15,0,0,0,15,15,15,15,0,Sun Sep 29 12:35:57 2019,1500,The main experiment item,yes,FlankerTest.osexp,/Users/Linzi/Desktop,no,mono,no,18,no,white,no,yes,768,legacy,15,15,/Users/Linzi/Desktop/LM-subject-3f55.csv,legacy,Kafkaesque Koffka,3.2.8,0,s,NA,s,NA,NA,s,633,NA,53800,NA,NA,633,2,legacy,1024,2,48000,-16,experiment,SSSSS,3,odd,59558,NA,NA,NA,NA,NA,93048,91791,5740,NA,NA,93174,93810,93021,93174,5700,Flanker Test,16,12479,16,yes,1024
100,100,765.8235294,765.8235294,black,legacy,legacy,legacy,0,congruent,uniform,1,undefined,1,s,0,0,0,16,16,0,16,16,0,0,0,16,16,16,16,0,Sun Sep 29 12:35:57 2019,1500,The main experiment item,yes,FlankerTest.osexp,/Users/Linzi/Desktop,no,mono,no,18,no,white,no,yes,768,legacy,16,16,/Users/Linzi/Desktop/LM-subject-3f55.csv,legacy,Kafkaesque Koffka,3.2.8,0,s,NA,s,NA,NA,s,540,NA,53800,NA,NA,540,2,legacy,1024,2,48000,-16,experiment,SSSSS,3,odd,59558,NA,NA,NA,NA,NA,95101,93842,5740,NA,NA,95227,95770,95073,95227,5700,Flanker Test,17,13019,17,yes,1024
100,100,764.1666667,764.1666667,black,legacy,legacy,legacy,0,incongruent,uniform,1,undefined,1,h,0,0,0,17,17,0,17,17,0,0,0,17,17,17,17,0,Sun Sep 29 12:35:57 2019,1500,The main experiment item,yes,FlankerTest.osexp,/Users/Linzi/Desktop,no,mono,no,18,no,white,no,yes,768,legacy,17,17,/Users/Linzi/Desktop/LM-subject-3f55.csv,legacy,Kafkaesque Koffka,3.2.8,0,h,NA,s,NA,NA,h,736,NA,53800,NA,NA,736,2,legacy,1024,2,48000,-16,experiment,SSHSS,3,odd,59558,NA,NA,NA,NA,NA,97059,95801,5740,NA,NA,97187,97927,97033,97186,5700,Flanker Test,18,13755,18,yes,1024
100,100,759.1578947,759.1578947,black,legacy,legacy,legacy,0,congruent,uniform,1,undefined,1,h,0,0,0,18,18,0,18,18,0,0,0,18,18,18,18,0,Sun Sep 29 12:35:57 2019,1500,The main experiment item,yes,FlankerTest.osexp,/Users/Linzi/Desktop,no,mono,no,18,no,white,no,yes,768,legacy,18,18,/Users/Linzi/Desktop/LM-subject-3f55.csv,legacy,Kafkaesque Koffka,3.2.8,0,h,NA,s,NA,NA,h,669,NA,53800,NA,NA,669,2,legacy,1024,2,48000,-16,experiment,HHHHH,3,odd,59558,NA,NA,NA,NA,NA,99221,97959,5740,NA,NA,99348,100021,99194,99347,5700,Flanker Test,19,14424,19,yes,1024
100,100,760.3,760.3,black,legacy,legacy,legacy,0,incongruent,uniform,1,undefined,1,s,0,0,0,19,19,0,19,19,0,0,0,19,19,19,19,0,Sun Sep 29 12:35:57 2019,1500,The main experiment item,yes,FlankerTest.osexp,/Users/Linzi/Desktop,no,mono,no,18,no,white,no,yes,768,legacy,19,19,/Users/Linzi/Desktop/LM-subject-3f55.csv,legacy,Kafkaesque Koffka,3.2.8,0,s,NA,s,NA,NA,s,782,NA,53800,NA,NA,782,2,legacy,1024,2,48000,-16,experiment,HHSHH,3,odd,59558,NA,NA,NA,NA,NA,101316,100053,5740,NA,NA,101442,102228,101289,101442,5700,Flanker Test,20,15206,20,yes,1024
100,100,767.7142857,767.7142857,black,legacy,legacy,legacy,0,congruent,uniform,1,undefined,1,h,0,0,0,20,20,0,20,20,0,0,0,20,20,20,20,0,Sun Sep 29 12:35:57 2019,1500,The main experiment item,yes,FlankerTest.osexp,/Users/Linzi/Desktop,no,mono,no,18,no,white,no,yes,768,legacy,20,20,/Users/Linzi/Desktop/LM-subject-3f55.csv,legacy,Kafkaesque Koffka,3.2.8,0,h,NA,s,NA,NA,h,916,NA,53800,NA,NA,916,2,legacy,1024,2,48000,-16,experiment,HHHHH,3,odd,59558,NA,NA,NA,NA,NA,103521,102260,5740,NA,NA,103647,104567,103494,103646,5700,Flanker Test,21,16122,21,yes,1024
100,100,763.9090909,763.9090909,black,legacy,legacy,legacy,0,incongruent,uniform,1,undefined,1,h,0,0,0,21,21,0,21,21,0,0,0,21,21,21,21,0,Sun Sep 29 12:35:57 2019,1500,The main experiment item,yes,FlankerTest.osexp,/Users/Linzi/Desktop,no,mono,no,18,no,white,no,yes,768,legacy,21,21,/Users/Linzi/Desktop/LM-subject-3f55.csv,legacy,Kafkaesque Koffka,3.2.8,0,h,NA,s,NA,NA,h,684,NA,53800,NA,NA,684,2,legacy,1024,2,48000,-16,experiment,SSHSS,3,odd,59558,NA,NA,NA,NA,NA,105858,104598,5740,NA,NA,105985,106673,105832,105984,5700,Flanker Test,22,16806,22,yes,1024
100,100,764.0869565,764.0869565,black,legacy,legacy,legacy,0,incongruent,uniform,1,undefined,1,s,0,0,0,22,22,0,22,22,0,0,0,22,22,22,22,0,Sun Sep 29 12:35:57 2019,1500,The main experiment item,yes,FlankerTest.osexp,/Users/Linzi/Desktop,no,mono,no,18,no,white,no,yes,768,legacy,22,22,/Users/Linzi/Desktop/LM-subject-3f55.csv,legacy,Kafkaesque Koffka,3.2.8,0,s,NA,s,NA,NA,s,768,NA,53800,NA,NA,768,2,legacy,1024,2,48000,-16,experiment,HHSHH,3,odd,59558,NA,NA,NA,NA,NA,107964,106704,5740,NA,NA,108091,108863,107937,108090,5700,Flanker Test,23,17574,23,yes,1024
100,100,759.8333333,759.8333333,black,legacy,legacy,legacy,0,congruent,uniform,1,undefined,1,s,0,0,0,23,23,0,23,23,0,0,0,23,23,23,23,0,Sun Sep 29 12:35:57 2019,1500,The main experiment item,yes,FlankerTest.osexp,/Users/Linzi/Desktop,no,mono,no,18,no,white,no,yes,768,legacy,23,23,/Users/Linzi/Desktop/LM-subject-3f55.csv,legacy,Kafkaesque Koffka,3.2.8,0,s,NA,s,NA,NA,s,662,NA,53800,NA,NA,662,2,legacy,1024,2,48000,-16,experiment,SSSSS,3,odd,59558,NA,NA,NA,NA,NA,110157,108894,5740,NA,NA,110284,110950,110130,110283,5700,Flanker Test,24,18236,24,yes,1024
100,100,760.08,760.08,black,legacy,legacy,legacy,0,incongruent,uniform,1,undefined,1,s,0,0,0,24,24,0,24,24,0,0,0,24,24,24,24,0,Sun Sep 29 12:35:57 2019,1500,The main experiment item,yes,FlankerTest.osexp,/Users/Linzi/Desktop,no,mono,no,18,no,white,no,yes,768,legacy,24,24,/Users/Linzi/Desktop/LM-subject-3f55.csv,legacy,Kafkaesque Koffka,3.2.8,0,s,NA,s,NA,NA,s,766,NA,53800,NA,NA,766,2,legacy,1024,2,48000,-16,experiment,HHSHH,3,odd,59558,NA,NA,NA,NA,NA,112242,110982,5740,NA,NA,112369,113139,112216,112368,5700,Flanker Test,25,19002,25,yes,1024
100,100,755.1153846,755.1153846,black,legacy,legacy,legacy,0,congruent,uniform,1,undefined,1,s,0,0,0,25,25,0,25,25,0,0,0,25,25,25,25,0,Sun Sep 29 12:35:57 2019,1500,The main experiment item,yes,FlankerTest.osexp,/Users/Linzi/Desktop,no,mono,no,18,no,white,no,yes,768,legacy,25,25,/Users/Linzi/Desktop/LM-subject-3f55.csv,legacy,Kafkaesque Koffka,3.2.8,0,s,NA,s,NA,NA,s,631,NA,53800,NA,NA,631,2,legacy,1024,2,48000,-16,experiment,SSSSS,3,odd,59558,NA,NA,NA,NA,NA,114428,113170,5740,NA,NA,114555,115190,114402,114555,5700,Flanker Test,26,19633,26,yes,1024
100,100,753.6666667,753.6666667,black,legacy,legacy,legacy,0,incongruent,uniform,1,undefined,1,s,0,0,0,26,26,0,26,26,0,0,0,26,26,26,26,0,Sun Sep 29 12:35:57 2019,1500,The main experiment item,yes,FlankerTest.osexp,/Users/Linzi/Desktop,no,mono,no,18,no,white,no,yes,768,legacy,26,26,/Users/Linzi/Desktop/LM-subject-3f55.csv,legacy,Kafkaesque Koffka,3.2.8,0,s,NA,s,NA,NA,s,716,NA,53800,NA,NA,716,2,legacy,1024,2,48000,-16,experiment,HHSHH,3,odd,59558,NA,NA,NA,NA,NA,116482,115223,5740,NA,NA,116609,117330,116456,116609,5700,Flanker Test,27,20349,27,yes,1024
100,100,745.4642857,745.4642857,black,legacy,legacy,legacy,0,congruent,uniform,1,undefined,1,h,0,0,0,27,27,0,27,27,0,0,0,27,27,27,27,0,Sun Sep 29 12:35:57 2019,1500,The main experiment item,yes,FlankerTest.osexp,/Users/Linzi/Desktop,no,mono,no,18,no,white,no,yes,768,legacy,27,27,/Users/Linzi/Desktop/LM-subject-3f55.csv,legacy,Kafkaesque Koffka,3.2.8,0,h,NA,s,NA,NA,h,524,NA,53800,NA,NA,524,2,legacy,1024,2,48000,-16,experiment,HHHHH,3,odd,59558,NA,NA,NA,NA,NA,118623,117362,5740,NA,NA,118749,119277,118596,118749,5700,Flanker Test,28,20873,28,yes,1024
100,100,743.4482759,743.4482759,black,legacy,legacy,legacy,0,incongruent,uniform,1,undefined,1,h,0,0,0,28,28,0,28,28,0,0,0,28,28,28,28,0,Sun Sep 29 12:35:57 2019,1500,The main experiment item,yes,FlankerTest.osexp,/Users/Linzi/Desktop,no,mono,no,18,no,white,no,yes,768,legacy,28,28,/Users/Linzi/Desktop/LM-subject-3f55.csv,legacy,Kafkaesque Koffka,3.2.8,0,h,NA,s,NA,NA,h,687,NA,53800,NA,NA,687,2,legacy,1024,2,48000,-16,experiment,SSHSS,3,odd,59558,NA,NA,NA,NA,NA,120569,119308,5740,NA,NA,120695,121386,120542,120694,5700,Flanker Test,29,21560,29,yes,1024
100,100,740.5666667,740.5666667,black,legacy,legacy,legacy,0,incongruent,uniform,1,undefined,1,h,0,0,0,29,29,0,29,29,0,0,0,29,29,29,29,0,Sun Sep 29 12:35:57 2019,1500,The main experiment item,yes,FlankerTest.osexp,/Users/Linzi/Desktop,no,mono,no,18,no,white,no,yes,768,legacy,29,29,/Users/Linzi/Desktop/LM-subject-3f55.csv,legacy,Kafkaesque Koffka,3.2.8,0,h,NA,s,NA,NA,h,657,NA,53800,NA,NA,657,2,legacy,1024,2,48000,-16,experiment,SSHSS,3,odd,59558,NA,NA,NA,NA,NA,122678,121418,5740,NA,NA,122805,123466,122652,122805,5700,Flanker Test,30,22217,30,yes,1024
100,100,742.1935484,742.1935484,black,legacy,legacy,legacy,0,incongruent,uniform,1,undefined,1,s,0,0,0,30,30,0,30,30,0,0,0,30,30,30,30,0,Sun Sep 29 12:35:57 2019,1500,The main experiment item,yes,FlankerTest.osexp,/Users/Linzi/Desktop,no,mono,no,18,no,white,no,yes,768,legacy,30,30,/Users/Linzi/Desktop/LM-subject-3f55.csv,legacy,Kafkaesque Koffka,3.2.8,0,s,NA,s,NA,NA,s,791,NA,53800,NA,NA,791,2,legacy,1024,2,48000,-16,experiment,HHSHH,3,odd,59558,NA,NA,NA,NA,NA,124755,123497,5740,NA,NA,124881,125676,124729,124881,5700,Flanker Test,31,23008,31,yes,1024
100,100,744.09375,744.09375,black,legacy,legacy,legacy,0,congruent,uniform,1,undefined,1,h,0,0,0,31,31,0,31,31,0,0,0,31,31,31,31,0,Sun Sep 29 12:35:57 2019,1500,The main experiment item,yes,FlankerTest.osexp,/Users/Linzi/Desktop,no,mono,no,18,no,white,no,yes,768,legacy,31,31,/Users/Linzi/Desktop/LM-subject-3f55.csv,legacy,Kafkaesque Koffka,3.2.8,0,h,NA,s,NA,NA,h,803,NA,53800,NA,NA,803,2,legacy,1024,2,48000,-16,experiment,HHHHH,3,odd,59558,NA,NA,NA,NA,NA,126967,125708,5740,NA,NA,127096,127903,126940,127096,5700,Flanker Test,32,23811,32,yes,1024
100,100,740.8181818,740.8181818,black,legacy,legacy,legacy,0,congruent,uniform,1,undefined,1,h,0,0,0,32,32,0,32,32,0,0,0,32,32,32,32,0,Sun Sep 29 12:35:57 2019,1500,The main experiment item,yes,FlankerTest.osexp,/Users/Linzi/Desktop,no,mono,no,18,no,white,no,yes,768,legacy,32,32,/Users/Linzi/Desktop/LM-subject-3f55.csv,legacy,Kafkaesque Koffka,3.2.8,0,h,NA,s,NA,NA,h,636,NA,53800,NA,NA,636,2,legacy,1024,2,48000,-16,experiment,HHHHH,3,odd,59558,NA,NA,NA,NA,NA,129195,127934,5740,NA,NA,129322,129963,129168,129322,5700,Flanker Test,33,24447,33,yes,1024
100,100,735.4705882,735.4705882,black,legacy,legacy,legacy,0,incongruent,uniform,1,undefined,1,h,0,0,0,33,33,0,33,33,0,0,0,33,33,33,33,0,Sun Sep 29 12:35:57 2019,1500,The main experiment item,yes,FlankerTest.osexp,/Users/Linzi/Desktop,no,mono,no,18,no,white,no,yes,768,legacy,33,33,/Users/Linzi/Desktop/LM-subject-3f55.csv,legacy,Kafkaesque Koffka,3.2.8,0,h,NA,s,NA,NA,h,559,NA,53800,NA,NA,559,2,legacy,1024,2,48000,-16,experiment,SSHSS,3,odd,59558,NA,NA,NA,NA,NA,131255,129994,5740,NA,NA,131381,131945,131228,131381,5700,Flanker Test,34,25006,34,yes,1024
100,100,729.7142857,729.7142857,black,legacy,legacy,legacy,0,incongruent,uniform,1,undefined,1,h,0,0,0,34,34,0,34,34,0,0,0,34,34,34,34,0,Sun Sep 29 12:35:57 2019,1500,The main experiment item,yes,FlankerTest.osexp,/Users/Linzi/Desktop,no,mono,no,18,no,white,no,yes,768,legacy,34,34,/Users/Linzi/Desktop/LM-subject-3f55.csv,legacy,Kafkaesque Koffka,3.2.8,0,h,NA,s,NA,NA,h,534,NA,53800,NA,NA,534,2,legacy,1024,2,48000,-16,experiment,SSHSS,3,odd,59558,NA,NA,NA,NA,NA,133235,131976,5740,NA,NA,133361,133899,133208,133361,5700,Flanker Test,35,25540,35,yes,1024
100,100,722.3611111,722.3611111,black,legacy,legacy,legacy,0,congruent,uniform,1,undefined,1,h,0,0,0,35,35,0,35,35,0,0,0,35,35,35,35,0,Sun Sep 29 12:35:57 2019,1500,The main experiment item,yes,FlankerTest.osexp,/Users/Linzi/Desktop,no,mono,no,18,no,white,no,yes,768,legacy,35,35,/Users/Linzi/Desktop/LM-subject-3f55.csv,legacy,Kafkaesque Koffka,3.2.8,0,h,NA,s,NA,NA,h,465,NA,53800,NA,NA,465,2,legacy,1024,2,48000,-16,experiment,HHHHH,3,odd,59558,NA,NA,NA,NA,NA,135194,133930,5740,NA,NA,135320,135789,135167,135320,5700,Flanker Test,36,26005,36,yes,1024
100,100,719.6756757,719.6756757,black,legacy,legacy,legacy,0,incongruent,uniform,1,undefined,1,s,0,0,0,36,36,0,36,36,0,0,0,36,36,36,36,0,Sun Sep 29 12:35:57 2019,1500,The main experiment item,yes,FlankerTest.osexp,/Users/Linzi/Desktop,no,mono,no,18,no,white,no,yes,768,legacy,36,36,/Users/Linzi/Desktop/LM-subject-3f55.csv,legacy,Kafkaesque Koffka,3.2.8,0,s,NA,s,NA,NA,s,623,NA,53800,NA,NA,623,2,legacy,1024,2,48000,-16,experiment,HHSHH,3,odd,59558,NA,NA,NA,NA,NA,137081,135820,5740,NA,NA,137207,137834,137053,137207,5700,Flanker Test,37,26628,37,yes,1024
100,100,717.7894737,717.7894737,black,legacy,legacy,legacy,0,incongruent,uniform,1,undefined,1,s,0,0,0,37,37,0,37,37,0,0,0,37,37,37,37,0,Sun Sep 29 12:35:57 2019,1500,The main experiment item,yes,FlankerTest.osexp,/Users/Linzi/Desktop,no,mono,no,18,no,white,no,yes,768,legacy,37,37,/Users/Linzi/Desktop/LM-subject-3f55.csv,legacy,Kafkaesque Koffka,3.2.8,0,s,NA,s,NA,NA,s,648,NA,53800,NA,NA,648,2,legacy,1024,2,48000,-16,experiment,HHSHH,3,odd,59558,NA,NA,NA,NA,NA,139126,137865,5740,NA,NA,139252,139905,139100,139251,5700,Flanker Test,38,27276,38,yes,1024
100,100,714.6153846,714.6153846,black,legacy,legacy,legacy,0,incongruent,uniform,1,undefined,1,s,0,0,0,38,38,0,38,38,0,0,0,38,38,38,38,0,Sun Sep 29 12:35:57 2019,1500,The main experiment item,yes,FlankerTest.osexp,/Users/Linzi/Desktop,no,mono,no,18,no,white,no,yes,768,legacy,38,38,/Users/Linzi/Desktop/LM-subject-3f55.csv,legacy,Kafkaesque Koffka,3.2.8,0,s,NA,s,NA,NA,s,594,NA,53800,NA,NA,594,2,legacy,1024,2,48000,-16,experiment,HHSHH,3,odd,59558,NA,NA,NA,NA,NA,141198,139936,5740,NA,NA,141325,141924,141171,141325,5700,Flanker Test,39,27870,39,yes,1024
100,100,720.275,720.275,black,legacy,legacy,legacy,0,congruent,uniform,1,undefined,1,s,0,0,0,39,39,0,39,39,0,0,0,39,39,39,39,0,Sun Sep 29 12:35:57 2019,1500,The main experiment item,yes,FlankerTest.osexp,/Users/Linzi/Desktop,no,mono,no,18,no,white,no,yes,768,legacy,39,39,/Users/Linzi/Desktop/LM-subject-3f55.csv,legacy,Kafkaesque Koffka,3.2.8,0,s,NA,s,NA,NA,s,941,NA,53800,NA,NA,941,2,legacy,1024,2,48000,-16,experiment,SSSSS,3,odd,59558,NA,NA,NA,NA,NA,143214,141955,5740,NA,NA,143340,144286,143186,143340,5700,Flanker Test,40,28811,40,yes,1024
100,100,718.3902439,718.3902439,black,legacy,legacy,legacy,0,incongruent,uniform,1,undefined,1,h,0,0,0,40,40,0,40,40,0,0,0,40,40,40,40,0,Sun Sep 29 12:35:57 2019,1500,The main experiment item,yes,FlankerTest.osexp,/Users/Linzi/Desktop,no,mono,no,18,no,white,no,yes,768,legacy,40,40,/Users/Linzi/Desktop/LM-subject-3f55.csv,legacy,Kafkaesque Koffka,3.2.8,0,h,NA,s,NA,NA,h,643,NA,53800,NA,NA,643,2,legacy,1024,2,48000,-16,experiment,SSHSS,3,odd,59558,NA,NA,NA,NA,NA,145578,144319,5740,NA,NA,145705,146352,145552,145705,5700,Flanker Test,41,29454,41,yes,1024
100,100,716.0952381,716.0952381,black,legacy,legacy,legacy,0,congruent,uniform,1,undefined,1,s,0,0,0,41,41,0,41,41,0,0,0,41,41,41,41,0,Sun Sep 29 12:35:57 2019,1500,The main experiment item,yes,FlankerTest.osexp,/Users/Linzi/Desktop,no,mono,no,18,no,white,no,yes,768,legacy,41,41,/Users/Linzi/Desktop/LM-subject-3f55.csv,legacy,Kafkaesque Koffka,3.2.8,0,s,NA,s,NA,NA,s,622,NA,53800,NA,NA,622,2,legacy,1024,2,48000,-16,experiment,SSSSS,3,odd,59558,NA,NA,NA,NA,NA,147643,146384,5740,NA,NA,147770,148396,147616,147770,5700,Flanker Test,42,30076,42,yes,1024
100,100,718.0930233,718.0930233,black,legacy,legacy,legacy,0,incongruent,uniform,1,undefined,1,s,0,0,0,42,42,0,42,42,0,0,0,42,42,42,42,0,Sun Sep 29 12:35:57 2019,1500,The main experiment item,yes,FlankerTest.osexp,/Users/Linzi/Desktop,no,mono,no,18,no,white,no,yes,768,legacy,42,42,/Users/Linzi/Desktop/LM-subject-3f55.csv,legacy,Kafkaesque Koffka,3.2.8,0,s,NA,s,NA,NA,s,802,NA,53800,NA,NA,802,2,legacy,1024,2,48000,-16,experiment,HHSHH,3,odd,59558,NA,NA,NA,NA,NA,149689,148428,5740,NA,NA,149815,150622,149662,149815,5700,Flanker Test,43,30878,43,yes,1024
100,100,716.2727273,716.2727273,black,legacy,legacy,legacy,0,congruent,uniform,1,undefined,1,h,0,0,0,43,43,0,43,43,0,0,0,43,43,43,43,0,Sun Sep 29 12:35:57 2019,1500,The main experiment item,yes,FlankerTest.osexp,/Users/Linzi/Desktop,no,mono,no,18,no,white,no,yes,768,legacy,43,43,/Users/Linzi/Desktop/LM-subject-3f55.csv,legacy,Kafkaesque Koffka,3.2.8,0,h,NA,s,NA,NA,h,638,NA,53800,NA,NA,638,2,legacy,1024,2,48000,-16,experiment,HHHHH,3,odd,59558,NA,NA,NA,NA,NA,151914,150653,5740,NA,NA,152040,152683,151888,152040,5700,Flanker Test,44,31516,44,yes,1024
100,100,715.0444444,715.0444444,black,legacy,legacy,legacy,0,incongruent,uniform,1,undefined,1,h,0,0,0,44,44,0,44,44,0,0,0,44,44,44,44,0,Sun Sep 29 12:35:57 2019,1500,The main experiment item,yes,FlankerTest.osexp,/Users/Linzi/Desktop,no,mono,no,18,no,white,no,yes,768,legacy,44,44,/Users/Linzi/Desktop/LM-subject-3f55.csv,legacy,Kafkaesque Koffka,3.2.8,0,h,NA,s,NA,NA,h,661,NA,53800,NA,NA,661,2,legacy,1024,2,48000,-16,experiment,SSHSS,3,odd,59558,NA,NA,NA,NA,NA,153975,152715,5740,NA,NA,154101,154767,153947,154101,5700,Flanker Test,45,32177,45,yes,1024
100,100,721.5652174,721.5652174,black,legacy,legacy,legacy,0,incongruent,uniform,1,undefined,1,s,0,0,0,45,45,0,45,45,0,0,0,45,45,45,45,0,Sun Sep 29 12:35:57 2019,1500,The main experiment item,yes,FlankerTest.osexp,/Users/Linzi/Desktop,no,mono,no,18,no,white,no,yes,768,legacy,45,45,/Users/Linzi/Desktop/LM-subject-3f55.csv,legacy,Kafkaesque Koffka,3.2.8,0,s,NA,s,NA,NA,s,1015,NA,53800,NA,NA,1015,2,legacy,1024,2,48000,-16,experiment,HHSHH,3,odd,59558,NA,NA,NA,NA,NA,156057,154798,5740,NA,NA,156183,157203,156030,156182,5700,Flanker Test,46,33192,46,yes,1024
100,100,718.4255319,718.4255319,black,legacy,legacy,legacy,0,congruent,uniform,1,undefined,1,s,0,0,0,46,46,0,46,46,0,0,0,46,46,46,46,0,Sun Sep 29 12:35:57 2019,1500,The main experiment item,yes,FlankerTest.osexp,/Users/Linzi/Desktop,no,mono,no,18,no,white,no,yes,768,legacy,46,46,/Users/Linzi/Desktop/LM-subject-3f55.csv,legacy,Kafkaesque Koffka,3.2.8,0,s,NA,s,NA,NA,s,574,NA,53800,NA,NA,574,2,legacy,1024,2,48000,-16,experiment,SSSSS,3,odd,59558,NA,NA,NA,NA,NA,158494,157235,5740,NA,NA,158620,159199,158467,158620,5700,Flanker Test,47,33766,47,yes,1024
100,100,718.5833333,718.5833333,black,legacy,legacy,legacy,0,incongruent,uniform,1,undefined,1,s,0,0,0,47,47,0,47,47,0,0,0,47,47,47,47,0,Sun Sep 29 12:35:57 2019,1500,The main experiment item,yes,FlankerTest.osexp,/Users/Linzi/Desktop,no,mono,no,18,no,white,no,yes,768,legacy,47,47,/Users/Linzi/Desktop/LM-subject-3f55.csv,legacy,Kafkaesque Koffka,3.2.8,0,s,NA,s,NA,NA,s,726,NA,53800,NA,NA,726,2,legacy,1024,2,48000,-16,experiment,HHSHH,3,odd,59558,NA,NA,NA,NA,NA,160491,159231,5740,NA,NA,160618,161349,160464,160617,5700,Flanker Test,48,34492,48,yes,1024
100,100,716.6122449,716.6122449,black,legacy,legacy,legacy,0,incongruent,uniform,1,undefined,1,h,0,0,0,48,48,0,48,48,0,0,0,48,48,48,48,0,Sun Sep 29 12:35:57 2019,1500,The main experiment item,yes,FlankerTest.osexp,/Users/Linzi/Desktop,no,mono,no,18,no,white,no,yes,768,legacy,48,48,/Users/Linzi/Desktop/LM-subject-3f55.csv,legacy,Kafkaesque Koffka,3.2.8,0,h,NA,s,NA,NA,h,622,NA,53800,NA,NA,622,2,legacy,1024,2,48000,-16,experiment,SSHSS,3,odd,59558,NA,NA,NA,NA,NA,162640,161380,5740,NA,NA,162767,163394,162614,162767,5700,Flanker Test,49,35114,49,yes,1024
100,100,716.56,716.56,black,legacy,legacy,legacy,0,incongruent,uniform,1,undefined,1,h,0,0,0,49,49,0,49,49,0,0,0,49,49,49,49,0,Sun Sep 29 12:35:57 2019,1500,The main experiment item,yes,FlankerTest.osexp,/Users/Linzi/Desktop,no,mono,no,18,no,white,no,yes,768,legacy,49,49,/Users/Linzi/Desktop/LM-subject-3f55.csv,legacy,Kafkaesque Koffka,3.2.8,0,h,NA,s,NA,NA,h,714,NA,53800,NA,NA,714,2,legacy,1024,2,48000,-16,experiment,SSHSS,3,odd,59558,NA,NA,NA,NA,NA,164689,163425,5740,NA,NA,164815,165534,164661,164814,5700,Flanker Test,50,35828,50,yes,1024
100,100,716.1568627,716.1568627,black,legacy,legacy,legacy,0,congruent,uniform,1,undefined,1,h,0,0,0,50,50,0,50,50,0,0,0,50,50,50,50,0,Sun Sep 29 12:35:57 2019,1500,The main experiment item,yes,FlankerTest.osexp,/Users/Linzi/Desktop,no,mono,no,18,no,white,no,yes,768,legacy,50,50,/Users/Linzi/Desktop/LM-subject-3f55.csv,legacy,Kafkaesque Koffka,3.2.8,0,h,NA,s,NA,NA,h,696,NA,53800,NA,NA,696,2,legacy,1024,2,48000,-16,experiment,HHHHH,3,odd,59558,NA,NA,NA,NA,NA,166827,165565,5740,NA,NA,166954,167655,166801,166953,5700,Flanker Test,51,36524,51,yes,1024
100,100,712.7692308,712.7692308,black,legacy,legacy,legacy,0,congruent,uniform,1,undefined,1,h,0,0,0,51,51,0,51,51,0,0,0,51,51,51,51,0,Sun Sep 29 12:35:57 2019,1500,The main experiment item,yes,FlankerTest.osexp,/Users/Linzi/Desktop,no,mono,no,18,no,white,no,yes,768,legacy,51,51,/Users/Linzi/Desktop/LM-subject-3f55.csv,legacy,Kafkaesque Koffka,3.2.8,0,h,NA,s,NA,NA,h,540,NA,53800,NA,NA,540,2,legacy,1024,2,48000,-16,experiment,HHHHH,3,odd,59558,NA,NA,NA,NA,NA,168948,167687,5740,NA,NA,169075,169620,168921,169075,5700,Flanker Test,52,37064,52,yes,1024
100,100,710.3773585,710.3773585,black,legacy,legacy,legacy,0,incongruent,uniform,1,undefined,1,s,0,0,0,52,52,0,52,52,0,0,0,52,52,52,52,0,Sun Sep 29 12:35:57 2019,1500,The main experiment item,yes,FlankerTest.osexp,/Users/Linzi/Desktop,no,mono,no,18,no,white,no,yes,768,legacy,52,52,/Users/Linzi/Desktop/LM-subject-3f55.csv,legacy,Kafkaesque Koffka,3.2.8,0,s,NA,s,NA,NA,s,586,NA,53800,NA,NA,586,2,legacy,1024,2,48000,-16,experiment,HHSHH,3,odd,59558,NA,NA,NA,NA,NA,170914,169652,5740,NA,NA,171041,171632,170888,171041,5700,Flanker Test,53,37650,53,yes,1024
100,100,709.0555556,709.0555556,black,legacy,legacy,legacy,0,congruent,uniform,1,undefined,1,h,0,0,0,53,53,0,53,53,0,0,0,53,53,53,53,0,Sun Sep 29 12:35:57 2019,1500,The main experiment item,yes,FlankerTest.osexp,/Users/Linzi/Desktop,no,mono,no,18,no,white,no,yes,768,legacy,53,53,/Users/Linzi/Desktop/LM-subject-3f55.csv,legacy,Kafkaesque Koffka,3.2.8,0,h,NA,s,NA,NA,h,639,NA,53800,NA,NA,639,2,legacy,1024,2,48000,-16,experiment,HHHHH,3,odd,59558,NA,NA,NA,NA,NA,172922,171663,5740,NA,NA,173049,173693,172896,173049,5700,Flanker Test,54,38289,54,yes,1024
100,100,708.6,708.6,black,legacy,legacy,legacy,0,incongruent,uniform,1,undefined,1,s,0,0,0,54,54,0,54,54,0,0,0,54,54,54,54,0,Sun Sep 29 12:35:57 2019,1500,The main experiment item,yes,FlankerTest.osexp,/Users/Linzi/Desktop,no,mono,no,18,no,white,no,yes,768,legacy,54,54,/Users/Linzi/Desktop/LM-subject-3f55.csv,legacy,Kafkaesque Koffka,3.2.8,0,s,NA,s,NA,NA,s,684,NA,53800,NA,NA,684,2,legacy,1024,2,48000,-16,experiment,HHSHH,3,odd,59558,NA,NA,NA,NA,NA,174987,173724,5740,NA,NA,175114,175803,174960,175113,5700,Flanker Test,55,38973,55,yes,1024
100,100,706.5535714,706.5535714,black,legacy,legacy,legacy,0,congruent,uniform,1,undefined,1,h,0,0,0,55,55,0,55,55,0,0,0,55,55,55,55,0,Sun Sep 29 12:35:57 2019,1500,The main experiment item,yes,FlankerTest.osexp,/Users/Linzi/Desktop,no,mono,no,18,no,white,no,yes,768,legacy,55,55,/Users/Linzi/Desktop/LM-subject-3f55.csv,legacy,Kafkaesque Koffka,3.2.8,0,h,NA,s,NA,NA,h,594,NA,53800,NA,NA,594,2,legacy,1024,2,48000,-16,experiment,HHHHH,3,odd,59558,NA,NA,NA,NA,NA,177097,175836,5740,NA,NA,177223,177822,177068,177222,5700,Flanker Test,56,39567,56,yes,1024
100,100,709.2982456,709.2982456,black,legacy,legacy,legacy,0,incongruent,uniform,1,undefined,1,h,0,0,0,56,56,0,56,56,0,0,0,56,56,56,56,0,Sun Sep 29 12:35:57 2019,1500,The main experiment item,yes,FlankerTest.osexp,/Users/Linzi/Desktop,no,mono,no,18,no,white,no,yes,768,legacy,56,56,/Users/Linzi/Desktop/LM-subject-3f55.csv,legacy,Kafkaesque Koffka,3.2.8,0,h,NA,s,NA,NA,h,863,NA,53800,NA,NA,863,2,legacy,1024,2,48000,-16,experiment,SSHSS,3,odd,59558,NA,NA,NA,NA,NA,179112,177853,5740,NA,NA,179238,180106,179086,179237,5700,Flanker Test,57,40430,57,yes,1024
100,100,708.2068966,708.2068966,black,legacy,legacy,legacy,0,incongruent,uniform,1,undefined,1,h,0,0,0,57,57,0,57,57,0,0,0,57,57,57,57,0,Sun Sep 29 12:35:57 2019,1500,The main experiment item,yes,FlankerTest.osexp,/Users/Linzi/Desktop,no,mono,no,18,no,white,no,yes,768,legacy,57,57,/Users/Linzi/Desktop/LM-subject-3f55.csv,legacy,Kafkaesque Koffka,3.2.8,0,h,NA,s,NA,NA,h,646,NA,53800,NA,NA,646,2,legacy,1024,2,48000,-16,experiment,SSHSS,3,odd,59558,NA,NA,NA,NA,NA,181397,180137,5740,NA,NA,181524,182175,181371,181523,5700,Flanker Test,58,41076,58,yes,1024
100,100,707.1355932,707.1355932,black,legacy,legacy,legacy,0,congruent,uniform,1,undefined,1,h,0,0,0,58,58,0,58,58,0,0,0,58,58,58,58,0,Sun Sep 29 12:35:57 2019,1500,The main experiment item,yes,FlankerTest.osexp,/Users/Linzi/Desktop,no,mono,no,18,no,white,no,yes,768,legacy,58,58,/Users/Linzi/Desktop/LM-subject-3f55.csv,legacy,Kafkaesque Koffka,3.2.8,0,h,NA,s,NA,NA,h,645,NA,53800,NA,NA,645,2,legacy,1024,2,48000,-16,experiment,HHHHH,3,odd,59558,NA,NA,NA,NA,NA,183465,182206,5740,NA,NA,183592,184242,183439,183591,5700,Flanker Test,59,41721,59,yes,1024
100,100,706.45,706.45,black,legacy,legacy,legacy,0,incongruent,uniform,1,undefined,1,s,0,0,0,59,59,0,59,59,0,0,0,59,59,59,59,0,Sun Sep 29 12:35:57 2019,1500,The main experiment item,yes,FlankerTest.osexp,/Users/Linzi/Desktop,no,mono,no,18,no,white,no,yes,768,legacy,59,59,/Users/Linzi/Desktop/LM-subject-3f55.csv,legacy,Kafkaesque Koffka,3.2.8,0,s,NA,s,NA,NA,s,666,NA,53800,NA,NA,666,2,legacy,1024,2,48000,-16,experiment,HHSHH,3,odd,59558,NA,NA,NA,NA,NA,185536,184274,5740,NA,NA,185662,186333,185509,185662,5700,Flanker Test,60,42387,60,yes,1024
100,100,705.6885246,705.6885246,black,legacy,legacy,legacy,0,incongruent,uniform,1,undefined,1,s,0,0,0,60,60,0,60,60,0,0,0,60,60,60,60,0,Sun Sep 29 12:35:57 2019,1500,The main experiment item,yes,FlankerTest.osexp,/Users/Linzi/Desktop,no,mono,no,18,no,white,no,yes,768,legacy,60,60,/Users/Linzi/Desktop/LM-subject-3f55.csv,legacy,Kafkaesque Koffka,3.2.8,0,s,NA,s,NA,NA,s,660,NA,53800,NA,NA,660,2,legacy,1024,2,48000,-16,experiment,HHSHH,3,odd,59558,NA,NA,NA,NA,NA,187626,186364,5740,NA,NA,187752,188417,187599,187752,5700,Flanker Test,61,43047,61,yes,1024
100,100,704.1612903,704.1612903,black,legacy,legacy,legacy,0,congruent,uniform,1,undefined,1,s,0,0,0,61,61,0,61,61,0,0,0,61,61,61,61,0,Sun Sep 29 12:35:57 2019,1500,The main experiment item,yes,FlankerTest.osexp,/Users/Linzi/Desktop,no,mono,no,18,no,white,no,yes,768,legacy,61,61,/Users/Linzi/Desktop/LM-subject-3f55.csv,legacy,Kafkaesque Koffka,3.2.8,0,s,NA,s,NA,NA,s,611,NA,53800,NA,NA,611,2,legacy,1024,2,48000,-16,experiment,SSSSS,3,odd,59558,NA,NA,NA,NA,NA,189705,188448,5740,NA,NA,189832,190448,189679,189831,5700,Flanker Test,62,43658,62,yes,1024
100,100,701.0634921,701.0634921,black,legacy,legacy,legacy,0,congruent,uniform,1,undefined,1,s,0,0,0,62,62,0,62,62,0,0,0,62,62,62,62,0,Sun Sep 29 12:35:57 2019,1500,The main experiment item,yes,FlankerTest.osexp,/Users/Linzi/Desktop,no,mono,no,18,no,white,no,yes,768,legacy,62,62,/Users/Linzi/Desktop/LM-subject-3f55.csv,legacy,Kafkaesque Koffka,3.2.8,0,s,NA,s,NA,NA,s,509,NA,53800,NA,NA,509,2,legacy,1024,2,48000,-16,experiment,SSSSS,3,odd,59558,NA,NA,NA,NA,NA,191738,190479,5740,NA,NA,191864,192378,191712,191864,5700,Flanker Test,63,44167,63,yes,1024
100,100,698.140625,698.140625,black,legacy,legacy,legacy,0,congruent,uniform,1,undefined,1,s,0,0,0,63,63,0,63,63,0,0,0,63,63,63,63,0,Sun Sep 29 12:35:57 2019,1500,The main experiment item,yes,FlankerTest.osexp,/Users/Linzi/Desktop,no,mono,no,18,no,white,no,yes,768,legacy,63,63,/Users/Linzi/Desktop/LM-subject-3f55.csv,legacy,Kafkaesque Koffka,3.2.8,0,s,NA,s,NA,NA,s,514,NA,53800,NA,NA,514,2,legacy,1024,2,48000,-16,experiment,SSSSS,3,odd,59558,NA,NA,NA,NA,NA,193670,192409,5740,NA,NA,193796,194316,193643,193796,5700,Flanker Test,64,44681,64,yes,1024
100,100,697.2307692,697.2307692,black,legacy,legacy,legacy,0,incongruent,uniform,1,undefined,1,h,0,0,0,64,64,0,64,64,0,0,0,64,64,64,64,0,Sun Sep 29 12:35:57 2019,1500,The main experiment item,yes,FlankerTest.osexp,/Users/Linzi/Desktop,no,mono,no,18,no,white,no,yes,768,legacy,64,64,/Users/Linzi/Desktop/LM-subject-3f55.csv,legacy,Kafkaesque Koffka,3.2.8,0,h,NA,s,NA,NA,h,639,NA,53800,NA,NA,639,2,legacy,1024,2,48000,-16,experiment,SSHSS,3,odd,59558,NA,NA,NA,NA,NA,195608,194347,5740,NA,NA,195735,196379,195582,195734,5700,Flanker Test,65,45320,65,yes,1024
100,100,696.3333333,696.3333333,black,legacy,legacy,legacy,0,congruent,uniform,1,undefined,1,s,0,0,0,65,65,0,65,65,0,0,0,65,65,65,65,0,Sun Sep 29 12:35:57 2019,1500,The main experiment item,yes,FlankerTest.osexp,/Users/Linzi/Desktop,no,mono,no,18,no,white,no,yes,768,legacy,65,65,/Users/Linzi/Desktop/LM-subject-3f55.csv,legacy,Kafkaesque Koffka,3.2.8,0,s,NA,s,NA,NA,s,638,NA,53800,NA,NA,638,2,legacy,1024,2,48000,-16,experiment,SSSSS,3,odd,59558,NA,NA,NA,NA,NA,197670,196411,5740,NA,NA,197796,198439,197643,197796,5700,Flanker Test,66,45958,66,yes,1024
100,100,693.9701493,693.9701493,black,legacy,legacy,legacy,0,congruent,uniform,1,undefined,1,h,0,0,0,66,66,0,66,66,0,0,0,66,66,66,66,0,Sun Sep 29 12:35:57 2019,1500,The main experiment item,yes,FlankerTest.osexp,/Users/Linzi/Desktop,no,mono,no,18,no,white,no,yes,768,legacy,66,66,/Users/Linzi/Desktop/LM-subject-3f55.csv,legacy,Kafkaesque Koffka,3.2.8,0,h,NA,s,NA,NA,h,538,NA,53800,NA,NA,538,2,legacy,1024,2,48000,-16,experiment,HHHHH,3,odd,59558,NA,NA,NA,NA,NA,199733,198470,5740,NA,NA,199860,200403,199705,199859,5700,Flanker Test,67,46496,67,yes,1024
100,100,691.6911765,691.6911765,black,legacy,legacy,legacy,0,congruent,uniform,1,undefined,1,h,0,0,0,67,67,0,67,67,0,0,0,67,67,67,67,0,Sun Sep 29 12:35:57 2019,1500,The main experiment item,yes,FlankerTest.osexp,/Users/Linzi/Desktop,no,mono,no,18,no,white,no,yes,768,legacy,67,67,/Users/Linzi/Desktop/LM-subject-3f55.csv,legacy,Kafkaesque Koffka,3.2.8,0,h,NA,s,NA,NA,h,539,NA,53800,NA,NA,539,2,legacy,1024,2,48000,-16,experiment,HHHHH,3,odd,59558,NA,NA,NA,NA,NA,201694,200435,5740,NA,NA,201820,202364,201668,201819,5700,Flanker Test,68,47035,68,yes,1024
100,100,692.1884058,692.1884058,black,legacy,legacy,legacy,0,incongruent,uniform,1,undefined,1,h,0,0,0,68,68,0,68,68,0,0,0,68,68,68,68,0,Sun Sep 29 12:35:57 2019,1500,The main experiment item,yes,FlankerTest.osexp,/Users/Linzi/Desktop,no,mono,no,18,no,white,no,yes,768,legacy,68,68,/Users/Linzi/Desktop/LM-subject-3f55.csv,legacy,Kafkaesque Koffka,3.2.8,0,h,NA,s,NA,NA,h,726,NA,53800,NA,NA,726,2,legacy,1024,2,48000,-16,experiment,SSHSS,3,odd,59558,NA,NA,NA,NA,NA,203655,202395,5740,NA,NA,203781,204513,203628,203781,5700,Flanker Test,69,47761,69,yes,1024
100,100,689.7285714,689.7285714,black,legacy,legacy,legacy,0,congruent,uniform,1,undefined,1,h,0,0,0,69,69,0,69,69,0,0,0,69,69,69,69,0,Sun Sep 29 12:35:57 2019,1500,The main experiment item,yes,FlankerTest.osexp,/Users/Linzi/Desktop,no,mono,no,18,no,white,no,yes,768,legacy,69,69,/Users/Linzi/Desktop/LM-subject-3f55.csv,legacy,Kafkaesque Koffka,3.2.8,0,h,NA,s,NA,NA,h,520,NA,53800,NA,NA,520,2,legacy,1024,2,48000,-16,experiment,HHHHH,3,odd,59558,NA,NA,NA,NA,NA,205805,204545,5740,NA,NA,205931,206456,205778,205931,5700,Flanker Test,70,48281,70,yes,1024
100,100,686.3239437,686.3239437,black,legacy,legacy,legacy,0,congruent,uniform,1,undefined,1,s,0,0,0,70,70,0,70,70,0,0,0,70,70,70,70,0,Sun Sep 29 12:35:57 2019,1500,The main experiment item,yes,FlankerTest.osexp,/Users/Linzi/Desktop,no,mono,no,18,no,white,no,yes,768,legacy,70,70,/Users/Linzi/Desktop/LM-subject-3f55.csv,legacy,Kafkaesque Koffka,3.2.8,0,s,NA,s,NA,NA,s,448,NA,53800,NA,NA,448,2,legacy,1024,2,48000,-16,experiment,SSSSS,3,odd,59558,NA,NA,NA,NA,NA,207749,206490,5740,NA,NA,207875,208328,207723,207875,5700,Flanker Test,71,48729,71,yes,1024
100,100,686.4027778,686.4027778,black,legacy,legacy,legacy,0,incongruent,uniform,1,undefined,1,h,0,0,0,71,71,0,71,71,0,0,0,71,71,71,71,0,Sun Sep 29 12:35:57 2019,1500,The main experiment item,yes,FlankerTest.osexp,/Users/Linzi/Desktop,no,mono,no,18,no,white,no,yes,768,legacy,71,71,/Users/Linzi/Desktop/LM-subject-3f55.csv,legacy,Kafkaesque Koffka,3.2.8,0,h,NA,s,NA,NA,h,692,NA,53800,NA,NA,692,2,legacy,1024,2,48000,-16,experiment,SSHSS,3,odd,59558,NA,NA,NA,NA,NA,209619,208360,5740,NA,NA,209745,210443,209592,209745,5700,Flanker Test,72,49421,72,yes,1024
100,100,686.5342466,686.5342466,black,legacy,legacy,legacy,0,congruent,uniform,1,undefined,1,h,0,0,0,72,72,0,72,72,0,0,0,72,72,72,72,0,Sun Sep 29 12:35:57 2019,1500,The main experiment item,yes,FlankerTest.osexp,/Users/Linzi/Desktop,no,mono,no,18,no,white,no,yes,768,legacy,72,72,/Users/Linzi/Desktop/LM-subject-3f55.csv,legacy,Kafkaesque Koffka,3.2.8,0,h,NA,s,NA,NA,h,696,NA,53800,NA,NA,696,2,legacy,1024,2,48000,-16,experiment,HHHHH,3,odd,59558,NA,NA,NA,NA,NA,211737,210475,5740,NA,NA,211863,212565,211710,211862,5700,Flanker Test,73,50117,73,yes,1024
100,100,684.9324324,684.9324324,black,legacy,legacy,legacy,0,congruent,uniform,1,undefined,1,h,0,0,0,73,73,0,73,73,0,0,0,73,73,73,73,0,Sun Sep 29 12:35:57 2019,1500,The main experiment item,yes,FlankerTest.osexp,/Users/Linzi/Desktop,no,mono,no,18,no,white,no,yes,768,legacy,73,73,/Users/Linzi/Desktop/LM-subject-3f55.csv,legacy,Kafkaesque Koffka,3.2.8,0,h,NA,s,NA,NA,h,568,NA,53800,NA,NA,568,2,legacy,1024,2,48000,-16,experiment,HHHHH,3,odd,59558,NA,NA,NA,NA,NA,213857,212596,5740,NA,NA,213983,214557,213830,213982,5700,Flanker Test,74,50685,74,yes,1024
100,100,685.44,685.44,black,legacy,legacy,legacy,0,incongruent,uniform,1,undefined,1,h,0,0,0,74,74,0,74,74,0,0,0,74,74,74,74,0,Sun Sep 29 12:35:57 2019,1500,The main experiment item,yes,FlankerTest.osexp,/Users/Linzi/Desktop,no,mono,no,18,no,white,no,yes,768,legacy,74,74,/Users/Linzi/Desktop/LM-subject-3f55.csv,legacy,Kafkaesque Koffka,3.2.8,0,h,NA,s,NA,NA,h,723,NA,53800,NA,NA,723,2,legacy,1024,2,48000,-16,experiment,SSHSS,3,odd,59558,NA,NA,NA,NA,NA,215847,214588,5740,NA,NA,215974,216703,215821,215974,5700,Flanker Test,75,51408,75,yes,1024
100,100,683.8947368,683.8947368,black,legacy,legacy,legacy,0,congruent,uniform,1,undefined,1,s,0,0,0,75,75,0,75,75,0,0,0,75,75,75,75,0,Sun Sep 29 12:35:57 2019,1500,The main experiment item,yes,FlankerTest.osexp,/Users/Linzi/Desktop,no,mono,no,18,no,white,no,yes,768,legacy,75,75,/Users/Linzi/Desktop/LM-subject-3f55.csv,legacy,Kafkaesque Koffka,3.2.8,0,s,NA,s,NA,NA,s,568,NA,53800,NA,NA,568,2,legacy,1024,2,48000,-16,experiment,SSSSS,3,odd,59558,NA,NA,NA,NA,NA,217993,216735,5740,NA,NA,218119,218693,217967,218119,5700,Flanker Test,76,51976,76,yes,1024
100,100,683.1168831,683.1168831,black,legacy,legacy,legacy,0,congruent,uniform,1,undefined,1,h,0,0,0,76,76,0,76,76,0,0,0,76,76,76,76,0,Sun Sep 29 12:35:57 2019,1500,The main experiment item,yes,FlankerTest.osexp,/Users/Linzi/Desktop,no,mono,no,18,no,white,no,yes,768,legacy,76,76,/Users/Linzi/Desktop/LM-subject-3f55.csv,legacy,Kafkaesque Koffka,3.2.8,0,h,NA,s,NA,NA,h,624,NA,53800,NA,NA,624,2,legacy,1024,2,48000,-16,experiment,HHHHH,3,odd,59558,NA,NA,NA,NA,NA,219985,218725,5740,NA,NA,220112,220742,219959,220112,5700,Flanker Test,77,52600,77,yes,1024
100,100,683.1282051,683.1282051,black,legacy,legacy,legacy,0,incongruent,uniform,1,undefined,1,h,0,0,0,77,77,0,77,77,0,0,0,77,77,77,77,0,Sun Sep 29 12:35:57 2019,1500,The main experiment item,yes,FlankerTest.osexp,/Users/Linzi/Desktop,no,mono,no,18,no,white,no,yes,768,legacy,77,77,/Users/Linzi/Desktop/LM-subject-3f55.csv,legacy,Kafkaesque Koffka,3.2.8,0,h,NA,s,NA,NA,h,684,NA,53800,NA,NA,684,2,legacy,1024,2,48000,-16,experiment,SSHSS,3,odd,59558,NA,NA,NA,NA,NA,222033,220773,5740,NA,NA,222159,222848,222005,222159,5700,Flanker Test,78,53284,78,yes,1024
100,100,682.5316456,682.5316456,black,legacy,legacy,legacy,0,congruent,uniform,1,undefined,1,s,0,0,0,78,78,0,78,78,0,0,0,78,78,78,78,0,Sun Sep 29 12:35:57 2019,1500,The main experiment item,yes,FlankerTest.osexp,/Users/Linzi/Desktop,no,mono,no,18,no,white,no,yes,768,legacy,78,78,/Users/Linzi/Desktop/LM-subject-3f55.csv,legacy,Kafkaesque Koffka,3.2.8,0,s,NA,s,NA,NA,s,636,NA,53800,NA,NA,636,2,legacy,1024,2,48000,-16,experiment,SSSSS,3,odd,59558,NA,NA,NA,NA,NA,224139,222879,5740,NA,NA,224265,224906,224112,224265,5700,Flanker Test,79,53920,79,yes,1024
100,100,681.75,681.75,black,legacy,legacy,legacy,0,congruent,uniform,1,undefined,1,s,0,0,0,79,79,0,79,79,0,0,0,79,79,79,79,0,Sun Sep 29 12:35:57 2019,1500,The main experiment item,yes,FlankerTest.osexp,/Users/Linzi/Desktop,no,mono,no,18,no,white,no,yes,768,legacy,79,79,/Users/Linzi/Desktop/LM-subject-3f55.csv,legacy,Kafkaesque Koffka,3.2.8,0,s,NA,s,NA,NA,s,620,NA,53800,NA,NA,620,2,legacy,1024,2,48000,-16,experiment,SSSSS,3,odd,59558,NA,NA,NA,NA,NA,226198,224938,5740,NA,NA,226325,226950,226171,226324,5700,Flanker Test,80,54540,80,yes,1024
100,100,683.2839506,683.2839506,black,legacy,legacy,legacy,0,incongruent,uniform,1,undefined,1,s,0,0,0,80,80,0,80,80,0,0,0,80,80,80,80,0,Sun Sep 29 12:35:57 2019,600,The main experiment item,yes,FlankerTest.osexp,/Users/Linzi/Desktop,no,mono,no,18,no,white,no,yes,768,legacy,0,79,/Users/Linzi/Desktop/LM-subject-3f55.csv,legacy,Kafkaesque Koffka,3.2.8,0,s,NA,s,h,NA,s,806,NA,53800,20213,NA,806,2,legacy,1024,2,48000,-16,experiment,HHSHH,3,odd,59558,248276,NA,NA,NA,NA,248523,226982,5740,228057,NA,248649,249461,248496,248649,5700,Flanker Test,81,55346,81,yes,1024
98.7804878,98.7804878,680.2195122,680.2195122,black,legacy,legacy,legacy,0,incongruent,uniform,0,undefined,0,h,0,0,0,81,81,0,81,81,0,0,0,81,81,81,81,0,Sun Sep 29 12:35:57 2019,600,The main experiment item,yes,FlankerTest.osexp,/Users/Linzi/Desktop,no,mono,no,18,no,white,no,yes,768,legacy,1,79,/Users/Linzi/Desktop/LM-subject-3f55.csv,legacy,Kafkaesque Koffka,3.2.8,0,s,NA,s,h,NA,s,432,NA,53800,20213,NA,432,2,legacy,1024,2,48000,-16,experiment,SSHSS,3,odd,59558,248276,NA,NA,249492,NA,251284,250017,5740,228057,NA,251411,251848,251255,251411,5700,Flanker Test,81,55778,82,yes,1024
98.79518072,98.79518072,679.1807229,679.1807229,black,legacy,legacy,legacy,0,congruent,uniform,1,undefined,1,h,0,0,0,82,82,0,82,82,0,0,0,82,82,82,82,0,Sun Sep 29 12:35:57 2019,600,The main experiment item,yes,FlankerTest.osexp,/Users/Linzi/Desktop,no,mono,no,18,no,white,no,yes,768,legacy,2,79,/Users/Linzi/Desktop/LM-subject-3f55.csv,legacy,Kafkaesque Koffka,3.2.8,0,h,NA,s,h,NA,h,594,NA,53800,20213,NA,594,2,legacy,1024,2,48000,-16,experiment,HHHHH,3,odd,59558,248276,NA,251879,249492,NA,253667,252406,5740,228057,NA,253793,254392,253640,253792,5700,Flanker Test,82,56372,83,yes,1024
98.80952381,98.80952381,678.4761905,678.4761905,black,legacy,legacy,legacy,0,congruent,uniform,1,undefined,1,s,0,0,0,83,83,0,83,83,0,0,0,83,83,83,83,0,Sun Sep 29 12:35:57 2019,600,The main experiment item,yes,FlankerTest.osexp,/Users/Linzi/Desktop,no,mono,no,18,no,white,no,yes,768,legacy,3,79,/Users/Linzi/Desktop/LM-subject-3f55.csv,legacy,Kafkaesque Koffka,3.2.8,0,s,NA,s,h,NA,s,620,NA,53800,20213,NA,620,2,legacy,1024,2,48000,-16,experiment,SSSSS,3,odd,59558,248276,NA,251879,249492,NA,255688,254423,5740,228057,NA,255815,256441,255661,255814,5700,Flanker Test,83,56992,84,yes,1024
98.82352941,98.82352941,677.9411765,677.9411765,black,legacy,legacy,legacy,0,incongruent,uniform,1,undefined,1,h,0,0,0,84,84,0,84,84,0,0,0,84,84,84,84,0,Sun Sep 29 12:35:57 2019,600,The main experiment item,yes,FlankerTest.osexp,/Users/Linzi/Desktop,no,mono,no,18,no,white,no,yes,768,legacy,4,79,/Users/Linzi/Desktop/LM-subject-3f55.csv,legacy,Kafkaesque Koffka,3.2.8,0,h,NA,s,h,NA,h,633,NA,53800,20213,NA,633,2,legacy,1024,2,48000,-16,experiment,SSHSS,3,odd,59558,248276,NA,251879,256473,NA,258259,256999,5740,228057,NA,258386,259025,258233,258385,5700,Flanker Test,84,57625,85,yes,1024
98.8372093,98.8372093,676.6744186,676.6744186,black,legacy,legacy,legacy,0,congruent,uniform,1,undefined,1,s,0,0,0,85,85,0,85,85,0,0,0,85,85,85,85,0,Sun Sep 29 12:35:57 2019,600,The main experiment item,yes,FlankerTest.osexp,/Users/Linzi/Desktop,no,mono,no,18,no,white,no,yes,768,legacy,5,79,/Users/Linzi/Desktop/LM-subject-3f55.csv,legacy,Kafkaesque Koffka,3.2.8,0,s,NA,s,h,NA,s,569,NA,53800,20213,NA,569,2,legacy,1024,2,48000,-16,experiment,SSSSS,3,odd,59558,248276,NA,251879,259056,NA,260841,259582,5740,228057,NA,260967,261542,260815,260967,5700,Flanker Test,85,58194,86,yes,1024
98.85057471,98.85057471,675.9425287,675.9425287,black,legacy,legacy,legacy,0,incongruent,uniform,1,undefined,1,s,0,0,0,86,86,0,86,86,0,0,0,86,86,86,86,0,Sun Sep 29 12:35:57 2019,600,The main experiment item,yes,FlankerTest.osexp,/Users/Linzi/Desktop,no,mono,no,18,no,white,no,yes,768,legacy,6,79,/Users/Linzi/Desktop/LM-subject-3f55.csv,legacy,Kafkaesque Koffka,3.2.8,0,s,NA,s,h,NA,s,613,NA,53800,20213,NA,613,2,legacy,1024,2,48000,-16,experiment,HHSHH,3,odd,59558,248276,NA,251879,259056,NA,262836,261573,5740,228057,NA,262963,263582,262810,262962,5700,Flanker Test,86,58807,87,yes,1024
98.86363636,98.86363636,673.1590909,673.1590909,black,legacy,legacy,legacy,0,incongruent,uniform,1,undefined,1,s,0,0,0,87,87,0,87,87,0,0,0,87,87,87,87,0,Sun Sep 29 12:35:57 2019,600,The main experiment item,yes,FlankerTest.osexp,/Users/Linzi/Desktop,no,mono,no,18,no,white,no,yes,768,legacy,7,79,/Users/Linzi/Desktop/LM-subject-3f55.csv,legacy,Kafkaesque Koffka,3.2.8,0,s,NA,s,h,NA,s,431,NA,53800,20213,NA,431,2,legacy,1024,2,48000,-16,experiment,HHSHH,3,odd,59558,248276,NA,251879,263614,NA,265402,264141,5740,228057,NA,265529,265966,265376,265528,5700,Flanker Test,87,59238,88,yes,1024
98.87640449,98.87640449,672.6741573,672.6741573,black,legacy,legacy,legacy,0,incongruent,uniform,1,undefined,1,s,0,0,0,88,88,0,88,88,0,0,0,88,88,88,88,0,Sun Sep 29 12:35:57 2019,600,The main experiment item,yes,FlankerTest.osexp,/Users/Linzi/Desktop,no,mono,no,18,no,white,no,yes,768,legacy,8,79,/Users/Linzi/Desktop/LM-subject-3f55.csv,legacy,Kafkaesque Koffka,3.2.8,0,s,NA,s,h,NA,s,630,NA,53800,20213,NA,630,2,legacy,1024,2,48000,-16,experiment,HHSHH,3,odd,59558,248276,NA,251879,263614,NA,267260,265998,5740,228057,NA,267388,268024,267234,267387,5700,Flanker Test,88,59868,89,yes,1024
98.88888889,98.88888889,670.9111111,670.9111111,black,legacy,legacy,legacy,0,congruent,uniform,1,undefined,1,h,0,0,0,89,89,0,89,89,0,0,0,89,89,89,89,0,Sun Sep 29 12:35:57 2019,600,The main experiment item,yes,FlankerTest.osexp,/Users/Linzi/Desktop,no,mono,no,18,no,white,no,yes,768,legacy,9,79,/Users/Linzi/Desktop/LM-subject-3f55.csv,legacy,Kafkaesque Koffka,3.2.8,0,h,NA,s,h,NA,h,514,NA,53800,20213,NA,514,2,legacy,1024,2,48000,-16,experiment,HHHHH,3,odd,59558,248276,NA,251879,268056,NA,269844,268583,5740,228057,NA,269970,270490,269815,269970,5700,Flanker Test,89,60382,90,yes,1024
98.9010989,98.9010989,669.5934066,669.5934066,black,legacy,legacy,legacy,0,incongruent,uniform,1,undefined,1,h,0,0,0,90,90,0,90,90,0,0,0,90,90,90,90,0,Sun Sep 29 12:35:57 2019,600,The main experiment item,yes,FlankerTest.osexp,/Users/Linzi/Desktop,no,mono,no,18,no,white,no,yes,768,legacy,10,79,/Users/Linzi/Desktop/LM-subject-3f55.csv,legacy,Kafkaesque Koffka,3.2.8,0,h,NA,s,h,NA,h,551,NA,53800,20213,NA,551,2,legacy,1024,2,48000,-16,experiment,SSHSS,3,odd,59558,248276,NA,251879,268056,NA,271782,270522,5740,228057,NA,271909,272466,271756,271909,5700,Flanker Test,90,60933,91,yes,1024
98.91304348,98.91304348,667.6521739,667.6521739,black,legacy,legacy,legacy,0,congruent,uniform,1,undefined,1,h,0,0,0,91,91,0,91,91,0,0,0,91,91,91,91,0,Sun Sep 29 12:35:57 2019,600,The main experiment item,yes,FlankerTest.osexp,/Users/Linzi/Desktop,no,mono,no,18,no,white,no,yes,768,legacy,11,79,/Users/Linzi/Desktop/LM-subject-3f55.csv,legacy,Kafkaesque Koffka,3.2.8,0,h,NA,s,h,NA,h,491,NA,53800,20213,NA,491,2,legacy,1024,2,48000,-16,experiment,HHHHH,3,odd,59558,248276,NA,251879,268056,NA,273758,272497,5740,228057,NA,273885,274382,273731,273884,5700,Flanker Test,91,61424,92,yes,1024
98.92473118,98.92473118,666.3870968,666.3870968,black,legacy,legacy,legacy,0,incongruent,uniform,1,undefined,1,h,0,0,0,92,92,0,92,92,0,0,0,92,92,92,92,0,Sun Sep 29 12:35:57 2019,600,The main experiment item,yes,FlankerTest.osexp,/Users/Linzi/Desktop,no,mono,no,18,no,white,no,yes,768,legacy,12,79,/Users/Linzi/Desktop/LM-subject-3f55.csv,legacy,Kafkaesque Koffka,3.2.8,0,h,NA,s,h,NA,h,550,NA,53800,20213,NA,550,2,legacy,1024,2,48000,-16,experiment,SSHSS,3,odd,59558,248276,NA,251879,268056,NA,275676,274413,5740,228057,NA,275802,276358,275649,275802,5700,Flanker Test,92,61974,93,yes,1024
98.93617021,98.93617021,665.5212766,665.5212766,black,legacy,legacy,legacy,0,incongruent,uniform,1,undefined,1,s,0,0,0,93,93,0,93,93,0,0,0,93,93,93,93,0,Sun Sep 29 12:35:57 2019,600,The main experiment item,yes,FlankerTest.osexp,/Users/Linzi/Desktop,no,mono,no,18,no,white,no,yes,768,legacy,13,79,/Users/Linzi/Desktop/LM-subject-3f55.csv,legacy,Kafkaesque Koffka,3.2.8,0,s,NA,s,h,NA,s,585,NA,53800,20213,NA,585,2,legacy,1024,2,48000,-16,experiment,HHSHH,3,odd,59558,248276,NA,251879,268056,NA,277652,276389,5740,228057,NA,277778,278369,277625,277777,5700,Flanker Test,93,62559,94,yes,1024
97.89473684,97.89473684,664.8842105,664.8842105,black,legacy,legacy,legacy,0,congruent,uniform,0,undefined,0,h,0,0,0,94,94,0,94,94,0,0,0,94,94,94,94,0,Sun Sep 29 12:35:57 2019,600,The main experiment item,yes,FlankerTest.osexp,/Users/Linzi/Desktop,no,mono,no,18,no,white,no,yes,768,legacy,14,79,/Users/Linzi/Desktop/LM-subject-3f55.csv,legacy,Kafkaesque Koffka,3.2.8,0,s,NA,s,h,NA,s,605,NA,53800,20213,NA,605,2,legacy,1024,2,48000,-16,experiment,HHHHH,3,odd,59558,248276,NA,251879,268056,NA,279659,278400,5740,228057,NA,279786,280397,279632,279786,5700,Flanker Test,93,63164,95,yes,1024
97.91666667,97.91666667,664.1979167,664.1979167,black,legacy,legacy,legacy,0,congruent,uniform,1,undefined,1,s,0,0,0,95,95,0,95,95,0,0,0,95,95,95,95,0,Sun Sep 29 12:35:57 2019,600,The main experiment item,yes,FlankerTest.osexp,/Users/Linzi/Desktop,no,mono,no,18,no,white,no,yes,768,legacy,15,79,/Users/Linzi/Desktop/LM-subject-3f55.csv,legacy,Kafkaesque Koffka,3.2.8,0,s,NA,s,h,NA,s,599,NA,53800,20213,NA,599,2,legacy,1024,2,48000,-16,experiment,SSSSS,3,odd,59558,248276,NA,280428,280958,NA,282747,281484,5740,228057,NA,282874,283480,282721,282874,5700,Flanker Test,94,63763,96,yes,1024
97.93814433,97.93814433,663.5360825,663.5360825,black,legacy,legacy,legacy,0,congruent,uniform,1,undefined,1,s,0,0,0,96,96,0,96,96,0,0,0,96,96,96,96,0,Sun Sep 29 12:35:57 2019,600,The main experiment item,yes,FlankerTest.osexp,/Users/Linzi/Desktop,no,mono,no,18,no,white,no,yes,768,legacy,16,79,/Users/Linzi/Desktop/LM-subject-3f55.csv,legacy,Kafkaesque Koffka,3.2.8,0,s,NA,s,h,NA,s,600,NA,53800,20213,NA,600,2,legacy,1024,2,48000,-16,experiment,SSSSS,3,odd,59558,248276,NA,280428,280958,NA,284775,283511,5740,228057,NA,284901,285507,284748,284901,5700,Flanker Test,95,64363,97,yes,1024
97.95918367,97.95918367,661.7959184,661.7959184,black,legacy,legacy,legacy,0,congruent,uniform,1,undefined,1,s,0,0,0,97,97,0,97,97,0,0,0,97,97,97,97,0,Sun Sep 29 12:35:57 2019,600,The main experiment item,yes,FlankerTest.osexp,/Users/Linzi/Desktop,no,mono,no,18,no,white,no,yes,768,legacy,17,79,/Users/Linzi/Desktop/LM-subject-3f55.csv,legacy,Kafkaesque Koffka,3.2.8,0,s,NA,s,h,NA,s,493,NA,53800,20213,NA,493,2,legacy,1024,2,48000,-16,experiment,SSSSS,3,odd,59558,248276,NA,280428,280958,NA,286802,285538,5740,228057,NA,286929,287428,286775,286928,5700,Flanker Test,96,64856,98,yes,1024
97.97979798,97.97979798,659.9494949,659.9494949,black,legacy,legacy,legacy,0,congruent,uniform,1,undefined,1,s,0,0,0,98,98,0,98,98,0,0,0,98,98,98,98,0,Sun Sep 29 12:35:57 2019,600,The main experiment item,yes,FlankerTest.osexp,/Users/Linzi/Desktop,no,mono,no,18,no,white,no,yes,768,legacy,18,79,/Users/Linzi/Desktop/LM-subject-3f55.csv,legacy,Kafkaesque Koffka,3.2.8,0,s,NA,s,h,NA,s,479,NA,53800,20213,NA,479,2,legacy,1024,2,48000,-16,experiment,SSSSS,3,odd,59558,248276,NA,280428,280958,NA,288723,287460,5740,228057,NA,288849,289334,288696,288849,5700,Flanker Test,97,65335,99,yes,1024
98,98,659.28,659.28,black,legacy,legacy,legacy,0,incongruent,uniform,1,undefined,1,h,0,0,0,99,99,0,99,99,0,0,0,99,99,99,99,0,Sun Sep 29 12:35:57 2019,600,The main experiment item,yes,FlankerTest.osexp,/Users/Linzi/Desktop,no,mono,no,18,no,white,no,yes,768,legacy,19,79,/Users/Linzi/Desktop/LM-subject-3f55.csv,legacy,Kafkaesque Koffka,3.2.8,0,h,NA,s,h,NA,h,593,NA,53800,20213,NA,593,2,legacy,1024,2,48000,-16,experiment,SSHSS,3,odd,59558,248276,NA,280428,280958,NA,290629,289365,5740,228057,NA,290755,291354,290602,290755,5700,Flanker Test,98,65928,100,yes,1024
98.01980198,98.01980198,657.9207921,657.9207921,black,legacy,legacy,legacy,0,congruent,uniform,1,undefined,1,h,0,0,0,100,100,0,100,100,0,0,0,100,100,100,100,0,Sun Sep 29 12:35:57 2019,600,The main experiment item,yes,FlankerTest.osexp,/Users/Linzi/Desktop,no,mono,no,18,no,white,no,yes,768,legacy,20,79,/Users/Linzi/Desktop/LM-subject-3f55.csv,legacy,Kafkaesque Koffka,3.2.8,0,h,NA,s,h,NA,h,522,NA,53800,20213,NA,522,2,legacy,1024,2,48000,-16,experiment,HHHHH,3,odd,59558,248276,NA,280428,280958,NA,292652,291387,5740,228057,NA,292779,293307,292625,292779,5700,Flanker Test,99,66450,101,yes,1024
98.03921569,98.03921569,656.4313725,656.4313725,black,legacy,legacy,legacy,0,incongruent,uniform,1,undefined,1,h,0,0,0,101,101,0,101,101,0,0,0,101,101,101,101,0,Sun Sep 29 12:35:57 2019,600,The main experiment item,yes,FlankerTest.osexp,/Users/Linzi/Desktop,no,mono,no,18,no,white,no,yes,768,legacy,21,79,/Users/Linzi/Desktop/LM-subject-3f55.csv,legacy,Kafkaesque Koffka,3.2.8,0,h,NA,s,h,NA,h,506,NA,53800,20213,NA,506,2,legacy,1024,2,48000,-16,experiment,SSHSS,3,odd,59558,248276,NA,280428,280958,NA,294604,293340,5740,228057,NA,294730,295243,294577,294730,5700,Flanker Test,100,66956,102,yes,1024
98.05825243,98.05825243,654.2912621,654.2912621,black,legacy,legacy,legacy,0,congruent,uniform,1,undefined,1,s,0,0,0,102,102,0,102,102,0,0,0,102,102,102,102,0,Sun Sep 29 12:35:57 2019,600,The main experiment item,yes,FlankerTest.osexp,/Users/Linzi/Desktop,no,mono,no,18,no,white,no,yes,768,legacy,22,79,/Users/Linzi/Desktop/LM-subject-3f55.csv,legacy,Kafkaesque Koffka,3.2.8,0,s,NA,s,h,NA,s,436,NA,53800,20213,NA,436,2,legacy,1024,2,48000,-16,experiment,SSSSS,3,odd,59558,248276,NA,280428,280958,NA,296539,295277,5740,228057,NA,296666,297109,296512,296665,5700,Flanker Test,101,67392,103,yes,1024
97.11538462,97.11538462,653.6634615,653.6634615,black,legacy,legacy,legacy,0,incongruent,uniform,0,undefined,0,h,0,0,0,103,103,0,103,103,0,0,0,103,103,103,103,0,Sun Sep 29 12:35:57 2019,600,The main experiment item,yes,FlankerTest.osexp,/Users/Linzi/Desktop,no,mono,no,18,no,white,no,yes,768,legacy,23,79,/Users/Linzi/Desktop/LM-subject-3f55.csv,legacy,Kafkaesque Koffka,3.2.8,0,s,NA,s,h,NA,s,589,NA,53800,20213,NA,589,2,legacy,1024,2,48000,-16,experiment,SSHSS,3,odd,59558,248276,NA,280428,280958,NA,298404,297140,5740,228057,NA,298530,299126,298376,298530,5700,Flanker Test,101,67981,104,yes,1024
97.14285714,97.14285714,653.0857143,653.0857143,black,legacy,legacy,legacy,0,congruent,uniform,1,undefined,1,h,0,0,0,104,104,0,104,104,0,0,0,104,104,104,104,0,Sun Sep 29 12:35:57 2019,600,The main experiment item,yes,FlankerTest.osexp,/Users/Linzi/Desktop,no,mono,no,18,no,white,no,yes,768,legacy,24,79,/Users/Linzi/Desktop/LM-subject-3f55.csv,legacy,Kafkaesque Koffka,3.2.8,0,h,NA,s,h,NA,h,593,NA,53800,20213,NA,593,2,legacy,1024,2,48000,-16,experiment,HHHHH,3,odd,59558,248276,NA,299157,280958,NA,300950,299686,5740,228057,NA,301078,301678,300924,301078,5700,Flanker Test,102,68574,105,yes,1024
97.16981132,97.16981132,651.745283,651.745283,black,legacy,legacy,legacy,0,incongruent,uniform,1,undefined,1,h,0,0,0,105,105,0,105,105,0,0,0,105,105,105,105,0,Sun Sep 29 12:35:57 2019,600,The main experiment item,yes,FlankerTest.osexp,/Users/Linzi/Desktop,no,mono,no,18,no,white,no,yes,768,legacy,25,79,/Users/Linzi/Desktop/LM-subject-3f55.csv,legacy,Kafkaesque Koffka,3.2.8,0,h,NA,s,h,NA,h,511,NA,53800,20213,NA,511,2,legacy,1024,2,48000,-16,experiment,SSHSS,3,odd,59558,248276,NA,299157,280958,NA,302974,301711,5740,228057,NA,303102,303620,302946,303102,5700,Flanker Test,103,69085,106,yes,1024
97.19626168,97.19626168,651.1214953,651.1214953,black,legacy,legacy,legacy,0,congruent,uniform,1,undefined,1,s,0,0,0,106,106,0,106,106,0,0,0,106,106,106,106,0,Sun Sep 29 12:35:57 2019,600,The main experiment item,yes,FlankerTest.osexp,/Users/Linzi/Desktop,no,mono,no,18,no,white,no,yes,768,legacy,26,79,/Users/Linzi/Desktop/LM-subject-3f55.csv,legacy,Kafkaesque Koffka,3.2.8,0,s,NA,s,h,NA,s,585,NA,53800,20213,NA,585,2,legacy,1024,2,48000,-16,experiment,SSSSS,3,odd,59558,248276,NA,299157,280958,NA,304914,303652,5740,228057,NA,305040,305632,304887,305040,5700,Flanker Test,104,69670,107,yes,1024
97.22222222,97.22222222,649.4814815,649.4814815,black,legacy,legacy,legacy,0,congruent,uniform,1,undefined,1,h,0,0,0,107,107,0,107,107,0,0,0,107,107,107,107,0,Sun Sep 29 12:35:57 2019,600,The main experiment item,yes,FlankerTest.osexp,/Users/Linzi/Desktop,no,mono,no,18,no,white,no,yes,768,legacy,27,79,/Users/Linzi/Desktop/LM-subject-3f55.csv,legacy,Kafkaesque Koffka,3.2.8,0,h,NA,s,h,NA,h,474,NA,53800,20213,NA,474,2,legacy,1024,2,48000,-16,experiment,HHHHH,3,odd,59558,248276,NA,299157,280958,NA,306928,305663,5740,228057,NA,307056,307537,306902,307055,5700,Flanker Test,105,70144,108,yes,1024
97.24770642,97.24770642,647.6513761,647.6513761,black,legacy,legacy,legacy,0,congruent,uniform,1,undefined,1,h,0,0,0,108,108,0,108,108,0,0,0,108,108,108,108,0,Sun Sep 29 12:35:57 2019,600,The main experiment item,yes,FlankerTest.osexp,/Users/Linzi/Desktop,no,mono,no,18,no,white,no,yes,768,legacy,28,79,/Users/Linzi/Desktop/LM-subject-3f55.csv,legacy,Kafkaesque Koffka,3.2.8,0,h,NA,s,h,NA,h,450,NA,53800,20213,NA,450,2,legacy,1024,2,48000,-16,experiment,HHHHH,3,odd,59558,248276,NA,299157,280958,NA,308835,307569,5740,228057,NA,308962,309419,308807,308961,5700,Flanker Test,106,70594,109,yes,1024
97.27272727,97.27272727,647.2727273,647.2727273,black,legacy,legacy,legacy,0,incongruent,uniform,1,undefined,1,s,0,0,0,109,109,0,109,109,0,0,0,109,109,109,109,0,Sun Sep 29 12:35:57 2019,600,The main experiment item,yes,FlankerTest.osexp,/Users/Linzi/Desktop,no,mono,no,18,no,white,no,yes,768,legacy,29,79,/Users/Linzi/Desktop/LM-subject-3f55.csv,legacy,Kafkaesque Koffka,3.2.8,0,s,NA,s,h,NA,s,606,NA,53800,20213,NA,606,2,legacy,1024,2,48000,-16,experiment,HHSHH,3,odd,59558,248276,NA,299157,280958,NA,310717,309452,5740,228057,NA,310844,311457,310691,310844,5700,Flanker Test,107,71200,110,yes,1024
97.2972973,97.2972973,646.0720721,646.0720721,black,legacy,legacy,legacy,0,congruent,uniform,1,undefined,1,h,0,0,0,110,110,0,110,110,0,0,0,110,110,110,110,0,Sun Sep 29 12:35:57 2019,600,The main experiment item,yes,FlankerTest.osexp,/Users/Linzi/Desktop,no,mono,no,18,no,white,no,yes,768,legacy,30,79,/Users/Linzi/Desktop/LM-subject-3f55.csv,legacy,Kafkaesque Koffka,3.2.8,0,h,NA,s,h,NA,h,514,NA,53800,20213,NA,514,2,legacy,1024,2,48000,-16,experiment,HHHHH,3,odd,59558,248276,NA,299157,311488,NA,313278,312013,5740,228057,NA,313404,313925,313251,313404,5700,Flanker Test,108,71714,111,yes,1024
96.42857143,96.42857143,644.2678571,644.2678571,black,legacy,legacy,legacy,0,incongruent,uniform,0,undefined,0,s,0,0,0,111,111,0,111,111,0,0,0,111,111,111,111,0,Sun Sep 29 12:35:57 2019,600,The main experiment item,yes,FlankerTest.osexp,/Users/Linzi/Desktop,no,mono,no,18,no,white,no,yes,768,legacy,31,79,/Users/Linzi/Desktop/LM-subject-3f55.csv,legacy,Kafkaesque Koffka,3.2.8,0,h,NA,s,h,NA,h,444,NA,53800,20213,NA,444,2,legacy,1024,2,48000,-16,experiment,HHSHH,3,odd,59558,248276,NA,299157,311488,NA,315223,313958,5740,228057,NA,315351,315802,315197,315350,5700,Flanker Test,108,72158,112,yes,1024
96.46017699,96.46017699,643.7964602,643.7964602,black,legacy,legacy,legacy,0,incongruent,uniform,1,undefined,1,s,0,0,0,112,112,0,112,112,0,0,0,112,112,112,112,0,Sun Sep 29 12:35:57 2019,600,The main experiment item,yes,FlankerTest.osexp,/Users/Linzi/Desktop,no,mono,no,18,no,white,no,yes,768,legacy,32,79,/Users/Linzi/Desktop/LM-subject-3f55.csv,legacy,Kafkaesque Koffka,3.2.8,0,s,NA,s,h,NA,s,591,NA,53800,20213,NA,591,2,legacy,1024,2,48000,-16,experiment,HHSHH,3,odd,59558,248276,NA,315834,311488,NA,317625,316361,5740,228057,NA,317751,318349,317598,317751,5700,Flanker Test,109,72749,113,yes,1024
96.49122807,96.49122807,644.1754386,644.1754386,black,legacy,legacy,legacy,0,incongruent,uniform,1,undefined,1,s,0,0,0,113,113,0,113,113,0,0,0,113,113,113,113,0,Sun Sep 29 12:35:57 2019,600,The main experiment item,yes,FlankerTest.osexp,/Users/Linzi/Desktop,no,mono,no,18,no,white,no,yes,768,legacy,33,79,/Users/Linzi/Desktop/LM-subject-3f55.csv,legacy,Kafkaesque Koffka,3.2.8,0,s,NA,s,h,NA,s,687,NA,53800,20213,NA,687,2,legacy,1024,2,48000,-16,experiment,HHSHH,3,odd,59558,248276,NA,315834,311488,NA,319645,318380,5740,228057,NA,319771,320465,319618,319771,5700,Flanker Test,110,73436,114,yes,1024
96.52173913,96.52173913,643.8347826,643.8347826,black,legacy,legacy,legacy,0,incongruent,uniform,1,undefined,1,s,0,0,0,114,114,0,114,114,0,0,0,114,114,114,114,0,Sun Sep 29 12:35:57 2019,600,The main experiment item,yes,FlankerTest.osexp,/Users/Linzi/Desktop,no,mono,no,18,no,white,no,yes,768,legacy,34,79,/Users/Linzi/Desktop/LM-subject-3f55.csv,legacy,Kafkaesque Koffka,3.2.8,0,s,NA,s,h,NA,s,605,NA,53800,20213,NA,605,2,legacy,1024,2,48000,-16,experiment,HHSHH,3,odd,59558,248276,NA,315834,320496,NA,322288,321021,5740,228057,NA,322415,323027,322262,322415,5700,Flanker Test,111,74041,115,yes,1024
96.55172414,96.55172414,642.0603448,642.0603448,black,legacy,legacy,legacy,0,incongruent,uniform,1,undefined,1,s,0,0,0,115,115,0,115,115,0,0,0,115,115,115,115,0,Sun Sep 29 12:35:57 2019,600,The main experiment item,yes,FlankerTest.osexp,/Users/Linzi/Desktop,no,mono,no,18,no,white,no,yes,768,legacy,35,79,/Users/Linzi/Desktop/LM-subject-3f55.csv,legacy,Kafkaesque Koffka,3.2.8,0,s,NA,s,h,NA,s,438,NA,53800,20213,NA,438,2,legacy,1024,2,48000,-16,experiment,HHSHH,3,odd,59558,248276,NA,315834,323059,NA,324848,323585,5740,228057,NA,324975,325420,324822,324975,5700,Flanker Test,112,74479,116,yes,1024
96.58119658,96.58119658,640.8205128,640.8205128,black,legacy,legacy,legacy,0,congruent,uniform,1,undefined,1,s,0,0,0,116,116,0,116,116,0,0,0,116,116,116,116,0,Sun Sep 29 12:35:57 2019,600,The main experiment item,yes,FlankerTest.osexp,/Users/Linzi/Desktop,no,mono,no,18,no,white,no,yes,768,legacy,36,79,/Users/Linzi/Desktop/LM-subject-3f55.csv,legacy,Kafkaesque Koffka,3.2.8,0,s,NA,s,h,NA,s,497,NA,53800,20213,NA,497,2,legacy,1024,2,48000,-16,experiment,SSSSS,3,odd,59558,248276,NA,315834,323059,NA,326713,325452,5740,228057,NA,326840,327344,326687,326840,5700,Flanker Test,113,74976,117,yes,1024
96.61016949,96.61016949,639.3050847,639.3050847,black,legacy,legacy,legacy,0,congruent,uniform,1,undefined,1,h,0,0,0,117,117,0,117,117,0,0,0,117,117,117,117,0,Sun Sep 29 12:35:57 2019,600,The main experiment item,yes,FlankerTest.osexp,/Users/Linzi/Desktop,no,mono,no,18,no,white,no,yes,768,legacy,37,79,/Users/Linzi/Desktop/LM-subject-3f55.csv,legacy,Kafkaesque Koffka,3.2.8,0,h,NA,s,h,NA,h,462,NA,53800,20213,NA,462,2,legacy,1024,2,48000,-16,experiment,HHHHH,3,odd,59558,248276,NA,315834,323059,NA,328640,327375,5740,228057,NA,328766,329235,328613,328766,5700,Flanker Test,114,75438,118,yes,1024
96.63865546,96.63865546,638.7731092,638.7731092,black,legacy,legacy,legacy,0,congruent,uniform,1,undefined,1,s,0,0,0,118,118,0,118,118,0,0,0,118,118,118,118,0,Sun Sep 29 12:35:57 2019,600,The main experiment item,yes,FlankerTest.osexp,/Users/Linzi/Desktop,no,mono,no,18,no,white,no,yes,768,legacy,38,79,/Users/Linzi/Desktop/LM-subject-3f55.csv,legacy,Kafkaesque Koffka,3.2.8,0,s,NA,s,h,NA,s,576,NA,53800,20213,NA,576,2,legacy,1024,2,48000,-16,experiment,SSSSS,3,odd,59558,248276,NA,315834,323059,NA,330531,329267,5740,228057,NA,330657,331241,330503,330657,5700,Flanker Test,115,76014,119,yes,1024
96.66666667,96.66666667,638.0083333,638.0083333,black,legacy,legacy,legacy,0,incongruent,uniform,1,undefined,1,h,0,0,0,119,119,0,119,119,0,0,0,119,119,119,119,0,Sun Sep 29 12:35:57 2019,600,The main experiment item,yes,FlankerTest.osexp,/Users/Linzi/Desktop,no,mono,no,18,no,white,no,yes,768,legacy,39,79,/Users/Linzi/Desktop/LM-subject-3f55.csv,legacy,Kafkaesque Koffka,3.2.8,0,h,NA,s,h,NA,h,547,NA,53800,20213,NA,547,2,legacy,1024,2,48000,-16,experiment,SSHSS,3,odd,59558,248276,NA,315834,323059,NA,332535,331271,5740,228057,NA,332662,333217,332508,332661,5700,Flanker Test,116,76561,120,yes,1024
96.69421488,96.69421488,637.7272727,637.7272727,black,legacy,legacy,legacy,0,incongruent,uniform,1,undefined,1,h,0,0,0,120,120,0,120,120,0,0,0,120,120,120,120,0,Sun Sep 29 12:35:57 2019,600,The main experiment item,yes,FlankerTest.osexp,/Users/Linzi/Desktop,no,mono,no,18,no,white,no,yes,768,legacy,40,79,/Users/Linzi/Desktop/LM-subject-3f55.csv,legacy,Kafkaesque Koffka,3.2.8,0,h,NA,s,h,NA,h,604,NA,53800,20213,NA,604,2,legacy,1024,2,48000,-16,experiment,SSHSS,3,odd,59558,248276,NA,315834,323059,NA,334513,333249,5740,228057,NA,334639,335251,334486,334639,5700,Flanker Test,117,77165,121,yes,1024
96.72131148,96.72131148,637.2704918,637.2704918,black,legacy,legacy,legacy,0,incongruent,uniform,1,undefined,1,h,0,0,0,121,121,0,121,121,0,0,0,121,121,121,121,0,Sun Sep 29 12:35:57 2019,600,The main experiment item,yes,FlankerTest.osexp,/Users/Linzi/Desktop,no,mono,no,18,no,white,no,yes,768,legacy,41,79,/Users/Linzi/Desktop/LM-subject-3f55.csv,legacy,Kafkaesque Koffka,3.2.8,0,h,NA,s,h,NA,h,582,NA,53800,20213,NA,582,2,legacy,1024,2,48000,-16,experiment,SSHSS,3,odd,59558,248276,NA,315834,335282,NA,337071,335808,5740,228057,NA,337197,337786,337044,337197,5700,Flanker Test,118,77747,122,yes,1024
96.74796748,96.74796748,636.1138211,636.1138211,black,legacy,legacy,legacy,0,congruent,uniform,1,undefined,1,h,0,0,0,122,122,0,122,122,0,0,0,122,122,122,122,0,Sun Sep 29 12:35:57 2019,600,The main experiment item,yes,FlankerTest.osexp,/Users/Linzi/Desktop,no,mono,no,18,no,white,no,yes,768,legacy,42,79,/Users/Linzi/Desktop/LM-subject-3f55.csv,legacy,Kafkaesque Koffka,3.2.8,0,h,NA,s,h,NA,h,495,NA,53800,20213,NA,495,2,legacy,1024,2,48000,-16,experiment,HHHHH,3,odd,59558,248276,NA,315834,335282,NA,339084,337818,5740,228057,NA,339210,339712,339056,339210,5700,Flanker Test,119,78242,123,yes,1024
96.77419355,96.77419355,634.8064516,634.8064516,black,legacy,legacy,legacy,0,congruent,uniform,1,undefined,1,h,0,0,0,123,123,0,123,123,0,0,0,123,123,123,123,0,Sun Sep 29 12:35:57 2019,600,The main experiment item,yes,FlankerTest.osexp,/Users/Linzi/Desktop,no,mono,no,18,no,white,no,yes,768,legacy,43,79,/Users/Linzi/Desktop/LM-subject-3f55.csv,legacy,Kafkaesque Koffka,3.2.8,0,h,NA,s,h,NA,h,474,NA,53800,20213,NA,474,2,legacy,1024,2,48000,-16,experiment,HHHHH,3,odd,59558,248276,NA,315834,335282,NA,341009,339745,5740,228057,NA,341136,341618,340983,341136,5700,Flanker Test,120,78716,124,yes,1024
96.8,96.8,633.744,633.744,black,legacy,legacy,legacy,0,congruent,uniform,1,undefined,1,h,0,0,0,124,124,0,124,124,0,0,0,124,124,124,124,0,Sun Sep 29 12:35:57 2019,600,The main experiment item,yes,FlankerTest.osexp,/Users/Linzi/Desktop,no,mono,no,18,no,white,no,yes,768,legacy,44,79,/Users/Linzi/Desktop/LM-subject-3f55.csv,legacy,Kafkaesque Koffka,3.2.8,0,h,NA,s,h,NA,h,502,NA,53800,20213,NA,502,2,legacy,1024,2,48000,-16,experiment,HHHHH,3,odd,59558,248276,NA,315834,335282,NA,342915,341649,5740,228057,NA,343041,343551,342888,343041,5700,Flanker Test,121,79218,125,yes,1024
96.03174603,96.03174603,631.952381,631.952381,black,legacy,legacy,legacy,0,incongruent,uniform,0,undefined,0,h,0,0,0,125,125,0,125,125,0,0,0,125,125,125,125,0,Sun Sep 29 12:35:57 2019,600,The main experiment item,yes,FlankerTest.osexp,/Users/Linzi/Desktop,no,mono,no,18,no,white,no,yes,768,legacy,45,79,/Users/Linzi/Desktop/LM-subject-3f55.csv,legacy,Kafkaesque Koffka,3.2.8,0,s,NA,s,h,NA,s,408,NA,53800,20213,NA,408,2,legacy,1024,2,48000,-16,experiment,SSHSS,3,odd,59558,248276,NA,315834,335282,NA,344846,343583,5740,228057,NA,344974,345389,344820,344973,5700,Flanker Test,121,79626,126,yes,1024
96.06299213,96.06299213,635.4566929,635.4566929,black,legacy,legacy,legacy,0,incongruent,uniform,1,undefined,1,s,0,0,0,126,126,0,126,126,0,0,0,126,126,126,126,0,Sun Sep 29 12:35:57 2019,600,The main experiment item,yes,FlankerTest.osexp,/Users/Linzi/Desktop,no,mono,no,18,no,white,no,yes,768,legacy,46,79,/Users/Linzi/Desktop/LM-subject-3f55.csv,legacy,Kafkaesque Koffka,3.2.8,0,s,NA,s,h,NA,s,1077,NA,53800,20213,NA,1077,2,legacy,1024,2,48000,-16,experiment,HHSHH,3,odd,59558,248276,NA,345421,335282,NA,347210,345947,5740,228057,NA,347337,348421,347184,347337,5700,Flanker Test,122,80703,127,yes,1024
96.09375,96.09375,634.3828125,634.3828125,black,legacy,legacy,legacy,0,incongruent,uniform,1,undefined,1,h,0,0,0,127,127,0,127,127,0,0,0,127,127,127,127,0,Sun Sep 29 12:35:57 2019,600,The main experiment item,yes,FlankerTest.osexp,/Users/Linzi/Desktop,no,mono,no,18,no,white,no,yes,768,legacy,47,79,/Users/Linzi/Desktop/LM-subject-3f55.csv,legacy,Kafkaesque Koffka,3.2.8,0,h,NA,s,h,NA,h,498,NA,53800,20213,NA,498,2,legacy,1024,2,48000,-16,experiment,SSHSS,3,odd,59558,248276,NA,345421,348453,NA,350243,348980,5740,228057,NA,350370,350876,350217,350369,5700,Flanker Test,123,81201,128,yes,1024
96.12403101,96.12403101,634.0852713,634.0852713,black,legacy,legacy,legacy,0,congruent,uniform,1,undefined,1,s,0,0,0,128,128,0,128,128,0,0,0,128,128,128,128,0,Sun Sep 29 12:35:57 2019,600,The main experiment item,yes,FlankerTest.osexp,/Users/Linzi/Desktop,no,mono,no,18,no,white,no,yes,768,legacy,48,79,/Users/Linzi/Desktop/LM-subject-3f55.csv,legacy,Kafkaesque Koffka,3.2.8,0,s,NA,s,h,NA,s,596,NA,53800,20213,NA,596,2,legacy,1024,2,48000,-16,experiment,SSSSS,3,odd,59558,248276,NA,345421,348453,NA,352168,350907,5740,228057,NA,352295,352898,352141,352295,5700,Flanker Test,124,81797,129,yes,1024
96.15384615,96.15384615,633.0692308,633.0692308,black,legacy,legacy,legacy,0,congruent,uniform,1,undefined,1,h,0,0,0,129,129,0,129,129,0,0,0,129,129,129,129,0,Sun Sep 29 12:35:57 2019,600,The main experiment item,yes,FlankerTest.osexp,/Users/Linzi/Desktop,no,mono,no,18,no,white,no,yes,768,legacy,49,79,/Users/Linzi/Desktop/LM-subject-3f55.csv,legacy,Kafkaesque Koffka,3.2.8,0,h,NA,s,h,NA,h,502,NA,53800,20213,NA,502,2,legacy,1024,2,48000,-16,experiment,HHHHH,3,odd,59558,248276,NA,345421,348453,NA,354193,352930,5740,228057,NA,354320,354830,354167,354320,5700,Flanker Test,125,82299,130,yes,1024
96.18320611,96.18320611,632.3435115,632.3435115,black,legacy,legacy,legacy,0,congruent,uniform,1,undefined,1,h,0,0,0,130,130,0,130,130,0,0,0,130,130,130,130,0,Sun Sep 29 12:35:57 2019,600,The main experiment item,yes,FlankerTest.osexp,/Users/Linzi/Desktop,no,mono,no,18,no,white,no,yes,768,legacy,50,79,/Users/Linzi/Desktop/LM-subject-3f55.csv,legacy,Kafkaesque Koffka,3.2.8,0,h,NA,s,h,NA,h,538,NA,53800,20213,NA,538,2,legacy,1024,2,48000,-16,experiment,HHHHH,3,odd,59558,248276,NA,345421,348453,NA,356128,354863,5740,228057,NA,356254,356800,356101,356254,5700,Flanker Test,126,82837,131,yes,1024
96.21212121,96.21212121,632.2424242,632.2424242,black,legacy,legacy,legacy,0,incongruent,uniform,1,undefined,1,s,0,0,0,131,131,0,131,131,0,0,0,131,131,131,131,0,Sun Sep 29 12:35:57 2019,600,The main experiment item,yes,FlankerTest.osexp,/Users/Linzi/Desktop,no,mono,no,18,no,white,no,yes,768,legacy,51,79,/Users/Linzi/Desktop/LM-subject-3f55.csv,legacy,Kafkaesque Koffka,3.2.8,0,s,NA,s,h,NA,s,619,NA,53800,20213,NA,619,2,legacy,1024,2,48000,-16,experiment,HHSHH,3,odd,59558,248276,NA,345421,348453,NA,358095,356831,5740,228057,NA,358221,358847,358067,358221,5700,Flanker Test,127,83456,132,yes,1024
96.2406015,96.2406015,631.9398496,631.9398496,black,legacy,legacy,legacy,0,congruent,uniform,1,undefined,1,h,0,0,0,132,132,0,132,132,0,0,0,132,132,132,132,0,Sun Sep 29 12:35:57 2019,600,The main experiment item,yes,FlankerTest.osexp,/Users/Linzi/Desktop,no,mono,no,18,no,white,no,yes,768,legacy,52,79,/Users/Linzi/Desktop/LM-subject-3f55.csv,legacy,Kafkaesque Koffka,3.2.8,0,h,NA,s,h,NA,h,592,NA,53800,20213,NA,592,2,legacy,1024,2,48000,-16,experiment,HHHHH,3,odd,59558,248276,NA,345421,358879,NA,360669,359406,5740,228057,NA,360795,361395,360642,360795,5700,Flanker Test,128,84048,133,yes,1024
95.52238806,95.52238806,630.7686567,630.7686567,black,legacy,legacy,legacy,0,incongruent,uniform,0,undefined,0,s,0,0,0,133,133,0,133,133,0,0,0,133,133,133,133,0,Sun Sep 29 12:35:57 2019,600,The main experiment item,yes,FlankerTest.osexp,/Users/Linzi/Desktop,no,mono,no,18,no,white,no,yes,768,legacy,53,79,/Users/Linzi/Desktop/LM-subject-3f55.csv,legacy,Kafkaesque Koffka,3.2.8,0,h,NA,s,h,NA,h,475,NA,53800,20213,NA,475,2,legacy,1024,2,48000,-16,experiment,HHSHH,3,odd,59558,248276,NA,345421,358879,NA,362691,361427,5740,228057,NA,362817,363300,362664,362817,5700,Flanker Test,128,84523,134,yes,1024
95.55555556,95.55555556,630.6074074,630.6074074,black,legacy,legacy,legacy,0,congruent,uniform,1,undefined,1,s,0,0,0,134,134,0,134,134,0,0,0,134,134,134,134,0,Sun Sep 29 12:35:57 2019,600,The main experiment item,yes,FlankerTest.osexp,/Users/Linzi/Desktop,no,mono,no,18,no,white,no,yes,768,legacy,54,79,/Users/Linzi/Desktop/LM-subject-3f55.csv,legacy,Kafkaesque Koffka,3.2.8,0,s,NA,s,h,NA,s,609,NA,53800,20213,NA,609,2,legacy,1024,2,48000,-16,experiment,SSSSS,3,odd,59558,248276,NA,363332,358879,NA,365121,363858,5740,228057,NA,365248,365864,365095,365248,5700,Flanker Test,129,85132,135,yes,1024
95.58823529,95.58823529,631.1102941,631.1102941,black,legacy,legacy,legacy,0,incongruent,uniform,1,undefined,1,h,0,0,0,135,135,0,135,135,0,0,0,135,135,135,135,0,Sun Sep 29 12:35:57 2019,600,The main experiment item,yes,FlankerTest.osexp,/Users/Linzi/Desktop,no,mono,no,18,no,white,no,yes,768,legacy,55,79,/Users/Linzi/Desktop/LM-subject-3f55.csv,legacy,Kafkaesque Koffka,3.2.8,0,h,NA,s,h,NA,h,699,NA,53800,20213,NA,699,2,legacy,1024,2,48000,-16,experiment,SSHSS,3,odd,59558,248276,NA,363332,365896,NA,367685,366422,5740,228057,NA,367812,368519,367659,367812,5700,Flanker Test,130,85831,136,yes,1024
95.62043796,95.62043796,630.4963504,630.4963504,black,legacy,legacy,legacy,0,incongruent,uniform,1,undefined,1,h,0,0,0,136,136,0,136,136,0,0,0,136,136,136,136,0,Sun Sep 29 12:35:57 2019,600,The main experiment item,yes,FlankerTest.osexp,/Users/Linzi/Desktop,no,mono,no,18,no,white,no,yes,768,legacy,56,79,/Users/Linzi/Desktop/LM-subject-3f55.csv,legacy,Kafkaesque Koffka,3.2.8,0,h,NA,s,h,NA,h,547,NA,53800,20213,NA,547,2,legacy,1024,2,48000,-16,experiment,SSHSS,3,odd,59558,248276,NA,363332,368551,NA,370343,369079,5740,228057,NA,370470,371025,370317,370470,5700,Flanker Test,131,86378,137,yes,1024
95.65217391,95.65217391,630.057971,630.057971,black,legacy,legacy,legacy,0,incongruent,uniform,1,undefined,1,s,0,0,0,137,137,0,137,137,0,0,0,137,137,137,137,0,Sun Sep 29 12:35:57 2019,600,The main experiment item,yes,FlankerTest.osexp,/Users/Linzi/Desktop,no,mono,no,18,no,white,no,yes,768,legacy,57,79,/Users/Linzi/Desktop/LM-subject-3f55.csv,legacy,Kafkaesque Koffka,3.2.8,0,s,NA,s,h,NA,s,570,NA,53800,20213,NA,570,2,legacy,1024,2,48000,-16,experiment,HHSHH,3,odd,59558,248276,NA,363332,368551,NA,372322,371057,5740,228057,NA,372449,373027,372295,372449,5700,Flanker Test,132,86948,138,yes,1024
95.68345324,95.68345324,628.4676259,628.4676259,black,legacy,legacy,legacy,0,congruent,uniform,1,undefined,1,h,0,0,0,138,138,0,138,138,0,0,0,138,138,138,138,0,Sun Sep 29 12:35:57 2019,600,The main experiment item,yes,FlankerTest.osexp,/Users/Linzi/Desktop,no,mono,no,18,no,white,no,yes,768,legacy,58,79,/Users/Linzi/Desktop/LM-subject-3f55.csv,legacy,Kafkaesque Koffka,3.2.8,0,h,NA,s,h,NA,h,409,NA,53800,20213,NA,409,2,legacy,1024,2,48000,-16,experiment,HHHHH,3,odd,59558,248276,NA,363332,368551,NA,374325,373059,5740,228057,NA,374451,374868,374298,374451,5700,Flanker Test,133,87357,139,yes,1024
95.71428571,95.71428571,628.5071429,628.5071429,black,legacy,legacy,legacy,0,incongruent,uniform,1,undefined,1,s,0,0,0,139,139,0,139,139,0,0,0,139,139,139,139,0,Sun Sep 29 12:35:57 2019,600,The main experiment item,yes,FlankerTest.osexp,/Users/Linzi/Desktop,no,mono,no,18,no,white,no,yes,768,legacy,59,79,/Users/Linzi/Desktop/LM-subject-3f55.csv,legacy,Kafkaesque Koffka,3.2.8,0,s,NA,s,h,NA,s,634,NA,53800,20213,NA,634,2,legacy,1024,2,48000,-16,experiment,HHSHH,3,odd,59558,248276,NA,363332,368551,NA,376165,374901,5740,228057,NA,376291,376933,376138,376291,5700,Flanker Test,134,87991,140,yes,1024
95.74468085,95.74468085,628.8085106,628.8085106,black,legacy,legacy,legacy,0,incongruent,uniform,1,undefined,1,h,0,0,0,140,140,0,140,140,0,0,0,140,140,140,140,0,Sun Sep 29 12:35:57 2019,600,The main experiment item,yes,FlankerTest.osexp,/Users/Linzi/Desktop,no,mono,no,18,no,white,no,yes,768,legacy,60,79,/Users/Linzi/Desktop/LM-subject-3f55.csv,legacy,Kafkaesque Koffka,3.2.8,0,h,NA,s,h,NA,h,671,NA,53800,20213,NA,671,2,legacy,1024,2,48000,-16,experiment,SSHSS,3,odd,59558,248276,NA,363332,376964,NA,378754,377490,5740,228057,NA,378880,379559,378727,378880,5700,Flanker Test,135,88662,141,yes,1024
95.77464789,95.77464789,628.0915493,628.0915493,black,legacy,legacy,legacy,0,incongruent,uniform,1,undefined,1,h,0,0,0,141,141,0,141,141,0,0,0,141,141,141,141,0,Sun Sep 29 12:35:57 2019,600,The main experiment item,yes,FlankerTest.osexp,/Users/Linzi/Desktop,no,mono,no,18,no,white,no,yes,768,legacy,61,79,/Users/Linzi/Desktop/LM-subject-3f55.csv,legacy,Kafkaesque Koffka,3.2.8,0,h,NA,s,h,NA,h,527,NA,53800,20213,NA,527,2,legacy,1024,2,48000,-16,experiment,SSHSS,3,odd,59558,248276,NA,363332,379592,NA,381382,380118,5740,228057,NA,381508,382043,381355,381508,5700,Flanker Test,136,89189,142,yes,1024
95.1048951,95.1048951,627.8321678,627.8321678,black,legacy,legacy,legacy,0,congruent,uniform,0,undefined,0,s,0,0,0,142,142,0,142,142,0,0,0,142,142,142,142,0,Sun Sep 29 12:35:57 2019,600,The main experiment item,yes,FlankerTest.osexp,/Users/Linzi/Desktop,no,mono,no,18,no,white,no,yes,768,legacy,62,79,/Users/Linzi/Desktop/LM-subject-3f55.csv,legacy,Kafkaesque Koffka,3.2.8,0,h,NA,s,h,NA,h,591,NA,53800,20213,NA,591,2,legacy,1024,2,48000,-16,experiment,SSSSS,3,odd,59558,248276,NA,363332,379592,NA,383338,382076,5740,228057,NA,383465,384064,383312,383465,5700,Flanker Test,136,89780,143,yes,1024
95.13888889,95.13888889,627.5138889,627.5138889,black,legacy,legacy,legacy,0,congruent,uniform,1,undefined,1,h,0,0,0,143,143,0,143,143,0,0,0,143,143,143,143,0,Sun Sep 29 12:35:57 2019,600,The main experiment item,yes,FlankerTest.osexp,/Users/Linzi/Desktop,no,mono,no,18,no,white,no,yes,768,legacy,63,79,/Users/Linzi/Desktop/LM-subject-3f55.csv,legacy,Kafkaesque Koffka,3.2.8,0,h,NA,s,h,NA,h,582,NA,53800,20213,NA,582,2,legacy,1024,2,48000,-16,experiment,HHHHH,3,odd,59558,248276,NA,384105,379592,NA,385896,384632,5740,228057,NA,386021,386611,385870,386021,5700,Flanker Test,137,90362,144,yes,1024
95.17241379,95.17241379,627.4275862,627.4275862,black,legacy,legacy,legacy,0,congruent,uniform,1,undefined,1,s,0,0,0,144,144,0,144,144,0,0,0,144,144,144,144,0,Sun Sep 29 12:35:57 2019,600,The main experiment item,yes,FlankerTest.osexp,/Users/Linzi/Desktop,no,mono,no,18,no,white,no,yes,768,legacy,64,79,/Users/Linzi/Desktop/LM-subject-3f55.csv,legacy,Kafkaesque Koffka,3.2.8,0,s,NA,s,h,NA,s,615,NA,53800,20213,NA,615,2,legacy,1024,2,48000,-16,experiment,SSSSS,3,odd,59558,248276,NA,384105,379592,NA,387909,386645,5740,228057,NA,388037,388661,387882,388036,5700,Flanker Test,138,90977,145,yes,1024
95.20547945,95.20547945,627.2260274,627.2260274,black,legacy,legacy,legacy,0,incongruent,uniform,1,undefined,1,h,0,0,0,145,145,0,145,145,0,0,0,145,145,145,145,0,Sun Sep 29 12:35:57 2019,600,The main experiment item,yes,FlankerTest.osexp,/Users/Linzi/Desktop,no,mono,no,18,no,white,no,yes,768,legacy,65,79,/Users/Linzi/Desktop/LM-subject-3f55.csv,legacy,Kafkaesque Koffka,3.2.8,0,h,NA,s,h,NA,h,598,NA,53800,20213,NA,598,2,legacy,1024,2,48000,-16,experiment,SSHSS,3,odd,59558,248276,NA,384105,388692,NA,390482,389219,5740,228057,NA,390608,391214,390455,390608,5700,Flanker Test,139,91575,146,yes,1024
95.23809524,95.23809524,626,626,black,legacy,legacy,legacy,0,congruent,uniform,1,undefined,1,s,0,0,0,146,146,0,146,146,0,0,0,146,146,146,146,0,Sun Sep 29 12:35:57 2019,600,The main experiment item,yes,FlankerTest.osexp,/Users/Linzi/Desktop,no,mono,no,18,no,white,no,yes,768,legacy,66,79,/Users/Linzi/Desktop/LM-subject-3f55.csv,legacy,Kafkaesque Koffka,3.2.8,0,s,NA,s,h,NA,s,447,NA,53800,20213,NA,447,2,legacy,1024,2,48000,-16,experiment,SSSSS,3,odd,59558,248276,NA,384105,388692,NA,392510,391246,5740,228057,NA,392636,393091,392483,392636,5700,Flanker Test,140,92022,147,yes,1024
95.27027027,95.27027027,626.2162162,626.2162162,black,legacy,legacy,legacy,0,congruent,uniform,1,undefined,1,s,0,0,0,147,147,0,147,147,0,0,0,147,147,147,147,0,Sun Sep 29 12:35:57 2019,600,The main experiment item,yes,FlankerTest.osexp,/Users/Linzi/Desktop,no,mono,no,18,no,white,no,yes,768,legacy,67,79,/Users/Linzi/Desktop/LM-subject-3f55.csv,legacy,Kafkaesque Koffka,3.2.8,0,s,NA,s,h,NA,s,658,NA,53800,20213,NA,658,2,legacy,1024,2,48000,-16,experiment,SSSSS,3,odd,59558,248276,NA,384105,388692,NA,394384,393122,5740,228057,NA,394511,395177,394358,394511,5700,Flanker Test,141,92680,148,yes,1024
95.30201342,95.30201342,626.0671141,626.0671141,black,legacy,legacy,legacy,0,congruent,uniform,1,undefined,1,h,0,0,0,148,148,0,148,148,0,0,0,148,148,148,148,0,Sun Sep 29 12:35:57 2019,600,The main experiment item,yes,FlankerTest.osexp,/Users/Linzi/Desktop,no,mono,no,18,no,white,no,yes,768,legacy,68,79,/Users/Linzi/Desktop/LM-subject-3f55.csv,legacy,Kafkaesque Koffka,3.2.8,0,h,NA,s,h,NA,h,604,NA,53800,20213,NA,604,2,legacy,1024,2,48000,-16,experiment,HHHHH,3,odd,59558,248276,NA,384105,395209,NA,397000,395736,5740,228057,NA,397126,397738,396974,397126,5700,Flanker Test,142,93284,149,yes,1024
95.33333333,95.33333333,624.98,624.98,black,legacy,legacy,legacy,0,congruent,uniform,1,undefined,1,h,0,0,0,149,149,0,149,149,0,0,0,149,149,149,149,0,Sun Sep 29 12:35:57 2019,600,The main experiment item,yes,FlankerTest.osexp,/Users/Linzi/Desktop,no,mono,no,18,no,white,no,yes,768,legacy,69,79,/Users/Linzi/Desktop/LM-subject-3f55.csv,legacy,Kafkaesque Koffka,3.2.8,0,h,NA,s,h,NA,h,463,NA,53800,20213,NA,463,2,legacy,1024,2,48000,-16,experiment,HHHHH,3,odd,59558,248276,NA,384105,397771,NA,399562,398298,5740,228057,NA,399689,400160,399535,399689,5700,Flanker Test,143,93747,150,yes,1024
95.36423841,95.36423841,624.3708609,624.3708609,black,legacy,legacy,legacy,0,congruent,uniform,1,undefined,1,s,0,0,0,150,150,0,150,150,0,0,0,150,150,150,150,0,Sun Sep 29 12:35:57 2019,600,The main experiment item,yes,FlankerTest.osexp,/Users/Linzi/Desktop,no,mono,no,18,no,white,no,yes,768,legacy,70,79,/Users/Linzi/Desktop/LM-subject-3f55.csv,legacy,Kafkaesque Koffka,3.2.8,0,s,NA,s,h,NA,s,533,NA,53800,20213,NA,533,2,legacy,1024,2,48000,-16,experiment,SSSSS,3,odd,59558,248276,NA,384105,397771,NA,401454,400192,5740,228057,NA,401580,402121,401427,401580,5700,Flanker Test,144,94280,151,yes,1024
95.39473684,95.39473684,623.0394737,623.0394737,black,legacy,legacy,legacy,0,incongruent,uniform,1,undefined,1,h,0,0,0,151,151,0,151,151,0,0,0,151,151,151,151,0,Sun Sep 29 12:35:57 2019,600,The main experiment item,yes,FlankerTest.osexp,/Users/Linzi/Desktop,no,mono,no,18,no,white,no,yes,768,legacy,71,79,/Users/Linzi/Desktop/LM-subject-3f55.csv,legacy,Kafkaesque Koffka,3.2.8,0,h,NA,s,h,NA,h,422,NA,53800,20213,NA,422,2,legacy,1024,2,48000,-16,experiment,SSHSS,3,odd,59558,248276,NA,384105,397771,NA,403415,402152,5740,228057,NA,403541,403971,403388,403541,5700,Flanker Test,145,94702,152,yes,1024
95.4248366,95.4248366,621.8235294,621.8235294,black,legacy,legacy,legacy,0,congruent,uniform,1,undefined,1,s,0,0,0,152,152,0,152,152,0,0,0,152,152,152,152,0,Sun Sep 29 12:35:57 2019,600,The main experiment item,yes,FlankerTest.osexp,/Users/Linzi/Desktop,no,mono,no,18,no,white,no,yes,768,legacy,72,79,/Users/Linzi/Desktop/LM-subject-3f55.csv,legacy,Kafkaesque Koffka,3.2.8,0,s,NA,s,h,NA,s,437,NA,53800,20213,NA,437,2,legacy,1024,2,48000,-16,experiment,SSSSS,3,odd,59558,248276,NA,384105,397771,NA,405266,404002,5740,228057,NA,405392,405837,405239,405392,5700,Flanker Test,146,95139,153,yes,1024
94.80519481,94.80519481,621.1688312,621.1688312,black,legacy,legacy,legacy,0,incongruent,uniform,0,undefined,0,s,0,0,0,153,153,0,153,153,0,0,0,153,153,153,153,0,Sun Sep 29 12:35:57 2019,600,The main experiment item,yes,FlankerTest.osexp,/Users/Linzi/Desktop,no,mono,no,18,no,white,no,yes,768,legacy,73,79,/Users/Linzi/Desktop/LM-subject-3f55.csv,legacy,Kafkaesque Koffka,3.2.8,0,h,NA,s,h,NA,h,521,NA,53800,20213,NA,521,2,legacy,1024,2,48000,-16,experiment,HHSHH,3,odd,59558,248276,NA,384105,397771,NA,407134,405868,5740,228057,NA,407261,407791,407107,407261,5700,Flanker Test,146,95660,154,yes,1024
94.83870968,94.83870968,620.7806452,620.7806452,black,legacy,legacy,legacy,0,incongruent,uniform,1,undefined,1,s,0,0,0,154,154,0,154,154,0,0,0,154,154,154,154,0,Sun Sep 29 12:35:57 2019,600,The main experiment item,yes,FlankerTest.osexp,/Users/Linzi/Desktop,no,mono,no,18,no,white,no,yes,768,legacy,74,79,/Users/Linzi/Desktop/LM-subject-3f55.csv,legacy,Kafkaesque Koffka,3.2.8,0,s,NA,s,h,NA,s,561,NA,53800,20213,NA,561,2,legacy,1024,2,48000,-16,experiment,HHSHH,3,odd,59558,248276,NA,407823,397771,NA,409614,408350,5740,228057,NA,409740,410309,409588,409740,5700,Flanker Test,147,96221,155,yes,1024
94.87179487,94.87179487,620.8205128,620.8205128,black,legacy,legacy,legacy,0,congruent,uniform,1,undefined,1,s,0,0,0,155,155,0,155,155,0,0,0,155,155,155,155,0,Sun Sep 29 12:35:57 2019,600,The main experiment item,yes,FlankerTest.osexp,/Users/Linzi/Desktop,no,mono,no,18,no,white,no,yes,768,legacy,75,79,/Users/Linzi/Desktop/LM-subject-3f55.csv,legacy,Kafkaesque Koffka,3.2.8,0,s,NA,s,h,NA,s,627,NA,53800,20213,NA,627,2,legacy,1024,2,48000,-16,experiment,SSSSS,3,odd,59558,248276,NA,407823,397771,NA,411604,410340,5740,228057,NA,411731,412367,411577,411730,5700,Flanker Test,148,96848,156,yes,1024
94.9044586,94.9044586,620.8471338,620.8471338,black,legacy,legacy,legacy,0,incongruent,uniform,1,undefined,1,s,0,0,0,156,156,0,156,156,0,0,0,156,156,156,156,0,Sun Sep 29 12:35:57 2019,600,The main experiment item,yes,FlankerTest.osexp,/Users/Linzi/Desktop,no,mono,no,18,no,white,no,yes,768,legacy,76,79,/Users/Linzi/Desktop/LM-subject-3f55.csv,legacy,Kafkaesque Koffka,3.2.8,0,s,NA,s,h,NA,s,625,NA,53800,20213,NA,625,2,legacy,1024,2,48000,-16,experiment,HHSHH,3,odd,59558,248276,NA,407823,412398,NA,414189,412924,5740,228057,NA,414315,414949,414162,414315,5700,Flanker Test,149,97473,157,yes,1024
94.93670886,94.93670886,619.6012658,619.6012658,black,legacy,legacy,legacy,0,congruent,uniform,1,undefined,1,s,0,0,0,157,157,0,157,157,0,0,0,157,157,157,157,0,Sun Sep 29 12:35:57 2019,600,The main experiment item,yes,FlankerTest.osexp,/Users/Linzi/Desktop,no,mono,no,18,no,white,no,yes,768,legacy,77,79,/Users/Linzi/Desktop/LM-subject-3f55.csv,legacy,Kafkaesque Koffka,3.2.8,0,s,NA,s,h,NA,s,424,NA,53800,20213,NA,424,2,legacy,1024,2,48000,-16,experiment,SSSSS,3,odd,59558,248276,NA,407823,414981,NA,416770,415507,5740,228057,NA,416896,417329,416743,416896,5700,Flanker Test,150,97897,158,yes,1024
94.96855346,94.96855346,619.9056604,619.9056604,black,legacy,legacy,legacy,0,incongruent,uniform,1,undefined,1,s,0,0,0,158,158,0,158,158,0,0,0,158,158,158,158,0,Sun Sep 29 12:35:57 2019,600,The main experiment item,yes,FlankerTest.osexp,/Users/Linzi/Desktop,no,mono,no,18,no,white,no,yes,768,legacy,78,79,/Users/Linzi/Desktop/LM-subject-3f55.csv,legacy,Kafkaesque Koffka,3.2.8,0,s,NA,s,h,NA,s,668,NA,53800,20213,NA,668,2,legacy,1024,2,48000,-16,experiment,HHSHH,3,odd,59558,248276,NA,407823,414981,NA,418624,417360,5740,228057,NA,418751,419428,418598,418751,5700,Flanker Test,151,98565,159,yes,1024
94.375,94.375,618.00625,618.00625,black,legacy,legacy,legacy,0,incongruent,uniform,0,undefined,0,h,0,0,0,159,159,0,159,159,0,0,0,159,159,159,159,0,Sun Sep 29 12:35:57 2019,600,The main experiment item,yes,FlankerTest.osexp,/Users/Linzi/Desktop,no,mono,no,18,no,white,no,yes,768,legacy,79,79,/Users/Linzi/Desktop/LM-subject-3f55.csv,legacy,Kafkaesque Koffka,3.2.8,0,s,NA,s,h,NA,s,316,NA,53800,20213,NA,316,2,legacy,1024,2,48000,-16,experiment,SSHSS,3,odd,59558,248276,NA,407823,419459,NA,421249,419986,5740,228057,NA,421375,421700,421222,421375,5700,Flanker Test,151,98881,160,yes,1024
94.40993789,94.40993789,617.3416149,617.3416149,black,legacy,legacy,legacy,0,congruent,uniform,1,undefined,1,h,0,0,0,160,160,0,160,160,0,0,0,160,160,160,160,0,Sun Sep 29 12:35:57 2019,300,The main experiment item,yes,FlankerTest.osexp,/Users/Linzi/Desktop,no,mono,no,18,no,white,no,yes,768,legacy,0,79,/Users/Linzi/Desktop/LM-subject-3f55.csv,legacy,Kafkaesque Koffka,3.2.8,0,h,NA,s,h,h,h,511,NA,53800,20213,15530,511,2,legacy,1024,2,48000,-16,experiment,HHHHH,3,odd,59558,248276,438871,421731,419459,NA,439117,422257,5740,228057,423333,439243,439762,439090,439243,5700,Flanker Test,152,99392,161,yes,1024
94.44444444,94.44444444,616.2654321,616.2654321,black,legacy,legacy,legacy,0,congruent,uniform,1,undefined,1,h,0,0,0,161,161,0,161,161,0,0,0,161,161,161,161,0,Sun Sep 29 12:35:57 2019,300,The main experiment item,yes,FlankerTest.osexp,/Users/Linzi/Desktop,no,mono,no,18,no,white,no,yes,768,legacy,1,79,/Users/Linzi/Desktop/LM-subject-3f55.csv,legacy,Kafkaesque Koffka,3.2.8,0,h,NA,s,h,h,h,443,NA,53800,20213,15530,443,2,legacy,1024,2,48000,-16,experiment,HHHHH,3,odd,59558,248276,438871,421731,439793,NA,441582,440319,5740,228057,423333,441709,442160,441556,441709,5700,Flanker Test,153,99835,162,yes,1024
93.86503067,93.86503067,614.5582822,614.5582822,black,legacy,legacy,legacy,0,congruent,uniform,0,undefined,0,s,0,0,0,162,162,0,162,162,0,0,0,162,162,162,162,0,Sun Sep 29 12:35:57 2019,300,The main experiment item,yes,FlankerTest.osexp,/Users/Linzi/Desktop,no,mono,no,18,no,white,no,yes,768,legacy,2,79,/Users/Linzi/Desktop/LM-subject-3f55.csv,legacy,Kafkaesque Koffka,3.2.8,0,h,NA,s,h,h,h,338,NA,53800,20213,15530,338,2,legacy,1024,2,48000,-16,experiment,SSSSS,3,odd,59558,248276,438871,421731,442191,NA,443975,442717,5740,228057,423333,444104,444450,443948,444103,5700,Flanker Test,153,100173,163,yes,1024
93.90243902,93.90243902,614.2682927,614.2682927,black,legacy,legacy,legacy,0,congruent,uniform,1,undefined,1,s,0,0,0,163,163,0,163,163,0,0,0,163,163,163,163,0,Sun Sep 29 12:35:57 2019,300,The main experiment item,yes,FlankerTest.osexp,/Users/Linzi/Desktop,no,mono,no,18,no,white,no,yes,768,legacy,3,79,/Users/Linzi/Desktop/LM-subject-3f55.csv,legacy,Kafkaesque Koffka,3.2.8,0,s,NA,s,h,h,s,567,NA,53800,20213,15530,567,2,legacy,1024,2,48000,-16,experiment,SSSSS,3,odd,59558,248276,438871,444482,445007,NA,446790,445533,5740,228057,423333,446917,447493,446764,446917,5700,Flanker Test,154,100740,164,yes,1024
93.93939394,93.93939394,612.9757576,612.9757576,black,legacy,legacy,legacy,0,incongruent,uniform,1,undefined,1,h,0,0,0,164,164,0,164,164,0,0,0,164,164,164,164,0,Sun Sep 29 12:35:57 2019,300,The main experiment item,yes,FlankerTest.osexp,/Users/Linzi/Desktop,no,mono,no,18,no,white,no,yes,768,legacy,4,79,/Users/Linzi/Desktop/LM-subject-3f55.csv,legacy,Kafkaesque Koffka,3.2.8,0,h,NA,s,h,h,h,401,NA,53800,20213,15530,401,2,legacy,1024,2,48000,-16,experiment,SSHSS,3,odd,59558,248276,438871,444482,447523,NA,449312,448051,5740,228057,423333,449438,449848,449285,449438,5700,Flanker Test,155,101141,165,yes,1024
93.97590361,93.97590361,612.126506,612.126506,black,legacy,legacy,legacy,0,congruent,uniform,1,undefined,1,h,0,0,0,165,165,0,165,165,0,0,0,165,165,165,165,0,Sun Sep 29 12:35:57 2019,300,The main experiment item,yes,FlankerTest.osexp,/Users/Linzi/Desktop,no,mono,no,18,no,white,no,yes,768,legacy,5,79,/Users/Linzi/Desktop/LM-subject-3f55.csv,legacy,Kafkaesque Koffka,3.2.8,0,h,NA,s,h,h,h,472,NA,53800,20213,15530,472,2,legacy,1024,2,48000,-16,experiment,HHHHH,3,odd,59558,248276,438871,444482,449879,NA,451663,450405,5740,228057,423333,451789,452270,451637,451789,5700,Flanker Test,156,101613,166,yes,1024
93.41317365,93.41317365,610.6167665,610.6167665,black,legacy,legacy,legacy,0,incongruent,uniform,0,undefined,0,s,0,0,0,166,166,0,166,166,0,0,0,166,166,166,166,0,Sun Sep 29 12:35:57 2019,300,The main experiment item,yes,FlankerTest.osexp,/Users/Linzi/Desktop,no,mono,no,18,no,white,no,yes,768,legacy,6,79,/Users/Linzi/Desktop/LM-subject-3f55.csv,legacy,Kafkaesque Koffka,3.2.8,0,h,NA,s,h,h,h,360,NA,53800,20213,15530,360,2,legacy,1024,2,48000,-16,experiment,HHSHH,3,odd,59558,248276,438871,444482,452301,NA,454090,452828,5740,228057,423333,454216,454585,454062,454216,5700,Flanker Test,156,101973,167,yes,1024
92.85714286,92.85714286,610.0178571,610.0178571,black,legacy,legacy,legacy,0,incongruent,uniform,0,undefined,0,h,0,0,0,167,167,0,167,167,0,0,0,167,167,167,167,0,Sun Sep 29 12:35:57 2019,300,The main experiment item,yes,FlankerTest.osexp,/Users/Linzi/Desktop,no,mono,no,18,no,white,no,yes,768,legacy,7,79,/Users/Linzi/Desktop/LM-subject-3f55.csv,legacy,Kafkaesque Koffka,3.2.8,0,s,NA,s,h,h,s,510,NA,53800,20213,15530,510,2,legacy,1024,2,48000,-16,experiment,SSHSS,3,odd,59558,248276,438871,454616,455142,NA,456927,455667,5740,228057,423333,457053,457572,456901,457053,5700,Flanker Test,156,102483,168,yes,1024
92.89940828,92.89940828,609.4201183,609.4201183,black,legacy,legacy,legacy,0,congruent,uniform,1,undefined,1,s,0,0,0,168,168,0,168,168,0,0,0,168,168,168,168,0,Sun Sep 29 12:35:57 2019,300,The main experiment item,yes,FlankerTest.osexp,/Users/Linzi/Desktop,no,mono,no,18,no,white,no,yes,768,legacy,8,79,/Users/Linzi/Desktop/LM-subject-3f55.csv,legacy,Kafkaesque Koffka,3.2.8,0,s,NA,s,h,h,s,509,NA,53800,20213,15530,509,2,legacy,1024,2,48000,-16,experiment,SSSSS,3,odd,59558,248276,438871,457603,458130,NA,459914,458655,5740,228057,423333,460041,460559,459888,460041,5700,Flanker Test,157,102992,169,yes,1024
92.35294118,92.35294118,609.2705882,609.2705882,black,legacy,legacy,legacy,0,incongruent,uniform,0,undefined,0,h,0,0,0,169,169,0,169,169,0,0,0,169,169,169,169,0,Sun Sep 29 12:35:57 2019,300,The main experiment item,yes,FlankerTest.osexp,/Users/Linzi/Desktop,no,mono,no,18,no,white,no,yes,768,legacy,9,79,/Users/Linzi/Desktop/LM-subject-3f55.csv,legacy,Kafkaesque Koffka,3.2.8,0,s,NA,s,h,h,s,584,NA,53800,20213,15530,584,2,legacy,1024,2,48000,-16,experiment,SSHSS,3,odd,59558,248276,438871,457603,460590,NA,462379,461116,5740,228057,423333,462505,463098,462352,462505,5700,Flanker Test,157,103576,170,yes,1024
92.39766082,92.39766082,608.5146199,608.5146199,black,legacy,legacy,legacy,0,congruent,uniform,1,undefined,1,h,0,0,0,170,170,0,170,170,0,0,0,170,170,170,170,0,Sun Sep 29 12:35:57 2019,300,The main experiment item,yes,FlankerTest.osexp,/Users/Linzi/Desktop,no,mono,no,18,no,white,no,yes,768,legacy,10,79,/Users/Linzi/Desktop/LM-subject-3f55.csv,legacy,Kafkaesque Koffka,3.2.8,0,h,NA,s,h,h,h,480,NA,53800,20213,15530,480,2,legacy,1024,2,48000,-16,experiment,HHHHH,3,odd,59558,248276,438871,463129,463658,NA,465444,464183,5740,228057,423333,465570,466059,465418,465569,5700,Flanker Test,158,104056,171,yes,1024
