acc,accuracy,average_response_time,avg_rt,background,canvas_backend,clock_backend,color_backend,compensation,condition,coordinates,correct,correct_Instructions1,correct_keyboard_response,correct_response,count_Block1,count_Block2,count_Block3,count_Finish,count_ISI,count_Instructions1,count_Instructions2,count_Instructions3,count_errorFeedback,count_experiment,count_faster,count_fixation,count_keyboard_response,count_logger,count_sequence,count_stimulus,datetime,deadline,description,disable_garbage_collection,experiment_file,experiment_path,font_bold,font_family,font_italic,font_size,font_underline,foreground,form_clicks,fullscreen,height,keyboard_backend,live_row,live_row_Block1,logfile,mouse_backend,opensesame_codename,opensesame_version,repeat_cycle,response,response_Finish,response_Instructions1,response_Instructions2,response_Instructions3,response_keyboard_response,response_time,response_time_Finish,response_time_Instructions1,response_time_Instructions2,response_time_Instructions3,response_time_keyboard_response,round_decimals,sampler_backend,sound_buf_size,sound_channels,sound_freq,sound_sample_size,start,stimulus,subject_nr,subject_parity,time_Block1,time_Block2,time_Block3,time_Finish,time_ISI,time_Instructions1,time_Instructions2,time_Instructions3,time_errorFeedback,time_experiment,time_faster,time_fixation,time_keyboard_response,time_logger,time_sequence,time_stimulus,title,total_correct,total_response_time,total_responses,uniform_coordinates,width
100,100,1049,1049,black,legacy,legacy,legacy,0,congruent,uniform,1,undefined,1,s,0,0,0,0,0,0,0,0,0,0,0,0,0,0,0,0,Wed Sep 25 22:28:14 2019,1500,The main experiment item,yes,fp-subject-1.osexp,/Users/freyaportales/Desktop/OpenSesame Assignments,no,mono,no,18,no,white,no,no,768,legacy,0,0,/Users/freyaportales/Desktop/OpenSesame Assignments/quickrun.csv,legacy,Kafkaesque Koffka,3.2.8,0,s,NA,s,NA,NA,s,1049,NA,79077,NA,NA,1049,2,legacy,1024,2,48000,-16,experiment,SSSSS,999,odd,81717,NA,NA,NA,NA,2630,NA,NA,NA,2557,NA,81852,82000,83050,81813,82000,Flanker task,1,1049,1,yes,1024
100,100,846,846,black,legacy,legacy,legacy,0,congruent,uniform,1,undefined,1,s,0,0,0,0,1,0,0,0,1,0,1,1,1,1,1,1,Wed Sep 25 22:28:14 2019,1500,The main experiment item,yes,fp-subject-1.osexp,/Users/freyaportales/Desktop/OpenSesame Assignments,no,mono,no,18,no,white,no,no,768,legacy,1,1,/Users/freyaportales/Desktop/OpenSesame Assignments/quickrun.csv,legacy,Kafkaesque Koffka,3.2.8,0,s,NA,s,NA,NA,s,643,NA,79077,NA,NA,643,2,legacy,1024,2,48000,-16,experiment,SSSSS,999,odd,81717,NA,NA,NA,83101,2630,NA,NA,NA,2557,NA,84234,84368,85012,84195,84368,Flanker task,2,1692,2,yes,1024
100,100,826.6666667,826.6666667,black,legacy,legacy,legacy,0,congruent,uniform,1,undefined,1,h,0,0,0,0,2,0,0,0,2,0,2,2,2,2,2,2,Wed Sep 25 22:28:14 2019,1500,The main experiment item,yes,fp-subject-1.osexp,/Users/freyaportales/Desktop/OpenSesame Assignments,no,mono,no,18,no,white,no,no,768,legacy,2,2,/Users/freyaportales/Desktop/OpenSesame Assignments/quickrun.csv,legacy,Kafkaesque Koffka,3.2.8,0,h,NA,s,NA,NA,h,788,NA,79077,NA,NA,788,2,legacy,1024,2,48000,-16,experiment,HHHHH,999,odd,81717,NA,NA,NA,85051,2630,NA,NA,NA,2557,NA,86183,86319,87108,86151,86319,Flanker task,3,2480,3,yes,1024
100,100,831.5,831.5,black,legacy,legacy,legacy,0,incongruent,uniform,1,undefined,1,s,0,0,0,0,3,0,0,0,3,0,3,3,3,3,3,3,Wed Sep 25 22:28:14 2019,1500,The main experiment item,yes,fp-subject-1.osexp,/Users/freyaportales/Desktop/OpenSesame Assignments,no,mono,no,18,no,white,no,no,768,legacy,3,3,/Users/freyaportales/Desktop/OpenSesame Assignments/quickrun.csv,legacy,Kafkaesque Koffka,3.2.8,0,s,NA,s,NA,NA,s,846,NA,79077,NA,NA,846,2,legacy,1024,2,48000,-16,experiment,HHSHH,999,odd,81717,NA,NA,NA,87147,2630,NA,NA,NA,2557,NA,88283,88415,89262,88249,88414,Flanker task,4,3326,4,yes,1024
100,100,798.8,798.8,black,legacy,legacy,legacy,0,congruent,uniform,1,undefined,1,s,0,0,0,0,4,0,0,0,4,0,4,4,4,4,4,4,Wed Sep 25 22:28:14 2019,1500,The main experiment item,yes,fp-subject-1.osexp,/Users/freyaportales/Desktop/OpenSesame Assignments,no,mono,no,18,no,white,no,no,768,legacy,4,4,/Users/freyaportales/Desktop/OpenSesame Assignments/quickrun.csv,legacy,Kafkaesque Koffka,3.2.8,0,s,NA,s,NA,NA,s,668,NA,79077,NA,NA,668,2,legacy,1024,2,48000,-16,experiment,SSSSS,999,odd,81717,NA,NA,NA,89308,2630,NA,NA,NA,2557,NA,90428,90564,91233,90397,90563,Flanker task,5,3994,5,yes,1024
100,100,801.1666667,801.1666667,black,legacy,legacy,legacy,0,congruent,uniform,1,undefined,1,s,0,0,0,0,5,0,0,0,5,0,5,5,5,5,5,5,Wed Sep 25 22:28:14 2019,1500,The main experiment item,yes,fp-subject-1.osexp,/Users/freyaportales/Desktop/OpenSesame Assignments,no,mono,no,18,no,white,no,no,768,legacy,5,5,/Users/freyaportales/Desktop/OpenSesame Assignments/quickrun.csv,legacy,Kafkaesque Koffka,3.2.8,0,s,NA,s,NA,NA,s,813,NA,79077,NA,NA,813,2,legacy,1024,2,48000,-16,experiment,SSSSS,999,odd,81717,NA,NA,NA,91268,2630,NA,NA,NA,2557,NA,92384,92519,93333,92350,92519,Flanker task,6,4807,6,yes,1024
100,100,856,856,black,legacy,legacy,legacy,0,congruent,uniform,1,undefined,1,h,0,0,0,0,6,0,0,0,6,0,6,6,6,6,6,6,Wed Sep 25 22:28:14 2019,1500,The main experiment item,yes,fp-subject-1.osexp,/Users/freyaportales/Desktop/OpenSesame Assignments,no,mono,no,18,no,white,no,no,768,legacy,6,6,/Users/freyaportales/Desktop/OpenSesame Assignments/quickrun.csv,legacy,Kafkaesque Koffka,3.2.8,0,h,NA,s,NA,NA,h,1185,NA,79077,NA,NA,1185,2,legacy,1024,2,48000,-16,experiment,HHHHH,999,odd,81717,NA,NA,NA,93377,2630,NA,NA,NA,2557,NA,94513,94647,95833,94478,94647,Flanker task,7,5992,7,yes,1024
87.5,87.5,851.125,851.125,black,legacy,legacy,legacy,0,incongruent,uniform,0,undefined,0,h,0,0,0,0,7,0,0,0,7,0,7,7,7,7,7,7,Wed Sep 25 22:28:14 2019,1500,The main experiment item,yes,fp-subject-1.osexp,/Users/freyaportales/Desktop/OpenSesame Assignments,no,mono,no,18,no,white,no,no,768,legacy,7,7,/Users/freyaportales/Desktop/OpenSesame Assignments/quickrun.csv,legacy,Kafkaesque Koffka,3.2.8,0,s,NA,s,NA,NA,s,817,NA,79077,NA,NA,817,2,legacy,1024,2,48000,-16,experiment,SSHSS,999,odd,81717,NA,NA,NA,95872,2630,NA,NA,NA,2557,NA,97003,97138,97957,96972,97138,Flanker task,7,6809,8,yes,1024
88.88888889,88.88888889,964.4444444,964.4444444,black,legacy,legacy,legacy,0,incongruent,uniform,1,undefined,1,h,0,0,0,0,8,0,0,0,8,0,8,8,8,8,8,8,Wed Sep 25 22:28:14 2019,1500,The main experiment item,yes,fp-subject-1.osexp,/Users/freyaportales/Desktop/OpenSesame Assignments,no,mono,no,18,no,white,no,no,768,legacy,8,8,/Users/freyaportales/Desktop/OpenSesame Assignments/quickrun.csv,legacy,Kafkaesque Koffka,3.2.8,0,h,NA,s,NA,NA,h,1871,NA,79077,NA,NA,1871,2,legacy,1024,2,48000,-16,experiment,SSHSS,999,odd,81717,NA,NA,NA,98530,2630,NA,NA,97998,2557,NA,99644,99777,101649,99611,99776,Flanker task,8,8680,9,yes,1024
90,90,960.7,960.7,black,legacy,legacy,legacy,0,incongruent,uniform,1,undefined,1,s,0,0,0,0,9,0,0,0,9,0,9,9,9,9,9,9,Wed Sep 25 22:28:14 2019,1500,The main experiment item,yes,fp-subject-1.osexp,/Users/freyaportales/Desktop/OpenSesame Assignments,no,mono,no,18,no,white,no,no,768,legacy,9,9,/Users/freyaportales/Desktop/OpenSesame Assignments/quickrun.csv,legacy,Kafkaesque Koffka,3.2.8,0,s,NA,s,NA,NA,s,927,NA,79077,NA,NA,927,2,legacy,1024,2,48000,-16,experiment,HHSHH,999,odd,81717,NA,NA,NA,102219,2630,NA,NA,97998,2557,101687,103334,103466,104395,103302,103466,Flanker task,9,9607,10,yes,1024
90.90909091,90.90909091,963.3636364,963.3636364,black,legacy,legacy,legacy,0,incongruent,uniform,1,undefined,1,s,0,0,0,0,10,0,0,0,10,0,10,10,10,10,10,10,Wed Sep 25 22:28:14 2019,1500,The main experiment item,yes,fp-subject-1.osexp,/Users/freyaportales/Desktop/OpenSesame Assignments,no,mono,no,18,no,white,no,no,768,legacy,10,10,/Users/freyaportales/Desktop/OpenSesame Assignments/quickrun.csv,legacy,Kafkaesque Koffka,3.2.8,0,s,NA,s,NA,NA,s,990,NA,79077,NA,NA,990,2,legacy,1024,2,48000,-16,experiment,HHSHH,999,odd,81717,NA,NA,NA,104430,2630,NA,NA,97998,2557,101687,105546,105680,106672,105513,105680,Flanker task,10,10597,11,yes,1024
91.66666667,91.66666667,959.4166667,959.4166667,black,legacy,legacy,legacy,0,congruent,uniform,1,undefined,1,s,0,0,0,0,11,0,0,0,11,0,11,11,11,11,11,11,Wed Sep 25 22:28:14 2019,1500,The main experiment item,yes,fp-subject-1.osexp,/Users/freyaportales/Desktop/OpenSesame Assignments,no,mono,no,18,no,white,no,no,768,legacy,11,11,/Users/freyaportales/Desktop/OpenSesame Assignments/quickrun.csv,legacy,Kafkaesque Koffka,3.2.8,0,s,NA,s,NA,NA,s,916,NA,79077,NA,NA,916,2,legacy,1024,2,48000,-16,experiment,SSSSS,999,odd,81717,NA,NA,NA,106708,2630,NA,NA,97998,2557,101687,107833,107965,108882,107800,107965,Flanker task,11,11513,12,yes,1024
92.30769231,92.30769231,956.8461538,956.8461538,black,legacy,legacy,legacy,0,incongruent,uniform,1,undefined,1,s,0,0,0,0,12,0,0,0,12,0,12,12,12,12,12,12,Wed Sep 25 22:28:14 2019,1500,The main experiment item,yes,fp-subject-1.osexp,/Users/freyaportales/Desktop/OpenSesame Assignments,no,mono,no,18,no,white,no,no,768,legacy,12,12,/Users/freyaportales/Desktop/OpenSesame Assignments/quickrun.csv,legacy,Kafkaesque Koffka,3.2.8,0,s,NA,s,NA,NA,s,926,NA,79077,NA,NA,926,2,legacy,1024,2,48000,-16,experiment,HHSHH,999,odd,81717,NA,NA,NA,108919,2630,NA,NA,97998,2557,101687,110044,110178,111105,110010,110178,Flanker task,12,12439,13,yes,1024
92.85714286,92.85714286,946.7142857,946.7142857,black,legacy,legacy,legacy,0,incongruent,uniform,1,undefined,1,h,0,0,0,0,13,0,0,0,13,0,13,13,13,13,13,13,Wed Sep 25 22:28:14 2019,1500,The main experiment item,yes,fp-subject-1.osexp,/Users/freyaportales/Desktop/OpenSesame Assignments,no,mono,no,18,no,white,no,no,768,legacy,13,13,/Users/freyaportales/Desktop/OpenSesame Assignments/quickrun.csv,legacy,Kafkaesque Koffka,3.2.8,0,h,NA,s,NA,NA,h,815,NA,79077,NA,NA,815,2,legacy,1024,2,48000,-16,experiment,SSHSS,999,odd,81717,NA,NA,NA,111140,2630,NA,NA,97998,2557,101687,112264,112397,113214,112232,112397,Flanker task,13,13254,14,yes,1024
93.33333333,93.33333333,950.0666667,950.0666667,black,legacy,legacy,legacy,0,incongruent,uniform,1,undefined,1,s,0,0,0,0,14,0,0,0,14,0,14,14,14,14,14,14,Wed Sep 25 22:28:14 2019,1500,The main experiment item,yes,fp-subject-1.osexp,/Users/freyaportales/Desktop/OpenSesame Assignments,no,mono,no,18,no,white,no,no,768,legacy,14,14,/Users/freyaportales/Desktop/OpenSesame Assignments/quickrun.csv,legacy,Kafkaesque Koffka,3.2.8,0,s,NA,s,NA,NA,s,997,NA,79077,NA,NA,997,2,legacy,1024,2,48000,-16,experiment,HHSHH,999,odd,81717,NA,NA,NA,113251,2630,NA,NA,97998,2557,101687,114375,114507,115506,114341,114507,Flanker task,14,14251,15,yes,1024
93.75,93.75,928.5,928.5,black,legacy,legacy,legacy,0,congruent,uniform,1,undefined,1,s,0,0,0,0,15,0,0,0,15,0,15,15,15,15,15,15,Wed Sep 25 22:28:14 2019,1500,The main experiment item,yes,fp-subject-1.osexp,/Users/freyaportales/Desktop/OpenSesame Assignments,no,mono,no,18,no,white,no,no,768,legacy,15,15,/Users/freyaportales/Desktop/OpenSesame Assignments/quickrun.csv,legacy,Kafkaesque Koffka,3.2.8,0,s,NA,s,NA,NA,s,605,NA,79077,NA,NA,605,2,legacy,1024,2,48000,-16,experiment,SSSSS,999,odd,81717,NA,NA,NA,115549,2630,NA,NA,97998,2557,101687,116664,116797,117404,116632,116797,Flanker task,15,14856,16,yes,1024
94.11764706,94.11764706,919.2941176,919.2941176,black,legacy,legacy,legacy,0,congruent,uniform,1,undefined,1,h,0,0,0,0,16,0,0,0,16,0,16,16,16,16,16,16,Wed Sep 25 22:28:14 2019,1500,The main experiment item,yes,fp-subject-1.osexp,/Users/freyaportales/Desktop/OpenSesame Assignments,no,mono,no,18,no,white,no,no,768,legacy,16,16,/Users/freyaportales/Desktop/OpenSesame Assignments/quickrun.csv,legacy,Kafkaesque Koffka,3.2.8,0,h,NA,s,NA,NA,h,772,NA,79077,NA,NA,772,2,legacy,1024,2,48000,-16,experiment,HHHHH,999,odd,81717,NA,NA,NA,117438,2630,NA,NA,97998,2557,101687,118553,118686,119460,118520,118686,Flanker task,16,15628,17,yes,1024
94.44444444,94.44444444,910.9444444,910.9444444,black,legacy,legacy,legacy,0,congruent,uniform,1,undefined,1,s,0,0,0,0,17,0,0,0,17,0,17,17,17,17,17,17,Wed Sep 25 22:28:14 2019,1500,The main experiment item,yes,fp-subject-1.osexp,/Users/freyaportales/Desktop/OpenSesame Assignments,no,mono,no,18,no,white,no,no,768,legacy,17,17,/Users/freyaportales/Desktop/OpenSesame Assignments/quickrun.csv,legacy,Kafkaesque Koffka,3.2.8,0,s,NA,s,NA,NA,s,769,NA,79077,NA,NA,769,2,legacy,1024,2,48000,-16,experiment,SSSSS,999,odd,81717,NA,NA,NA,119495,2630,NA,NA,97998,2557,101687,120610,120742,121513,120577,120742,Flanker task,17,16397,18,yes,1024
94.73684211,94.73684211,911.2631579,911.2631579,black,legacy,legacy,legacy,0,incongruent,uniform,1,undefined,1,s,0,0,0,0,18,0,0,0,18,0,18,18,18,18,18,18,Wed Sep 25 22:28:14 2019,1500,The main experiment item,yes,fp-subject-1.osexp,/Users/freyaportales/Desktop/OpenSesame Assignments,no,mono,no,18,no,white,no,no,768,legacy,18,18,/Users/freyaportales/Desktop/OpenSesame Assignments/quickrun.csv,legacy,Kafkaesque Koffka,3.2.8,0,s,NA,s,NA,NA,s,917,NA,79077,NA,NA,917,2,legacy,1024,2,48000,-16,experiment,HHSHH,999,odd,81717,NA,NA,NA,121548,2630,NA,NA,97998,2557,101687,122675,122807,123726,122635,122807,Flanker task,18,17314,19,yes,1024
95,95,902.75,902.75,black,legacy,legacy,legacy,0,incongruent,uniform,1,undefined,1,s,0,0,0,0,19,0,0,0,19,0,19,19,19,19,19,19,Wed Sep 25 22:28:14 2019,1500,The main experiment item,yes,fp-subject-1.osexp,/Users/freyaportales/Desktop/OpenSesame Assignments,no,mono,no,18,no,white,no,no,768,legacy,19,19,/Users/freyaportales/Desktop/OpenSesame Assignments/quickrun.csv,legacy,Kafkaesque Koffka,3.2.8,0,s,NA,s,NA,NA,s,741,NA,79077,NA,NA,741,2,legacy,1024,2,48000,-16,experiment,HHSHH,999,odd,81717,NA,NA,NA,123776,2630,NA,NA,97998,2557,101687,124894,125025,125768,124861,125025,Flanker task,19,18055,20,yes,1024
95.23809524,95.23809524,895.6190476,895.6190476,black,legacy,legacy,legacy,0,incongruent,uniform,1,undefined,1,h,0,0,0,0,20,0,0,0,20,0,20,20,20,20,20,20,Wed Sep 25 22:28:14 2019,1500,The main experiment item,yes,fp-subject-1.osexp,/Users/freyaportales/Desktop/OpenSesame Assignments,no,mono,no,18,no,white,no,no,768,legacy,20,20,/Users/freyaportales/Desktop/OpenSesame Assignments/quickrun.csv,legacy,Kafkaesque Koffka,3.2.8,0,h,NA,s,NA,NA,h,753,NA,79077,NA,NA,753,2,legacy,1024,2,48000,-16,experiment,SSHSS,999,odd,81717,NA,NA,NA,125802,2630,NA,NA,97998,2557,101687,126931,127064,127819,126899,127064,Flanker task,20,18808,21,yes,1024
95.45454545,95.45454545,888.7727273,888.7727273,black,legacy,legacy,legacy,0,congruent,uniform,1,undefined,1,s,0,0,0,0,21,0,0,0,21,0,21,21,21,21,21,21,Wed Sep 25 22:28:14 2019,1500,The main experiment item,yes,fp-subject-1.osexp,/Users/freyaportales/Desktop/OpenSesame Assignments,no,mono,no,18,no,white,no,no,768,legacy,21,21,/Users/freyaportales/Desktop/OpenSesame Assignments/quickrun.csv,legacy,Kafkaesque Koffka,3.2.8,0,s,NA,s,NA,NA,s,745,NA,79077,NA,NA,745,2,legacy,1024,2,48000,-16,experiment,SSSSS,999,odd,81717,NA,NA,NA,127854,2630,NA,NA,97998,2557,101687,128981,129114,129862,128949,129114,Flanker task,21,19553,22,yes,1024
95.65217391,95.65217391,884.1304348,884.1304348,black,legacy,legacy,legacy,0,congruent,uniform,1,undefined,1,h,0,0,0,0,22,0,0,0,22,0,22,22,22,22,22,22,Wed Sep 25 22:28:14 2019,1500,The main experiment item,yes,fp-subject-1.osexp,/Users/freyaportales/Desktop/OpenSesame Assignments,no,mono,no,18,no,white,no,no,768,legacy,22,22,/Users/freyaportales/Desktop/OpenSesame Assignments/quickrun.csv,legacy,Kafkaesque Koffka,3.2.8,0,h,NA,s,NA,NA,h,782,NA,79077,NA,NA,782,2,legacy,1024,2,48000,-16,experiment,HHHHH,999,odd,81717,NA,NA,NA,129897,2630,NA,NA,97998,2557,101687,131026,131158,131942,130994,131158,Flanker task,22,20335,23,yes,1024
95.83333333,95.83333333,877.0833333,877.0833333,black,legacy,legacy,legacy,0,congruent,uniform,1,undefined,1,s,0,0,0,0,23,0,0,0,23,0,23,23,23,23,23,23,Wed Sep 25 22:28:14 2019,1500,The main experiment item,yes,fp-subject-1.osexp,/Users/freyaportales/Desktop/OpenSesame Assignments,no,mono,no,18,no,white,no,no,768,legacy,23,23,/Users/freyaportales/Desktop/OpenSesame Assignments/quickrun.csv,legacy,Kafkaesque Koffka,3.2.8,0,s,NA,s,NA,NA,s,715,NA,79077,NA,NA,715,2,legacy,1024,2,48000,-16,experiment,SSSSS,999,odd,81717,NA,NA,NA,131977,2630,NA,NA,97998,2557,101687,133103,133235,133952,133071,133235,Flanker task,23,21050,24,yes,1024
96,96,873.28,873.28,black,legacy,legacy,legacy,0,incongruent,uniform,1,undefined,1,h,0,0,0,0,24,0,0,0,24,0,24,24,24,24,24,24,Wed Sep 25 22:28:14 2019,1500,The main experiment item,yes,fp-subject-1.osexp,/Users/freyaportales/Desktop/OpenSesame Assignments,no,mono,no,18,no,white,no,no,768,legacy,24,24,/Users/freyaportales/Desktop/OpenSesame Assignments/quickrun.csv,legacy,Kafkaesque Koffka,3.2.8,0,h,NA,s,NA,NA,h,782,NA,79077,NA,NA,782,2,legacy,1024,2,48000,-16,experiment,SSHSS,999,odd,81717,NA,NA,NA,133986,2630,NA,NA,97998,2557,101687,135117,135249,136033,135084,135249,Flanker task,24,21832,25,yes,1024
96.15384615,96.15384615,868.0769231,868.0769231,black,legacy,legacy,legacy,0,congruent,uniform,1,undefined,1,s,0,0,0,0,25,0,0,0,25,0,25,25,25,25,25,25,Wed Sep 25 22:28:14 2019,1500,The main experiment item,yes,fp-subject-1.osexp,/Users/freyaportales/Desktop/OpenSesame Assignments,no,mono,no,18,no,white,no,no,768,legacy,25,25,/Users/freyaportales/Desktop/OpenSesame Assignments/quickrun.csv,legacy,Kafkaesque Koffka,3.2.8,0,s,NA,s,NA,NA,s,738,NA,79077,NA,NA,738,2,legacy,1024,2,48000,-16,experiment,SSSSS,999,odd,81717,NA,NA,NA,136067,2630,NA,NA,97998,2557,101687,137199,137332,138072,137167,137332,Flanker task,25,22570,26,yes,1024
96.2962963,96.2962963,863.4814815,863.4814815,black,legacy,legacy,legacy,0,congruent,uniform,1,undefined,1,h,0,0,0,0,26,0,0,0,26,0,26,26,26,26,26,26,Wed Sep 25 22:28:14 2019,1500,The main experiment item,yes,fp-subject-1.osexp,/Users/freyaportales/Desktop/OpenSesame Assignments,no,mono,no,18,no,white,no,no,768,legacy,26,26,/Users/freyaportales/Desktop/OpenSesame Assignments/quickrun.csv,legacy,Kafkaesque Koffka,3.2.8,0,h,NA,s,NA,NA,h,744,NA,79077,NA,NA,744,2,legacy,1024,2,48000,-16,experiment,HHHHH,999,odd,81717,NA,NA,NA,138106,2630,NA,NA,97998,2557,101687,139234,139366,140112,139201,139366,Flanker task,26,23314,27,yes,1024
96.42857143,96.42857143,858.6428571,858.6428571,black,legacy,legacy,legacy,0,congruent,uniform,1,undefined,1,h,0,0,0,0,27,0,0,0,27,0,27,27,27,27,27,27,Wed Sep 25 22:28:14 2019,1500,The main experiment item,yes,fp-subject-1.osexp,/Users/freyaportales/Desktop/OpenSesame Assignments,no,mono,no,18,no,white,no,no,768,legacy,27,27,/Users/freyaportales/Desktop/OpenSesame Assignments/quickrun.csv,legacy,Kafkaesque Koffka,3.2.8,0,h,NA,s,NA,NA,h,728,NA,79077,NA,NA,728,2,legacy,1024,2,48000,-16,experiment,HHHHH,999,odd,81717,NA,NA,NA,140146,2630,NA,NA,97998,2557,101687,141281,141413,142143,141248,141413,Flanker task,27,24042,28,yes,1024
96.55172414,96.55172414,856.6896552,856.6896552,black,legacy,legacy,legacy,0,congruent,uniform,1,undefined,1,h,0,0,0,0,28,0,0,0,28,0,28,28,28,28,28,28,Wed Sep 25 22:28:14 2019,1500,The main experiment item,yes,fp-subject-1.osexp,/Users/freyaportales/Desktop/OpenSesame Assignments,no,mono,no,18,no,white,no,no,768,legacy,28,28,/Users/freyaportales/Desktop/OpenSesame Assignments/quickrun.csv,legacy,Kafkaesque Koffka,3.2.8,0,h,NA,s,NA,NA,h,802,NA,79077,NA,NA,802,2,legacy,1024,2,48000,-16,experiment,HHHHH,999,odd,81717,NA,NA,NA,142178,2630,NA,NA,97998,2557,101687,143306,143439,144243,143273,143438,Flanker task,28,24844,29,yes,1024
96.66666667,96.66666667,859.9666667,859.9666667,black,legacy,legacy,legacy,0,incongruent,uniform,1,undefined,1,h,0,0,0,0,29,0,0,0,29,0,29,29,29,29,29,29,Wed Sep 25 22:28:14 2019,1500,The main experiment item,yes,fp-subject-1.osexp,/Users/freyaportales/Desktop/OpenSesame Assignments,no,mono,no,18,no,white,no,no,768,legacy,29,29,/Users/freyaportales/Desktop/OpenSesame Assignments/quickrun.csv,legacy,Kafkaesque Koffka,3.2.8,0,h,NA,s,NA,NA,h,955,NA,79077,NA,NA,955,2,legacy,1024,2,48000,-16,experiment,SSHSS,999,odd,81717,NA,NA,NA,144279,2630,NA,NA,97998,2557,101687,145414,145547,146504,145382,145547,Flanker task,29,25799,30,yes,1024
96.77419355,96.77419355,856.4193548,856.4193548,black,legacy,legacy,legacy,0,congruent,uniform,1,undefined,1,h,0,0,0,0,30,0,0,0,30,0,30,30,30,30,30,30,Wed Sep 25 22:28:14 2019,1500,The main experiment item,yes,fp-subject-1.osexp,/Users/freyaportales/Desktop/OpenSesame Assignments,no,mono,no,18,no,white,no,no,768,legacy,30,30,/Users/freyaportales/Desktop/OpenSesame Assignments/quickrun.csv,legacy,Kafkaesque Koffka,3.2.8,0,h,NA,s,NA,NA,h,750,NA,79077,NA,NA,750,2,legacy,1024,2,48000,-16,experiment,HHHHH,999,odd,81717,NA,NA,NA,146543,2630,NA,NA,97998,2557,101687,147665,147798,148550,147633,147798,Flanker task,30,26549,31,yes,1024
96.875,96.875,851.75,851.75,black,legacy,legacy,legacy,0,incongruent,uniform,1,undefined,1,h,0,0,0,0,31,0,0,0,31,0,31,31,31,31,31,31,Wed Sep 25 22:28:14 2019,1500,The main experiment item,yes,fp-subject-1.osexp,/Users/freyaportales/Desktop/OpenSesame Assignments,no,mono,no,18,no,white,no,no,768,legacy,31,31,/Users/freyaportales/Desktop/OpenSesame Assignments/quickrun.csv,legacy,Kafkaesque Koffka,3.2.8,0,h,NA,s,NA,NA,h,707,NA,79077,NA,NA,707,2,legacy,1024,2,48000,-16,experiment,SSHSS,999,odd,81717,NA,NA,NA,148584,2630,NA,NA,97998,2557,101687,149715,149847,150556,149682,149847,Flanker task,31,27256,32,yes,1024
96.96969697,96.96969697,848.9090909,848.9090909,black,legacy,legacy,legacy,0,congruent,uniform,1,undefined,1,h,0,0,0,0,32,0,0,0,32,0,32,32,32,32,32,32,Wed Sep 25 22:28:14 2019,1500,The main experiment item,yes,fp-subject-1.osexp,/Users/freyaportales/Desktop/OpenSesame Assignments,no,mono,no,18,no,white,no,no,768,legacy,32,32,/Users/freyaportales/Desktop/OpenSesame Assignments/quickrun.csv,legacy,Kafkaesque Koffka,3.2.8,0,h,NA,s,NA,NA,h,758,NA,79077,NA,NA,758,2,legacy,1024,2,48000,-16,experiment,HHHHH,999,odd,81717,NA,NA,NA,150590,2630,NA,NA,97998,2557,101687,151715,151847,152608,151683,151847,Flanker task,32,28014,33,yes,1024
97.05882353,97.05882353,850.5294118,850.5294118,black,legacy,legacy,legacy,0,incongruent,uniform,1,undefined,1,h,0,0,0,0,33,0,0,0,33,0,33,33,33,33,33,33,Wed Sep 25 22:28:14 2019,1500,The main experiment item,yes,fp-subject-1.osexp,/Users/freyaportales/Desktop/OpenSesame Assignments,no,mono,no,18,no,white,no,no,768,legacy,33,33,/Users/freyaportales/Desktop/OpenSesame Assignments/quickrun.csv,legacy,Kafkaesque Koffka,3.2.8,0,h,NA,s,NA,NA,h,904,NA,79077,NA,NA,904,2,legacy,1024,2,48000,-16,experiment,SSHSS,999,odd,81717,NA,NA,NA,152645,2630,NA,NA,97998,2557,101687,153767,153901,154807,153735,153900,Flanker task,33,28918,34,yes,1024
97.14285714,97.14285714,848.8,848.8,black,legacy,legacy,legacy,0,incongruent,uniform,1,undefined,1,s,0,0,0,0,34,0,0,0,34,0,34,34,34,34,34,34,Wed Sep 25 22:28:14 2019,1500,The main experiment item,yes,fp-subject-1.osexp,/Users/freyaportales/Desktop/OpenSesame Assignments,no,mono,no,18,no,white,no,no,768,legacy,34,34,/Users/freyaportales/Desktop/OpenSesame Assignments/quickrun.csv,legacy,Kafkaesque Koffka,3.2.8,0,s,NA,s,NA,NA,s,790,NA,79077,NA,NA,790,2,legacy,1024,2,48000,-16,experiment,HHSHH,999,odd,81717,NA,NA,NA,154858,2630,NA,NA,97998,2557,101687,155973,156106,156898,155940,156106,Flanker task,34,29708,35,yes,1024
97.22222222,97.22222222,850.0833333,850.0833333,black,legacy,legacy,legacy,0,congruent,uniform,1,undefined,1,s,0,0,0,0,35,0,0,0,35,0,35,35,35,35,35,35,Wed Sep 25 22:28:14 2019,1500,The main experiment item,yes,fp-subject-1.osexp,/Users/freyaportales/Desktop/OpenSesame Assignments,no,mono,no,18,no,white,no,no,768,legacy,35,35,/Users/freyaportales/Desktop/OpenSesame Assignments/quickrun.csv,legacy,Kafkaesque Koffka,3.2.8,0,s,NA,s,NA,NA,s,895,NA,79077,NA,NA,895,2,legacy,1024,2,48000,-16,experiment,SSSSS,999,odd,81717,NA,NA,NA,156934,2630,NA,NA,97998,2557,101687,158052,158186,159083,158019,158185,Flanker task,35,30603,36,yes,1024
97.2972973,97.2972973,847.6756757,847.6756757,black,legacy,legacy,legacy,0,incongruent,uniform,1,undefined,1,h,0,0,0,0,36,0,0,0,36,0,36,36,36,36,36,36,Wed Sep 25 22:28:14 2019,1500,The main experiment item,yes,fp-subject-1.osexp,/Users/freyaportales/Desktop/OpenSesame Assignments,no,mono,no,18,no,white,no,no,768,legacy,36,36,/Users/freyaportales/Desktop/OpenSesame Assignments/quickrun.csv,legacy,Kafkaesque Koffka,3.2.8,0,h,NA,s,NA,NA,h,761,NA,79077,NA,NA,761,2,legacy,1024,2,48000,-16,experiment,SSHSS,999,odd,81717,NA,NA,NA,159133,2630,NA,NA,97998,2557,101687,160248,160381,161144,160216,160381,Flanker task,36,31364,37,yes,1024
97.36842105,97.36842105,845.6842105,845.6842105,black,legacy,legacy,legacy,0,congruent,uniform,1,undefined,1,h,0,0,0,0,37,0,0,0,37,0,37,37,37,37,37,37,Wed Sep 25 22:28:14 2019,1500,The main experiment item,yes,fp-subject-1.osexp,/Users/freyaportales/Desktop/OpenSesame Assignments,no,mono,no,18,no,white,no,no,768,legacy,37,37,/Users/freyaportales/Desktop/OpenSesame Assignments/quickrun.csv,legacy,Kafkaesque Koffka,3.2.8,0,h,NA,s,NA,NA,h,772,NA,79077,NA,NA,772,2,legacy,1024,2,48000,-16,experiment,HHHHH,999,odd,81717,NA,NA,NA,161181,2630,NA,NA,97998,2557,101687,162310,162442,163216,162276,162442,Flanker task,37,32136,38,yes,1024
97.43589744,97.43589744,842.8461538,842.8461538,black,legacy,legacy,legacy,0,incongruent,uniform,1,undefined,1,s,0,0,0,0,38,0,0,0,38,0,38,38,38,38,38,38,Wed Sep 25 22:28:14 2019,1500,The main experiment item,yes,fp-subject-1.osexp,/Users/freyaportales/Desktop/OpenSesame Assignments,no,mono,no,18,no,white,no,no,768,legacy,38,38,/Users/freyaportales/Desktop/OpenSesame Assignments/quickrun.csv,legacy,Kafkaesque Koffka,3.2.8,0,s,NA,s,NA,NA,s,735,NA,79077,NA,NA,735,2,legacy,1024,2,48000,-16,experiment,HHSHH,999,odd,81717,NA,NA,NA,163250,2630,NA,NA,97998,2557,101687,164385,164518,165255,164352,164517,Flanker task,38,32871,39,yes,1024
97.5,97.5,844.9,844.9,black,legacy,legacy,legacy,0,incongruent,uniform,1,undefined,1,s,0,0,0,0,39,0,0,0,39,0,39,39,39,39,39,39,Wed Sep 25 22:28:14 2019,1500,The main experiment item,yes,fp-subject-1.osexp,/Users/freyaportales/Desktop/OpenSesame Assignments,no,mono,no,18,no,white,no,no,768,legacy,39,39,/Users/freyaportales/Desktop/OpenSesame Assignments/quickrun.csv,legacy,Kafkaesque Koffka,3.2.8,0,s,NA,s,NA,NA,s,925,NA,79077,NA,NA,925,2,legacy,1024,2,48000,-16,experiment,HHSHH,999,odd,81717,NA,NA,NA,165289,2630,NA,NA,97998,2557,101687,166417,166549,167476,166384,166549,Flanker task,39,33796,40,yes,1024
97.56097561,97.56097561,845.6829268,845.6829268,black,legacy,legacy,legacy,0,incongruent,uniform,1,undefined,1,s,0,0,0,0,40,0,0,0,40,0,40,40,40,40,40,40,Wed Sep 25 22:28:14 2019,1500,The main experiment item,yes,fp-subject-1.osexp,/Users/freyaportales/Desktop/OpenSesame Assignments,no,mono,no,18,no,white,no,no,768,legacy,40,40,/Users/freyaportales/Desktop/OpenSesame Assignments/quickrun.csv,legacy,Kafkaesque Koffka,3.2.8,0,s,NA,s,NA,NA,s,877,NA,79077,NA,NA,877,2,legacy,1024,2,48000,-16,experiment,HHSHH,999,odd,81717,NA,NA,NA,167512,2630,NA,NA,97998,2557,101687,168644,168777,169656,168612,168776,Flanker task,40,34673,41,yes,1024
97.61904762,97.61904762,840.9047619,840.9047619,black,legacy,legacy,legacy,0,congruent,uniform,1,undefined,1,h,0,0,0,0,41,0,0,0,41,0,41,41,41,41,41,41,Wed Sep 25 22:28:14 2019,1500,The main experiment item,yes,fp-subject-1.osexp,/Users/freyaportales/Desktop/OpenSesame Assignments,no,mono,no,18,no,white,no,no,768,legacy,41,41,/Users/freyaportales/Desktop/OpenSesame Assignments/quickrun.csv,legacy,Kafkaesque Koffka,3.2.8,0,h,NA,s,NA,NA,h,645,NA,79077,NA,NA,645,2,legacy,1024,2,48000,-16,experiment,HHHHH,999,odd,81717,NA,NA,NA,169700,2630,NA,NA,97998,2557,101687,170816,170948,171595,170783,170948,Flanker task,41,35318,42,yes,1024
97.6744186,97.6744186,836.2093023,836.2093023,black,legacy,legacy,legacy,0,congruent,uniform,1,undefined,1,h,0,0,0,0,42,0,0,0,42,0,42,42,42,42,42,42,Wed Sep 25 22:28:14 2019,1500,The main experiment item,yes,fp-subject-1.osexp,/Users/freyaportales/Desktop/OpenSesame Assignments,no,mono,no,18,no,white,no,no,768,legacy,42,42,/Users/freyaportales/Desktop/OpenSesame Assignments/quickrun.csv,legacy,Kafkaesque Koffka,3.2.8,0,h,NA,s,NA,NA,h,639,NA,79077,NA,NA,639,2,legacy,1024,2,48000,-16,experiment,HHHHH,999,odd,81717,NA,NA,NA,171629,2630,NA,NA,97998,2557,101687,172745,172878,173519,172712,172878,Flanker task,42,35957,43,yes,1024
97.72727273,97.72727273,836.2045455,836.2045455,black,legacy,legacy,legacy,0,congruent,uniform,1,undefined,1,s,0,0,0,0,43,0,0,0,43,0,43,43,43,43,43,43,Wed Sep 25 22:28:14 2019,1500,The main experiment item,yes,fp-subject-1.osexp,/Users/freyaportales/Desktop/OpenSesame Assignments,no,mono,no,18,no,white,no,no,768,legacy,43,43,/Users/freyaportales/Desktop/OpenSesame Assignments/quickrun.csv,legacy,Kafkaesque Koffka,3.2.8,0,s,NA,s,NA,NA,s,836,NA,79077,NA,NA,836,2,legacy,1024,2,48000,-16,experiment,SSSSS,999,odd,81717,NA,NA,NA,173554,2630,NA,NA,97998,2557,101687,174668,174801,175639,174636,174801,Flanker task,43,36793,44,yes,1024
97.77777778,97.77777778,832.2666667,832.2666667,black,legacy,legacy,legacy,0,congruent,uniform,1,undefined,1,h,0,0,0,0,44,0,0,0,44,0,44,44,44,44,44,44,Wed Sep 25 22:28:14 2019,1500,The main experiment item,yes,fp-subject-1.osexp,/Users/freyaportales/Desktop/OpenSesame Assignments,no,mono,no,18,no,white,no,no,768,legacy,44,44,/Users/freyaportales/Desktop/OpenSesame Assignments/quickrun.csv,legacy,Kafkaesque Koffka,3.2.8,0,h,NA,s,NA,NA,h,659,NA,79077,NA,NA,659,2,legacy,1024,2,48000,-16,experiment,HHHHH,999,odd,81717,NA,NA,NA,175673,2630,NA,NA,97998,2557,101687,176789,176921,177582,176756,176921,Flanker task,44,37452,45,yes,1024
97.82608696,97.82608696,832.6304348,832.6304348,black,legacy,legacy,legacy,0,incongruent,uniform,1,undefined,1,h,0,0,0,0,45,0,0,0,45,0,45,45,45,45,45,45,Wed Sep 25 22:28:14 2019,1500,The main experiment item,yes,fp-subject-1.osexp,/Users/freyaportales/Desktop/OpenSesame Assignments,no,mono,no,18,no,white,no,no,768,legacy,45,45,/Users/freyaportales/Desktop/OpenSesame Assignments/quickrun.csv,legacy,Kafkaesque Koffka,3.2.8,0,h,NA,s,NA,NA,h,849,NA,79077,NA,NA,849,2,legacy,1024,2,48000,-16,experiment,SSHSS,999,odd,81717,NA,NA,NA,177617,2630,NA,NA,97998,2557,101687,178733,178868,179719,178700,178868,Flanker task,45,38301,46,yes,1024
97.87234043,97.87234043,831.4468085,831.4468085,black,legacy,legacy,legacy,0,incongruent,uniform,1,undefined,1,s,0,0,0,0,46,0,0,0,46,0,46,46,46,46,46,46,Wed Sep 25 22:28:14 2019,1500,The main experiment item,yes,fp-subject-1.osexp,/Users/freyaportales/Desktop/OpenSesame Assignments,no,mono,no,18,no,white,no,no,768,legacy,46,46,/Users/freyaportales/Desktop/OpenSesame Assignments/quickrun.csv,legacy,Kafkaesque Koffka,3.2.8,0,s,NA,s,NA,NA,s,777,NA,79077,NA,NA,777,2,legacy,1024,2,48000,-16,experiment,HHSHH,999,odd,81717,NA,NA,NA,179753,2630,NA,NA,97998,2557,101687,180869,181001,181780,180836,181000,Flanker task,46,39078,47,yes,1024
97.91666667,97.91666667,830.625,830.625,black,legacy,legacy,legacy,0,congruent,uniform,1,undefined,1,s,0,0,0,0,47,0,0,0,47,0,47,47,47,47,47,47,Wed Sep 25 22:28:14 2019,1500,The main experiment item,yes,fp-subject-1.osexp,/Users/freyaportales/Desktop/OpenSesame Assignments,no,mono,no,18,no,white,no,no,768,legacy,47,47,/Users/freyaportales/Desktop/OpenSesame Assignments/quickrun.csv,legacy,Kafkaesque Koffka,3.2.8,0,s,NA,s,NA,NA,s,792,NA,79077,NA,NA,792,2,legacy,1024,2,48000,-16,experiment,SSSSS,999,odd,81717,NA,NA,NA,181814,2630,NA,NA,97998,2557,101687,182929,183062,183856,182896,183062,Flanker task,47,39870,48,yes,1024
97.95918367,97.95918367,829.8367347,829.8367347,black,legacy,legacy,legacy,0,incongruent,uniform,1,undefined,1,h,0,0,0,0,48,0,0,0,48,0,48,48,48,48,48,48,Wed Sep 25 22:28:14 2019,1500,The main experiment item,yes,fp-subject-1.osexp,/Users/freyaportales/Desktop/OpenSesame Assignments,no,mono,no,18,no,white,no,no,768,legacy,48,48,/Users/freyaportales/Desktop/OpenSesame Assignments/quickrun.csv,legacy,Kafkaesque Koffka,3.2.8,0,h,NA,s,NA,NA,h,792,NA,79077,NA,NA,792,2,legacy,1024,2,48000,-16,experiment,SSHSS,999,odd,81717,NA,NA,NA,183891,2630,NA,NA,97998,2557,101687,185007,185140,185934,184975,185139,Flanker task,48,40662,49,yes,1024
98,98,825.94,825.94,black,legacy,legacy,legacy,0,congruent,uniform,1,undefined,1,h,0,0,0,0,49,0,0,0,49,0,49,49,49,49,49,49,Wed Sep 25 22:28:14 2019,1500,The main experiment item,yes,fp-subject-1.osexp,/Users/freyaportales/Desktop/OpenSesame Assignments,no,mono,no,18,no,white,no,no,768,legacy,49,49,/Users/freyaportales/Desktop/OpenSesame Assignments/quickrun.csv,legacy,Kafkaesque Koffka,3.2.8,0,h,NA,s,NA,NA,h,635,NA,79077,NA,NA,635,2,legacy,1024,2,48000,-16,experiment,HHHHH,999,odd,81717,NA,NA,NA,185968,2630,NA,NA,97998,2557,101687,187091,187223,187860,187057,187223,Flanker task,49,41297,50,yes,1024
98.03921569,98.03921569,826.6862745,826.6862745,black,legacy,legacy,legacy,0,incongruent,uniform,1,undefined,1,h,0,0,0,0,50,0,0,0,50,0,50,50,50,50,50,50,Wed Sep 25 22:28:14 2019,1500,The main experiment item,yes,fp-subject-1.osexp,/Users/freyaportales/Desktop/OpenSesame Assignments,no,mono,no,18,no,white,no,no,768,legacy,50,50,/Users/freyaportales/Desktop/OpenSesame Assignments/quickrun.csv,legacy,Kafkaesque Koffka,3.2.8,0,h,NA,s,NA,NA,h,864,NA,79077,NA,NA,864,2,legacy,1024,2,48000,-16,experiment,SSHSS,999,odd,81717,NA,NA,NA,187894,2630,NA,NA,97998,2557,101687,189008,189140,190006,188976,189140,Flanker task,50,42161,51,yes,1024
98.07692308,98.07692308,825.4423077,825.4423077,black,legacy,legacy,legacy,0,congruent,uniform,1,undefined,1,s,0,0,0,0,51,0,0,0,51,0,51,51,51,51,51,51,Wed Sep 25 22:28:14 2019,1500,The main experiment item,yes,fp-subject-1.osexp,/Users/freyaportales/Desktop/OpenSesame Assignments,no,mono,no,18,no,white,no,no,768,legacy,51,51,/Users/freyaportales/Desktop/OpenSesame Assignments/quickrun.csv,legacy,Kafkaesque Koffka,3.2.8,0,s,NA,s,NA,NA,s,762,NA,79077,NA,NA,762,2,legacy,1024,2,48000,-16,experiment,SSSSS,999,odd,81717,NA,NA,NA,190041,2630,NA,NA,97998,2557,101687,191165,191298,192062,191133,191298,Flanker task,51,42923,52,yes,1024
98.11320755,98.11320755,823.6603774,823.6603774,black,legacy,legacy,legacy,0,incongruent,uniform,1,undefined,1,h,0,0,0,0,52,0,0,0,52,0,52,52,52,52,52,52,Wed Sep 25 22:28:14 2019,1500,The main experiment item,yes,fp-subject-1.osexp,/Users/freyaportales/Desktop/OpenSesame Assignments,no,mono,no,18,no,white,no,no,768,legacy,52,52,/Users/freyaportales/Desktop/OpenSesame Assignments/quickrun.csv,legacy,Kafkaesque Koffka,3.2.8,0,h,NA,s,NA,NA,h,731,NA,79077,NA,NA,731,2,legacy,1024,2,48000,-16,experiment,SSHSS,999,odd,81717,NA,NA,NA,192096,2630,NA,NA,97998,2557,101687,193228,193360,194093,193195,193360,Flanker task,52,43654,53,yes,1024
98.14814815,98.14814815,824.5,824.5,black,legacy,legacy,legacy,0,incongruent,uniform,1,undefined,1,h,0,0,0,0,53,0,0,0,53,0,53,53,53,53,53,53,Wed Sep 25 22:28:14 2019,1500,The main experiment item,yes,fp-subject-1.osexp,/Users/freyaportales/Desktop/OpenSesame Assignments,no,mono,no,18,no,white,no,no,768,legacy,53,53,/Users/freyaportales/Desktop/OpenSesame Assignments/quickrun.csv,legacy,Kafkaesque Koffka,3.2.8,0,h,NA,s,NA,NA,h,869,NA,79077,NA,NA,869,2,legacy,1024,2,48000,-16,experiment,SSHSS,999,odd,81717,NA,NA,NA,194127,2630,NA,NA,97998,2557,101687,195255,195388,196259,195223,195388,Flanker task,53,44523,54,yes,1024
98.18181818,98.18181818,823.1818182,823.1818182,black,legacy,legacy,legacy,0,incongruent,uniform,1,undefined,1,h,0,0,0,0,54,0,0,0,54,0,54,54,54,54,54,54,Wed Sep 25 22:28:14 2019,1500,The main experiment item,yes,fp-subject-1.osexp,/Users/freyaportales/Desktop/OpenSesame Assignments,no,mono,no,18,no,white,no,no,768,legacy,54,54,/Users/freyaportales/Desktop/OpenSesame Assignments/quickrun.csv,legacy,Kafkaesque Koffka,3.2.8,0,h,NA,s,NA,NA,h,752,NA,79077,NA,NA,752,2,legacy,1024,2,48000,-16,experiment,SSHSS,999,odd,81717,NA,NA,NA,196302,2630,NA,NA,97998,2557,101687,197424,197556,198310,197391,197556,Flanker task,54,45275,55,yes,1024
98.21428571,98.21428571,824.9107143,824.9107143,black,legacy,legacy,legacy,0,congruent,uniform,1,undefined,1,s,0,0,0,0,55,0,0,0,55,0,55,55,55,55,55,55,Wed Sep 25 22:28:14 2019,1500,The main experiment item,yes,fp-subject-1.osexp,/Users/freyaportales/Desktop/OpenSesame Assignments,no,mono,no,18,no,white,no,no,768,legacy,55,55,/Users/freyaportales/Desktop/OpenSesame Assignments/quickrun.csv,legacy,Kafkaesque Koffka,3.2.8,0,s,NA,s,NA,NA,s,920,NA,79077,NA,NA,920,2,legacy,1024,2,48000,-16,experiment,SSSSS,999,odd,81717,NA,NA,NA,198350,2630,NA,NA,97998,2557,101687,199476,199609,200531,199443,199608,Flanker task,55,46195,56,yes,1024
98.24561404,98.24561404,823.6666667,823.6666667,black,legacy,legacy,legacy,0,congruent,uniform,1,undefined,1,s,0,0,0,0,56,0,0,0,56,0,56,56,56,56,56,56,Wed Sep 25 22:28:14 2019,1500,The main experiment item,yes,fp-subject-1.osexp,/Users/freyaportales/Desktop/OpenSesame Assignments,no,mono,no,18,no,white,no,no,768,legacy,56,56,/Users/freyaportales/Desktop/OpenSesame Assignments/quickrun.csv,legacy,Kafkaesque Koffka,3.2.8,0,s,NA,s,NA,NA,s,754,NA,79077,NA,NA,754,2,legacy,1024,2,48000,-16,experiment,SSSSS,999,odd,81717,NA,NA,NA,200576,2630,NA,NA,97998,2557,101687,201696,201829,202585,201664,201829,Flanker task,56,46949,57,yes,1024
98.27586207,98.27586207,822.4482759,822.4482759,black,legacy,legacy,legacy,0,incongruent,uniform,1,undefined,1,s,0,0,0,0,57,0,0,0,57,0,57,57,57,57,57,57,Wed Sep 25 22:28:14 2019,1500,The main experiment item,yes,fp-subject-1.osexp,/Users/freyaportales/Desktop/OpenSesame Assignments,no,mono,no,18,no,white,no,no,768,legacy,57,57,/Users/freyaportales/Desktop/OpenSesame Assignments/quickrun.csv,legacy,Kafkaesque Koffka,3.2.8,0,s,NA,s,NA,NA,s,753,NA,79077,NA,NA,753,2,legacy,1024,2,48000,-16,experiment,HHSHH,999,odd,81717,NA,NA,NA,202630,2630,NA,NA,97998,2557,101687,203750,203887,204642,203718,203886,Flanker task,57,47702,58,yes,1024
98.30508475,98.30508475,821.1355932,821.1355932,black,legacy,legacy,legacy,0,incongruent,uniform,1,undefined,1,s,0,0,0,0,58,0,0,0,58,0,58,58,58,58,58,58,Wed Sep 25 22:28:14 2019,1500,The main experiment item,yes,fp-subject-1.osexp,/Users/freyaportales/Desktop/OpenSesame Assignments,no,mono,no,18,no,white,no,no,768,legacy,58,58,/Users/freyaportales/Desktop/OpenSesame Assignments/quickrun.csv,legacy,Kafkaesque Koffka,3.2.8,0,s,NA,s,NA,NA,s,745,NA,79077,NA,NA,745,2,legacy,1024,2,48000,-16,experiment,HHSHH,999,odd,81717,NA,NA,NA,204684,2630,NA,NA,97998,2557,101687,205806,205938,206685,205773,205938,Flanker task,58,48447,59,yes,1024
98.33333333,98.33333333,816.7833333,816.7833333,black,legacy,legacy,legacy,0,congruent,uniform,1,undefined,1,h,0,0,0,0,59,0,0,0,59,0,59,59,59,59,59,59,Wed Sep 25 22:28:14 2019,1500,The main experiment item,yes,fp-subject-1.osexp,/Users/freyaportales/Desktop/OpenSesame Assignments,no,mono,no,18,no,white,no,no,768,legacy,59,59,/Users/freyaportales/Desktop/OpenSesame Assignments/quickrun.csv,legacy,Kafkaesque Koffka,3.2.8,0,h,NA,s,NA,NA,h,560,NA,79077,NA,NA,560,2,legacy,1024,2,48000,-16,experiment,HHHHH,999,odd,81717,NA,NA,NA,206719,2630,NA,NA,97998,2557,101687,207851,207984,208546,207819,207984,Flanker task,59,49007,60,yes,1024
98.36065574,98.36065574,815.3934426,815.3934426,black,legacy,legacy,legacy,0,incongruent,uniform,1,undefined,1,h,0,0,0,0,60,0,0,0,60,0,60,60,60,60,60,60,Wed Sep 25 22:28:14 2019,1500,The main experiment item,yes,fp-subject-1.osexp,/Users/freyaportales/Desktop/OpenSesame Assignments,no,mono,no,18,no,white,no,no,768,legacy,60,60,/Users/freyaportales/Desktop/OpenSesame Assignments/quickrun.csv,legacy,Kafkaesque Koffka,3.2.8,0,h,NA,s,NA,NA,h,732,NA,79077,NA,NA,732,2,legacy,1024,2,48000,-16,experiment,SSHSS,999,odd,81717,NA,NA,NA,208580,2630,NA,NA,97998,2557,101687,209696,209846,210580,209662,209846,Flanker task,60,49739,61,yes,1024
98.38709677,98.38709677,812.8870968,812.8870968,black,legacy,legacy,legacy,0,congruent,uniform,1,undefined,1,h,0,0,0,0,61,0,0,0,61,0,61,61,61,61,61,61,Wed Sep 25 22:28:14 2019,1500,The main experiment item,yes,fp-subject-1.osexp,/Users/freyaportales/Desktop/OpenSesame Assignments,no,mono,no,18,no,white,no,no,768,legacy,61,61,/Users/freyaportales/Desktop/OpenSesame Assignments/quickrun.csv,legacy,Kafkaesque Koffka,3.2.8,0,h,NA,s,NA,NA,h,660,NA,79077,NA,NA,660,2,legacy,1024,2,48000,-16,experiment,HHHHH,999,odd,81717,NA,NA,NA,210615,2630,NA,NA,97998,2557,101687,211730,211863,212526,211697,211863,Flanker task,61,50399,62,yes,1024
98.41269841,98.41269841,811.0793651,811.0793651,black,legacy,legacy,legacy,0,congruent,uniform,1,undefined,1,s,0,0,0,0,62,0,0,0,62,0,62,62,62,62,62,62,Wed Sep 25 22:28:14 2019,1500,The main experiment item,yes,fp-subject-1.osexp,/Users/freyaportales/Desktop/OpenSesame Assignments,no,mono,no,18,no,white,no,no,768,legacy,62,62,/Users/freyaportales/Desktop/OpenSesame Assignments/quickrun.csv,legacy,Kafkaesque Koffka,3.2.8,0,s,NA,s,NA,NA,s,699,NA,79077,NA,NA,699,2,legacy,1024,2,48000,-16,experiment,SSSSS,999,odd,81717,NA,NA,NA,212578,2630,NA,NA,97998,2557,101687,213693,213826,214527,213660,213825,Flanker task,62,51098,63,yes,1024
98.4375,98.4375,809.921875,809.921875,black,legacy,legacy,legacy,0,congruent,uniform,1,undefined,1,h,0,0,0,0,63,0,0,0,63,0,63,63,63,63,63,63,Wed Sep 25 22:28:14 2019,1500,The main experiment item,yes,fp-subject-1.osexp,/Users/freyaportales/Desktop/OpenSesame Assignments,no,mono,no,18,no,white,no,no,768,legacy,63,63,/Users/freyaportales/Desktop/OpenSesame Assignments/quickrun.csv,legacy,Kafkaesque Koffka,3.2.8,0,h,NA,s,NA,NA,h,737,NA,79077,NA,NA,737,2,legacy,1024,2,48000,-16,experiment,HHHHH,999,odd,81717,NA,NA,NA,214566,2630,NA,NA,97998,2557,101687,215696,215829,216568,215664,215829,Flanker task,63,51835,64,yes,1024
98.46153846,98.46153846,808.9230769,808.9230769,black,legacy,legacy,legacy,0,incongruent,uniform,1,undefined,1,s,0,0,0,0,64,0,0,0,64,0,64,64,64,64,64,64,Wed Sep 25 22:28:14 2019,1500,The main experiment item,yes,fp-subject-1.osexp,/Users/freyaportales/Desktop/OpenSesame Assignments,no,mono,no,18,no,white,no,no,768,legacy,64,64,/Users/freyaportales/Desktop/OpenSesame Assignments/quickrun.csv,legacy,Kafkaesque Koffka,3.2.8,0,s,NA,s,NA,NA,s,745,NA,79077,NA,NA,745,2,legacy,1024,2,48000,-16,experiment,HHSHH,999,odd,81717,NA,NA,NA,216603,2630,NA,NA,97998,2557,101687,217729,217861,218608,217697,217861,Flanker task,64,52580,65,yes,1024
98.48484848,98.48484848,808.3787879,808.3787879,black,legacy,legacy,legacy,0,incongruent,uniform,1,undefined,1,s,0,0,0,0,65,0,0,0,65,0,65,65,65,65,65,65,Wed Sep 25 22:28:14 2019,1500,The main experiment item,yes,fp-subject-1.osexp,/Users/freyaportales/Desktop/OpenSesame Assignments,no,mono,no,18,no,white,no,no,768,legacy,65,65,/Users/freyaportales/Desktop/OpenSesame Assignments/quickrun.csv,legacy,Kafkaesque Koffka,3.2.8,0,s,NA,s,NA,NA,s,773,NA,79077,NA,NA,773,2,legacy,1024,2,48000,-16,experiment,HHSHH,999,odd,81717,NA,NA,NA,218643,2630,NA,NA,97998,2557,101687,219774,219907,220683,219741,219907,Flanker task,65,53353,66,yes,1024
98.50746269,98.50746269,810.3880597,810.3880597,black,legacy,legacy,legacy,0,incongruent,uniform,1,undefined,1,h,0,0,0,0,66,0,0,0,66,0,66,66,66,66,66,66,Wed Sep 25 22:28:14 2019,1500,The main experiment item,yes,fp-subject-1.osexp,/Users/freyaportales/Desktop/OpenSesame Assignments,no,mono,no,18,no,white,no,no,768,legacy,66,66,/Users/freyaportales/Desktop/OpenSesame Assignments/quickrun.csv,legacy,Kafkaesque Koffka,3.2.8,0,h,NA,s,NA,NA,h,943,NA,79077,NA,NA,943,2,legacy,1024,2,48000,-16,experiment,SSHSS,999,odd,81717,NA,NA,NA,220721,2630,NA,NA,97998,2557,101687,221851,221986,222932,221818,221986,Flanker task,66,54296,67,yes,1024
98.52941176,98.52941176,812.2941176,812.2941176,black,legacy,legacy,legacy,0,incongruent,uniform,1,undefined,1,h,0,0,0,0,67,0,0,0,67,0,67,67,67,67,67,67,Wed Sep 25 22:28:14 2019,1500,The main experiment item,yes,fp-subject-1.osexp,/Users/freyaportales/Desktop/OpenSesame Assignments,no,mono,no,18,no,white,no,no,768,legacy,67,67,/Users/freyaportales/Desktop/OpenSesame Assignments/quickrun.csv,legacy,Kafkaesque Koffka,3.2.8,0,h,NA,s,NA,NA,h,940,NA,79077,NA,NA,940,2,legacy,1024,2,48000,-16,experiment,SSHSS,999,odd,81717,NA,NA,NA,222967,2630,NA,NA,97998,2557,101687,224091,224223,225166,224058,224223,Flanker task,67,55236,68,yes,1024
98.55072464,98.55072464,810.2318841,810.2318841,black,legacy,legacy,legacy,0,incongruent,uniform,1,undefined,1,s,0,0,0,0,68,0,0,0,68,0,68,68,68,68,68,68,Wed Sep 25 22:28:14 2019,1500,The main experiment item,yes,fp-subject-1.osexp,/Users/freyaportales/Desktop/OpenSesame Assignments,no,mono,no,18,no,white,no,no,768,legacy,68,68,/Users/freyaportales/Desktop/OpenSesame Assignments/quickrun.csv,legacy,Kafkaesque Koffka,3.2.8,0,s,NA,s,NA,NA,s,670,NA,79077,NA,NA,670,2,legacy,1024,2,48000,-16,experiment,HHSHH,999,odd,81717,NA,NA,NA,225202,2630,NA,NA,97998,2557,101687,226323,226455,227127,226290,226455,Flanker task,68,55906,69,yes,1024
98.57142857,98.57142857,808.9857143,808.9857143,black,legacy,legacy,legacy,0,congruent,uniform,1,undefined,1,h,0,0,0,0,69,0,0,0,69,0,69,69,69,69,69,69,Wed Sep 25 22:28:14 2019,1500,The main experiment item,yes,fp-subject-1.osexp,/Users/freyaportales/Desktop/OpenSesame Assignments,no,mono,no,18,no,white,no,no,768,legacy,69,69,/Users/freyaportales/Desktop/OpenSesame Assignments/quickrun.csv,legacy,Kafkaesque Koffka,3.2.8,0,h,NA,s,NA,NA,h,723,NA,79077,NA,NA,723,2,legacy,1024,2,48000,-16,experiment,HHHHH,999,odd,81717,NA,NA,NA,227162,2630,NA,NA,97998,2557,101687,228280,228413,229138,228245,228413,Flanker task,69,56629,70,yes,1024
98.5915493,98.5915493,806.3943662,806.3943662,black,legacy,legacy,legacy,0,incongruent,uniform,1,undefined,1,s,0,0,0,0,70,0,0,0,70,0,70,70,70,70,70,70,Wed Sep 25 22:28:14 2019,1500,The main experiment item,yes,fp-subject-1.osexp,/Users/freyaportales/Desktop/OpenSesame Assignments,no,mono,no,18,no,white,no,no,768,legacy,70,70,/Users/freyaportales/Desktop/OpenSesame Assignments/quickrun.csv,legacy,Kafkaesque Koffka,3.2.8,0,s,NA,s,NA,NA,s,625,NA,79077,NA,NA,625,2,legacy,1024,2,48000,-16,experiment,HHSHH,999,odd,81717,NA,NA,NA,229173,2630,NA,NA,97998,2557,101687,230289,230422,231050,230256,230422,Flanker task,70,57254,71,yes,1024
98.61111111,98.61111111,806.0694444,806.0694444,black,legacy,legacy,legacy,0,congruent,uniform,1,undefined,1,s,0,0,0,0,71,0,0,0,71,0,71,71,71,71,71,71,Wed Sep 25 22:28:14 2019,1500,The main experiment item,yes,fp-subject-1.osexp,/Users/freyaportales/Desktop/OpenSesame Assignments,no,mono,no,18,no,white,no,no,768,legacy,71,71,/Users/freyaportales/Desktop/OpenSesame Assignments/quickrun.csv,legacy,Kafkaesque Koffka,3.2.8,0,s,NA,s,NA,NA,s,783,NA,79077,NA,NA,783,2,legacy,1024,2,48000,-16,experiment,SSSSS,999,odd,81717,NA,NA,NA,231085,2630,NA,NA,97998,2557,101687,232200,232332,233118,232167,232332,Flanker task,71,58037,72,yes,1024
98.63013699,98.63013699,803.6575342,803.6575342,black,legacy,legacy,legacy,0,congruent,uniform,1,undefined,1,h,0,0,0,0,72,0,0,0,72,0,72,72,72,72,72,72,Wed Sep 25 22:28:14 2019,1500,The main experiment item,yes,fp-subject-1.osexp,/Users/freyaportales/Desktop/OpenSesame Assignments,no,mono,no,18,no,white,no,no,768,legacy,72,72,/Users/freyaportales/Desktop/OpenSesame Assignments/quickrun.csv,legacy,Kafkaesque Koffka,3.2.8,0,h,NA,s,NA,NA,h,630,NA,79077,NA,NA,630,2,legacy,1024,2,48000,-16,experiment,HHHHH,999,odd,81717,NA,NA,NA,233154,2630,NA,NA,97998,2557,101687,234276,234408,235040,234243,234408,Flanker task,72,58667,73,yes,1024
98.64864865,98.64864865,802.5810811,802.5810811,black,legacy,legacy,legacy,0,congruent,uniform,1,undefined,1,s,0,0,0,0,73,0,0,0,73,0,73,73,73,73,73,73,Wed Sep 25 22:28:14 2019,1500,The main experiment item,yes,fp-subject-1.osexp,/Users/freyaportales/Desktop/OpenSesame Assignments,no,mono,no,18,no,white,no,no,768,legacy,73,73,/Users/freyaportales/Desktop/OpenSesame Assignments/quickrun.csv,legacy,Kafkaesque Koffka,3.2.8,0,s,NA,s,NA,NA,s,724,NA,79077,NA,NA,724,2,legacy,1024,2,48000,-16,experiment,SSSSS,999,odd,81717,NA,NA,NA,235076,2630,NA,NA,97998,2557,101687,236196,236329,237055,236164,236329,Flanker task,73,59391,74,yes,1024
98.66666667,98.66666667,803.0133333,803.0133333,black,legacy,legacy,legacy,0,congruent,uniform,1,undefined,1,s,0,0,0,0,74,0,0,0,74,0,74,74,74,74,74,74,Wed Sep 25 22:28:14 2019,1500,The main experiment item,yes,fp-subject-1.osexp,/Users/freyaportales/Desktop/OpenSesame Assignments,no,mono,no,18,no,white,no,no,768,legacy,74,74,/Users/freyaportales/Desktop/OpenSesame Assignments/quickrun.csv,legacy,Kafkaesque Koffka,3.2.8,0,s,NA,s,NA,NA,s,835,NA,79077,NA,NA,835,2,legacy,1024,2,48000,-16,experiment,SSSSS,999,odd,81717,NA,NA,NA,237090,2630,NA,NA,97998,2557,101687,238205,238337,239174,238172,238337,Flanker task,74,60226,75,yes,1024
98.68421053,98.68421053,802.8552632,802.8552632,black,legacy,legacy,legacy,0,congruent,uniform,1,undefined,1,h,0,0,0,0,75,0,0,0,75,0,75,75,75,75,75,75,Wed Sep 25 22:28:14 2019,1500,The main experiment item,yes,fp-subject-1.osexp,/Users/freyaportales/Desktop/OpenSesame Assignments,no,mono,no,18,no,white,no,no,768,legacy,75,75,/Users/freyaportales/Desktop/OpenSesame Assignments/quickrun.csv,legacy,Kafkaesque Koffka,3.2.8,0,h,NA,s,NA,NA,h,791,NA,79077,NA,NA,791,2,legacy,1024,2,48000,-16,experiment,HHHHH,999,odd,81717,NA,NA,NA,239209,2630,NA,NA,97998,2557,101687,240325,240457,241250,240292,240457,Flanker task,75,61017,76,yes,1024
98.7012987,98.7012987,801.3116883,801.3116883,black,legacy,legacy,legacy,0,incongruent,uniform,1,undefined,1,s,0,0,0,0,76,0,0,0,76,0,76,76,76,76,76,76,Wed Sep 25 22:28:14 2019,1500,The main experiment item,yes,fp-subject-1.osexp,/Users/freyaportales/Desktop/OpenSesame Assignments,no,mono,no,18,no,white,no,no,768,legacy,76,76,/Users/freyaportales/Desktop/OpenSesame Assignments/quickrun.csv,legacy,Kafkaesque Koffka,3.2.8,0,s,NA,s,NA,NA,s,684,NA,79077,NA,NA,684,2,legacy,1024,2,48000,-16,experiment,HHSHH,999,odd,81717,NA,NA,NA,241285,2630,NA,NA,97998,2557,101687,242424,242562,243248,242392,242562,Flanker task,76,61701,77,yes,1024
98.71794872,98.71794872,800.3589744,800.3589744,black,legacy,legacy,legacy,0,incongruent,uniform,1,undefined,1,h,0,0,0,0,77,0,0,0,77,0,77,77,77,77,77,77,Wed Sep 25 22:28:14 2019,1500,The main experiment item,yes,fp-subject-1.osexp,/Users/freyaportales/Desktop/OpenSesame Assignments,no,mono,no,18,no,white,no,no,768,legacy,77,77,/Users/freyaportales/Desktop/OpenSesame Assignments/quickrun.csv,legacy,Kafkaesque Koffka,3.2.8,0,h,NA,s,NA,NA,h,727,NA,79077,NA,NA,727,2,legacy,1024,2,48000,-16,experiment,SSHSS,999,odd,81717,NA,NA,NA,243285,2630,NA,NA,97998,2557,101687,244400,244532,245261,244367,244532,Flanker task,77,62428,78,yes,1024
98.73417722,98.73417722,797.556962,797.556962,black,legacy,legacy,legacy,0,incongruent,uniform,1,undefined,1,s,0,0,0,0,78,0,0,0,78,0,78,78,78,78,78,78,Wed Sep 25 22:28:14 2019,1500,The main experiment item,yes,fp-subject-1.osexp,/Users/freyaportales/Desktop/OpenSesame Assignments,no,mono,no,18,no,white,no,no,768,legacy,78,78,/Users/freyaportales/Desktop/OpenSesame Assignments/quickrun.csv,legacy,Kafkaesque Koffka,3.2.8,0,s,NA,s,NA,NA,s,579,NA,79077,NA,NA,579,2,legacy,1024,2,48000,-16,experiment,HHSHH,999,odd,81717,NA,NA,NA,245296,2630,NA,NA,97998,2557,101687,246412,246544,247125,246379,246544,Flanker task,78,63007,79,yes,1024
98.75,98.75,799.2375,799.2375,black,legacy,legacy,legacy,0,incongruent,uniform,1,undefined,1,h,0,0,0,0,79,0,0,0,79,0,79,79,79,79,79,79,Wed Sep 25 22:28:14 2019,1500,The main experiment item,yes,fp-subject-1.osexp,/Users/freyaportales/Desktop/OpenSesame Assignments,no,mono,no,18,no,white,no,no,768,legacy,79,79,/Users/freyaportales/Desktop/OpenSesame Assignments/quickrun.csv,legacy,Kafkaesque Koffka,3.2.8,0,h,NA,s,NA,NA,h,932,NA,79077,NA,NA,932,2,legacy,1024,2,48000,-16,experiment,SSHSS,999,odd,81717,NA,NA,NA,247160,2630,NA,NA,97998,2557,101687,248276,248408,249343,248243,248408,Flanker task,79,63939,80,yes,1024
98.7654321,98.7654321,798.0493827,798.0493827,black,legacy,legacy,legacy,0,incongruent,uniform,1,undefined,1,s,0,0,0,0,80,0,0,0,80,0,80,80,80,80,80,80,Wed Sep 25 22:28:14 2019,600,The main experiment item,yes,fp-subject-1.osexp,/Users/freyaportales/Desktop/OpenSesame Assignments,no,mono,no,18,no,white,no,no,768,legacy,0,79,/Users/freyaportales/Desktop/OpenSesame Assignments/quickrun.csv,legacy,Kafkaesque Koffka,3.2.8,0,s,NA,s,h,NA,s,703,NA,79077,13730,NA,703,2,legacy,1024,2,48000,-16,experiment,HHSHH,999,odd,81717,264171,NA,NA,249383,2630,250438,NA,97998,2557,101687,264297,264429,265134,264263,264429,Flanker task,80,64642,81,yes,1024
98.7804878,98.7804878,794.3170732,794.3170732,black,legacy,legacy,legacy,0,congruent,uniform,1,undefined,1,h,0,0,0,0,81,0,0,0,81,0,81,81,81,81,81,81,Wed Sep 25 22:28:14 2019,600,The main experiment item,yes,fp-subject-1.osexp,/Users/freyaportales/Desktop/OpenSesame Assignments,no,mono,no,18,no,white,no,no,768,legacy,1,79,/Users/freyaportales/Desktop/OpenSesame Assignments/quickrun.csv,legacy,Kafkaesque Koffka,3.2.8,0,h,NA,s,h,NA,h,492,NA,79077,13730,NA,492,2,legacy,1024,2,48000,-16,experiment,HHHHH,999,odd,81717,264171,NA,NA,265701,2630,250438,NA,97998,2557,265169,266817,266950,267444,266785,266950,Flanker task,81,65134,82,yes,1024
98.79518072,98.79518072,790.2289157,790.2289157,black,legacy,legacy,legacy,0,incongruent,uniform,1,undefined,1,s,0,0,0,0,82,0,0,0,82,0,82,82,82,82,82,82,Wed Sep 25 22:28:14 2019,600,The main experiment item,yes,fp-subject-1.osexp,/Users/freyaportales/Desktop/OpenSesame Assignments,no,mono,no,18,no,white,no,no,768,legacy,2,79,/Users/freyaportales/Desktop/OpenSesame Assignments/quickrun.csv,legacy,Kafkaesque Koffka,3.2.8,0,s,NA,s,h,NA,s,455,NA,79077,13730,NA,455,2,legacy,1024,2,48000,-16,experiment,HHSHH,999,odd,81717,264171,NA,NA,267482,2630,250438,NA,97998,2557,265169,268603,268735,269192,268570,268735,Flanker task,82,65589,83,yes,1024
97.61904762,97.61904762,786.3690476,786.3690476,black,legacy,legacy,legacy,0,incongruent,uniform,0,undefined,0,s,0,0,0,0,83,0,0,0,83,0,83,83,83,83,83,83,Wed Sep 25 22:28:14 2019,600,The main experiment item,yes,fp-subject-1.osexp,/Users/freyaportales/Desktop/OpenSesame Assignments,no,mono,no,18,no,white,no,no,768,legacy,3,79,/Users/freyaportales/Desktop/OpenSesame Assignments/quickrun.csv,legacy,Kafkaesque Koffka,3.2.8,0,h,NA,s,h,NA,h,466,NA,79077,13730,NA,466,2,legacy,1024,2,48000,-16,experiment,HHSHH,999,odd,81717,264171,NA,NA,269226,2630,250438,NA,97998,2557,265169,270341,270474,270943,270308,270474,Flanker task,82,66055,84,yes,1024
97.64705882,97.64705882,784.8,784.8,black,legacy,legacy,legacy,0,incongruent,uniform,1,undefined,1,h,0,0,0,0,84,0,0,0,84,0,84,84,84,84,84,84,Wed Sep 25 22:28:14 2019,600,The main experiment item,yes,fp-subject-1.osexp,/Users/freyaportales/Desktop/OpenSesame Assignments,no,mono,no,18,no,white,no,no,768,legacy,4,79,/Users/freyaportales/Desktop/OpenSesame Assignments/quickrun.csv,legacy,Kafkaesque Koffka,3.2.8,0,h,NA,s,h,NA,h,653,NA,79077,13730,NA,653,2,legacy,1024,2,48000,-16,experiment,SSHSS,999,odd,81717,264171,NA,NA,271514,2630,250438,NA,270980,2557,265169,272643,272776,273431,272608,272775,Flanker task,83,66708,85,yes,1024
96.51162791,96.51162791,780.0116279,780.0116279,black,legacy,legacy,legacy,0,incongruent,uniform,0,undefined,0,h,0,0,0,0,85,0,0,0,85,0,85,85,85,85,85,85,Wed Sep 25 22:28:14 2019,600,The main experiment item,yes,fp-subject-1.osexp,/Users/freyaportales/Desktop/OpenSesame Assignments,no,mono,no,18,no,white,no,no,768,legacy,5,79,/Users/freyaportales/Desktop/OpenSesame Assignments/quickrun.csv,legacy,Kafkaesque Koffka,3.2.8,0,s,NA,s,h,NA,s,373,NA,79077,13730,NA,373,2,legacy,1024,2,48000,-16,experiment,SSHSS,999,odd,81717,264171,NA,NA,274002,2630,250438,NA,270980,2557,273470,275119,275253,275629,275087,275252,Flanker task,83,67081,86,yes,1024
96.55172414,96.55172414,777.4482759,777.4482759,black,legacy,legacy,legacy,0,incongruent,uniform,1,undefined,1,h,0,0,0,0,86,0,0,0,86,0,86,86,86,86,86,86,Wed Sep 25 22:28:14 2019,600,The main experiment item,yes,fp-subject-1.osexp,/Users/freyaportales/Desktop/OpenSesame Assignments,no,mono,no,18,no,white,no,no,768,legacy,6,79,/Users/freyaportales/Desktop/OpenSesame Assignments/quickrun.csv,legacy,Kafkaesque Koffka,3.2.8,0,h,NA,s,h,NA,h,557,NA,79077,13730,NA,557,2,legacy,1024,2,48000,-16,experiment,SSHSS,999,odd,81717,264171,NA,NA,276198,2630,250438,NA,275665,2557,273470,277313,277445,278004,277280,277445,Flanker task,84,67638,87,yes,1024
96.59090909,96.59090909,776.0113636,776.0113636,black,legacy,legacy,legacy,0,incongruent,uniform,1,undefined,1,h,0,0,0,0,87,0,0,0,87,0,87,87,87,87,87,87,Wed Sep 25 22:28:14 2019,600,The main experiment item,yes,fp-subject-1.osexp,/Users/freyaportales/Desktop/OpenSesame Assignments,no,mono,no,18,no,white,no,no,768,legacy,7,79,/Users/freyaportales/Desktop/OpenSesame Assignments/quickrun.csv,legacy,Kafkaesque Koffka,3.2.8,0,h,NA,s,h,NA,h,651,NA,79077,13730,NA,651,2,legacy,1024,2,48000,-16,experiment,SSHSS,999,odd,81717,264171,NA,NA,278044,2630,250438,NA,275665,2557,273470,279165,279298,279951,279132,279298,Flanker task,85,68289,88,yes,1024
96.62921348,96.62921348,772.6067416,772.6067416,black,legacy,legacy,legacy,0,congruent,uniform,1,undefined,1,h,0,0,0,0,88,0,0,0,88,0,88,88,88,88,88,88,Wed Sep 25 22:28:14 2019,600,The main experiment item,yes,fp-subject-1.osexp,/Users/freyaportales/Desktop/OpenSesame Assignments,no,mono,no,18,no,white,no,no,768,legacy,8,79,/Users/freyaportales/Desktop/OpenSesame Assignments/quickrun.csv,legacy,Kafkaesque Koffka,3.2.8,0,h,NA,s,h,NA,h,473,NA,79077,13730,NA,473,2,legacy,1024,2,48000,-16,experiment,HHHHH,999,odd,81717,264171,NA,NA,280519,2630,250438,NA,275665,2557,279986,281634,281766,282241,281602,281766,Flanker task,86,68762,89,yes,1024
96.66666667,96.66666667,769.0111111,769.0111111,black,legacy,legacy,legacy,0,congruent,uniform,1,undefined,1,h,0,0,0,0,89,0,0,0,89,0,89,89,89,89,89,89,Wed Sep 25 22:28:14 2019,600,The main experiment item,yes,fp-subject-1.osexp,/Users/freyaportales/Desktop/OpenSesame Assignments,no,mono,no,18,no,white,no,no,768,legacy,9,79,/Users/freyaportales/Desktop/OpenSesame Assignments/quickrun.csv,legacy,Kafkaesque Koffka,3.2.8,0,h,NA,s,h,NA,h,449,NA,79077,13730,NA,449,2,legacy,1024,2,48000,-16,experiment,HHHHH,999,odd,81717,264171,NA,NA,282277,2630,250438,NA,275665,2557,279986,283404,283536,283987,283371,283536,Flanker task,87,69211,90,yes,1024
95.6043956,95.6043956,766.1758242,766.1758242,black,legacy,legacy,legacy,0,incongruent,uniform,0,undefined,0,h,0,0,0,0,90,0,0,0,90,0,90,90,90,90,90,90,Wed Sep 25 22:28:14 2019,600,The main experiment item,yes,fp-subject-1.osexp,/Users/freyaportales/Desktop/OpenSesame Assignments,no,mono,no,18,no,white,no,no,768,legacy,10,79,/Users/freyaportales/Desktop/OpenSesame Assignments/quickrun.csv,legacy,Kafkaesque Koffka,3.2.8,0,s,NA,s,h,NA,s,511,NA,79077,13730,NA,511,2,legacy,1024,2,48000,-16,experiment,SSHSS,999,odd,81717,264171,NA,NA,284021,2630,250438,NA,275665,2557,279986,285137,285270,285784,285105,285270,Flanker task,87,69722,91,yes,1024
95.65217391,95.65217391,765.1956522,765.1956522,black,legacy,legacy,legacy,0,incongruent,uniform,1,undefined,1,h,0,0,0,0,91,0,0,0,91,0,91,91,91,91,91,91,Wed Sep 25 22:28:14 2019,600,The main experiment item,yes,fp-subject-1.osexp,/Users/freyaportales/Desktop/OpenSesame Assignments,no,mono,no,18,no,white,no,no,768,legacy,11,79,/Users/freyaportales/Desktop/OpenSesame Assignments/quickrun.csv,legacy,Kafkaesque Koffka,3.2.8,0,h,NA,s,h,NA,h,676,NA,79077,13730,NA,676,2,legacy,1024,2,48000,-16,experiment,SSHSS,999,odd,81717,264171,NA,NA,286358,2630,250438,NA,285826,2557,279986,287473,287606,288285,287441,287606,Flanker task,88,70398,92,yes,1024
95.69892473,95.69892473,762.7634409,762.7634409,black,legacy,legacy,legacy,0,incongruent,uniform,1,undefined,1,s,0,0,0,0,92,0,0,0,92,0,92,92,92,92,92,92,Wed Sep 25 22:28:14 2019,600,The main experiment item,yes,fp-subject-1.osexp,/Users/freyaportales/Desktop/OpenSesame Assignments,no,mono,no,18,no,white,no,no,768,legacy,12,79,/Users/freyaportales/Desktop/OpenSesame Assignments/quickrun.csv,legacy,Kafkaesque Koffka,3.2.8,0,s,NA,s,h,NA,s,539,NA,79077,13730,NA,539,2,legacy,1024,2,48000,-16,experiment,HHSHH,999,odd,81717,264171,NA,NA,288853,2630,250438,NA,285826,2557,288321,289994,290126,290670,289959,290126,Flanker task,89,70937,93,yes,1024
95.74468085,95.74468085,759.5106383,759.5106383,black,legacy,legacy,legacy,0,congruent,uniform,1,undefined,1,s,0,0,0,0,93,0,0,0,93,0,93,93,93,93,93,93,Wed Sep 25 22:28:14 2019,600,The main experiment item,yes,fp-subject-1.osexp,/Users/freyaportales/Desktop/OpenSesame Assignments,no,mono,no,18,no,white,no,no,768,legacy,13,79,/Users/freyaportales/Desktop/OpenSesame Assignments/quickrun.csv,legacy,Kafkaesque Koffka,3.2.8,0,s,NA,s,h,NA,s,457,NA,79077,13730,NA,457,2,legacy,1024,2,48000,-16,experiment,SSSSS,999,odd,81717,264171,NA,NA,290706,2630,250438,NA,285826,2557,288321,291831,291964,292423,291798,291964,Flanker task,90,71394,94,yes,1024
95.78947368,95.78947368,756.8210526,756.8210526,black,legacy,legacy,legacy,0,congruent,uniform,1,undefined,1,h,0,0,0,0,94,0,0,0,94,0,94,94,94,94,94,94,Wed Sep 25 22:28:14 2019,600,The main experiment item,yes,fp-subject-1.osexp,/Users/freyaportales/Desktop/OpenSesame Assignments,no,mono,no,18,no,white,no,no,768,legacy,14,79,/Users/freyaportales/Desktop/OpenSesame Assignments/quickrun.csv,legacy,Kafkaesque Koffka,3.2.8,0,h,NA,s,h,NA,h,504,NA,79077,13730,NA,504,2,legacy,1024,2,48000,-16,experiment,HHHHH,999,odd,81717,264171,NA,NA,292457,2630,250438,NA,285826,2557,288321,293573,293706,294212,293541,293706,Flanker task,91,71898,95,yes,1024
95.83333333,95.83333333,753.6458333,753.6458333,black,legacy,legacy,legacy,0,congruent,uniform,1,undefined,1,h,0,0,0,0,95,0,0,0,95,0,95,95,95,95,95,95,Wed Sep 25 22:28:14 2019,600,The main experiment item,yes,fp-subject-1.osexp,/Users/freyaportales/Desktop/OpenSesame Assignments,no,mono,no,18,no,white,no,no,768,legacy,15,79,/Users/freyaportales/Desktop/OpenSesame Assignments/quickrun.csv,legacy,Kafkaesque Koffka,3.2.8,0,h,NA,s,h,NA,h,452,NA,79077,13730,NA,452,2,legacy,1024,2,48000,-16,experiment,HHHHH,999,odd,81717,264171,NA,NA,294255,2630,250438,NA,285826,2557,288321,295371,295504,295958,295338,295504,Flanker task,92,72350,96,yes,1024
94.84536082,94.84536082,751.1546392,751.1546392,black,legacy,legacy,legacy,0,incongruent,uniform,0,undefined,0,h,0,0,0,0,96,0,0,0,96,0,96,96,96,96,96,96,Wed Sep 25 22:28:14 2019,600,The main experiment item,yes,fp-subject-1.osexp,/Users/freyaportales/Desktop/OpenSesame Assignments,no,mono,no,18,no,white,no,no,768,legacy,16,79,/Users/freyaportales/Desktop/OpenSesame Assignments/quickrun.csv,legacy,Kafkaesque Koffka,3.2.8,0,s,NA,s,h,NA,s,512,NA,79077,13730,NA,512,2,legacy,1024,2,48000,-16,experiment,SSHSS,999,odd,81717,264171,NA,NA,295994,2630,250438,NA,285826,2557,288321,297109,297241,297755,297077,297241,Flanker task,92,72862,97,yes,1024
94.89795918,94.89795918,748.2653061,748.2653061,black,legacy,legacy,legacy,0,congruent,uniform,1,undefined,1,h,0,0,0,0,97,0,0,0,97,0,97,97,97,97,97,97,Wed Sep 25 22:28:14 2019,600,The main experiment item,yes,fp-subject-1.osexp,/Users/freyaportales/Desktop/OpenSesame Assignments,no,mono,no,18,no,white,no,no,768,legacy,17,79,/Users/freyaportales/Desktop/OpenSesame Assignments/quickrun.csv,legacy,Kafkaesque Koffka,3.2.8,0,h,NA,s,h,NA,h,468,NA,79077,13730,NA,468,2,legacy,1024,2,48000,-16,experiment,HHHHH,999,odd,81717,264171,NA,NA,298332,2630,250438,NA,297799,2557,288321,299447,299580,300050,299415,299580,Flanker task,93,73330,98,yes,1024
94.94949495,94.94949495,745.5454545,745.5454545,black,legacy,legacy,legacy,0,incongruent,uniform,1,undefined,1,s,0,0,0,0,98,0,0,0,98,0,98,98,98,98,98,98,Wed Sep 25 22:28:14 2019,600,The main experiment item,yes,fp-subject-1.osexp,/Users/freyaportales/Desktop/OpenSesame Assignments,no,mono,no,18,no,white,no,no,768,legacy,18,79,/Users/freyaportales/Desktop/OpenSesame Assignments/quickrun.csv,legacy,Kafkaesque Koffka,3.2.8,0,s,NA,s,h,NA,s,479,NA,79077,13730,NA,479,2,legacy,1024,2,48000,-16,experiment,HHSHH,999,odd,81717,264171,NA,NA,300087,2630,250438,NA,297799,2557,288321,301204,301336,301817,301171,301336,Flanker task,94,73809,99,yes,1024
95,95,743.86,743.86,black,legacy,legacy,legacy,0,incongruent,uniform,1,undefined,1,h,0,0,0,0,99,0,0,0,99,0,99,99,99,99,99,99,Wed Sep 25 22:28:14 2019,600,The main experiment item,yes,fp-subject-1.osexp,/Users/freyaportales/Desktop/OpenSesame Assignments,no,mono,no,18,no,white,no,no,768,legacy,19,79,/Users/freyaportales/Desktop/OpenSesame Assignments/quickrun.csv,legacy,Kafkaesque Koffka,3.2.8,0,h,NA,s,h,NA,h,577,NA,79077,13730,NA,577,2,legacy,1024,2,48000,-16,experiment,SSHSS,999,odd,81717,264171,NA,NA,301851,2630,250438,NA,297799,2557,288321,302966,303099,303678,302933,303099,Flanker task,95,74386,100,yes,1024
95.04950495,95.04950495,741.0891089,741.0891089,black,legacy,legacy,legacy,0,congruent,uniform,1,undefined,1,s,0,0,0,0,100,0,0,0,100,0,100,100,100,100,100,100,Wed Sep 25 22:28:14 2019,600,The main experiment item,yes,fp-subject-1.osexp,/Users/freyaportales/Desktop/OpenSesame Assignments,no,mono,no,18,no,white,no,no,768,legacy,20,79,/Users/freyaportales/Desktop/OpenSesame Assignments/quickrun.csv,legacy,Kafkaesque Koffka,3.2.8,0,s,NA,s,h,NA,s,464,NA,79077,13730,NA,464,2,legacy,1024,2,48000,-16,experiment,SSSSS,999,odd,81717,264171,NA,NA,303718,2630,250438,NA,297799,2557,288321,304842,304974,305440,304810,304974,Flanker task,96,74850,101,yes,1024
95.09803922,95.09803922,738.0882353,738.0882353,black,legacy,legacy,legacy,0,congruent,uniform,1,undefined,1,s,0,0,0,0,101,0,0,0,101,0,101,101,101,101,101,101,Wed Sep 25 22:28:14 2019,600,The main experiment item,yes,fp-subject-1.osexp,/Users/freyaportales/Desktop/OpenSesame Assignments,no,mono,no,18,no,white,no,no,768,legacy,21,79,/Users/freyaportales/Desktop/OpenSesame Assignments/quickrun.csv,legacy,Kafkaesque Koffka,3.2.8,0,s,NA,s,h,NA,s,435,NA,79077,13730,NA,435,2,legacy,1024,2,48000,-16,experiment,SSSSS,999,odd,81717,264171,NA,NA,305474,2630,250438,NA,297799,2557,288321,306590,306722,307159,306557,306722,Flanker task,97,75285,102,yes,1024
95.14563107,95.14563107,735.9805825,735.9805825,black,legacy,legacy,legacy,0,incongruent,uniform,1,undefined,1,h,0,0,0,0,102,0,0,0,102,0,102,102,102,102,102,102,Wed Sep 25 22:28:14 2019,600,The main experiment item,yes,fp-subject-1.osexp,/Users/freyaportales/Desktop/OpenSesame Assignments,no,mono,no,18,no,white,no,no,768,legacy,22,79,/Users/freyaportales/Desktop/OpenSesame Assignments/quickrun.csv,legacy,Kafkaesque Koffka,3.2.8,0,h,NA,s,h,NA,h,521,NA,79077,13730,NA,521,2,legacy,1024,2,48000,-16,experiment,SSHSS,999,odd,81717,264171,NA,NA,307197,2630,250438,NA,297799,2557,288321,308324,308456,308979,308291,308456,Flanker task,98,75806,103,yes,1024
95.19230769,95.19230769,733.5192308,733.5192308,black,legacy,legacy,legacy,0,congruent,uniform,1,undefined,1,h,0,0,0,0,103,0,0,0,103,0,103,103,103,103,103,103,Wed Sep 25 22:28:14 2019,600,The main experiment item,yes,fp-subject-1.osexp,/Users/freyaportales/Desktop/OpenSesame Assignments,no,mono,no,18,no,white,no,no,768,legacy,23,79,/Users/freyaportales/Desktop/OpenSesame Assignments/quickrun.csv,legacy,Kafkaesque Koffka,3.2.8,0,h,NA,s,h,NA,h,480,NA,79077,13730,NA,480,2,legacy,1024,2,48000,-16,experiment,HHHHH,999,odd,81717,264171,NA,NA,309012,2630,250438,NA,297799,2557,288321,310129,310261,310743,310097,310261,Flanker task,99,76286,104,yes,1024
95.23809524,95.23809524,731.3619048,731.3619048,black,legacy,legacy,legacy,0,congruent,uniform,1,undefined,1,s,0,0,0,0,104,0,0,0,104,0,104,104,104,104,104,104,Wed Sep 25 22:28:14 2019,600,The main experiment item,yes,fp-subject-1.osexp,/Users/freyaportales/Desktop/OpenSesame Assignments,no,mono,no,18,no,white,no,no,768,legacy,24,79,/Users/freyaportales/Desktop/OpenSesame Assignments/quickrun.csv,legacy,Kafkaesque Koffka,3.2.8,0,s,NA,s,h,NA,s,507,NA,79077,13730,NA,507,2,legacy,1024,2,48000,-16,experiment,SSSSS,999,odd,81717,264171,NA,NA,310789,2630,250438,NA,297799,2557,288321,311904,312037,312546,311871,312037,Flanker task,100,76793,105,yes,1024
95.28301887,95.28301887,729.3396226,729.3396226,black,legacy,legacy,legacy,0,congruent,uniform,1,undefined,1,h,0,0,0,0,105,0,0,0,105,0,105,105,105,105,105,105,Wed Sep 25 22:28:14 2019,600,The main experiment item,yes,fp-subject-1.osexp,/Users/freyaportales/Desktop/OpenSesame Assignments,no,mono,no,18,no,white,no,no,768,legacy,25,79,/Users/freyaportales/Desktop/OpenSesame Assignments/quickrun.csv,legacy,Kafkaesque Koffka,3.2.8,0,h,NA,s,h,NA,h,517,NA,79077,13730,NA,517,2,legacy,1024,2,48000,-16,experiment,HHHHH,999,odd,81717,264171,NA,NA,312581,2630,250438,NA,297799,2557,288321,313696,313828,314348,313663,313828,Flanker task,101,77310,106,yes,1024
95.3271028,95.3271028,726.411215,726.411215,black,legacy,legacy,legacy,0,congruent,uniform,1,undefined,1,h,0,0,0,0,106,0,0,0,106,0,106,106,106,106,106,106,Wed Sep 25 22:28:14 2019,600,The main experiment item,yes,fp-subject-1.osexp,/Users/freyaportales/Desktop/OpenSesame Assignments,no,mono,no,18,no,white,no,no,768,legacy,26,79,/Users/freyaportales/Desktop/OpenSesame Assignments/quickrun.csv,legacy,Kafkaesque Koffka,3.2.8,0,h,NA,s,h,NA,h,416,NA,79077,13730,NA,416,2,legacy,1024,2,48000,-16,experiment,HHHHH,999,odd,81717,264171,NA,NA,314383,2630,250438,NA,297799,2557,288321,315498,315630,316049,315466,315630,Flanker task,102,77726,107,yes,1024
95.37037037,95.37037037,724.1111111,724.1111111,black,legacy,legacy,legacy,0,incongruent,uniform,1,undefined,1,s,0,0,0,0,107,0,0,0,107,0,107,107,107,107,107,107,Wed Sep 25 22:28:14 2019,600,The main experiment item,yes,fp-subject-1.osexp,/Users/freyaportales/Desktop/OpenSesame Assignments,no,mono,no,18,no,white,no,no,768,legacy,27,79,/Users/freyaportales/Desktop/OpenSesame Assignments/quickrun.csv,legacy,Kafkaesque Koffka,3.2.8,0,s,NA,s,h,NA,s,478,NA,79077,13730,NA,478,2,legacy,1024,2,48000,-16,experiment,HHSHH,999,odd,81717,264171,NA,NA,316088,2630,250438,NA,297799,2557,288321,317207,317339,317819,317174,317339,Flanker task,103,78204,108,yes,1024
94.49541284,94.49541284,721.1651376,721.1651376,black,legacy,legacy,legacy,0,incongruent,uniform,0,undefined,0,s,0,0,0,0,108,0,0,0,108,0,108,108,108,108,108,108,Wed Sep 25 22:28:14 2019,600,The main experiment item,yes,fp-subject-1.osexp,/Users/freyaportales/Desktop/OpenSesame Assignments,no,mono,no,18,no,white,no,no,768,legacy,28,79,/Users/freyaportales/Desktop/OpenSesame Assignments/quickrun.csv,legacy,Kafkaesque Koffka,3.2.8,0,h,NA,s,h,NA,h,403,NA,79077,13730,NA,403,2,legacy,1024,2,48000,-16,experiment,HHSHH,999,odd,81717,264171,NA,NA,317854,2630,250438,NA,297799,2557,288321,318971,319104,319510,318937,319104,Flanker task,103,78607,109,yes,1024
94.54545455,94.54545455,718.5454545,718.5454545,black,legacy,legacy,legacy,0,congruent,uniform,1,undefined,1,h,0,0,0,0,109,0,0,0,109,0,109,109,109,109,109,109,Wed Sep 25 22:28:14 2019,600,The main experiment item,yes,fp-subject-1.osexp,/Users/freyaportales/Desktop/OpenSesame Assignments,no,mono,no,18,no,white,no,no,768,legacy,29,79,/Users/freyaportales/Desktop/OpenSesame Assignments/quickrun.csv,legacy,Kafkaesque Koffka,3.2.8,0,h,NA,s,h,NA,h,433,NA,79077,13730,NA,433,2,legacy,1024,2,48000,-16,experiment,HHHHH,999,odd,81717,264171,NA,NA,320083,2630,250438,NA,319551,2557,288321,321199,321331,321769,321166,321331,Flanker task,104,79040,110,yes,1024
94.59459459,94.59459459,716.6216216,716.6216216,black,legacy,legacy,legacy,0,congruent,uniform,1,undefined,1,s,0,0,0,0,110,0,0,0,110,0,110,110,110,110,110,110,Wed Sep 25 22:28:14 2019,600,The main experiment item,yes,fp-subject-1.osexp,/Users/freyaportales/Desktop/OpenSesame Assignments,no,mono,no,18,no,white,no,no,768,legacy,30,79,/Users/freyaportales/Desktop/OpenSesame Assignments/quickrun.csv,legacy,Kafkaesque Koffka,3.2.8,0,s,NA,s,h,NA,s,505,NA,79077,13730,NA,505,2,legacy,1024,2,48000,-16,experiment,SSSSS,999,odd,81717,264171,NA,NA,321824,2630,250438,NA,319551,2557,288321,322945,323077,323585,322913,323077,Flanker task,105,79545,111,yes,1024
94.64285714,94.64285714,714.0535714,714.0535714,black,legacy,legacy,legacy,0,congruent,uniform,1,undefined,1,s,0,0,0,0,111,0,0,0,111,0,111,111,111,111,111,111,Wed Sep 25 22:28:14 2019,600,The main experiment item,yes,fp-subject-1.osexp,/Users/freyaportales/Desktop/OpenSesame Assignments,no,mono,no,18,no,white,no,no,768,legacy,31,79,/Users/freyaportales/Desktop/OpenSesame Assignments/quickrun.csv,legacy,Kafkaesque Koffka,3.2.8,0,s,NA,s,h,NA,s,429,NA,79077,13730,NA,429,2,legacy,1024,2,48000,-16,experiment,SSSSS,999,odd,81717,264171,NA,NA,323619,2630,250438,NA,319551,2557,288321,324734,324866,325298,324701,324866,Flanker task,106,79974,112,yes,1024
94.69026549,94.69026549,713.2300885,713.2300885,black,legacy,legacy,legacy,0,incongruent,uniform,1,undefined,1,s,0,0,0,0,112,0,0,0,112,0,112,112,112,112,112,112,Wed Sep 25 22:28:14 2019,600,The main experiment item,yes,fp-subject-1.osexp,/Users/freyaportales/Desktop/OpenSesame Assignments,no,mono,no,18,no,white,no,no,768,legacy,32,79,/Users/freyaportales/Desktop/OpenSesame Assignments/quickrun.csv,legacy,Kafkaesque Koffka,3.2.8,0,s,NA,s,h,NA,s,621,NA,79077,13730,NA,621,2,legacy,1024,2,48000,-16,experiment,HHSHH,999,odd,81717,264171,NA,NA,325340,2630,250438,NA,319551,2557,288321,326457,326590,327214,326425,326589,Flanker task,107,80595,113,yes,1024
94.73684211,94.73684211,711.7719298,711.7719298,black,legacy,legacy,legacy,0,incongruent,uniform,1,undefined,1,h,0,0,0,0,113,0,0,0,113,0,113,113,113,113,113,113,Wed Sep 25 22:28:14 2019,600,The main experiment item,yes,fp-subject-1.osexp,/Users/freyaportales/Desktop/OpenSesame Assignments,no,mono,no,18,no,white,no,no,768,legacy,33,79,/Users/freyaportales/Desktop/OpenSesame Assignments/quickrun.csv,legacy,Kafkaesque Koffka,3.2.8,0,h,NA,s,h,NA,h,547,NA,79077,13730,NA,547,2,legacy,1024,2,48000,-16,experiment,SSHSS,999,odd,81717,264171,NA,NA,327781,2630,250438,NA,319551,2557,327248,328896,329027,329578,328863,329027,Flanker task,108,81142,114,yes,1024
94.7826087,94.7826087,709.3826087,709.3826087,black,legacy,legacy,legacy,0,congruent,uniform,1,undefined,1,h,0,0,0,0,114,0,0,0,114,0,114,114,114,114,114,114,Wed Sep 25 22:28:14 2019,600,The main experiment item,yes,fp-subject-1.osexp,/Users/freyaportales/Desktop/OpenSesame Assignments,no,mono,no,18,no,white,no,no,768,legacy,34,79,/Users/freyaportales/Desktop/OpenSesame Assignments/quickrun.csv,legacy,Kafkaesque Koffka,3.2.8,0,h,NA,s,h,NA,h,437,NA,79077,13730,NA,437,2,legacy,1024,2,48000,-16,experiment,HHHHH,999,odd,81717,264171,NA,NA,329613,2630,250438,NA,319551,2557,327248,330739,330871,331311,330707,330871,Flanker task,109,81579,115,yes,1024
94.82758621,94.82758621,707.8965517,707.8965517,black,legacy,legacy,legacy,0,congruent,uniform,1,undefined,1,h,0,0,0,0,115,0,0,0,115,0,115,115,115,115,115,115,Wed Sep 25 22:28:14 2019,600,The main experiment item,yes,fp-subject-1.osexp,/Users/freyaportales/Desktop/OpenSesame Assignments,no,mono,no,18,no,white,no,no,768,legacy,35,79,/Users/freyaportales/Desktop/OpenSesame Assignments/quickrun.csv,legacy,Kafkaesque Koffka,3.2.8,0,h,NA,s,h,NA,h,537,NA,79077,13730,NA,537,2,legacy,1024,2,48000,-16,experiment,HHHHH,999,odd,81717,264171,NA,NA,331345,2630,250438,NA,319551,2557,327248,332460,332593,333133,332428,332593,Flanker task,110,82116,116,yes,1024
94.87179487,94.87179487,705.8974359,705.8974359,black,legacy,legacy,legacy,0,incongruent,uniform,1,undefined,1,s,0,0,0,0,116,0,0,0,116,0,116,116,116,116,116,116,Wed Sep 25 22:28:14 2019,600,The main experiment item,yes,fp-subject-1.osexp,/Users/freyaportales/Desktop/OpenSesame Assignments,no,mono,no,18,no,white,no,no,768,legacy,36,79,/Users/freyaportales/Desktop/OpenSesame Assignments/quickrun.csv,legacy,Kafkaesque Koffka,3.2.8,0,s,NA,s,h,NA,s,474,NA,79077,13730,NA,474,2,legacy,1024,2,48000,-16,experiment,HHSHH,999,odd,81717,264171,NA,NA,333171,2630,250438,NA,319551,2557,327248,334296,334428,334905,334263,334428,Flanker task,111,82590,117,yes,1024
94.91525424,94.91525424,704.9322034,704.9322034,black,legacy,legacy,legacy,0,incongruent,uniform,1,undefined,1,h,0,0,0,0,117,0,0,0,117,0,117,117,117,117,117,117,Wed Sep 25 22:28:14 2019,600,The main experiment item,yes,fp-subject-1.osexp,/Users/freyaportales/Desktop/OpenSesame Assignments,no,mono,no,18,no,white,no,no,768,legacy,37,79,/Users/freyaportales/Desktop/OpenSesame Assignments/quickrun.csv,legacy,Kafkaesque Koffka,3.2.8,0,h,NA,s,h,NA,h,592,NA,79077,13730,NA,592,2,legacy,1024,2,48000,-16,experiment,SSHSS,999,odd,81717,264171,NA,NA,334939,2630,250438,NA,319551,2557,327248,336054,336188,336783,336021,336188,Flanker task,112,83182,118,yes,1024
94.95798319,94.95798319,703.2689076,703.2689076,black,legacy,legacy,legacy,0,incongruent,uniform,1,undefined,1,s,0,0,0,0,118,0,0,0,118,0,118,118,118,118,118,118,Wed Sep 25 22:28:14 2019,600,The main experiment item,yes,fp-subject-1.osexp,/Users/freyaportales/Desktop/OpenSesame Assignments,no,mono,no,18,no,white,no,no,768,legacy,38,79,/Users/freyaportales/Desktop/OpenSesame Assignments/quickrun.csv,legacy,Kafkaesque Koffka,3.2.8,0,s,NA,s,h,NA,s,507,NA,79077,13730,NA,507,2,legacy,1024,2,48000,-16,experiment,HHSHH,999,odd,81717,264171,NA,NA,336821,2630,250438,NA,319551,2557,327248,337977,338110,338620,337941,338109,Flanker task,113,83689,119,yes,1024
95,95,702.1583333,702.1583333,black,legacy,legacy,legacy,0,congruent,uniform,1,undefined,1,s,0,0,0,0,119,0,0,0,119,0,119,119,119,119,119,119,Wed Sep 25 22:28:14 2019,600,The main experiment item,yes,fp-subject-1.osexp,/Users/freyaportales/Desktop/OpenSesame Assignments,no,mono,no,18,no,white,no,no,768,legacy,39,79,/Users/freyaportales/Desktop/OpenSesame Assignments/quickrun.csv,legacy,Kafkaesque Koffka,3.2.8,0,s,NA,s,h,NA,s,570,NA,79077,13730,NA,570,2,legacy,1024,2,48000,-16,experiment,SSSSS,999,odd,81717,264171,NA,NA,338654,2630,250438,NA,319551,2557,327248,339769,339902,340475,339736,339902,Flanker task,114,84259,120,yes,1024
95.04132231,95.04132231,700.0413223,700.0413223,black,legacy,legacy,legacy,0,congruent,uniform,1,undefined,1,s,0,0,0,0,120,0,0,0,120,0,120,120,120,120,120,120,Wed Sep 25 22:28:14 2019,600,The main experiment item,yes,fp-subject-1.osexp,/Users/freyaportales/Desktop/OpenSesame Assignments,no,mono,no,18,no,white,no,no,768,legacy,40,79,/Users/freyaportales/Desktop/OpenSesame Assignments/quickrun.csv,legacy,Kafkaesque Koffka,3.2.8,0,s,NA,s,h,NA,s,446,NA,79077,13730,NA,446,2,legacy,1024,2,48000,-16,experiment,SSSSS,999,odd,81717,264171,NA,NA,340515,2630,250438,NA,319551,2557,327248,341633,341766,342215,341601,341766,Flanker task,115,84705,121,yes,1024
95.08196721,95.08196721,698.1393443,698.1393443,black,legacy,legacy,legacy,0,congruent,uniform,1,undefined,1,h,0,0,0,0,121,0,0,0,121,0,121,121,121,121,121,121,Wed Sep 25 22:28:14 2019,600,The main experiment item,yes,fp-subject-1.osexp,/Users/freyaportales/Desktop/OpenSesame Assignments,no,mono,no,18,no,white,no,no,768,legacy,41,79,/Users/freyaportales/Desktop/OpenSesame Assignments/quickrun.csv,legacy,Kafkaesque Koffka,3.2.8,0,h,NA,s,h,NA,h,468,NA,79077,13730,NA,468,2,legacy,1024,2,48000,-16,experiment,HHHHH,999,odd,81717,264171,NA,NA,342250,2630,250438,NA,319551,2557,327248,343366,343499,343970,343333,343499,Flanker task,116,85173,122,yes,1024
95.12195122,95.12195122,695.7073171,695.7073171,black,legacy,legacy,legacy,0,congruent,uniform,1,undefined,1,s,0,0,0,0,122,0,0,0,122,0,122,122,122,122,122,122,Wed Sep 25 22:28:14 2019,600,The main experiment item,yes,fp-subject-1.osexp,/Users/freyaportales/Desktop/OpenSesame Assignments,no,mono,no,18,no,white,no,no,768,legacy,42,79,/Users/freyaportales/Desktop/OpenSesame Assignments/quickrun.csv,legacy,Kafkaesque Koffka,3.2.8,0,s,NA,s,h,NA,s,399,NA,79077,13730,NA,399,2,legacy,1024,2,48000,-16,experiment,SSSSS,999,odd,81717,264171,NA,NA,344006,2630,250438,NA,319551,2557,327248,345131,345263,345665,345099,345263,Flanker task,117,85572,123,yes,1024
95.16129032,95.16129032,693.4274194,693.4274194,black,legacy,legacy,legacy,0,congruent,uniform,1,undefined,1,s,0,0,0,0,123,0,0,0,123,0,123,123,123,123,123,123,Wed Sep 25 22:28:14 2019,600,The main experiment item,yes,fp-subject-1.osexp,/Users/freyaportales/Desktop/OpenSesame Assignments,no,mono,no,18,no,white,no,no,768,legacy,43,79,/Users/freyaportales/Desktop/OpenSesame Assignments/quickrun.csv,legacy,Kafkaesque Koffka,3.2.8,0,s,NA,s,h,NA,s,413,NA,79077,13730,NA,413,2,legacy,1024,2,48000,-16,experiment,SSSSS,999,odd,81717,264171,NA,NA,345700,2630,250438,NA,319551,2557,327248,346816,346948,347364,346782,346948,Flanker task,118,85985,124,yes,1024
95.2,95.2,691.048,691.048,black,legacy,legacy,legacy,0,congruent,uniform,1,undefined,1,s,0,0,0,0,124,0,0,0,124,0,124,124,124,124,124,124,Wed Sep 25 22:28:14 2019,600,The main experiment item,yes,fp-subject-1.osexp,/Users/freyaportales/Desktop/OpenSesame Assignments,no,mono,no,18,no,white,no,no,768,legacy,44,79,/Users/freyaportales/Desktop/OpenSesame Assignments/quickrun.csv,legacy,Kafkaesque Koffka,3.2.8,0,s,NA,s,h,NA,s,396,NA,79077,13730,NA,396,2,legacy,1024,2,48000,-16,experiment,SSSSS,999,odd,81717,264171,NA,NA,347400,2630,250438,NA,319551,2557,327248,348530,348662,349061,348497,348662,Flanker task,119,86381,125,yes,1024
95.23809524,95.23809524,689.3015873,689.3015873,black,legacy,legacy,legacy,0,congruent,uniform,1,undefined,1,h,0,0,0,0,125,0,0,0,125,0,125,125,125,125,125,125,Wed Sep 25 22:28:14 2019,600,The main experiment item,yes,fp-subject-1.osexp,/Users/freyaportales/Desktop/OpenSesame Assignments,no,mono,no,18,no,white,no,no,768,legacy,45,79,/Users/freyaportales/Desktop/OpenSesame Assignments/quickrun.csv,legacy,Kafkaesque Koffka,3.2.8,0,h,NA,s,h,NA,h,471,NA,79077,13730,NA,471,2,legacy,1024,2,48000,-16,experiment,HHHHH,999,odd,81717,264171,NA,NA,349096,2630,250438,NA,319551,2557,327248,350211,350343,350817,350178,350343,Flanker task,120,86852,126,yes,1024
95.27559055,95.27559055,687.7086614,687.7086614,black,legacy,legacy,legacy,0,congruent,uniform,1,undefined,1,h,0,0,0,0,126,0,0,0,126,0,126,126,126,126,126,126,Wed Sep 25 22:28:14 2019,600,The main experiment item,yes,fp-subject-1.osexp,/Users/freyaportales/Desktop/OpenSesame Assignments,no,mono,no,18,no,white,no,no,768,legacy,46,79,/Users/freyaportales/Desktop/OpenSesame Assignments/quickrun.csv,legacy,Kafkaesque Koffka,3.2.8,0,h,NA,s,h,NA,h,487,NA,79077,13730,NA,487,2,legacy,1024,2,48000,-16,experiment,HHHHH,999,odd,81717,264171,NA,NA,350860,2630,250438,NA,319551,2557,327248,351976,352109,352599,351943,352109,Flanker task,121,87339,127,yes,1024
95.3125,95.3125,685.96875,685.96875,black,legacy,legacy,legacy,0,congruent,uniform,1,undefined,1,h,0,0,0,0,127,0,0,0,127,0,127,127,127,127,127,127,Wed Sep 25 22:28:14 2019,600,The main experiment item,yes,fp-subject-1.osexp,/Users/freyaportales/Desktop/OpenSesame Assignments,no,mono,no,18,no,white,no,no,768,legacy,47,79,/Users/freyaportales/Desktop/OpenSesame Assignments/quickrun.csv,legacy,Kafkaesque Koffka,3.2.8,0,h,NA,s,h,NA,h,465,NA,79077,13730,NA,465,2,legacy,1024,2,48000,-16,experiment,HHHHH,999,odd,81717,264171,NA,NA,352634,2630,250438,NA,319551,2557,327248,353765,353916,354384,353721,353916,Flanker task,122,87804,128,yes,1024
95.34883721,95.34883721,684.4031008,684.4031008,black,legacy,legacy,legacy,0,congruent,uniform,1,undefined,1,s,0,0,0,0,128,0,0,0,128,0,128,128,128,128,128,128,Wed Sep 25 22:28:14 2019,600,The main experiment item,yes,fp-subject-1.osexp,/Users/freyaportales/Desktop/OpenSesame Assignments,no,mono,no,18,no,white,no,no,768,legacy,48,79,/Users/freyaportales/Desktop/OpenSesame Assignments/quickrun.csv,legacy,Kafkaesque Koffka,3.2.8,0,s,NA,s,h,NA,s,484,NA,79077,13730,NA,484,2,legacy,1024,2,48000,-16,experiment,SSSSS,999,odd,81717,264171,NA,NA,354418,2630,250438,NA,319551,2557,327248,355532,355664,356151,355500,355664,Flanker task,123,88288,129,yes,1024
94.61538462,94.61538462,682.4230769,682.4230769,black,legacy,legacy,legacy,0,incongruent,uniform,0,undefined,0,h,0,0,0,0,129,0,0,0,129,0,129,129,129,129,129,129,Wed Sep 25 22:28:14 2019,600,The main experiment item,yes,fp-subject-1.osexp,/Users/freyaportales/Desktop/OpenSesame Assignments,no,mono,no,18,no,white,no,no,768,legacy,49,79,/Users/freyaportales/Desktop/OpenSesame Assignments/quickrun.csv,legacy,Kafkaesque Koffka,3.2.8,0,s,NA,s,h,NA,s,427,NA,79077,13730,NA,427,2,legacy,1024,2,48000,-16,experiment,SSHSS,999,odd,81717,264171,NA,NA,356188,2630,250438,NA,319551,2557,327248,357306,357439,357869,357274,357439,Flanker task,123,88715,130,yes,1024
94.65648855,94.65648855,681.5725191,681.5725191,black,legacy,legacy,legacy,0,congruent,uniform,1,undefined,1,s,0,0,0,0,130,0,0,0,130,0,130,130,130,130,130,130,Wed Sep 25 22:28:14 2019,600,The main experiment item,yes,fp-subject-1.osexp,/Users/freyaportales/Desktop/OpenSesame Assignments,no,mono,no,18,no,white,no,no,768,legacy,50,79,/Users/freyaportales/Desktop/OpenSesame Assignments/quickrun.csv,legacy,Kafkaesque Koffka,3.2.8,0,s,NA,s,h,NA,s,571,NA,79077,13730,NA,571,2,legacy,1024,2,48000,-16,experiment,SSSSS,999,odd,81717,264171,NA,NA,358435,2630,250438,NA,357903,2557,327248,359550,359683,360257,359517,359682,Flanker task,124,89286,131,yes,1024
94.6969697,94.6969697,679.7954545,679.7954545,black,legacy,legacy,legacy,0,congruent,uniform,1,undefined,1,h,0,0,0,0,131,0,0,0,131,0,131,131,131,131,131,131,Wed Sep 25 22:28:14 2019,600,The main experiment item,yes,fp-subject-1.osexp,/Users/freyaportales/Desktop/OpenSesame Assignments,no,mono,no,18,no,white,no,no,768,legacy,51,79,/Users/freyaportales/Desktop/OpenSesame Assignments/quickrun.csv,legacy,Kafkaesque Koffka,3.2.8,0,h,NA,s,h,NA,h,447,NA,79077,13730,NA,447,2,legacy,1024,2,48000,-16,experiment,HHHHH,999,odd,81717,264171,NA,NA,360292,2630,250438,NA,357903,2557,327248,361420,361552,362001,361387,361552,Flanker task,125,89733,132,yes,1024
94.73684211,94.73684211,678.0150376,678.0150376,black,legacy,legacy,legacy,0,incongruent,uniform,1,undefined,1,s,0,0,0,0,132,0,0,0,132,0,132,132,132,132,132,132,Wed Sep 25 22:28:14 2019,600,The main experiment item,yes,fp-subject-1.osexp,/Users/freyaportales/Desktop/OpenSesame Assignments,no,mono,no,18,no,white,no,no,768,legacy,52,79,/Users/freyaportales/Desktop/OpenSesame Assignments/quickrun.csv,legacy,Kafkaesque Koffka,3.2.8,0,s,NA,s,h,NA,s,443,NA,79077,13730,NA,443,2,legacy,1024,2,48000,-16,experiment,HHSHH,999,odd,81717,264171,NA,NA,362037,2630,250438,NA,357903,2557,327248,363153,363285,363731,363121,363285,Flanker task,126,90176,133,yes,1024
94.7761194,94.7761194,677.8880597,677.8880597,black,legacy,legacy,legacy,0,incongruent,uniform,1,undefined,1,h,0,0,0,0,133,0,0,0,133,0,133,133,133,133,133,133,Wed Sep 25 22:28:14 2019,600,The main experiment item,yes,fp-subject-1.osexp,/Users/freyaportales/Desktop/OpenSesame Assignments,no,mono,no,18,no,white,no,no,768,legacy,53,79,/Users/freyaportales/Desktop/OpenSesame Assignments/quickrun.csv,legacy,Kafkaesque Koffka,3.2.8,0,h,NA,s,h,NA,h,661,NA,79077,13730,NA,661,2,legacy,1024,2,48000,-16,experiment,SSHSS,999,odd,81717,264171,NA,NA,363768,2630,250438,NA,357903,2557,327248,364886,365018,365682,364854,365017,Flanker task,127,90837,134,yes,1024
94.81481481,94.81481481,675.8962963,675.8962963,black,legacy,legacy,legacy,0,congruent,uniform,1,undefined,1,s,0,0,0,0,134,0,0,0,134,0,134,134,134,134,134,134,Wed Sep 25 22:28:14 2019,600,The main experiment item,yes,fp-subject-1.osexp,/Users/freyaportales/Desktop/OpenSesame Assignments,no,mono,no,18,no,white,no,no,768,legacy,54,79,/Users/freyaportales/Desktop/OpenSesame Assignments/quickrun.csv,legacy,Kafkaesque Koffka,3.2.8,0,s,NA,s,h,NA,s,409,NA,79077,13730,NA,409,2,legacy,1024,2,48000,-16,experiment,SSSSS,999,odd,81717,264171,NA,NA,366248,2630,250438,NA,357903,2557,365716,367362,367496,367908,367330,367496,Flanker task,128,91246,135,yes,1024
94.85294118,94.85294118,675.3529412,675.3529412,black,legacy,legacy,legacy,0,incongruent,uniform,1,undefined,1,h,0,0,0,0,135,0,0,0,135,0,135,135,135,135,135,135,Wed Sep 25 22:28:14 2019,600,The main experiment item,yes,fp-subject-1.osexp,/Users/freyaportales/Desktop/OpenSesame Assignments,no,mono,no,18,no,white,no,no,768,legacy,55,79,/Users/freyaportales/Desktop/OpenSesame Assignments/quickrun.csv,legacy,Kafkaesque Koffka,3.2.8,0,h,NA,s,h,NA,h,602,NA,79077,13730,NA,602,2,legacy,1024,2,48000,-16,experiment,SSHSS,999,odd,81717,264171,NA,NA,367958,2630,250438,NA,357903,2557,365716,369073,369206,369811,369041,369206,Flanker task,129,91848,136,yes,1024
94.89051095,94.89051095,675.8394161,675.8394161,black,legacy,legacy,legacy,0,incongruent,uniform,1,undefined,1,h,0,0,0,0,136,0,0,0,136,0,136,136,136,136,136,136,Wed Sep 25 22:28:14 2019,600,The main experiment item,yes,fp-subject-1.osexp,/Users/freyaportales/Desktop/OpenSesame Assignments,no,mono,no,18,no,white,no,no,768,legacy,56,79,/Users/freyaportales/Desktop/OpenSesame Assignments/quickrun.csv,legacy,Kafkaesque Koffka,3.2.8,0,h,NA,s,h,NA,h,742,NA,79077,13730,NA,742,2,legacy,1024,2,48000,-16,experiment,SSHSS,999,odd,81717,264171,NA,NA,370377,2630,250438,NA,357903,2557,369845,371492,371625,372370,371460,371625,Flanker task,130,92590,137,yes,1024
94.92753623,94.92753623,676.4492754,676.4492754,black,legacy,legacy,legacy,0,incongruent,uniform,1,undefined,1,h,0,0,0,0,137,0,0,0,137,0,137,137,137,137,137,137,Wed Sep 25 22:28:14 2019,600,The main experiment item,yes,fp-subject-1.osexp,/Users/freyaportales/Desktop/OpenSesame Assignments,no,mono,no,18,no,white,no,no,768,legacy,57,79,/Users/freyaportales/Desktop/OpenSesame Assignments/quickrun.csv,legacy,Kafkaesque Koffka,3.2.8,0,h,NA,s,h,NA,h,760,NA,79077,13730,NA,760,2,legacy,1024,2,48000,-16,experiment,SSHSS,999,odd,81717,264171,NA,NA,372938,2630,250438,NA,357903,2557,372407,374054,374187,374950,374021,374187,Flanker task,131,93350,138,yes,1024
94.24460432,94.24460432,675.3453237,675.3453237,black,legacy,legacy,legacy,0,incongruent,uniform,0,undefined,0,h,0,0,0,0,138,0,0,0,138,0,138,138,138,138,138,138,Wed Sep 25 22:28:14 2019,600,The main experiment item,yes,fp-subject-1.osexp,/Users/freyaportales/Desktop/OpenSesame Assignments,no,mono,no,18,no,white,no,no,768,legacy,58,79,/Users/freyaportales/Desktop/OpenSesame Assignments/quickrun.csv,legacy,Kafkaesque Koffka,3.2.8,0,s,NA,s,h,NA,s,523,NA,79077,13730,NA,523,2,legacy,1024,2,48000,-16,experiment,SSHSS,999,odd,81717,264171,NA,NA,375525,2630,250438,NA,357903,2557,374993,376640,376772,377298,376607,376772,Flanker task,131,93873,139,yes,1024
94.28571429,94.28571429,673.3214286,673.3214286,black,legacy,legacy,legacy,0,congruent,uniform,1,undefined,1,s,0,0,0,0,139,0,0,0,139,0,139,139,139,139,139,139,Wed Sep 25 22:28:14 2019,600,The main experiment item,yes,fp-subject-1.osexp,/Users/freyaportales/Desktop/OpenSesame Assignments,no,mono,no,18,no,white,no,no,768,legacy,59,79,/Users/freyaportales/Desktop/OpenSesame Assignments/quickrun.csv,legacy,Kafkaesque Koffka,3.2.8,0,s,NA,s,h,NA,s,392,NA,79077,13730,NA,392,2,legacy,1024,2,48000,-16,experiment,SSSSS,999,odd,81717,264171,NA,NA,377868,2630,250438,NA,377335,2557,374993,378982,379115,379510,378950,379115,Flanker task,132,94265,140,yes,1024
93.61702128,93.61702128,671.6312057,671.6312057,black,legacy,legacy,legacy,0,incongruent,uniform,0,undefined,0,s,0,0,0,0,140,0,0,0,140,0,140,140,140,140,140,140,Wed Sep 25 22:28:14 2019,600,The main experiment item,yes,fp-subject-1.osexp,/Users/freyaportales/Desktop/OpenSesame Assignments,no,mono,no,18,no,white,no,no,768,legacy,60,79,/Users/freyaportales/Desktop/OpenSesame Assignments/quickrun.csv,legacy,Kafkaesque Koffka,3.2.8,0,h,NA,s,h,NA,h,435,NA,79077,13730,NA,435,2,legacy,1024,2,48000,-16,experiment,HHSHH,999,odd,81717,264171,NA,NA,379549,2630,250438,NA,377335,2557,374993,380673,380806,381244,380640,380806,Flanker task,132,94700,141,yes,1024
93.66197183,93.66197183,670.8239437,670.8239437,black,legacy,legacy,legacy,0,incongruent,uniform,1,undefined,1,h,0,0,0,0,141,0,0,0,141,0,141,141,141,141,141,141,Wed Sep 25 22:28:14 2019,600,The main experiment item,yes,fp-subject-1.osexp,/Users/freyaportales/Desktop/OpenSesame Assignments,no,mono,no,18,no,white,no,no,768,legacy,61,79,/Users/freyaportales/Desktop/OpenSesame Assignments/quickrun.csv,legacy,Kafkaesque Koffka,3.2.8,0,h,NA,s,h,NA,h,557,NA,79077,13730,NA,557,2,legacy,1024,2,48000,-16,experiment,SSHSS,999,odd,81717,264171,NA,NA,381811,2630,250438,NA,381278,2557,374993,382927,383061,383621,382894,383061,Flanker task,133,95257,142,yes,1024
93.70629371,93.70629371,669.8741259,669.8741259,black,legacy,legacy,legacy,0,incongruent,uniform,1,undefined,1,s,0,0,0,0,142,0,0,0,142,0,142,142,142,142,142,142,Wed Sep 25 22:28:14 2019,600,The main experiment item,yes,fp-subject-1.osexp,/Users/freyaportales/Desktop/OpenSesame Assignments,no,mono,no,18,no,white,no,no,768,legacy,62,79,/Users/freyaportales/Desktop/OpenSesame Assignments/quickrun.csv,legacy,Kafkaesque Koffka,3.2.8,0,s,NA,s,h,NA,s,535,NA,79077,13730,NA,535,2,legacy,1024,2,48000,-16,experiment,HHSHH,999,odd,81717,264171,NA,NA,383655,2630,250438,NA,381278,2557,374993,384784,384917,385455,384751,384916,Flanker task,134,95792,143,yes,1024
93.75,93.75,668.6527778,668.6527778,black,legacy,legacy,legacy,0,incongruent,uniform,1,undefined,1,s,0,0,0,0,143,0,0,0,143,0,143,143,143,143,143,143,Wed Sep 25 22:28:14 2019,600,The main experiment item,yes,fp-subject-1.osexp,/Users/freyaportales/Desktop/OpenSesame Assignments,no,mono,no,18,no,white,no,no,768,legacy,63,79,/Users/freyaportales/Desktop/OpenSesame Assignments/quickrun.csv,legacy,Kafkaesque Koffka,3.2.8,0,s,NA,s,h,NA,s,494,NA,79077,13730,NA,494,2,legacy,1024,2,48000,-16,experiment,HHSHH,999,odd,81717,264171,NA,NA,385489,2630,250438,NA,381278,2557,374993,386604,386749,387246,386571,386749,Flanker task,135,96286,144,yes,1024
93.79310345,93.79310345,667.2551724,667.2551724,black,legacy,legacy,legacy,0,incongruent,uniform,1,undefined,1,s,0,0,0,0,144,0,0,0,144,0,144,144,144,144,144,144,Wed Sep 25 22:28:14 2019,600,The main experiment item,yes,fp-subject-1.osexp,/Users/freyaportales/Desktop/OpenSesame Assignments,no,mono,no,18,no,white,no,no,768,legacy,64,79,/Users/freyaportales/Desktop/OpenSesame Assignments/quickrun.csv,legacy,Kafkaesque Koffka,3.2.8,0,s,NA,s,h,NA,s,466,NA,79077,13730,NA,466,2,legacy,1024,2,48000,-16,experiment,HHSHH,999,odd,81717,264171,NA,NA,387284,2630,250438,NA,381278,2557,374993,388399,388531,389000,388366,388531,Flanker task,136,96752,145,yes,1024
93.83561644,93.83561644,666.6643836,666.6643836,black,legacy,legacy,legacy,0,congruent,uniform,1,undefined,1,s,0,0,0,0,145,0,0,0,145,0,145,145,145,145,145,145,Wed Sep 25 22:28:14 2019,600,The main experiment item,yes,fp-subject-1.osexp,/Users/freyaportales/Desktop/OpenSesame Assignments,no,mono,no,18,no,white,no,no,768,legacy,65,79,/Users/freyaportales/Desktop/OpenSesame Assignments/quickrun.csv,legacy,Kafkaesque Koffka,3.2.8,0,s,NA,s,h,NA,s,581,NA,79077,13730,NA,581,2,legacy,1024,2,48000,-16,experiment,SSSSS,999,odd,81717,264171,NA,NA,389035,2630,250438,NA,381278,2557,374993,390151,390285,390869,390118,390285,Flanker task,137,97333,146,yes,1024
93.19727891,93.19727891,664.6938776,664.6938776,black,legacy,legacy,legacy,0,incongruent,uniform,0,undefined,0,h,0,0,0,0,146,0,0,0,146,0,146,146,146,146,146,146,Wed Sep 25 22:28:14 2019,600,The main experiment item,yes,fp-subject-1.osexp,/Users/freyaportales/Desktop/OpenSesame Assignments,no,mono,no,18,no,white,no,no,768,legacy,66,79,/Users/freyaportales/Desktop/OpenSesame Assignments/quickrun.csv,legacy,Kafkaesque Koffka,3.2.8,0,s,NA,s,h,NA,s,377,NA,79077,13730,NA,377,2,legacy,1024,2,48000,-16,experiment,SSHSS,999,odd,81717,264171,NA,NA,390907,2630,250438,NA,381278,2557,374993,392025,392158,392538,391994,392158,Flanker task,137,97710,147,yes,1024
93.24324324,93.24324324,663.1689189,663.1689189,black,legacy,legacy,legacy,0,congruent,uniform,1,undefined,1,h,0,0,0,0,147,0,0,0,147,0,147,147,147,147,147,147,Wed Sep 25 22:28:14 2019,600,The main experiment item,yes,fp-subject-1.osexp,/Users/freyaportales/Desktop/OpenSesame Assignments,no,mono,no,18,no,white,no,no,768,legacy,67,79,/Users/freyaportales/Desktop/OpenSesame Assignments/quickrun.csv,legacy,Kafkaesque Koffka,3.2.8,0,h,NA,s,h,NA,h,439,NA,79077,13730,NA,439,2,legacy,1024,2,48000,-16,experiment,HHHHH,999,odd,81717,264171,NA,NA,393104,2630,250438,NA,392572,2557,374993,394219,394351,394793,394186,394351,Flanker task,138,98149,148,yes,1024
93.2885906,93.2885906,661.885906,661.885906,black,legacy,legacy,legacy,0,congruent,uniform,1,undefined,1,h,0,0,0,0,148,0,0,0,148,0,148,148,148,148,148,148,Wed Sep 25 22:28:14 2019,600,The main experiment item,yes,fp-subject-1.osexp,/Users/freyaportales/Desktop/OpenSesame Assignments,no,mono,no,18,no,white,no,no,768,legacy,68,79,/Users/freyaportales/Desktop/OpenSesame Assignments/quickrun.csv,legacy,Kafkaesque Koffka,3.2.8,0,h,NA,s,h,NA,h,472,NA,79077,13730,NA,472,2,legacy,1024,2,48000,-16,experiment,HHHHH,999,odd,81717,264171,NA,NA,394829,2630,250438,NA,392572,2557,374993,395944,396076,396551,395911,396076,Flanker task,139,98621,149,yes,1024
93.33333333,93.33333333,660.9266667,660.9266667,black,legacy,legacy,legacy,0,incongruent,uniform,1,undefined,1,s,0,0,0,0,149,0,0,0,149,0,149,149,149,149,149,149,Wed Sep 25 22:28:14 2019,600,The main experiment item,yes,fp-subject-1.osexp,/Users/freyaportales/Desktop/OpenSesame Assignments,no,mono,no,18,no,white,no,no,768,legacy,69,79,/Users/freyaportales/Desktop/OpenSesame Assignments/quickrun.csv,legacy,Kafkaesque Koffka,3.2.8,0,s,NA,s,h,NA,s,518,NA,79077,13730,NA,518,2,legacy,1024,2,48000,-16,experiment,HHSHH,999,odd,81717,264171,NA,NA,396585,2630,250438,NA,392572,2557,374993,397701,397833,398355,397668,397833,Flanker task,140,99139,150,yes,1024
93.37748344,93.37748344,659.6092715,659.6092715,black,legacy,legacy,legacy,0,incongruent,uniform,1,undefined,1,s,0,0,0,0,150,0,0,0,150,0,150,150,150,150,150,150,Wed Sep 25 22:28:14 2019,600,The main experiment item,yes,fp-subject-1.osexp,/Users/freyaportales/Desktop/OpenSesame Assignments,no,mono,no,18,no,white,no,no,768,legacy,70,79,/Users/freyaportales/Desktop/OpenSesame Assignments/quickrun.csv,legacy,Kafkaesque Koffka,3.2.8,0,s,NA,s,h,NA,s,462,NA,79077,13730,NA,462,2,legacy,1024,2,48000,-16,experiment,HHSHH,999,odd,81717,264171,NA,NA,398391,2630,250438,NA,392572,2557,374993,399514,399646,400111,399481,399646,Flanker task,141,99601,151,yes,1024
93.42105263,93.42105263,658.6447368,658.6447368,black,legacy,legacy,legacy,0,congruent,uniform,1,undefined,1,s,0,0,0,0,151,0,0,0,151,0,151,151,151,151,151,151,Wed Sep 25 22:28:14 2019,600,The main experiment item,yes,fp-subject-1.osexp,/Users/freyaportales/Desktop/OpenSesame Assignments,no,mono,no,18,no,white,no,no,768,legacy,71,79,/Users/freyaportales/Desktop/OpenSesame Assignments/quickrun.csv,legacy,Kafkaesque Koffka,3.2.8,0,s,NA,s,h,NA,s,513,NA,79077,13730,NA,513,2,legacy,1024,2,48000,-16,experiment,SSSSS,999,odd,81717,264171,NA,NA,400145,2630,250438,NA,392572,2557,374993,401259,401392,401908,401227,401392,Flanker task,142,100114,152,yes,1024
93.46405229,93.46405229,657.9803922,657.9803922,black,legacy,legacy,legacy,0,incongruent,uniform,1,undefined,1,s,0,0,0,0,152,0,0,0,152,0,152,152,152,152,152,152,Wed Sep 25 22:28:14 2019,600,The main experiment item,yes,fp-subject-1.osexp,/Users/freyaportales/Desktop/OpenSesame Assignments,no,mono,no,18,no,white,no,no,768,legacy,72,79,/Users/freyaportales/Desktop/OpenSesame Assignments/quickrun.csv,legacy,Kafkaesque Koffka,3.2.8,0,s,NA,s,h,NA,s,557,NA,79077,13730,NA,557,2,legacy,1024,2,48000,-16,experiment,HHSHH,999,odd,81717,264171,NA,NA,401943,2630,250438,NA,392572,2557,374993,403072,403205,403765,403037,403205,Flanker task,143,100671,153,yes,1024
93.50649351,93.50649351,657.1038961,657.1038961,black,legacy,legacy,legacy,0,congruent,uniform,1,undefined,1,s,0,0,0,0,153,0,0,0,153,0,153,153,153,153,153,153,Wed Sep 25 22:28:14 2019,600,The main experiment item,yes,fp-subject-1.osexp,/Users/freyaportales/Desktop/OpenSesame Assignments,no,mono,no,18,no,white,no,no,768,legacy,73,79,/Users/freyaportales/Desktop/OpenSesame Assignments/quickrun.csv,legacy,Kafkaesque Koffka,3.2.8,0,s,NA,s,h,NA,s,523,NA,79077,13730,NA,523,2,legacy,1024,2,48000,-16,experiment,SSSSS,999,odd,81717,264171,NA,NA,403799,2630,250438,NA,392572,2557,374993,404914,405048,405574,404881,405047,Flanker task,144,101194,154,yes,1024
