acc,accuracy,average_response_time,avg_rt,background,canvas_backend,clock_backend,color_backend,compensation,condition,coordinates,correct,correct_instructions1,correct_keyboard_response,correct_response,count_Block1,count_Block2,count_Block3,count_errorFeedback,count_experiment,count_faster,count_finish,count_fixation,count_instructions1,count_instructions2,count_instructions3,count_isi,count_keyboard_response,count_logger,count_sequence,count_sketchpad,count_sketchpad_1,count_stimulus,datetime,deadline,description,disable_garbage_collection,experiment_file,experiment_path,font_bold,font_family,font_italic,font_size,font_underline,foreground,form_clicks,fullscreen,height,keyboard_backend,live_row,live_row_Block1,logfile,mouse_backend,opensesame_codename,opensesame_version,repeat_cycle,response,response_finish,response_instructions1,response_instructions2,response_instructions3,response_keyboard_response,response_sketchpad,response_sketchpad_1,response_time,response_time_finish,response_time_instructions1,response_time_instructions2,response_time_instructions3,response_time_keyboard_response,response_time_sketchpad,response_time_sketchpad_1,round_decimals,sampler_backend,sound_buf_size,sound_channels,sound_freq,sound_sample_size,start,stimulus,subject_nr,subject_parity,time_Block1,time_Block2,time_Block3,time_errorFeedback,time_experiment,time_faster,time_finish,time_fixation,time_instructions1,time_instructions2,time_instructions3,time_isi,time_keyboard_response,time_logger,time_sequence,time_sketchpad,time_sketchpad_1,time_stimulus,title,total_correct,total_response_time,total_responses,uniform_coordinates,width
100,100,597,597,black,legacy,legacy,legacy,0,congruent,uniform,1,undefined,1,h,0,0,0,0,0,0,0,0,0,0,0,0,0,0,0,NA,NA,0,9/25/19 17:27,1500,The main experiment item,yes,Week4submit.osexp,C:/Users/DLGoupil/Desktop,no,mono,no,18,no,white,no,yes,768,legacy,0,0,C:/Users/DLGoupil/Desktop/subject-3.csv,legacy,Kafkaesque Koffka,3.2.8,0,h,NA,s,NA,NA,h,NA,NA,597,NA,16298,NA,NA,597,NA,NA,2,legacy,1024,2,48000,-16,experiment,HHHHH,3,odd,18308,NA,NA,NA,2004,NA,NA,18422,2008,NA,NA,NA,18525,19123,18419,NA,NA,18525,Week4submit,1,597,1,yes,1024
100,100,496.5,496.5,black,legacy,legacy,legacy,0,incongruent,uniform,1,undefined,1,s,0,0,0,1,0,1,0,1,0,0,0,1,1,1,1,NA,NA,1,9/25/19 17:27,1500,The main experiment item,yes,Week4submit.osexp,C:/Users/DLGoupil/Desktop,no,mono,no,18,no,white,no,yes,768,legacy,1,1,C:/Users/DLGoupil/Desktop/subject-3.csv,legacy,Kafkaesque Koffka,3.2.8,0,s,NA,s,NA,NA,s,NA,NA,396,NA,16298,NA,NA,396,NA,NA,2,legacy,1024,2,48000,-16,experiment,HHSHH,3,odd,18308,NA,NA,NA,2004,NA,NA,20239,2008,NA,NA,19134,20342,20739,20236,NA,NA,20342,Week4submit,2,993,2,yes,1024
100,100,481.6666667,481.6666667,black,legacy,legacy,legacy,0,incongruent,uniform,1,undefined,1,h,0,0,0,2,0,2,0,2,0,0,0,2,2,2,2,NA,NA,2,9/25/19 17:27,1500,The main experiment item,yes,Week4submit.osexp,C:/Users/DLGoupil/Desktop,no,mono,no,18,no,white,no,yes,768,legacy,2,2,C:/Users/DLGoupil/Desktop/subject-3.csv,legacy,Kafkaesque Koffka,3.2.8,0,h,NA,s,NA,NA,h,NA,NA,452,NA,16298,NA,NA,452,NA,NA,2,legacy,1024,2,48000,-16,experiment,SSHSS,3,odd,18308,NA,NA,NA,2004,NA,NA,21847,2008,NA,NA,20744,21950,22403,21844,NA,NA,21950,Week4submit,3,1445,3,yes,1024
100,100,442.25,442.25,black,legacy,legacy,legacy,0,incongruent,uniform,1,undefined,1,s,0,0,0,3,0,3,0,3,0,0,0,3,3,3,3,NA,NA,3,9/25/19 17:27,1500,The main experiment item,yes,Week4submit.osexp,C:/Users/DLGoupil/Desktop,no,mono,no,18,no,white,no,yes,768,legacy,3,3,C:/Users/DLGoupil/Desktop/subject-3.csv,legacy,Kafkaesque Koffka,3.2.8,0,s,NA,s,NA,NA,s,NA,NA,324,NA,16298,NA,NA,324,NA,NA,2,legacy,1024,2,48000,-16,experiment,HHSHH,3,odd,18308,NA,NA,NA,2004,NA,NA,23519,2008,NA,NA,22408,23622,23947,23516,NA,NA,23622,Week4submit,4,1769,4,yes,1024
100,100,451.8,451.8,black,legacy,legacy,legacy,0,incongruent,uniform,1,undefined,1,s,0,0,0,4,0,4,0,4,0,0,0,4,4,4,4,NA,NA,4,9/25/19 17:27,1500,The main experiment item,yes,Week4submit.osexp,C:/Users/DLGoupil/Desktop,no,mono,no,18,no,white,no,yes,768,legacy,4,4,C:/Users/DLGoupil/Desktop/subject-3.csv,legacy,Kafkaesque Koffka,3.2.8,0,s,NA,s,NA,NA,s,NA,NA,490,NA,16298,NA,NA,490,NA,NA,2,legacy,1024,2,48000,-16,experiment,HHSHH,3,odd,18308,NA,NA,NA,2004,NA,NA,25057,2008,NA,NA,23952,25160,25651,25055,NA,NA,25160,Week4submit,5,2259,5,yes,1024
100,100,442.3333333,442.3333333,black,legacy,legacy,legacy,0,congruent,uniform,1,undefined,1,s,0,0,0,5,0,5,0,5,0,0,0,5,5,5,5,NA,NA,5,9/25/19 17:27,1500,The main experiment item,yes,Week4submit.osexp,C:/Users/DLGoupil/Desktop,no,mono,no,18,no,white,no,yes,768,legacy,5,5,C:/Users/DLGoupil/Desktop/subject-3.csv,legacy,Kafkaesque Koffka,3.2.8,0,s,NA,s,NA,NA,s,NA,NA,395,NA,16298,NA,NA,395,NA,NA,2,legacy,1024,2,48000,-16,experiment,SSSSS,3,odd,18308,NA,NA,NA,2004,NA,NA,26760,2008,NA,NA,25656,26863,27258,26757,NA,NA,26863,Week4submit,6,2654,6,yes,1024
100,100,438.1428571,438.1428571,black,legacy,legacy,legacy,0,incongruent,uniform,1,undefined,1,h,0,0,0,6,0,6,0,6,0,0,0,6,6,6,6,NA,NA,6,9/25/19 17:27,1500,The main experiment item,yes,Week4submit.osexp,C:/Users/DLGoupil/Desktop,no,mono,no,18,no,white,no,yes,768,legacy,6,6,C:/Users/DLGoupil/Desktop/subject-3.csv,legacy,Kafkaesque Koffka,3.2.8,0,h,NA,s,NA,NA,h,NA,NA,413,NA,16298,NA,NA,413,NA,NA,2,legacy,1024,2,48000,-16,experiment,SSHSS,3,odd,18308,NA,NA,NA,2004,NA,NA,28373,2008,NA,NA,27263,28477,28890,28371,NA,NA,28477,Week4submit,7,3067,7,yes,1024
100,100,420.75,420.75,black,legacy,legacy,legacy,0,incongruent,uniform,1,undefined,1,s,0,0,0,7,0,7,0,7,0,0,0,7,7,7,7,NA,NA,7,9/25/19 17:27,1500,The main experiment item,yes,Week4submit.osexp,C:/Users/DLGoupil/Desktop,no,mono,no,18,no,white,no,yes,768,legacy,7,7,C:/Users/DLGoupil/Desktop/subject-3.csv,legacy,Kafkaesque Koffka,3.2.8,0,s,NA,s,NA,NA,s,NA,NA,299,NA,16298,NA,NA,299,NA,NA,2,legacy,1024,2,48000,-16,experiment,HHSHH,3,odd,18308,NA,NA,NA,2004,NA,NA,30001,2008,NA,NA,28896,30103,30402,29998,NA,NA,30103,Week4submit,8,3366,8,yes,1024
88.88888889,88.88888889,414.1111111,414.1111111,black,legacy,legacy,legacy,0,congruent,uniform,0,undefined,0,s,0,0,0,8,0,8,0,8,0,0,0,8,8,8,8,NA,NA,8,9/25/19 17:27,1500,The main experiment item,yes,Week4submit.osexp,C:/Users/DLGoupil/Desktop,no,mono,no,18,no,white,no,yes,768,legacy,8,8,C:/Users/DLGoupil/Desktop/subject-3.csv,legacy,Kafkaesque Koffka,3.2.8,0,h,NA,s,NA,NA,h,NA,NA,361,NA,16298,NA,NA,361,NA,NA,2,legacy,1024,2,48000,-16,experiment,SSSSS,3,odd,18308,NA,NA,NA,2004,NA,NA,31522,2008,NA,NA,30408,31625,31986,31519,NA,NA,31625,Week4submit,8,3727,9,yes,1024
90,90,416.4,416.4,black,legacy,legacy,legacy,0,congruent,uniform,1,undefined,1,s,0,0,0,9,0,9,0,9,0,0,0,9,9,9,9,NA,NA,9,9/25/19 17:27,1500,The main experiment item,yes,Week4submit.osexp,C:/Users/DLGoupil/Desktop,no,mono,no,18,no,white,no,yes,768,legacy,9,9,C:/Users/DLGoupil/Desktop/subject-3.csv,legacy,Kafkaesque Koffka,3.2.8,0,s,NA,s,NA,NA,s,NA,NA,437,NA,16298,NA,NA,437,NA,NA,2,legacy,1024,2,48000,-16,experiment,SSSSS,3,odd,18308,NA,NA,31992,2004,NA,NA,33598,2008,NA,NA,32495,33701,34138,33596,NA,NA,33701,Week4submit,9,4164,10,yes,1024
81.81818182,81.81818182,412.9090909,412.9090909,black,legacy,legacy,legacy,0,incongruent,uniform,0,undefined,0,h,0,0,0,10,0,10,0,10,0,0,0,10,10,10,10,NA,NA,10,9/25/19 17:27,1500,The main experiment item,yes,Week4submit.osexp,C:/Users/DLGoupil/Desktop,no,mono,no,18,no,white,no,yes,768,legacy,10,10,C:/Users/DLGoupil/Desktop/subject-3.csv,legacy,Kafkaesque Koffka,3.2.8,0,s,NA,s,NA,NA,s,NA,NA,378,NA,16298,NA,NA,378,NA,NA,2,legacy,1024,2,48000,-16,experiment,SSHSS,3,odd,18308,NA,NA,31992,2004,NA,NA,35249,2008,NA,NA,34144,35352,35731,35247,NA,NA,35352,Week4submit,9,4542,11,yes,1024
83.33333333,83.33333333,424,424,black,legacy,legacy,legacy,0,incongruent,uniform,1,undefined,1,h,0,0,0,11,0,11,0,11,0,0,0,11,11,11,11,NA,NA,11,9/25/19 17:27,1500,The main experiment item,yes,Week4submit.osexp,C:/Users/DLGoupil/Desktop,no,mono,no,18,no,white,no,yes,768,legacy,11,11,C:/Users/DLGoupil/Desktop/subject-3.csv,legacy,Kafkaesque Koffka,3.2.8,0,h,NA,s,NA,NA,h,NA,NA,546,NA,16298,NA,NA,546,NA,NA,2,legacy,1024,2,48000,-16,experiment,SSHSS,3,odd,18308,NA,NA,35736,2004,NA,NA,37345,2008,NA,NA,36239,37448,37995,37342,NA,NA,37448,Week4submit,10,5088,12,yes,1024
84.61538462,84.61538462,418.0769231,418.0769231,black,legacy,legacy,legacy,0,incongruent,uniform,1,undefined,1,s,0,0,0,12,0,12,0,12,0,0,0,12,12,12,12,NA,NA,12,9/25/19 17:27,1500,The main experiment item,yes,Week4submit.osexp,C:/Users/DLGoupil/Desktop,no,mono,no,18,no,white,no,yes,768,legacy,12,12,C:/Users/DLGoupil/Desktop/subject-3.csv,legacy,Kafkaesque Koffka,3.2.8,0,s,NA,s,NA,NA,s,NA,NA,347,NA,16298,NA,NA,347,NA,NA,2,legacy,1024,2,48000,-16,experiment,HHSHH,3,odd,18308,NA,NA,35736,2004,NA,NA,39112,2008,NA,NA,38000,39215,39563,39109,NA,NA,39215,Week4submit,11,5435,13,yes,1024
85.71428571,85.71428571,421.1428571,421.1428571,black,legacy,legacy,legacy,0,incongruent,uniform,1,undefined,1,s,0,0,0,13,0,13,0,13,0,0,0,13,13,13,13,NA,NA,13,9/25/19 17:27,1500,The main experiment item,yes,Week4submit.osexp,C:/Users/DLGoupil/Desktop,no,mono,no,18,no,white,no,yes,768,legacy,13,13,C:/Users/DLGoupil/Desktop/subject-3.csv,legacy,Kafkaesque Koffka,3.2.8,0,s,NA,s,NA,NA,s,NA,NA,461,NA,16298,NA,NA,461,NA,NA,2,legacy,1024,2,48000,-16,experiment,HHSHH,3,odd,18308,NA,NA,35736,2004,NA,NA,40679,2008,NA,NA,39568,40782,41243,40677,NA,NA,40782,Week4submit,12,5896,14,yes,1024
86.66666667,86.66666667,427.4666667,427.4666667,black,legacy,legacy,legacy,0,incongruent,uniform,1,undefined,1,s,0,0,0,14,0,14,0,14,0,0,0,14,14,14,14,NA,NA,14,9/25/19 17:27,1500,The main experiment item,yes,Week4submit.osexp,C:/Users/DLGoupil/Desktop,no,mono,no,18,no,white,no,yes,768,legacy,14,14,C:/Users/DLGoupil/Desktop/subject-3.csv,legacy,Kafkaesque Koffka,3.2.8,0,s,NA,s,NA,NA,s,NA,NA,516,NA,16298,NA,NA,516,NA,NA,2,legacy,1024,2,48000,-16,experiment,HHSHH,3,odd,18308,NA,NA,35736,2004,NA,NA,42360,2008,NA,NA,41249,42463,42979,42357,NA,NA,42463,Week4submit,13,6412,15,yes,1024
87.5,87.5,426.25,426.25,black,legacy,legacy,legacy,0,congruent,uniform,1,undefined,1,h,0,0,0,15,0,15,0,15,0,0,0,15,15,15,15,NA,NA,15,9/25/19 17:27,1500,The main experiment item,yes,Week4submit.osexp,C:/Users/DLGoupil/Desktop,no,mono,no,18,no,white,no,yes,768,legacy,15,15,C:/Users/DLGoupil/Desktop/subject-3.csv,legacy,Kafkaesque Koffka,3.2.8,0,h,NA,s,NA,NA,h,NA,NA,408,NA,16298,NA,NA,408,NA,NA,2,legacy,1024,2,48000,-16,experiment,HHHHH,3,odd,18308,NA,NA,35736,2004,NA,NA,44100,2008,NA,NA,42984,44203,44611,44097,NA,NA,44203,Week4submit,14,6820,16,yes,1024
82.35294118,82.35294118,419.5294118,419.5294118,black,legacy,legacy,legacy,0,incongruent,uniform,0,undefined,0,h,0,0,0,16,0,16,0,16,0,0,0,16,16,16,16,NA,NA,16,9/25/19 17:27,1500,The main experiment item,yes,Week4submit.osexp,C:/Users/DLGoupil/Desktop,no,mono,no,18,no,white,no,yes,768,legacy,16,16,C:/Users/DLGoupil/Desktop/subject-3.csv,legacy,Kafkaesque Koffka,3.2.8,0,s,NA,s,NA,NA,s,NA,NA,312,NA,16298,NA,NA,312,NA,NA,2,legacy,1024,2,48000,-16,experiment,SSHSS,3,odd,18308,NA,NA,35736,2004,NA,NA,45724,2008,NA,NA,44616,45826,46139,45721,NA,NA,45826,Week4submit,14,7132,17,yes,1024
83.33333333,83.33333333,420.6111111,420.6111111,black,legacy,legacy,legacy,0,congruent,uniform,1,undefined,1,s,0,0,0,17,0,17,0,17,0,0,0,17,17,17,17,NA,NA,17,9/25/19 17:27,1500,The main experiment item,yes,Week4submit.osexp,C:/Users/DLGoupil/Desktop,no,mono,no,18,no,white,no,yes,768,legacy,17,17,C:/Users/DLGoupil/Desktop/subject-3.csv,legacy,Kafkaesque Koffka,3.2.8,0,s,NA,s,NA,NA,s,NA,NA,439,NA,16298,NA,NA,439,NA,NA,2,legacy,1024,2,48000,-16,experiment,SSSSS,3,odd,18308,NA,NA,46144,2004,NA,NA,47756,2008,NA,NA,46647,47859,48299,47753,NA,NA,47859,Week4submit,15,7571,18,yes,1024
84.21052632,84.21052632,422.5263158,422.5263158,black,legacy,legacy,legacy,0,incongruent,uniform,1,undefined,1,h,0,0,0,18,0,18,0,18,0,0,0,18,18,18,18,NA,NA,18,9/25/19 17:27,1500,The main experiment item,yes,Week4submit.osexp,C:/Users/DLGoupil/Desktop,no,mono,no,18,no,white,no,yes,768,legacy,18,18,C:/Users/DLGoupil/Desktop/subject-3.csv,legacy,Kafkaesque Koffka,3.2.8,0,h,NA,s,NA,NA,h,NA,NA,457,NA,16298,NA,NA,457,NA,NA,2,legacy,1024,2,48000,-16,experiment,SSHSS,3,odd,18308,NA,NA,46144,2004,NA,NA,49410,2008,NA,NA,48304,49513,49971,49408,NA,NA,49513,Week4submit,16,8028,19,yes,1024
85,85,425.2,425.2,black,legacy,legacy,legacy,0,incongruent,uniform,1,undefined,1,s,0,0,0,19,0,19,0,19,0,0,0,19,19,19,19,NA,NA,19,9/25/19 17:27,1500,The main experiment item,yes,Week4submit.osexp,C:/Users/DLGoupil/Desktop,no,mono,no,18,no,white,no,yes,768,legacy,19,19,C:/Users/DLGoupil/Desktop/subject-3.csv,legacy,Kafkaesque Koffka,3.2.8,0,s,NA,s,NA,NA,s,NA,NA,476,NA,16298,NA,NA,476,NA,NA,2,legacy,1024,2,48000,-16,experiment,HHSHH,3,odd,18308,NA,NA,46144,2004,NA,NA,51086,2008,NA,NA,49976,51190,51667,51084,NA,NA,51190,Week4submit,17,8504,20,yes,1024
85.71428571,85.71428571,424.2857143,424.2857143,black,legacy,legacy,legacy,0,congruent,uniform,1,undefined,1,s,0,0,0,20,0,20,0,20,0,0,0,20,20,20,20,NA,NA,20,9/25/19 17:27,1500,The main experiment item,yes,Week4submit.osexp,C:/Users/DLGoupil/Desktop,no,mono,no,18,no,white,no,yes,768,legacy,20,20,C:/Users/DLGoupil/Desktop/subject-3.csv,legacy,Kafkaesque Koffka,3.2.8,0,s,NA,s,NA,NA,s,NA,NA,406,NA,16298,NA,NA,406,NA,NA,2,legacy,1024,2,48000,-16,experiment,SSSSS,3,odd,18308,NA,NA,46144,2004,NA,NA,52781,2008,NA,NA,51672,52884,53291,52778,NA,NA,52884,Week4submit,18,8910,21,yes,1024
86.36363636,86.36363636,435.2272727,435.2272727,black,legacy,legacy,legacy,0,incongruent,uniform,1,undefined,1,s,0,0,0,21,0,21,0,21,0,0,0,21,21,21,21,NA,NA,21,9/25/19 17:27,1500,The main experiment item,yes,Week4submit.osexp,C:/Users/DLGoupil/Desktop,no,mono,no,18,no,white,no,yes,768,legacy,21,21,C:/Users/DLGoupil/Desktop/subject-3.csv,legacy,Kafkaesque Koffka,3.2.8,0,s,NA,s,NA,NA,s,NA,NA,665,NA,16298,NA,NA,665,NA,NA,2,legacy,1024,2,48000,-16,experiment,HHSHH,3,odd,18308,NA,NA,46144,2004,NA,NA,54402,2008,NA,NA,53296,54505,55171,54399,NA,NA,54505,Week4submit,19,9575,22,yes,1024
86.95652174,86.95652174,435.7826087,435.7826087,black,legacy,legacy,legacy,0,congruent,uniform,1,undefined,1,s,0,0,0,22,0,22,0,22,0,0,0,22,22,22,22,NA,NA,22,9/25/19 17:27,1500,The main experiment item,yes,Week4submit.osexp,C:/Users/DLGoupil/Desktop,no,mono,no,18,no,white,no,yes,768,legacy,22,22,C:/Users/DLGoupil/Desktop/subject-3.csv,legacy,Kafkaesque Koffka,3.2.8,0,s,NA,s,NA,NA,s,NA,NA,448,NA,16298,NA,NA,448,NA,NA,2,legacy,1024,2,48000,-16,experiment,SSSSS,3,odd,18308,NA,NA,46144,2004,NA,NA,56283,2008,NA,NA,55176,56386,56835,56280,NA,NA,56386,Week4submit,20,10023,23,yes,1024
83.33333333,83.33333333,434.7083333,434.7083333,black,legacy,legacy,legacy,0,incongruent,uniform,0,undefined,0,s,0,0,0,23,0,23,0,23,0,0,0,23,23,23,23,NA,NA,23,9/25/19 17:27,1500,The main experiment item,yes,Week4submit.osexp,C:/Users/DLGoupil/Desktop,no,mono,no,18,no,white,no,yes,768,legacy,23,23,C:/Users/DLGoupil/Desktop/subject-3.csv,legacy,Kafkaesque Koffka,3.2.8,0,h,NA,s,NA,NA,h,NA,NA,410,NA,16298,NA,NA,410,NA,NA,2,legacy,1024,2,48000,-16,experiment,HHSHH,3,odd,18308,NA,NA,46144,2004,NA,NA,57953,2008,NA,NA,56840,58056,58467,57950,NA,NA,58056,Week4submit,20,10433,24,yes,1024
84,84,438.32,438.32,black,legacy,legacy,legacy,0,incongruent,uniform,1,undefined,1,s,0,0,0,24,0,24,0,24,0,0,0,24,24,24,24,NA,NA,24,9/25/19 17:27,1500,The main experiment item,yes,Week4submit.osexp,C:/Users/DLGoupil/Desktop,no,mono,no,18,no,white,no,yes,768,legacy,24,24,C:/Users/DLGoupil/Desktop/subject-3.csv,legacy,Kafkaesque Koffka,3.2.8,0,s,NA,s,NA,NA,s,NA,NA,525,NA,16298,NA,NA,525,NA,NA,2,legacy,1024,2,48000,-16,experiment,HHSHH,3,odd,18308,NA,NA,58472,2004,NA,NA,60086,2008,NA,NA,58975,60189,60715,60083,NA,NA,60189,Week4submit,21,10958,25,yes,1024
84.61538462,84.61538462,438.3461538,438.3461538,black,legacy,legacy,legacy,0,congruent,uniform,1,undefined,1,h,0,0,0,25,0,25,0,25,0,0,0,25,25,25,25,NA,NA,25,9/25/19 17:27,1500,The main experiment item,yes,Week4submit.osexp,C:/Users/DLGoupil/Desktop,no,mono,no,18,no,white,no,yes,768,legacy,25,25,C:/Users/DLGoupil/Desktop/subject-3.csv,legacy,Kafkaesque Koffka,3.2.8,0,h,NA,s,NA,NA,h,NA,NA,439,NA,16298,NA,NA,439,NA,NA,2,legacy,1024,2,48000,-16,experiment,HHHHH,3,odd,18308,NA,NA,58472,2004,NA,NA,61829,2008,NA,NA,60720,61932,62371,61826,NA,NA,61932,Week4submit,22,11397,26,yes,1024
85.18518519,85.18518519,436.1851852,436.1851852,black,legacy,legacy,legacy,0,congruent,uniform,1,undefined,1,s,0,0,0,26,0,26,0,26,0,0,0,26,26,26,26,NA,NA,26,9/25/19 17:27,1500,The main experiment item,yes,Week4submit.osexp,C:/Users/DLGoupil/Desktop,no,mono,no,18,no,white,no,yes,768,legacy,26,26,C:/Users/DLGoupil/Desktop/subject-3.csv,legacy,Kafkaesque Koffka,3.2.8,0,s,NA,s,NA,NA,s,NA,NA,380,NA,16298,NA,NA,380,NA,NA,2,legacy,1024,2,48000,-16,experiment,SSSSS,3,odd,18308,NA,NA,58472,2004,NA,NA,63488,2008,NA,NA,62377,63590,63971,63485,NA,NA,63590,Week4submit,23,11777,27,yes,1024
85.71428571,85.71428571,439.5357143,439.5357143,black,legacy,legacy,legacy,0,incongruent,uniform,1,undefined,1,h,0,0,0,27,0,27,0,27,0,0,0,27,27,27,27,NA,NA,27,9/25/19 17:27,1500,The main experiment item,yes,Week4submit.osexp,C:/Users/DLGoupil/Desktop,no,mono,no,18,no,white,no,yes,768,legacy,27,27,C:/Users/DLGoupil/Desktop/subject-3.csv,legacy,Kafkaesque Koffka,3.2.8,0,h,NA,s,NA,NA,h,NA,NA,530,NA,16298,NA,NA,530,NA,NA,2,legacy,1024,2,48000,-16,experiment,SSHSS,3,odd,18308,NA,NA,58472,2004,NA,NA,65081,2008,NA,NA,63976,65184,65715,65078,NA,NA,65184,Week4submit,24,12307,28,yes,1024
82.75862069,82.75862069,436.3103448,436.3103448,black,legacy,legacy,legacy,0,incongruent,uniform,0,undefined,0,h,0,0,0,28,0,28,0,28,0,0,0,28,28,28,28,NA,NA,28,9/25/19 17:27,1500,The main experiment item,yes,Week4submit.osexp,C:/Users/DLGoupil/Desktop,no,mono,no,18,no,white,no,yes,768,legacy,28,28,C:/Users/DLGoupil/Desktop/subject-3.csv,legacy,Kafkaesque Koffka,3.2.8,0,s,NA,s,NA,NA,s,NA,NA,346,NA,16298,NA,NA,346,NA,NA,2,legacy,1024,2,48000,-16,experiment,SSHSS,3,odd,18308,NA,NA,58472,2004,NA,NA,66817,2008,NA,NA,65720,66920,67267,66815,NA,NA,66920,Week4submit,24,12653,29,yes,1024
83.33333333,83.33333333,436.2,436.2,black,legacy,legacy,legacy,0,congruent,uniform,1,undefined,1,s,0,0,0,29,0,29,0,29,0,0,0,29,29,29,29,NA,NA,29,9/25/19 17:27,1500,The main experiment item,yes,Week4submit.osexp,C:/Users/DLGoupil/Desktop,no,mono,no,18,no,white,no,yes,768,legacy,29,29,C:/Users/DLGoupil/Desktop/subject-3.csv,legacy,Kafkaesque Koffka,3.2.8,0,s,NA,s,NA,NA,s,NA,NA,433,NA,16298,NA,NA,433,NA,NA,2,legacy,1024,2,48000,-16,experiment,SSSSS,3,odd,18308,NA,NA,67272,2004,NA,NA,68874,2008,NA,NA,67775,68977,69411,68871,NA,NA,68977,Week4submit,25,13086,30,yes,1024
83.87096774,83.87096774,437.516129,437.516129,black,legacy,legacy,legacy,0,congruent,uniform,1,undefined,1,h,0,0,0,30,0,30,0,30,0,0,0,30,30,30,30,NA,NA,30,9/25/19 17:27,1500,The main experiment item,yes,Week4submit.osexp,C:/Users/DLGoupil/Desktop,no,mono,no,18,no,white,no,yes,768,legacy,30,30,C:/Users/DLGoupil/Desktop/subject-3.csv,legacy,Kafkaesque Koffka,3.2.8,0,h,NA,s,NA,NA,h,NA,NA,477,NA,16298,NA,NA,477,NA,NA,2,legacy,1024,2,48000,-16,experiment,HHHHH,3,odd,18308,NA,NA,67272,2004,NA,NA,70526,2008,NA,NA,69416,70629,71107,70523,NA,NA,70629,Week4submit,26,13563,31,yes,1024
84.375,84.375,438.1875,438.1875,black,legacy,legacy,legacy,0,congruent,uniform,1,undefined,1,s,0,0,0,31,0,31,0,31,0,0,0,31,31,31,31,NA,NA,31,9/25/19 17:27,1500,The main experiment item,yes,Week4submit.osexp,C:/Users/DLGoupil/Desktop,no,mono,no,18,no,white,no,yes,768,legacy,31,31,C:/Users/DLGoupil/Desktop/subject-3.csv,legacy,Kafkaesque Koffka,3.2.8,0,s,NA,s,NA,NA,s,NA,NA,459,NA,16298,NA,NA,459,NA,NA,2,legacy,1024,2,48000,-16,experiment,SSSSS,3,odd,18308,NA,NA,67272,2004,NA,NA,72216,2008,NA,NA,71112,72319,72779,72213,NA,NA,72319,Week4submit,27,14022,32,yes,1024
84.84848485,84.84848485,444.5151515,444.5151515,black,legacy,legacy,legacy,0,incongruent,uniform,1,undefined,1,s,0,0,0,32,0,32,0,32,0,0,0,32,32,32,32,NA,NA,32,9/25/19 17:27,1500,The main experiment item,yes,Week4submit.osexp,C:/Users/DLGoupil/Desktop,no,mono,no,18,no,white,no,yes,768,legacy,32,32,C:/Users/DLGoupil/Desktop/subject-3.csv,legacy,Kafkaesque Koffka,3.2.8,0,s,NA,s,NA,NA,s,NA,NA,647,NA,16298,NA,NA,647,NA,NA,2,legacy,1024,2,48000,-16,experiment,HHSHH,3,odd,18308,NA,NA,67272,2004,NA,NA,73893,2008,NA,NA,72784,73995,74643,73890,NA,NA,73995,Week4submit,28,14669,33,yes,1024
85.29411765,85.29411765,448.1764706,448.1764706,black,legacy,legacy,legacy,0,congruent,uniform,1,undefined,1,h,0,0,0,33,0,33,0,33,0,0,0,33,33,33,33,NA,NA,33,9/25/19 17:27,1500,The main experiment item,yes,Week4submit.osexp,C:/Users/DLGoupil/Desktop,no,mono,no,18,no,white,no,yes,768,legacy,33,33,C:/Users/DLGoupil/Desktop/subject-3.csv,legacy,Kafkaesque Koffka,3.2.8,0,h,NA,s,NA,NA,h,NA,NA,569,NA,16298,NA,NA,569,NA,NA,2,legacy,1024,2,48000,-16,experiment,HHHHH,3,odd,18308,NA,NA,67272,2004,NA,NA,75754,2008,NA,NA,74648,75857,76427,75751,NA,NA,75857,Week4submit,29,15238,34,yes,1024
85.71428571,85.71428571,450.2857143,450.2857143,black,legacy,legacy,legacy,0,congruent,uniform,1,undefined,1,h,0,0,0,34,0,34,0,34,0,0,0,34,34,34,34,NA,NA,34,9/25/19 17:27,1500,The main experiment item,yes,Week4submit.osexp,C:/Users/DLGoupil/Desktop,no,mono,no,18,no,white,no,yes,768,legacy,34,34,C:/Users/DLGoupil/Desktop/subject-3.csv,legacy,Kafkaesque Koffka,3.2.8,0,h,NA,s,NA,NA,h,NA,NA,522,NA,16298,NA,NA,522,NA,NA,2,legacy,1024,2,48000,-16,experiment,HHHHH,3,odd,18308,NA,NA,67272,2004,NA,NA,77545,2008,NA,NA,76432,77648,78171,77542,NA,NA,77648,Week4submit,30,15760,35,yes,1024
86.11111111,86.11111111,451.4166667,451.4166667,black,legacy,legacy,legacy,0,congruent,uniform,1,undefined,1,s,0,0,0,35,0,35,0,35,0,0,0,35,35,35,35,NA,NA,35,9/25/19 17:27,1500,The main experiment item,yes,Week4submit.osexp,C:/Users/DLGoupil/Desktop,no,mono,no,18,no,white,no,yes,768,legacy,35,35,C:/Users/DLGoupil/Desktop/subject-3.csv,legacy,Kafkaesque Koffka,3.2.8,0,s,NA,s,NA,NA,s,NA,NA,491,NA,16298,NA,NA,491,NA,NA,2,legacy,1024,2,48000,-16,experiment,SSSSS,3,odd,18308,NA,NA,67272,2004,NA,NA,79288,2008,NA,NA,78176,79391,79883,79285,NA,NA,79391,Week4submit,31,16251,36,yes,1024
86.48648649,86.48648649,457.0540541,457.0540541,black,legacy,legacy,legacy,0,congruent,uniform,1,undefined,1,h,0,0,0,36,0,36,0,36,0,0,0,36,36,36,36,NA,NA,36,9/25/19 17:27,1500,The main experiment item,yes,Week4submit.osexp,C:/Users/DLGoupil/Desktop,no,mono,no,18,no,white,no,yes,768,legacy,36,36,C:/Users/DLGoupil/Desktop/subject-3.csv,legacy,Kafkaesque Koffka,3.2.8,0,h,NA,s,NA,NA,h,NA,NA,660,NA,16298,NA,NA,660,NA,NA,2,legacy,1024,2,48000,-16,experiment,HHHHH,3,odd,18308,NA,NA,67272,2004,NA,NA,80999,2008,NA,NA,79888,81102,81763,80996,NA,NA,81102,Week4submit,32,16911,37,yes,1024
86.84210526,86.84210526,458.3684211,458.3684211,black,legacy,legacy,legacy,0,congruent,uniform,1,undefined,1,s,0,0,0,37,0,37,0,37,0,0,0,37,37,37,37,NA,NA,37,9/25/19 17:27,1500,The main experiment item,yes,Week4submit.osexp,C:/Users/DLGoupil/Desktop,no,mono,no,18,no,white,no,yes,768,legacy,37,37,C:/Users/DLGoupil/Desktop/subject-3.csv,legacy,Kafkaesque Koffka,3.2.8,0,s,NA,s,NA,NA,s,NA,NA,507,NA,16298,NA,NA,507,NA,NA,2,legacy,1024,2,48000,-16,experiment,SSSSS,3,odd,18308,NA,NA,67272,2004,NA,NA,82880,2008,NA,NA,81768,82983,83491,82877,NA,NA,82983,Week4submit,33,17418,38,yes,1024
87.17948718,87.17948718,462.0512821,462.0512821,black,legacy,legacy,legacy,0,congruent,uniform,1,undefined,1,h,0,0,0,38,0,38,0,38,0,0,0,38,38,38,38,NA,NA,38,9/25/19 17:27,1500,The main experiment item,yes,Week4submit.osexp,C:/Users/DLGoupil/Desktop,no,mono,no,18,no,white,no,yes,768,legacy,38,38,C:/Users/DLGoupil/Desktop/subject-3.csv,legacy,Kafkaesque Koffka,3.2.8,0,h,NA,s,NA,NA,h,NA,NA,602,NA,16298,NA,NA,602,NA,NA,2,legacy,1024,2,48000,-16,experiment,HHHHH,3,odd,18308,NA,NA,67272,2004,NA,NA,84601,2008,NA,NA,83496,84704,85307,84598,NA,NA,84704,Week4submit,34,18020,39,yes,1024
87.5,87.5,463.3,463.3,black,legacy,legacy,legacy,0,incongruent,uniform,1,undefined,1,s,0,0,0,39,0,39,0,39,0,0,0,39,39,39,39,NA,NA,39,9/25/19 17:27,1500,The main experiment item,yes,Week4submit.osexp,C:/Users/DLGoupil/Desktop,no,mono,no,18,no,white,no,yes,768,legacy,39,39,C:/Users/DLGoupil/Desktop/subject-3.csv,legacy,Kafkaesque Koffka,3.2.8,0,s,NA,s,NA,NA,s,NA,NA,512,NA,16298,NA,NA,512,NA,NA,2,legacy,1024,2,48000,-16,experiment,HHSHH,3,odd,18308,NA,NA,67272,2004,NA,NA,86427,2008,NA,NA,85313,86530,87043,86424,NA,NA,86530,Week4submit,35,18532,40,yes,1024
87.80487805,87.80487805,462.8292683,462.8292683,black,legacy,legacy,legacy,0,congruent,uniform,1,undefined,1,s,0,0,0,40,0,40,0,40,0,0,0,40,40,40,40,NA,NA,40,9/25/19 17:27,1500,The main experiment item,yes,Week4submit.osexp,C:/Users/DLGoupil/Desktop,no,mono,no,18,no,white,no,yes,768,legacy,40,40,C:/Users/DLGoupil/Desktop/subject-3.csv,legacy,Kafkaesque Koffka,3.2.8,0,s,NA,s,NA,NA,s,NA,NA,444,NA,16298,NA,NA,444,NA,NA,2,legacy,1024,2,48000,-16,experiment,SSSSS,3,odd,18308,NA,NA,67272,2004,NA,NA,88159,2008,NA,NA,87048,88263,88707,88157,NA,NA,88263,Week4submit,36,18976,41,yes,1024
88.0952381,88.0952381,462.6666667,462.6666667,black,legacy,legacy,legacy,0,congruent,uniform,1,undefined,1,h,0,0,0,41,0,41,0,41,0,0,0,41,41,41,41,NA,NA,41,9/25/19 17:27,1500,The main experiment item,yes,Week4submit.osexp,C:/Users/DLGoupil/Desktop,no,mono,no,18,no,white,no,yes,768,legacy,41,41,C:/Users/DLGoupil/Desktop/subject-3.csv,legacy,Kafkaesque Koffka,3.2.8,0,h,NA,s,NA,NA,h,NA,NA,456,NA,16298,NA,NA,456,NA,NA,2,legacy,1024,2,48000,-16,experiment,HHHHH,3,odd,18308,NA,NA,67272,2004,NA,NA,89811,2008,NA,NA,88713,89914,90371,89808,NA,NA,89914,Week4submit,37,19432,42,yes,1024
86.04651163,86.04651163,461.0697674,461.0697674,black,legacy,legacy,legacy,0,incongruent,uniform,0,undefined,0,h,0,0,0,42,0,42,0,42,0,0,0,42,42,42,42,NA,NA,42,9/25/19 17:27,1500,The main experiment item,yes,Week4submit.osexp,C:/Users/DLGoupil/Desktop,no,mono,no,18,no,white,no,yes,768,legacy,42,42,C:/Users/DLGoupil/Desktop/subject-3.csv,legacy,Kafkaesque Koffka,3.2.8,0,s,NA,s,NA,NA,s,NA,NA,394,NA,16298,NA,NA,394,NA,NA,2,legacy,1024,2,48000,-16,experiment,SSHSS,3,odd,18308,NA,NA,67272,2004,NA,NA,91481,2008,NA,NA,90377,91584,91979,91478,NA,NA,91584,Week4submit,37,19826,43,yes,1024
86.36363636,86.36363636,462.4318182,462.4318182,black,legacy,legacy,legacy,0,incongruent,uniform,1,undefined,1,s,0,0,0,43,0,43,0,43,0,0,0,43,43,43,43,NA,NA,43,9/25/19 17:27,1500,The main experiment item,yes,Week4submit.osexp,C:/Users/DLGoupil/Desktop,no,mono,no,18,no,white,no,yes,768,legacy,43,43,C:/Users/DLGoupil/Desktop/subject-3.csv,legacy,Kafkaesque Koffka,3.2.8,0,s,NA,s,NA,NA,s,NA,NA,521,NA,16298,NA,NA,521,NA,NA,2,legacy,1024,2,48000,-16,experiment,HHSHH,3,odd,18308,NA,NA,91984,2004,NA,NA,93594,2008,NA,NA,92487,93697,94219,93591,NA,NA,93697,Week4submit,38,20347,44,yes,1024
86.66666667,86.66666667,463.6222222,463.6222222,black,legacy,legacy,legacy,0,incongruent,uniform,1,undefined,1,s,0,0,0,44,0,44,0,44,0,0,0,44,44,44,44,NA,NA,44,9/25/19 17:27,1500,The main experiment item,yes,Week4submit.osexp,C:/Users/DLGoupil/Desktop,no,mono,no,18,no,white,no,yes,768,legacy,44,44,C:/Users/DLGoupil/Desktop/subject-3.csv,legacy,Kafkaesque Koffka,3.2.8,0,s,NA,s,NA,NA,s,NA,NA,516,NA,16298,NA,NA,516,NA,NA,2,legacy,1024,2,48000,-16,experiment,HHSHH,3,odd,18308,NA,NA,91984,2004,NA,NA,95335,2008,NA,NA,94225,95438,95955,95332,NA,NA,95438,Week4submit,39,20863,45,yes,1024
86.95652174,86.95652174,463.673913,463.673913,black,legacy,legacy,legacy,0,congruent,uniform,1,undefined,1,s,0,0,0,45,0,45,0,45,0,0,0,45,45,45,45,NA,NA,45,9/25/19 17:27,1500,The main experiment item,yes,Week4submit.osexp,C:/Users/DLGoupil/Desktop,no,mono,no,18,no,white,no,yes,768,legacy,45,45,C:/Users/DLGoupil/Desktop/subject-3.csv,legacy,Kafkaesque Koffka,3.2.8,0,s,NA,s,NA,NA,s,NA,NA,466,NA,16298,NA,NA,466,NA,NA,2,legacy,1024,2,48000,-16,experiment,SSSSS,3,odd,18308,NA,NA,91984,2004,NA,NA,97073,2008,NA,NA,95960,97176,97643,97070,NA,NA,97176,Week4submit,40,21329,46,yes,1024
87.23404255,87.23404255,463.1702128,463.1702128,black,legacy,legacy,legacy,0,congruent,uniform,1,undefined,1,s,0,0,0,46,0,46,0,46,0,0,0,46,46,46,46,NA,NA,46,9/25/19 17:27,1500,The main experiment item,yes,Week4submit.osexp,C:/Users/DLGoupil/Desktop,no,mono,no,18,no,white,no,yes,768,legacy,46,46,C:/Users/DLGoupil/Desktop/subject-3.csv,legacy,Kafkaesque Koffka,3.2.8,0,s,NA,s,NA,NA,s,NA,NA,440,NA,16298,NA,NA,440,NA,NA,2,legacy,1024,2,48000,-16,experiment,SSSSS,3,odd,18308,NA,NA,91984,2004,NA,NA,98755,2008,NA,NA,97648,98858,99299,98752,NA,NA,98858,Week4submit,41,21769,47,yes,1024
87.5,87.5,462.7291667,462.7291667,black,legacy,legacy,legacy,0,congruent,uniform,1,undefined,1,h,0,0,0,47,0,47,0,47,0,0,0,47,47,47,47,NA,NA,47,9/25/19 17:27,1500,The main experiment item,yes,Week4submit.osexp,C:/Users/DLGoupil/Desktop,no,mono,no,18,no,white,no,yes,768,legacy,47,47,C:/Users/DLGoupil/Desktop/subject-3.csv,legacy,Kafkaesque Koffka,3.2.8,0,h,NA,s,NA,NA,h,NA,NA,442,NA,16298,NA,NA,442,NA,NA,2,legacy,1024,2,48000,-16,experiment,HHHHH,3,odd,18308,NA,NA,91984,2004,NA,NA,100409,2008,NA,NA,99304,100512,100955,100407,NA,NA,100512,Week4submit,42,22211,48,yes,1024
87.75510204,87.75510204,464.6530612,464.6530612,black,legacy,legacy,legacy,0,incongruent,uniform,1,undefined,1,h,0,0,0,48,0,48,0,48,0,0,0,48,48,48,48,NA,NA,48,9/25/19 17:27,1500,The main experiment item,yes,Week4submit.osexp,C:/Users/DLGoupil/Desktop,no,mono,no,18,no,white,no,yes,768,legacy,48,48,C:/Users/DLGoupil/Desktop/subject-3.csv,legacy,Kafkaesque Koffka,3.2.8,0,h,NA,s,NA,NA,h,NA,NA,557,NA,16298,NA,NA,557,NA,NA,2,legacy,1024,2,48000,-16,experiment,SSHSS,3,odd,18308,NA,NA,91984,2004,NA,NA,102062,2008,NA,NA,100960,102165,102723,102059,NA,NA,102165,Week4submit,43,22768,49,yes,1024
88,88,466.6,466.6,black,legacy,legacy,legacy,0,incongruent,uniform,1,undefined,1,h,0,0,0,49,0,49,0,49,0,0,0,49,49,49,49,NA,NA,49,9/25/19 17:27,1500,The main experiment item,yes,Week4submit.osexp,C:/Users/DLGoupil/Desktop,no,mono,no,18,no,white,no,yes,768,legacy,49,49,C:/Users/DLGoupil/Desktop/subject-3.csv,legacy,Kafkaesque Koffka,3.2.8,0,h,NA,s,NA,NA,h,NA,NA,562,NA,16298,NA,NA,562,NA,NA,2,legacy,1024,2,48000,-16,experiment,SSHSS,3,odd,18308,NA,NA,91984,2004,NA,NA,103833,2008,NA,NA,102729,103936,104499,103830,NA,NA,103936,Week4submit,44,23330,50,yes,1024
88.23529412,88.23529412,467.0980392,467.0980392,black,legacy,legacy,legacy,0,congruent,uniform,1,undefined,1,h,0,0,0,50,0,50,0,50,0,0,0,50,50,50,50,NA,NA,50,9/25/19 17:27,1500,The main experiment item,yes,Week4submit.osexp,C:/Users/DLGoupil/Desktop,no,mono,no,18,no,white,no,yes,768,legacy,50,50,C:/Users/DLGoupil/Desktop/subject-3.csv,legacy,Kafkaesque Koffka,3.2.8,0,h,NA,s,NA,NA,h,NA,NA,492,NA,16298,NA,NA,492,NA,NA,2,legacy,1024,2,48000,-16,experiment,HHHHH,3,odd,18308,NA,NA,91984,2004,NA,NA,105607,2008,NA,NA,104505,105710,106203,105604,NA,NA,105710,Week4submit,45,23822,51,yes,1024
88.46153846,88.46153846,466.4423077,466.4423077,black,legacy,legacy,legacy,0,incongruent,uniform,1,undefined,1,s,0,0,0,51,0,51,0,51,0,0,0,51,51,51,51,NA,NA,51,9/25/19 17:27,1500,The main experiment item,yes,Week4submit.osexp,C:/Users/DLGoupil/Desktop,no,mono,no,18,no,white,no,yes,768,legacy,51,51,C:/Users/DLGoupil/Desktop/subject-3.csv,legacy,Kafkaesque Koffka,3.2.8,0,s,NA,s,NA,NA,s,NA,NA,433,NA,16298,NA,NA,433,NA,NA,2,legacy,1024,2,48000,-16,experiment,HHSHH,3,odd,18308,NA,NA,91984,2004,NA,NA,107314,2008,NA,NA,106208,107417,107851,107311,NA,NA,107417,Week4submit,46,24255,52,yes,1024
88.67924528,88.67924528,466.2830189,466.2830189,black,legacy,legacy,legacy,0,congruent,uniform,1,undefined,1,s,0,0,0,52,0,52,0,52,0,0,0,52,52,52,52,NA,NA,52,9/25/19 17:27,1500,The main experiment item,yes,Week4submit.osexp,C:/Users/DLGoupil/Desktop,no,mono,no,18,no,white,no,yes,768,legacy,52,52,C:/Users/DLGoupil/Desktop/subject-3.csv,legacy,Kafkaesque Koffka,3.2.8,0,s,NA,s,NA,NA,s,NA,NA,458,NA,16298,NA,NA,458,NA,NA,2,legacy,1024,2,48000,-16,experiment,SSSSS,3,odd,18308,NA,NA,91984,2004,NA,NA,108961,2008,NA,NA,107857,109064,109523,108958,NA,NA,109064,Week4submit,47,24713,53,yes,1024
88.88888889,88.88888889,467.6296296,467.6296296,black,legacy,legacy,legacy,0,incongruent,uniform,1,undefined,1,s,0,0,0,53,0,53,0,53,0,0,0,53,53,53,53,NA,NA,53,9/25/19 17:27,1500,The main experiment item,yes,Week4submit.osexp,C:/Users/DLGoupil/Desktop,no,mono,no,18,no,white,no,yes,768,legacy,53,53,C:/Users/DLGoupil/Desktop/subject-3.csv,legacy,Kafkaesque Koffka,3.2.8,0,s,NA,s,NA,NA,s,NA,NA,539,NA,16298,NA,NA,539,NA,NA,2,legacy,1024,2,48000,-16,experiment,HHSHH,3,odd,18308,NA,NA,91984,2004,NA,NA,110640,2008,NA,NA,109529,110743,111283,110637,NA,NA,110743,Week4submit,48,25252,54,yes,1024
89.09090909,89.09090909,468.2181818,468.2181818,black,legacy,legacy,legacy,0,incongruent,uniform,1,undefined,1,h,0,0,0,54,0,54,0,54,0,0,0,54,54,54,54,NA,NA,54,9/25/19 17:27,1500,The main experiment item,yes,Week4submit.osexp,C:/Users/DLGoupil/Desktop,no,mono,no,18,no,white,no,yes,768,legacy,54,54,C:/Users/DLGoupil/Desktop/subject-3.csv,legacy,Kafkaesque Koffka,3.2.8,0,h,NA,s,NA,NA,h,NA,NA,500,NA,16298,NA,NA,500,NA,NA,2,legacy,1024,2,48000,-16,experiment,SSHSS,3,odd,18308,NA,NA,91984,2004,NA,NA,112391,2008,NA,NA,111288,112494,112995,112388,NA,NA,112494,Week4submit,49,25752,55,yes,1024
89.28571429,89.28571429,466.6071429,466.6071429,black,legacy,legacy,legacy,0,congruent,uniform,1,undefined,1,s,0,0,0,55,0,55,0,55,0,0,0,55,55,55,55,NA,NA,55,9/25/19 17:27,1500,The main experiment item,yes,Week4submit.osexp,C:/Users/DLGoupil/Desktop,no,mono,no,18,no,white,no,yes,768,legacy,55,55,C:/Users/DLGoupil/Desktop/subject-3.csv,legacy,Kafkaesque Koffka,3.2.8,0,s,NA,s,NA,NA,s,NA,NA,378,NA,16298,NA,NA,378,NA,NA,2,legacy,1024,2,48000,-16,experiment,SSSSS,3,odd,18308,NA,NA,91984,2004,NA,NA,114113,2008,NA,NA,113000,114216,114595,114110,NA,NA,114216,Week4submit,50,26130,56,yes,1024
87.71929825,87.71929825,466.2982456,466.2982456,black,legacy,legacy,legacy,0,congruent,uniform,0,undefined,0,s,0,0,0,56,0,56,0,56,0,0,0,56,56,56,56,NA,NA,56,9/25/19 17:27,1500,The main experiment item,yes,Week4submit.osexp,C:/Users/DLGoupil/Desktop,no,mono,no,18,no,white,no,yes,768,legacy,56,56,C:/Users/DLGoupil/Desktop/subject-3.csv,legacy,Kafkaesque Koffka,3.2.8,0,h,NA,s,NA,NA,h,NA,NA,449,NA,16298,NA,NA,449,NA,NA,2,legacy,1024,2,48000,-16,experiment,SSSSS,3,odd,18308,NA,NA,91984,2004,NA,NA,115706,2008,NA,NA,114600,115809,116259,115703,NA,NA,115809,Week4submit,50,26579,57,yes,1024
87.93103448,87.93103448,465.2586207,465.2586207,black,legacy,legacy,legacy,0,congruent,uniform,1,undefined,1,s,0,0,0,57,0,57,0,57,0,0,0,57,57,57,57,NA,NA,57,9/25/19 17:27,1500,The main experiment item,yes,Week4submit.osexp,C:/Users/DLGoupil/Desktop,no,mono,no,18,no,white,no,yes,768,legacy,57,57,C:/Users/DLGoupil/Desktop/subject-3.csv,legacy,Kafkaesque Koffka,3.2.8,0,s,NA,s,NA,NA,s,NA,NA,406,NA,16298,NA,NA,406,NA,NA,2,legacy,1024,2,48000,-16,experiment,SSSSS,3,odd,18308,NA,NA,116264,2004,NA,NA,117869,2008,NA,NA,116767,117972,118379,117866,NA,NA,117972,Week4submit,51,26985,58,yes,1024
88.13559322,88.13559322,467,467,black,legacy,legacy,legacy,0,incongruent,uniform,1,undefined,1,s,0,0,0,58,0,58,0,58,0,0,0,58,58,58,58,NA,NA,58,9/25/19 17:27,1500,The main experiment item,yes,Week4submit.osexp,C:/Users/DLGoupil/Desktop,no,mono,no,18,no,white,no,yes,768,legacy,58,58,C:/Users/DLGoupil/Desktop/subject-3.csv,legacy,Kafkaesque Koffka,3.2.8,0,s,NA,s,NA,NA,s,NA,NA,568,NA,16298,NA,NA,568,NA,NA,2,legacy,1024,2,48000,-16,experiment,HHSHH,3,odd,18308,NA,NA,116264,2004,NA,NA,119491,2008,NA,NA,118384,119594,120163,119488,NA,NA,119594,Week4submit,52,27553,59,yes,1024
88.33333333,88.33333333,466.3333333,466.3333333,black,legacy,legacy,legacy,0,congruent,uniform,1,undefined,1,h,0,0,0,59,0,59,0,59,0,0,0,59,59,59,59,NA,NA,59,9/25/19 17:27,1500,The main experiment item,yes,Week4submit.osexp,C:/Users/DLGoupil/Desktop,no,mono,no,18,no,white,no,yes,768,legacy,59,59,C:/Users/DLGoupil/Desktop/subject-3.csv,legacy,Kafkaesque Koffka,3.2.8,0,h,NA,s,NA,NA,h,NA,NA,427,NA,16298,NA,NA,427,NA,NA,2,legacy,1024,2,48000,-16,experiment,HHHHH,3,odd,18308,NA,NA,116264,2004,NA,NA,121280,2008,NA,NA,120168,121383,121811,121277,NA,NA,121383,Week4submit,53,27980,60,yes,1024
88.52459016,88.52459016,466.7377049,466.7377049,black,legacy,legacy,legacy,0,congruent,uniform,1,undefined,1,h,0,0,0,60,0,60,0,60,0,0,0,60,60,60,60,NA,NA,60,9/25/19 17:27,1500,The main experiment item,yes,Week4submit.osexp,C:/Users/DLGoupil/Desktop,no,mono,no,18,no,white,no,yes,768,legacy,60,60,C:/Users/DLGoupil/Desktop/subject-3.csv,legacy,Kafkaesque Koffka,3.2.8,0,h,NA,s,NA,NA,h,NA,NA,491,NA,16298,NA,NA,491,NA,NA,2,legacy,1024,2,48000,-16,experiment,HHHHH,3,odd,18308,NA,NA,116264,2004,NA,NA,122920,2008,NA,NA,121816,123023,123515,122917,NA,NA,123023,Week4submit,54,28471,61,yes,1024
87.09677419,87.09677419,466.2580645,466.2580645,black,legacy,legacy,legacy,0,incongruent,uniform,0,undefined,0,h,0,0,0,61,0,61,0,61,0,0,0,61,61,61,61,NA,NA,61,9/25/19 17:27,1500,The main experiment item,yes,Week4submit.osexp,C:/Users/DLGoupil/Desktop,no,mono,no,18,no,white,no,yes,768,legacy,61,61,C:/Users/DLGoupil/Desktop/subject-3.csv,legacy,Kafkaesque Koffka,3.2.8,0,s,NA,s,NA,NA,s,NA,NA,437,NA,16298,NA,NA,437,NA,NA,2,legacy,1024,2,48000,-16,experiment,SSHSS,3,odd,18308,NA,NA,116264,2004,NA,NA,124622,2008,NA,NA,123520,124725,125163,124619,NA,NA,124725,Week4submit,54,28908,62,yes,1024
87.3015873,87.3015873,467.3015873,467.3015873,black,legacy,legacy,legacy,0,congruent,uniform,1,undefined,1,h,0,0,0,62,0,62,0,62,0,0,0,62,62,62,62,NA,NA,62,9/25/19 17:27,1500,The main experiment item,yes,Week4submit.osexp,C:/Users/DLGoupil/Desktop,no,mono,no,18,no,white,no,yes,768,legacy,62,62,C:/Users/DLGoupil/Desktop/subject-3.csv,legacy,Kafkaesque Koffka,3.2.8,0,h,NA,s,NA,NA,h,NA,NA,532,NA,16298,NA,NA,532,NA,NA,2,legacy,1024,2,48000,-16,experiment,HHHHH,3,odd,18308,NA,NA,125168,2004,NA,NA,126785,2008,NA,NA,125671,126887,127420,126782,NA,NA,126887,Week4submit,55,29440,63,yes,1024
85.9375,85.9375,483.4375,483.4375,black,legacy,legacy,legacy,0,incongruent,uniform,0,undefined,0,s,0,0,0,63,0,63,0,63,0,0,0,63,63,63,63,NA,NA,63,9/25/19 17:27,1500,The main experiment item,yes,Week4submit.osexp,C:/Users/DLGoupil/Desktop,no,mono,no,18,no,white,no,yes,768,legacy,63,63,C:/Users/DLGoupil/Desktop/subject-3.csv,legacy,Kafkaesque Koffka,3.2.8,0,None,NA,s,NA,NA,None,NA,NA,1500,NA,16298,NA,NA,1500,NA,NA,2,legacy,1024,2,48000,-16,experiment,HHSHH,3,odd,18308,NA,NA,125168,2004,NA,NA,128525,2008,NA,NA,127425,128627,130127,128522,NA,NA,128627,Week4submit,55,30940,64,yes,1024
86.15384615,86.15384615,483.2153846,483.2153846,black,legacy,legacy,legacy,0,congruent,uniform,1,undefined,1,h,0,0,0,64,0,64,0,64,0,0,0,64,64,64,64,NA,NA,64,9/25/19 17:27,1500,The main experiment item,yes,Week4submit.osexp,C:/Users/DLGoupil/Desktop,no,mono,no,18,no,white,no,yes,768,legacy,64,64,C:/Users/DLGoupil/Desktop/subject-3.csv,legacy,Kafkaesque Koffka,3.2.8,0,h,NA,s,NA,NA,h,NA,NA,469,NA,16298,NA,NA,469,NA,NA,2,legacy,1024,2,48000,-16,experiment,HHHHH,3,odd,18308,NA,NA,130133,2004,NA,NA,131735,2008,NA,NA,130635,131838,132308,131732,NA,NA,131838,Week4submit,56,31409,65,yes,1024
86.36363636,86.36363636,484.2727273,484.2727273,black,legacy,legacy,legacy,0,incongruent,uniform,1,undefined,1,h,0,0,0,65,0,65,0,65,0,0,0,65,65,65,65,NA,NA,65,9/25/19 17:27,1500,The main experiment item,yes,Week4submit.osexp,C:/Users/DLGoupil/Desktop,no,mono,no,18,no,white,no,yes,768,legacy,65,65,C:/Users/DLGoupil/Desktop/subject-3.csv,legacy,Kafkaesque Koffka,3.2.8,0,h,NA,s,NA,NA,h,NA,NA,553,NA,16298,NA,NA,553,NA,NA,2,legacy,1024,2,48000,-16,experiment,SSHSS,3,odd,18308,NA,NA,130133,2004,NA,NA,133419,2008,NA,NA,132313,133522,134076,133416,NA,NA,133522,Week4submit,57,31962,66,yes,1024
86.56716418,86.56716418,484.7014925,484.7014925,black,legacy,legacy,legacy,0,congruent,uniform,1,undefined,1,h,0,0,0,66,0,66,0,66,0,0,0,66,66,66,66,NA,NA,66,9/25/19 17:27,1500,The main experiment item,yes,Week4submit.osexp,C:/Users/DLGoupil/Desktop,no,mono,no,18,no,white,no,yes,768,legacy,66,66,C:/Users/DLGoupil/Desktop/subject-3.csv,legacy,Kafkaesque Koffka,3.2.8,0,h,NA,s,NA,NA,h,NA,NA,513,NA,16298,NA,NA,513,NA,NA,2,legacy,1024,2,48000,-16,experiment,HHHHH,3,odd,18308,NA,NA,130133,2004,NA,NA,135177,2008,NA,NA,134081,135281,135795,135175,NA,NA,135281,Week4submit,58,32475,67,yes,1024
86.76470588,86.76470588,484.8970588,484.8970588,black,legacy,legacy,legacy,0,incongruent,uniform,1,undefined,1,s,0,0,0,67,0,67,0,67,0,0,0,67,67,67,67,NA,NA,67,9/25/19 17:27,1500,The main experiment item,yes,Week4submit.osexp,C:/Users/DLGoupil/Desktop,no,mono,no,18,no,white,no,yes,768,legacy,67,67,C:/Users/DLGoupil/Desktop/subject-3.csv,legacy,Kafkaesque Koffka,3.2.8,0,s,NA,s,NA,NA,s,NA,NA,498,NA,16298,NA,NA,498,NA,NA,2,legacy,1024,2,48000,-16,experiment,HHSHH,3,odd,18308,NA,NA,130133,2004,NA,NA,136913,2008,NA,NA,135800,137016,137516,136910,NA,NA,137016,Week4submit,59,32973,68,yes,1024
86.95652174,86.95652174,484.5217391,484.5217391,black,legacy,legacy,legacy,0,incongruent,uniform,1,undefined,1,h,0,0,0,68,0,68,0,68,0,0,0,68,68,68,68,NA,NA,68,9/25/19 17:27,1500,The main experiment item,yes,Week4submit.osexp,C:/Users/DLGoupil/Desktop,no,mono,no,18,no,white,no,yes,768,legacy,68,68,C:/Users/DLGoupil/Desktop/subject-3.csv,legacy,Kafkaesque Koffka,3.2.8,0,h,NA,s,NA,NA,h,NA,NA,459,NA,16298,NA,NA,459,NA,NA,2,legacy,1024,2,48000,-16,experiment,SSHSS,3,odd,18308,NA,NA,130133,2004,NA,NA,138632,2008,NA,NA,137521,138735,139195,138629,NA,NA,138735,Week4submit,60,33432,69,yes,1024
87.14285714,87.14285714,484.3428571,484.3428571,black,legacy,legacy,legacy,0,congruent,uniform,1,undefined,1,s,0,0,0,69,0,69,0,69,0,0,0,69,69,69,69,NA,NA,69,9/25/19 17:27,1500,The main experiment item,yes,Week4submit.osexp,C:/Users/DLGoupil/Desktop,no,mono,no,18,no,white,no,yes,768,legacy,69,69,C:/Users/DLGoupil/Desktop/subject-3.csv,legacy,Kafkaesque Koffka,3.2.8,0,s,NA,s,NA,NA,s,NA,NA,472,NA,16298,NA,NA,472,NA,NA,2,legacy,1024,2,48000,-16,experiment,SSSSS,3,odd,18308,NA,NA,130133,2004,NA,NA,140307,2008,NA,NA,139200,140410,140884,140305,NA,NA,140410,Week4submit,61,33904,70,yes,1024
87.32394366,87.32394366,483.1408451,483.1408451,black,legacy,legacy,legacy,0,incongruent,uniform,1,undefined,1,h,0,0,0,70,0,70,0,70,0,0,0,70,70,70,70,NA,NA,70,9/25/19 17:27,1500,The main experiment item,yes,Week4submit.osexp,C:/Users/DLGoupil/Desktop,no,mono,no,18,no,white,no,yes,768,legacy,70,70,C:/Users/DLGoupil/Desktop/subject-3.csv,legacy,Kafkaesque Koffka,3.2.8,0,h,NA,s,NA,NA,h,NA,NA,399,NA,16298,NA,NA,399,NA,NA,2,legacy,1024,2,48000,-16,experiment,SSHSS,3,odd,18308,NA,NA,130133,2004,NA,NA,141988,2008,NA,NA,140889,142091,142491,141985,NA,NA,142091,Week4submit,62,34303,71,yes,1024
87.5,87.5,481.9722222,481.9722222,black,legacy,legacy,legacy,0,congruent,uniform,1,undefined,1,s,0,0,0,71,0,71,0,71,0,0,0,71,71,71,71,NA,NA,71,9/25/19 17:27,1500,The main experiment item,yes,Week4submit.osexp,C:/Users/DLGoupil/Desktop,no,mono,no,18,no,white,no,yes,768,legacy,71,71,C:/Users/DLGoupil/Desktop/subject-3.csv,legacy,Kafkaesque Koffka,3.2.8,0,s,NA,s,NA,NA,s,NA,NA,399,NA,16298,NA,NA,399,NA,NA,2,legacy,1024,2,48000,-16,experiment,SSSSS,3,odd,18308,NA,NA,130133,2004,NA,NA,143604,2008,NA,NA,142496,143707,144107,143601,NA,NA,143707,Week4submit,63,34702,72,yes,1024
87.67123288,87.67123288,481.1369863,481.1369863,black,legacy,legacy,legacy,0,congruent,uniform,1,undefined,1,h,0,0,0,72,0,72,0,72,0,0,0,72,72,72,72,NA,NA,72,9/25/19 17:27,1500,The main experiment item,yes,Week4submit.osexp,C:/Users/DLGoupil/Desktop,no,mono,no,18,no,white,no,yes,768,legacy,72,72,C:/Users/DLGoupil/Desktop/subject-3.csv,legacy,Kafkaesque Koffka,3.2.8,0,h,NA,s,NA,NA,h,NA,NA,421,NA,16298,NA,NA,421,NA,NA,2,legacy,1024,2,48000,-16,experiment,HHHHH,3,odd,18308,NA,NA,130133,2004,NA,NA,145222,2008,NA,NA,144112,145325,145747,145219,NA,NA,145325,Week4submit,64,35123,73,yes,1024
87.83783784,87.83783784,481.2702703,481.2702703,black,legacy,legacy,legacy,0,congruent,uniform,1,undefined,1,h,0,0,0,73,0,73,0,73,0,0,0,73,73,73,73,NA,NA,73,9/25/19 17:27,1500,The main experiment item,yes,Week4submit.osexp,C:/Users/DLGoupil/Desktop,no,mono,no,18,no,white,no,yes,768,legacy,73,73,C:/Users/DLGoupil/Desktop/subject-3.csv,legacy,Kafkaesque Koffka,3.2.8,0,h,NA,s,NA,NA,h,NA,NA,491,NA,16298,NA,NA,491,NA,NA,2,legacy,1024,2,48000,-16,experiment,HHHHH,3,odd,18308,NA,NA,130133,2004,NA,NA,146856,2008,NA,NA,145752,146959,147451,146853,NA,NA,146959,Week4submit,65,35614,74,yes,1024
88,88,480.92,480.92,black,legacy,legacy,legacy,0,congruent,uniform,1,undefined,1,h,0,0,0,74,0,74,0,74,0,0,0,74,74,74,74,NA,NA,74,9/25/19 17:27,1500,The main experiment item,yes,Week4submit.osexp,C:/Users/DLGoupil/Desktop,no,mono,no,18,no,white,no,yes,768,legacy,74,74,C:/Users/DLGoupil/Desktop/subject-3.csv,legacy,Kafkaesque Koffka,3.2.8,0,h,NA,s,NA,NA,h,NA,NA,455,NA,16298,NA,NA,455,NA,NA,2,legacy,1024,2,48000,-16,experiment,HHHHH,3,odd,18308,NA,NA,130133,2004,NA,NA,148564,2008,NA,NA,147456,148667,149123,148561,NA,NA,148667,Week4submit,66,36069,75,yes,1024
88.15789474,88.15789474,481.1052632,481.1052632,black,legacy,legacy,legacy,0,incongruent,uniform,1,undefined,1,h,0,0,0,75,0,75,0,75,0,0,0,75,75,75,75,NA,NA,75,9/25/19 17:27,1500,The main experiment item,yes,Week4submit.osexp,C:/Users/DLGoupil/Desktop,no,mono,no,18,no,white,no,yes,768,legacy,75,75,C:/Users/DLGoupil/Desktop/subject-3.csv,legacy,Kafkaesque Koffka,3.2.8,0,h,NA,s,NA,NA,h,NA,NA,495,NA,16298,NA,NA,495,NA,NA,2,legacy,1024,2,48000,-16,experiment,SSHSS,3,odd,18308,NA,NA,130133,2004,NA,NA,150236,2008,NA,NA,149129,150339,150835,150233,NA,NA,150339,Week4submit,67,36564,76,yes,1024
88.31168831,88.31168831,481.2857143,481.2857143,black,legacy,legacy,legacy,0,incongruent,uniform,1,undefined,1,h,0,0,0,76,0,76,0,76,0,0,0,76,76,76,76,NA,NA,76,9/25/19 17:27,1500,The main experiment item,yes,Week4submit.osexp,C:/Users/DLGoupil/Desktop,no,mono,no,18,no,white,no,yes,768,legacy,76,76,C:/Users/DLGoupil/Desktop/subject-3.csv,legacy,Kafkaesque Koffka,3.2.8,0,h,NA,s,NA,NA,h,NA,NA,495,NA,16298,NA,NA,495,NA,NA,2,legacy,1024,2,48000,-16,experiment,SSHSS,3,odd,18308,NA,NA,130133,2004,NA,NA,151947,2008,NA,NA,150841,152051,152547,151945,NA,NA,152051,Week4submit,68,37059,77,yes,1024
88.46153846,88.46153846,481.7820513,481.7820513,black,legacy,legacy,legacy,0,incongruent,uniform,1,undefined,1,h,0,0,0,77,0,77,0,77,0,0,0,77,77,77,77,NA,NA,77,9/25/19 17:27,1500,The main experiment item,yes,Week4submit.osexp,C:/Users/DLGoupil/Desktop,no,mono,no,18,no,white,no,yes,768,legacy,77,77,C:/Users/DLGoupil/Desktop/subject-3.csv,legacy,Kafkaesque Koffka,3.2.8,0,h,NA,s,NA,NA,h,NA,NA,520,NA,16298,NA,NA,520,NA,NA,2,legacy,1024,2,48000,-16,experiment,SSHSS,3,odd,18308,NA,NA,130133,2004,NA,NA,153659,2008,NA,NA,152552,153762,154283,153656,NA,NA,153762,Week4submit,69,37579,78,yes,1024
88.60759494,88.60759494,483.4810127,483.4810127,black,legacy,legacy,legacy,0,incongruent,uniform,1,undefined,1,h,0,0,0,78,0,78,0,78,0,0,0,78,78,78,78,NA,NA,78,9/25/19 17:27,1500,The main experiment item,yes,Week4submit.osexp,C:/Users/DLGoupil/Desktop,no,mono,no,18,no,white,no,yes,768,legacy,78,78,C:/Users/DLGoupil/Desktop/subject-3.csv,legacy,Kafkaesque Koffka,3.2.8,0,h,NA,s,NA,NA,h,NA,NA,616,NA,16298,NA,NA,616,NA,NA,2,legacy,1024,2,48000,-16,experiment,SSHSS,3,odd,18308,NA,NA,130133,2004,NA,NA,155396,2008,NA,NA,154289,155499,156116,155393,NA,NA,155499,Week4submit,70,38195,79,yes,1024
88.75,88.75,487.5375,487.5375,black,legacy,legacy,legacy,0,congruent,uniform,1,undefined,1,h,0,0,0,79,0,79,0,79,0,0,0,79,79,79,79,NA,NA,79,9/25/19 17:27,1500,The main experiment item,yes,Week4submit.osexp,C:/Users/DLGoupil/Desktop,no,mono,no,18,no,white,no,yes,768,legacy,79,79,C:/Users/DLGoupil/Desktop/subject-3.csv,legacy,Kafkaesque Koffka,3.2.8,0,h,NA,s,NA,NA,h,NA,NA,808,NA,16298,NA,NA,808,NA,NA,2,legacy,1024,2,48000,-16,experiment,HHHHH,3,odd,18308,NA,NA,130133,2004,NA,NA,157227,2008,NA,NA,156121,157330,158139,157224,NA,NA,157330,Week4submit,71,39003,80,yes,1024
88.88888889,88.88888889,487.7530864,487.7530864,black,legacy,legacy,legacy,0,incongruent,uniform,1,undefined,1,h,0,0,0,80,0,80,0,80,0,0,0,80,80,80,80,NA,NA,80,9/25/19 17:27,600,The main experiment item,yes,Week4submit.osexp,C:/Users/DLGoupil/Desktop,no,mono,no,18,no,white,no,yes,768,legacy,0,79,C:/Users/DLGoupil/Desktop/subject-3.csv,legacy,Kafkaesque Koffka,3.2.8,0,h,NA,s,h,NA,h,NA,NA,505,NA,16298,875,NA,505,NA,NA,2,legacy,1024,2,48000,-16,experiment,SSHSS,3,odd,18308,160044,NA,130133,2004,NA,NA,160137,2008,159167,NA,158144,160241,160747,160135,NA,NA,160241,Week4submit,72,39508,81,yes,1024
89.02439024,89.02439024,487.9878049,487.9878049,black,legacy,legacy,legacy,0,incongruent,uniform,1,undefined,1,h,0,0,0,81,0,81,0,81,0,0,0,81,81,81,81,NA,NA,81,9/25/19 17:27,600,The main experiment item,yes,Week4submit.osexp,C:/Users/DLGoupil/Desktop,no,mono,no,18,no,white,no,yes,768,legacy,1,79,C:/Users/DLGoupil/Desktop/subject-3.csv,legacy,Kafkaesque Koffka,3.2.8,0,h,NA,s,h,NA,h,NA,NA,507,NA,16298,875,NA,507,NA,NA,2,legacy,1024,2,48000,-16,experiment,SSHSS,3,odd,18308,160044,NA,130133,2004,NA,NA,161849,2008,159167,NA,160753,161952,162460,161846,NA,NA,161952,Week4submit,73,40015,82,yes,1024
89.15662651,89.15662651,487.7710843,487.7710843,black,legacy,legacy,legacy,0,incongruent,uniform,1,undefined,1,h,0,0,0,82,0,82,0,82,0,0,0,82,82,82,82,NA,NA,82,9/25/19 17:27,600,The main experiment item,yes,Week4submit.osexp,C:/Users/DLGoupil/Desktop,no,mono,no,18,no,white,no,yes,768,legacy,2,79,C:/Users/DLGoupil/Desktop/subject-3.csv,legacy,Kafkaesque Koffka,3.2.8,0,h,NA,s,h,NA,h,NA,NA,470,NA,16298,875,NA,470,NA,NA,2,legacy,1024,2,48000,-16,experiment,SSHSS,3,odd,18308,160044,NA,130133,2004,NA,NA,163566,2008,159167,NA,162465,163669,164140,163563,NA,NA,163669,Week4submit,74,40485,83,yes,1024
89.28571429,89.28571429,487.547619,487.547619,black,legacy,legacy,legacy,0,congruent,uniform,1,undefined,1,h,0,0,0,83,0,83,0,83,0,0,0,83,83,83,83,NA,NA,83,9/25/19 17:27,600,The main experiment item,yes,Week4submit.osexp,C:/Users/DLGoupil/Desktop,no,mono,no,18,no,white,no,yes,768,legacy,3,79,C:/Users/DLGoupil/Desktop/subject-3.csv,legacy,Kafkaesque Koffka,3.2.8,0,h,NA,s,h,NA,h,NA,NA,469,NA,16298,875,NA,469,NA,NA,2,legacy,1024,2,48000,-16,experiment,HHHHH,3,odd,18308,160044,NA,130133,2004,NA,NA,165246,2008,159167,NA,164145,165349,165820,165243,NA,NA,165349,Week4submit,75,40954,84,yes,1024
89.41176471,89.41176471,486.1882353,486.1882353,black,legacy,legacy,legacy,0,congruent,uniform,1,undefined,1,h,0,0,0,84,0,84,0,84,0,0,0,84,84,84,84,NA,NA,84,9/25/19 17:27,600,The main experiment item,yes,Week4submit.osexp,C:/Users/DLGoupil/Desktop,no,mono,no,18,no,white,no,yes,768,legacy,4,79,C:/Users/DLGoupil/Desktop/subject-3.csv,legacy,Kafkaesque Koffka,3.2.8,0,h,NA,s,h,NA,h,NA,NA,372,NA,16298,875,NA,372,NA,NA,2,legacy,1024,2,48000,-16,experiment,HHHHH,3,odd,18308,160044,NA,130133,2004,NA,NA,166927,2008,159167,NA,165825,167030,167403,166924,NA,NA,167030,Week4submit,76,41326,85,yes,1024
89.53488372,89.53488372,486.3372093,486.3372093,black,legacy,legacy,legacy,0,incongruent,uniform,1,undefined,1,h,0,0,0,85,0,85,0,85,0,0,0,85,85,85,85,NA,NA,85,9/25/19 17:27,600,The main experiment item,yes,Week4submit.osexp,C:/Users/DLGoupil/Desktop,no,mono,no,18,no,white,no,yes,768,legacy,5,79,C:/Users/DLGoupil/Desktop/subject-3.csv,legacy,Kafkaesque Koffka,3.2.8,0,h,NA,s,h,NA,h,NA,NA,499,NA,16298,875,NA,499,NA,NA,2,legacy,1024,2,48000,-16,experiment,SSHSS,3,odd,18308,160044,NA,130133,2004,NA,NA,168512,2008,159167,NA,167408,168615,169116,168509,NA,NA,168615,Week4submit,77,41825,86,yes,1024
89.65517241,89.65517241,485.6206897,485.6206897,black,legacy,legacy,legacy,0,congruent,uniform,1,undefined,1,s,0,0,0,86,0,86,0,86,0,0,0,86,86,86,86,NA,NA,86,9/25/19 17:27,600,The main experiment item,yes,Week4submit.osexp,C:/Users/DLGoupil/Desktop,no,mono,no,18,no,white,no,yes,768,legacy,6,79,C:/Users/DLGoupil/Desktop/subject-3.csv,legacy,Kafkaesque Koffka,3.2.8,0,s,NA,s,h,NA,s,NA,NA,424,NA,16298,875,NA,424,NA,NA,2,legacy,1024,2,48000,-16,experiment,SSSSS,3,odd,18308,160044,NA,130133,2004,NA,NA,170220,2008,159167,NA,169121,170322,170747,170217,NA,NA,170322,Week4submit,78,42249,87,yes,1024
89.77272727,89.77272727,487.7045455,487.7045455,black,legacy,legacy,legacy,0,congruent,uniform,1,undefined,1,h,0,0,0,87,0,87,0,87,0,0,0,87,87,87,87,NA,NA,87,9/25/19 17:27,600,The main experiment item,yes,Week4submit.osexp,C:/Users/DLGoupil/Desktop,no,mono,no,18,no,white,no,yes,768,legacy,7,79,C:/Users/DLGoupil/Desktop/subject-3.csv,legacy,Kafkaesque Koffka,3.2.8,0,h,NA,s,h,NA,h,NA,NA,669,NA,16298,875,NA,669,NA,NA,2,legacy,1024,2,48000,-16,experiment,HHHHH,3,odd,18308,160044,NA,130133,2004,NA,NA,171847,2008,159167,NA,170752,171949,172619,171844,NA,NA,171949,Week4submit,79,42918,88,yes,1024
89.88764045,89.88764045,487.0898876,487.0898876,black,legacy,legacy,legacy,0,congruent,uniform,1,undefined,1,h,0,0,0,88,0,88,0,88,0,0,0,88,88,88,88,NA,NA,88,9/25/19 17:27,600,The main experiment item,yes,Week4submit.osexp,C:/Users/DLGoupil/Desktop,no,mono,no,18,no,white,no,yes,768,legacy,8,79,C:/Users/DLGoupil/Desktop/subject-3.csv,legacy,Kafkaesque Koffka,3.2.8,0,h,NA,s,h,NA,h,NA,NA,433,NA,16298,875,NA,433,NA,NA,2,legacy,1024,2,48000,-16,experiment,HHHHH,3,odd,18308,160044,NA,130133,2004,172624,NA,174234,2008,159167,NA,173127,174337,174772,174231,NA,NA,174337,Week4submit,80,43351,89,yes,1024
90,90,487.2555556,487.2555556,black,legacy,legacy,legacy,0,incongruent,uniform,1,undefined,1,s,0,0,0,89,0,89,0,89,0,0,0,89,89,89,89,NA,NA,89,9/25/19 17:27,600,The main experiment item,yes,Week4submit.osexp,C:/Users/DLGoupil/Desktop,no,mono,no,18,no,white,no,yes,768,legacy,9,79,C:/Users/DLGoupil/Desktop/subject-3.csv,legacy,Kafkaesque Koffka,3.2.8,0,s,NA,s,h,NA,s,NA,NA,502,NA,16298,875,NA,502,NA,NA,2,legacy,1024,2,48000,-16,experiment,HHSHH,3,odd,18308,160044,NA,130133,2004,172624,NA,175885,2008,159167,NA,174777,175988,176492,175882,NA,NA,175988,Week4submit,81,43853,90,yes,1024
90.10989011,90.10989011,487.5384615,487.5384615,black,legacy,legacy,legacy,0,incongruent,uniform,1,undefined,1,s,0,0,0,90,0,90,0,90,0,0,0,90,90,90,90,NA,NA,90,9/25/19 17:27,600,The main experiment item,yes,Week4submit.osexp,C:/Users/DLGoupil/Desktop,no,mono,no,18,no,white,no,yes,768,legacy,10,79,C:/Users/DLGoupil/Desktop/subject-3.csv,legacy,Kafkaesque Koffka,3.2.8,0,s,NA,s,h,NA,s,NA,NA,513,NA,16298,875,NA,513,NA,NA,2,legacy,1024,2,48000,-16,experiment,HHSHH,3,odd,18308,160044,NA,130133,2004,172624,NA,177602,2008,159167,NA,176498,177705,178220,177599,NA,NA,177705,Week4submit,82,44366,91,yes,1024
90.2173913,90.2173913,489.5869565,489.5869565,black,legacy,legacy,legacy,0,incongruent,uniform,1,undefined,1,s,0,0,0,91,0,91,0,91,0,0,0,91,91,91,91,NA,NA,91,9/25/19 17:27,600,The main experiment item,yes,Week4submit.osexp,C:/Users/DLGoupil/Desktop,no,mono,no,18,no,white,no,yes,768,legacy,11,79,C:/Users/DLGoupil/Desktop/subject-3.csv,legacy,Kafkaesque Koffka,3.2.8,0,s,NA,s,h,NA,s,NA,NA,676,NA,16298,875,NA,676,NA,NA,2,legacy,1024,2,48000,-16,experiment,HHSHH,3,odd,18308,160044,NA,130133,2004,172624,NA,179335,2008,159167,NA,178225,179438,180115,179332,NA,NA,179438,Week4submit,83,45042,92,yes,1024
90.32258065,90.32258065,488.9569892,488.9569892,black,legacy,legacy,legacy,0,congruent,uniform,1,undefined,1,s,0,0,0,92,0,92,0,92,0,0,0,92,92,92,92,NA,NA,92,9/25/19 17:27,600,The main experiment item,yes,Week4submit.osexp,C:/Users/DLGoupil/Desktop,no,mono,no,18,no,white,no,yes,768,legacy,12,79,C:/Users/DLGoupil/Desktop/subject-3.csv,legacy,Kafkaesque Koffka,3.2.8,0,s,NA,s,h,NA,s,NA,NA,431,NA,16298,875,NA,431,NA,NA,2,legacy,1024,2,48000,-16,experiment,SSSSS,3,odd,18308,160044,NA,130133,2004,180120,NA,181716,2008,159167,NA,180623,181819,182252,181714,NA,NA,181819,Week4submit,84,45473,93,yes,1024
90.42553191,90.42553191,488.8404255,488.8404255,black,legacy,legacy,legacy,0,congruent,uniform,1,undefined,1,s,0,0,0,93,0,93,0,93,0,0,0,93,93,93,93,NA,NA,93,9/25/19 17:27,600,The main experiment item,yes,Week4submit.osexp,C:/Users/DLGoupil/Desktop,no,mono,no,18,no,white,no,yes,768,legacy,13,79,C:/Users/DLGoupil/Desktop/subject-3.csv,legacy,Kafkaesque Koffka,3.2.8,0,s,NA,s,h,NA,s,NA,NA,478,NA,16298,875,NA,478,NA,NA,2,legacy,1024,2,48000,-16,experiment,SSSSS,3,odd,18308,160044,NA,130133,2004,180120,NA,183366,2008,159167,NA,182257,183469,183948,183363,NA,NA,183469,Week4submit,85,45951,94,yes,1024
90.52631579,90.52631579,488.3578947,488.3578947,black,legacy,legacy,legacy,0,congruent,uniform,1,undefined,1,h,0,0,0,94,0,94,0,94,0,0,0,94,94,94,94,NA,NA,94,9/25/19 17:27,600,The main experiment item,yes,Week4submit.osexp,C:/Users/DLGoupil/Desktop,no,mono,no,18,no,white,no,yes,768,legacy,14,79,C:/Users/DLGoupil/Desktop/subject-3.csv,legacy,Kafkaesque Koffka,3.2.8,0,h,NA,s,h,NA,h,NA,NA,443,NA,16298,875,NA,443,NA,NA,2,legacy,1024,2,48000,-16,experiment,HHHHH,3,odd,18308,160044,NA,130133,2004,180120,NA,185064,2008,159167,NA,183953,185167,185611,185061,NA,NA,185167,Week4submit,86,46394,95,yes,1024
90.625,90.625,487.4583333,487.4583333,black,legacy,legacy,legacy,0,incongruent,uniform,1,undefined,1,s,0,0,0,95,0,95,0,95,0,0,0,95,95,95,95,NA,NA,95,9/25/19 17:27,600,The main experiment item,yes,Week4submit.osexp,C:/Users/DLGoupil/Desktop,no,mono,no,18,no,white,no,yes,768,legacy,15,79,C:/Users/DLGoupil/Desktop/subject-3.csv,legacy,Kafkaesque Koffka,3.2.8,0,s,NA,s,h,NA,s,NA,NA,402,NA,16298,875,NA,402,NA,NA,2,legacy,1024,2,48000,-16,experiment,HHSHH,3,odd,18308,160044,NA,130133,2004,180120,NA,186714,2008,159167,NA,185617,186816,187219,186711,NA,NA,186816,Week4submit,87,46796,96,yes,1024
90.72164948,90.72164948,486.6082474,486.6082474,black,legacy,legacy,legacy,0,congruent,uniform,1,undefined,1,h,0,0,0,96,0,96,0,96,0,0,0,96,96,96,96,NA,NA,96,9/25/19 17:27,600,The main experiment item,yes,Week4submit.osexp,C:/Users/DLGoupil/Desktop,no,mono,no,18,no,white,no,yes,768,legacy,16,79,C:/Users/DLGoupil/Desktop/subject-3.csv,legacy,Kafkaesque Koffka,3.2.8,0,h,NA,s,h,NA,h,NA,NA,405,NA,16298,875,NA,405,NA,NA,2,legacy,1024,2,48000,-16,experiment,HHHHH,3,odd,18308,160044,NA,130133,2004,180120,NA,188335,2008,159167,NA,187225,188438,188844,188332,NA,NA,188438,Week4submit,88,47201,97,yes,1024
90.81632653,90.81632653,486.4183673,486.4183673,black,legacy,legacy,legacy,0,incongruent,uniform,1,undefined,1,s,0,0,0,97,0,97,0,97,0,0,0,97,97,97,97,NA,NA,97,9/25/19 17:27,600,The main experiment item,yes,Week4submit.osexp,C:/Users/DLGoupil/Desktop,no,mono,no,18,no,white,no,yes,768,legacy,17,79,C:/Users/DLGoupil/Desktop/subject-3.csv,legacy,Kafkaesque Koffka,3.2.8,0,s,NA,s,h,NA,s,NA,NA,468,NA,16298,875,NA,468,NA,NA,2,legacy,1024,2,48000,-16,experiment,HHSHH,3,odd,18308,160044,NA,130133,2004,180120,NA,189959,2008,159167,NA,188849,190062,190532,189956,NA,NA,190062,Week4submit,89,47669,98,yes,1024
90.90909091,90.90909091,486.040404,486.040404,black,legacy,legacy,legacy,0,congruent,uniform,1,undefined,1,s,0,0,0,98,0,98,0,98,0,0,0,98,98,98,98,NA,NA,98,9/25/19 17:27,600,The main experiment item,yes,Week4submit.osexp,C:/Users/DLGoupil/Desktop,no,mono,no,18,no,white,no,yes,768,legacy,18,79,C:/Users/DLGoupil/Desktop/subject-3.csv,legacy,Kafkaesque Koffka,3.2.8,0,s,NA,s,h,NA,s,NA,NA,449,NA,16298,875,NA,449,NA,NA,2,legacy,1024,2,48000,-16,experiment,SSSSS,3,odd,18308,160044,NA,130133,2004,180120,NA,191642,2008,159167,NA,190537,191745,192196,191639,NA,NA,191745,Week4submit,90,48118,99,yes,1024
91,91,485.16,485.16,black,legacy,legacy,legacy,0,congruent,uniform,1,undefined,1,h,0,0,0,99,0,99,0,99,0,0,0,99,99,99,99,NA,NA,99,9/25/19 17:27,600,The main experiment item,yes,Week4submit.osexp,C:/Users/DLGoupil/Desktop,no,mono,no,18,no,white,no,yes,768,legacy,19,79,C:/Users/DLGoupil/Desktop/subject-3.csv,legacy,Kafkaesque Koffka,3.2.8,0,h,NA,s,h,NA,h,NA,NA,398,NA,16298,875,NA,398,NA,NA,2,legacy,1024,2,48000,-16,experiment,HHHHH,3,odd,18308,160044,NA,130133,2004,180120,NA,193301,2008,159167,NA,192201,193404,193804,193299,NA,NA,193404,Week4submit,91,48516,100,yes,1024
91.08910891,91.08910891,485.2178218,485.2178218,black,legacy,legacy,legacy,0,congruent,uniform,1,undefined,1,s,0,0,0,100,0,100,0,100,0,0,0,100,100,100,100,NA,NA,100,9/25/19 17:27,600,The main experiment item,yes,Week4submit.osexp,C:/Users/DLGoupil/Desktop,no,mono,no,18,no,white,no,yes,768,legacy,20,79,C:/Users/DLGoupil/Desktop/subject-3.csv,legacy,Kafkaesque Koffka,3.2.8,0,s,NA,s,h,NA,s,NA,NA,491,NA,16298,875,NA,491,NA,NA,2,legacy,1024,2,48000,-16,experiment,SSSSS,3,odd,18308,160044,NA,130133,2004,180120,NA,194913,2008,159167,NA,193809,195016,195508,194910,NA,NA,195016,Week4submit,92,49007,101,yes,1024
91.17647059,91.17647059,484.627451,484.627451,black,legacy,legacy,legacy,0,incongruent,uniform,1,undefined,1,s,0,0,0,101,0,101,0,101,0,0,0,101,101,101,101,NA,NA,101,9/25/19 17:27,600,The main experiment item,yes,Week4submit.osexp,C:/Users/DLGoupil/Desktop,no,mono,no,18,no,white,no,yes,768,legacy,21,79,C:/Users/DLGoupil/Desktop/subject-3.csv,legacy,Kafkaesque Koffka,3.2.8,0,s,NA,s,h,NA,s,NA,NA,425,NA,16298,875,NA,425,NA,NA,2,legacy,1024,2,48000,-16,experiment,HHSHH,3,odd,18308,160044,NA,130133,2004,180120,NA,196611,2008,159167,NA,195513,196714,197140,196608,NA,NA,196714,Week4submit,93,49432,102,yes,1024
91.26213592,91.26213592,484.3883495,484.3883495,black,legacy,legacy,legacy,0,incongruent,uniform,1,undefined,1,s,0,0,0,102,0,102,0,102,0,0,0,102,102,102,102,NA,NA,102,9/25/19 17:27,600,The main experiment item,yes,Week4submit.osexp,C:/Users/DLGoupil/Desktop,no,mono,no,18,no,white,no,yes,768,legacy,22,79,C:/Users/DLGoupil/Desktop/subject-3.csv,legacy,Kafkaesque Koffka,3.2.8,0,s,NA,s,h,NA,s,NA,NA,460,NA,16298,875,NA,460,NA,NA,2,legacy,1024,2,48000,-16,experiment,HHSHH,3,odd,18308,160044,NA,130133,2004,180120,NA,198248,2008,159167,NA,197145,198351,198812,198245,NA,NA,198351,Week4submit,94,49892,103,yes,1024
91.34615385,91.34615385,483.9807692,483.9807692,black,legacy,legacy,legacy,0,incongruent,uniform,1,undefined,1,s,0,0,0,103,0,103,0,103,0,0,0,103,103,103,103,NA,NA,103,9/25/19 17:27,600,The main experiment item,yes,Week4submit.osexp,C:/Users/DLGoupil/Desktop,no,mono,no,18,no,white,no,yes,768,legacy,23,79,C:/Users/DLGoupil/Desktop/subject-3.csv,legacy,Kafkaesque Koffka,3.2.8,0,s,NA,s,h,NA,s,NA,NA,442,NA,16298,875,NA,442,NA,NA,2,legacy,1024,2,48000,-16,experiment,HHSHH,3,odd,18308,160044,NA,130133,2004,180120,NA,199922,2008,159167,NA,198817,200025,200468,199919,NA,NA,200025,Week4submit,95,50334,104,yes,1024
91.42857143,91.42857143,483.2761905,483.2761905,black,legacy,legacy,legacy,0,incongruent,uniform,1,undefined,1,s,0,0,0,104,0,104,0,104,0,0,0,104,104,104,104,NA,NA,104,9/25/19 17:27,600,The main experiment item,yes,Week4submit.osexp,C:/Users/DLGoupil/Desktop,no,mono,no,18,no,white,no,yes,768,legacy,24,79,C:/Users/DLGoupil/Desktop/subject-3.csv,legacy,Kafkaesque Koffka,3.2.8,0,s,NA,s,h,NA,s,NA,NA,410,NA,16298,875,NA,410,NA,NA,2,legacy,1024,2,48000,-16,experiment,HHSHH,3,odd,18308,160044,NA,130133,2004,180120,NA,201578,2008,159167,NA,200473,201681,202092,201575,NA,NA,201681,Week4submit,96,50744,105,yes,1024
90.56603774,90.56603774,482.5283019,482.5283019,black,legacy,legacy,legacy,0,incongruent,uniform,0,undefined,0,h,0,0,0,105,0,105,0,105,0,0,0,105,105,105,105,NA,NA,105,9/25/19 17:27,600,The main experiment item,yes,Week4submit.osexp,C:/Users/DLGoupil/Desktop,no,mono,no,18,no,white,no,yes,768,legacy,25,79,C:/Users/DLGoupil/Desktop/subject-3.csv,legacy,Kafkaesque Koffka,3.2.8,0,s,NA,s,h,NA,s,NA,NA,404,NA,16298,875,NA,404,NA,NA,2,legacy,1024,2,48000,-16,experiment,SSHSS,3,odd,18308,160044,NA,130133,2004,180120,NA,203200,2008,159167,NA,202097,203303,203708,203197,NA,NA,203303,Week4submit,96,51148,106,yes,1024
90.65420561,90.65420561,482.4672897,482.4672897,black,legacy,legacy,legacy,0,congruent,uniform,1,undefined,1,s,0,0,0,106,0,106,0,106,0,0,0,106,106,106,106,NA,NA,106,9/25/19 17:27,600,The main experiment item,yes,Week4submit.osexp,C:/Users/DLGoupil/Desktop,no,mono,no,18,no,white,no,yes,768,legacy,26,79,C:/Users/DLGoupil/Desktop/subject-3.csv,legacy,Kafkaesque Koffka,3.2.8,0,s,NA,s,h,NA,s,NA,NA,476,NA,16298,875,NA,476,NA,NA,2,legacy,1024,2,48000,-16,experiment,SSSSS,3,odd,18308,160044,NA,203713,2004,180120,NA,205320,2008,159167,NA,204217,205423,205900,205317,NA,NA,205423,Week4submit,97,51624,107,yes,1024
90.74074074,90.74074074,481.9074074,481.9074074,black,legacy,legacy,legacy,0,incongruent,uniform,1,undefined,1,h,0,0,0,107,0,107,0,107,0,0,0,107,107,107,107,NA,NA,107,9/25/19 17:27,600,The main experiment item,yes,Week4submit.osexp,C:/Users/DLGoupil/Desktop,no,mono,no,18,no,white,no,yes,768,legacy,27,79,C:/Users/DLGoupil/Desktop/subject-3.csv,legacy,Kafkaesque Koffka,3.2.8,0,h,NA,s,h,NA,h,NA,NA,422,NA,16298,875,NA,422,NA,NA,2,legacy,1024,2,48000,-16,experiment,SSHSS,3,odd,18308,160044,NA,203713,2004,180120,NA,207006,2008,159167,NA,205905,207109,207532,207003,NA,NA,207109,Week4submit,98,52046,108,yes,1024
89.90825688,89.90825688,481.440367,481.440367,black,legacy,legacy,legacy,0,incongruent,uniform,0,undefined,0,h,0,0,0,108,0,108,0,108,0,0,0,108,108,108,108,NA,NA,108,9/25/19 17:27,600,The main experiment item,yes,Week4submit.osexp,C:/Users/DLGoupil/Desktop,no,mono,no,18,no,white,no,yes,768,legacy,28,79,C:/Users/DLGoupil/Desktop/subject-3.csv,legacy,Kafkaesque Koffka,3.2.8,0,s,NA,s,h,NA,s,NA,NA,431,NA,16298,875,NA,431,NA,NA,2,legacy,1024,2,48000,-16,experiment,SSHSS,3,odd,18308,160044,NA,203713,2004,180120,NA,208645,2008,159167,NA,207537,208748,209180,208642,NA,NA,208748,Week4submit,98,52477,109,yes,1024
90,90,480.8363636,480.8363636,black,legacy,legacy,legacy,0,congruent,uniform,1,undefined,1,h,0,0,0,109,0,109,0,109,0,0,0,109,109,109,109,NA,NA,109,9/25/19 17:27,600,The main experiment item,yes,Week4submit.osexp,C:/Users/DLGoupil/Desktop,no,mono,no,18,no,white,no,yes,768,legacy,29,79,C:/Users/DLGoupil/Desktop/subject-3.csv,legacy,Kafkaesque Koffka,3.2.8,0,h,NA,s,h,NA,h,NA,NA,415,NA,16298,875,NA,415,NA,NA,2,legacy,1024,2,48000,-16,experiment,HHHHH,3,odd,18308,160044,NA,209185,2004,180120,NA,210789,2008,159167,NA,209688,210891,211308,210786,NA,NA,210891,Week4submit,99,52892,110,yes,1024
90.09009009,90.09009009,480.8738739,480.8738739,black,legacy,legacy,legacy,0,congruent,uniform,1,undefined,1,h,0,0,0,110,0,110,0,110,0,0,0,110,110,110,110,NA,NA,110,9/25/19 17:27,600,The main experiment item,yes,Week4submit.osexp,C:/Users/DLGoupil/Desktop,no,mono,no,18,no,white,no,yes,768,legacy,30,79,C:/Users/DLGoupil/Desktop/subject-3.csv,legacy,Kafkaesque Koffka,3.2.8,0,h,NA,s,h,NA,h,NA,NA,485,NA,16298,875,NA,485,NA,NA,2,legacy,1024,2,48000,-16,experiment,HHHHH,3,odd,18308,160044,NA,209185,2004,180120,NA,212422,2008,159167,NA,211313,212525,213011,212419,NA,NA,212525,Week4submit,100,53377,111,yes,1024
90.17857143,90.17857143,480.9642857,480.9642857,black,legacy,legacy,legacy,0,incongruent,uniform,1,undefined,1,s,0,0,0,111,0,111,0,111,0,0,0,111,111,111,111,NA,NA,111,9/25/19 17:27,600,The main experiment item,yes,Week4submit.osexp,C:/Users/DLGoupil/Desktop,no,mono,no,18,no,white,no,yes,768,legacy,31,79,C:/Users/DLGoupil/Desktop/subject-3.csv,legacy,Kafkaesque Koffka,3.2.8,0,s,NA,s,h,NA,s,NA,NA,491,NA,16298,875,NA,491,NA,NA,2,legacy,1024,2,48000,-16,experiment,HHSHH,3,odd,18308,160044,NA,209185,2004,180120,NA,214120,2008,159167,NA,213017,214223,214715,214117,NA,NA,214223,Week4submit,101,53868,112,yes,1024
90.26548673,90.26548673,482.0530973,482.0530973,black,legacy,legacy,legacy,0,congruent,uniform,1,undefined,1,s,0,0,0,112,0,112,0,112,0,0,0,112,112,112,112,NA,NA,112,9/25/19 17:27,600,The main experiment item,yes,Week4submit.osexp,C:/Users/DLGoupil/Desktop,no,mono,no,18,no,white,no,yes,768,legacy,32,79,C:/Users/DLGoupil/Desktop/subject-3.csv,legacy,Kafkaesque Koffka,3.2.8,0,s,NA,s,h,NA,s,NA,NA,604,NA,16298,875,NA,604,NA,NA,2,legacy,1024,2,48000,-16,experiment,SSSSS,3,odd,18308,160044,NA,209185,2004,180120,NA,215823,2008,159167,NA,214721,215926,216532,215820,NA,NA,215926,Week4submit,102,54472,113,yes,1024
90.35087719,90.35087719,481.8070175,481.8070175,black,legacy,legacy,legacy,0,incongruent,uniform,1,undefined,1,s,0,0,0,113,0,113,0,113,0,0,0,113,113,113,113,NA,NA,113,9/25/19 17:27,600,The main experiment item,yes,Week4submit.osexp,C:/Users/DLGoupil/Desktop,no,mono,no,18,no,white,no,yes,768,legacy,33,79,C:/Users/DLGoupil/Desktop/subject-3.csv,legacy,Kafkaesque Koffka,3.2.8,0,s,NA,s,h,NA,s,NA,NA,454,NA,16298,875,NA,454,NA,NA,2,legacy,1024,2,48000,-16,experiment,HHSHH,3,odd,18308,160044,NA,209185,2004,216537,NA,218142,2008,159167,NA,217040,218244,218700,218139,NA,NA,218244,Week4submit,103,54926,114,yes,1024
90.43478261,90.43478261,481.4782609,481.4782609,black,legacy,legacy,legacy,0,congruent,uniform,1,undefined,1,h,0,0,0,114,0,114,0,114,0,0,0,114,114,114,114,NA,NA,114,9/25/19 17:27,600,The main experiment item,yes,Week4submit.osexp,C:/Users/DLGoupil/Desktop,no,mono,no,18,no,white,no,yes,768,legacy,34,79,C:/Users/DLGoupil/Desktop/subject-3.csv,legacy,Kafkaesque Koffka,3.2.8,0,h,NA,s,h,NA,h,NA,NA,444,NA,16298,875,NA,444,NA,NA,2,legacy,1024,2,48000,-16,experiment,HHHHH,3,odd,18308,160044,NA,209185,2004,216537,NA,219815,2008,159167,NA,218705,219918,220364,219812,NA,NA,219918,Week4submit,104,55370,115,yes,1024
90.51724138,90.51724138,481.2327586,481.2327586,black,legacy,legacy,legacy,0,incongruent,uniform,1,undefined,1,s,0,0,0,115,0,115,0,115,0,0,0,115,115,115,115,NA,NA,115,9/25/19 17:27,600,The main experiment item,yes,Week4submit.osexp,C:/Users/DLGoupil/Desktop,no,mono,no,18,no,white,no,yes,768,legacy,35,79,C:/Users/DLGoupil/Desktop/subject-3.csv,legacy,Kafkaesque Koffka,3.2.8,0,s,NA,s,h,NA,s,NA,NA,453,NA,16298,875,NA,453,NA,NA,2,legacy,1024,2,48000,-16,experiment,HHSHH,3,odd,18308,160044,NA,209185,2004,216537,NA,221470,2008,159167,NA,220369,221573,222028,221467,NA,NA,221573,Week4submit,105,55823,116,yes,1024
89.74358974,89.74358974,481.0940171,481.0940171,black,legacy,legacy,legacy,0,incongruent,uniform,0,undefined,0,s,0,0,0,116,0,116,0,116,0,0,0,116,116,116,116,NA,NA,116,9/25/19 17:27,600,The main experiment item,yes,Week4submit.osexp,C:/Users/DLGoupil/Desktop,no,mono,no,18,no,white,no,yes,768,legacy,36,79,C:/Users/DLGoupil/Desktop/subject-3.csv,legacy,Kafkaesque Koffka,3.2.8,0,h,NA,s,h,NA,h,NA,NA,465,NA,16298,875,NA,465,NA,NA,2,legacy,1024,2,48000,-16,experiment,HHSHH,3,odd,18308,160044,NA,209185,2004,216537,NA,223138,2008,159167,NA,222033,223241,223708,223135,NA,NA,223241,Week4submit,105,56288,117,yes,1024
89.83050847,89.83050847,480.6016949,480.6016949,black,legacy,legacy,legacy,0,incongruent,uniform,1,undefined,1,s,0,0,0,117,0,117,0,117,0,0,0,117,117,117,117,NA,NA,117,9/25/19 17:27,600,The main experiment item,yes,Week4submit.osexp,C:/Users/DLGoupil/Desktop,no,mono,no,18,no,white,no,yes,768,legacy,37,79,C:/Users/DLGoupil/Desktop/subject-3.csv,legacy,Kafkaesque Koffka,3.2.8,0,s,NA,s,h,NA,s,NA,NA,423,NA,16298,875,NA,423,NA,NA,2,legacy,1024,2,48000,-16,experiment,HHSHH,3,odd,18308,160044,NA,223713,2004,216537,NA,225324,2008,159167,NA,224216,225427,225852,225321,NA,NA,225427,Week4submit,106,56711,118,yes,1024
89.91596639,89.91596639,480.605042,480.605042,black,legacy,legacy,legacy,0,congruent,uniform,1,undefined,1,h,0,0,0,118,0,118,0,118,0,0,0,118,118,118,118,NA,NA,118,9/25/19 17:27,600,The main experiment item,yes,Week4submit.osexp,C:/Users/DLGoupil/Desktop,no,mono,no,18,no,white,no,yes,768,legacy,38,79,C:/Users/DLGoupil/Desktop/subject-3.csv,legacy,Kafkaesque Koffka,3.2.8,0,h,NA,s,h,NA,h,NA,NA,481,NA,16298,875,NA,481,NA,NA,2,legacy,1024,2,48000,-16,experiment,HHHHH,3,odd,18308,160044,NA,223713,2004,216537,NA,226962,2008,159167,NA,225857,227065,227548,226959,NA,NA,227065,Week4submit,107,57192,119,yes,1024
90,90,479.8833333,479.8833333,black,legacy,legacy,legacy,0,incongruent,uniform,1,undefined,1,s,0,0,0,119,0,119,0,119,0,0,0,119,119,119,119,NA,NA,119,9/25/19 17:27,600,The main experiment item,yes,Week4submit.osexp,C:/Users/DLGoupil/Desktop,no,mono,no,18,no,white,no,yes,768,legacy,39,79,C:/Users/DLGoupil/Desktop/subject-3.csv,legacy,Kafkaesque Koffka,3.2.8,0,s,NA,s,h,NA,s,NA,NA,394,NA,16298,875,NA,394,NA,NA,2,legacy,1024,2,48000,-16,experiment,HHSHH,3,odd,18308,160044,NA,223713,2004,216537,NA,228665,2008,159167,NA,227553,228768,229164,228662,NA,NA,228768,Week4submit,108,57586,120,yes,1024
90.08264463,90.08264463,479.6033058,479.6033058,black,legacy,legacy,legacy,0,incongruent,uniform,1,undefined,1,s,0,0,0,120,0,120,0,120,0,0,0,120,120,120,120,NA,NA,120,9/25/19 17:27,600,The main experiment item,yes,Week4submit.osexp,C:/Users/DLGoupil/Desktop,no,mono,no,18,no,white,no,yes,768,legacy,40,79,C:/Users/DLGoupil/Desktop/subject-3.csv,legacy,Kafkaesque Koffka,3.2.8,0,s,NA,s,h,NA,s,NA,NA,446,NA,16298,875,NA,446,NA,NA,2,legacy,1024,2,48000,-16,experiment,HHSHH,3,odd,18308,160044,NA,223713,2004,216537,NA,230277,2008,159167,NA,229169,230380,230828,230274,NA,NA,230380,Week4submit,109,58032,121,yes,1024
90.16393443,90.16393443,478.9508197,478.9508197,black,legacy,legacy,legacy,0,congruent,uniform,1,undefined,1,h,0,0,0,121,0,121,0,121,0,0,0,121,121,121,121,NA,NA,121,9/25/19 17:27,600,The main experiment item,yes,Week4submit.osexp,C:/Users/DLGoupil/Desktop,no,mono,no,18,no,white,no,yes,768,legacy,41,79,C:/Users/DLGoupil/Desktop/subject-3.csv,legacy,Kafkaesque Koffka,3.2.8,0,h,NA,s,h,NA,h,NA,NA,400,NA,16298,875,NA,400,NA,NA,2,legacy,1024,2,48000,-16,experiment,HHHHH,3,odd,18308,160044,NA,223713,2004,216537,NA,231931,2008,159167,NA,230833,232034,232436,231928,NA,NA,232034,Week4submit,110,58432,122,yes,1024
90.24390244,90.24390244,478.6178862,478.6178862,black,legacy,legacy,legacy,0,incongruent,uniform,1,undefined,1,s,0,0,0,122,0,122,0,122,0,0,0,122,122,122,122,NA,NA,122,9/25/19 17:27,600,The main experiment item,yes,Week4submit.osexp,C:/Users/DLGoupil/Desktop,no,mono,no,18,no,white,no,yes,768,legacy,42,79,C:/Users/DLGoupil/Desktop/subject-3.csv,legacy,Kafkaesque Koffka,3.2.8,0,s,NA,s,h,NA,s,NA,NA,438,NA,16298,875,NA,438,NA,NA,2,legacy,1024,2,48000,-16,experiment,HHSHH,3,odd,18308,160044,NA,223713,2004,216537,NA,233549,2008,159167,NA,232441,233652,234092,233546,NA,NA,233652,Week4submit,111,58870,123,yes,1024
90.32258065,90.32258065,478.0967742,478.0967742,black,legacy,legacy,legacy,0,congruent,uniform,1,undefined,1,s,0,0,0,123,0,123,0,123,0,0,0,123,123,123,123,NA,NA,123,9/25/19 17:27,600,The main experiment item,yes,Week4submit.osexp,C:/Users/DLGoupil/Desktop,no,mono,no,18,no,white,no,yes,768,legacy,43,79,C:/Users/DLGoupil/Desktop/subject-3.csv,legacy,Kafkaesque Koffka,3.2.8,0,s,NA,s,h,NA,s,NA,NA,414,NA,16298,875,NA,414,NA,NA,2,legacy,1024,2,48000,-16,experiment,SSSSS,3,odd,18308,160044,NA,223713,2004,216537,NA,235205,2008,159167,NA,234097,235308,235724,235203,NA,NA,235308,Week4submit,112,59284,124,yes,1024
90.4,90.4,478.008,478.008,black,legacy,legacy,legacy,0,incongruent,uniform,1,undefined,1,h,0,0,0,124,0,124,0,124,0,0,0,124,124,124,124,NA,NA,124,9/25/19 17:27,600,The main experiment item,yes,Week4submit.osexp,C:/Users/DLGoupil/Desktop,no,mono,no,18,no,white,no,yes,768,legacy,44,79,C:/Users/DLGoupil/Desktop/subject-3.csv,legacy,Kafkaesque Koffka,3.2.8,0,h,NA,s,h,NA,h,NA,NA,467,NA,16298,875,NA,467,NA,NA,2,legacy,1024,2,48000,-16,experiment,SSHSS,3,odd,18308,160044,NA,223713,2004,216537,NA,236840,2008,159167,NA,235729,236943,237412,236837,NA,NA,236943,Week4submit,113,59751,125,yes,1024
89.68253968,89.68253968,477.0555556,477.0555556,black,legacy,legacy,legacy,0,incongruent,uniform,0,undefined,0,h,0,0,0,125,0,125,0,125,0,0,0,125,125,125,125,NA,NA,125,9/25/19 17:27,600,The main experiment item,yes,Week4submit.osexp,C:/Users/DLGoupil/Desktop,no,mono,no,18,no,white,no,yes,768,legacy,45,79,C:/Users/DLGoupil/Desktop/subject-3.csv,legacy,Kafkaesque Koffka,3.2.8,0,s,NA,s,h,NA,s,NA,NA,358,NA,16298,875,NA,358,NA,NA,2,legacy,1024,2,48000,-16,experiment,SSHSS,3,odd,18308,160044,NA,223713,2004,216537,NA,238525,2008,159167,NA,237417,238628,238988,238522,NA,NA,238628,Week4submit,113,60109,126,yes,1024
88.97637795,88.97637795,476.7322835,476.7322835,black,legacy,legacy,legacy,0,congruent,uniform,0,undefined,0,s,0,0,0,126,0,126,0,126,0,0,0,126,126,126,126,NA,NA,126,9/25/19 17:27,600,The main experiment item,yes,Week4submit.osexp,C:/Users/DLGoupil/Desktop,no,mono,no,18,no,white,no,yes,768,legacy,46,79,C:/Users/DLGoupil/Desktop/subject-3.csv,legacy,Kafkaesque Koffka,3.2.8,0,h,NA,s,h,NA,h,NA,NA,436,NA,16298,875,NA,436,NA,NA,2,legacy,1024,2,48000,-16,experiment,SSSSS,3,odd,18308,160044,NA,238993,2004,216537,NA,240599,2008,159167,NA,239496,240702,241140,240596,NA,NA,240702,Week4submit,113,60545,127,yes,1024
89.0625,89.0625,477.8828125,477.8828125,black,legacy,legacy,legacy,0,congruent,uniform,1,undefined,1,h,0,0,0,127,0,127,0,127,0,0,0,127,127,127,127,NA,NA,127,9/25/19 17:27,600,The main experiment item,yes,Week4submit.osexp,C:/Users/DLGoupil/Desktop,no,mono,no,18,no,white,no,yes,768,legacy,47,79,C:/Users/DLGoupil/Desktop/subject-3.csv,legacy,Kafkaesque Koffka,3.2.8,0,h,NA,s,h,NA,h,NA,NA,624,NA,16298,875,NA,624,NA,NA,2,legacy,1024,2,48000,-16,experiment,HHHHH,3,odd,18308,160044,NA,241145,2004,216537,NA,242755,2008,159167,NA,241648,242858,243484,242752,NA,NA,242858,Week4submit,114,61169,128,yes,1024
89.14728682,89.14728682,478.1627907,478.1627907,black,legacy,legacy,legacy,0,incongruent,uniform,1,undefined,1,s,0,0,0,128,0,128,0,128,0,0,0,128,128,128,128,NA,NA,128,9/25/19 17:27,600,The main experiment item,yes,Week4submit.osexp,C:/Users/DLGoupil/Desktop,no,mono,no,18,no,white,no,yes,768,legacy,48,79,C:/Users/DLGoupil/Desktop/subject-3.csv,legacy,Kafkaesque Koffka,3.2.8,0,s,NA,s,h,NA,s,NA,NA,514,NA,16298,875,NA,514,NA,NA,2,legacy,1024,2,48000,-16,experiment,HHSHH,3,odd,18308,160044,NA,241145,2004,243489,NA,245097,2008,159167,NA,243992,245200,245716,245094,NA,NA,245200,Week4submit,115,61683,129,yes,1024
89.23076923,89.23076923,478.0769231,478.0769231,black,legacy,legacy,legacy,0,congruent,uniform,1,undefined,1,s,0,0,0,129,0,129,0,129,0,0,0,129,129,129,129,NA,NA,129,9/25/19 17:27,600,The main experiment item,yes,Week4submit.osexp,C:/Users/DLGoupil/Desktop,no,mono,no,18,no,white,no,yes,768,legacy,49,79,C:/Users/DLGoupil/Desktop/subject-3.csv,legacy,Kafkaesque Koffka,3.2.8,0,s,NA,s,h,NA,s,NA,NA,467,NA,16298,875,NA,467,NA,NA,2,legacy,1024,2,48000,-16,experiment,SSSSS,3,odd,18308,160044,NA,241145,2004,243489,NA,246832,2008,159167,NA,245721,246935,247404,246829,NA,NA,246935,Week4submit,116,62150,130,yes,1024
88.54961832,88.54961832,476.4274809,476.4274809,black,legacy,legacy,legacy,0,congruent,uniform,0,undefined,0,s,0,0,0,130,0,130,0,130,0,0,0,130,130,130,130,NA,NA,130,9/25/19 17:27,600,The main experiment item,yes,Week4submit.osexp,C:/Users/DLGoupil/Desktop,no,mono,no,18,no,white,no,yes,768,legacy,50,79,C:/Users/DLGoupil/Desktop/subject-3.csv,legacy,Kafkaesque Koffka,3.2.8,0,h,NA,s,h,NA,h,NA,NA,262,NA,16298,875,NA,262,NA,NA,2,legacy,1024,2,48000,-16,experiment,SSSSS,3,odd,18308,160044,NA,241145,2004,243489,NA,248517,2008,159167,NA,247409,248620,248884,248514,NA,NA,248620,Week4submit,116,62412,131,yes,1024
88.63636364,88.63636364,476.6515152,476.6515152,black,legacy,legacy,legacy,0,congruent,uniform,1,undefined,1,s,0,0,0,131,0,131,0,131,0,0,0,131,131,131,131,NA,NA,131,9/25/19 17:27,600,The main experiment item,yes,Week4submit.osexp,C:/Users/DLGoupil/Desktop,no,mono,no,18,no,white,no,yes,768,legacy,51,79,C:/Users/DLGoupil/Desktop/subject-3.csv,legacy,Kafkaesque Koffka,3.2.8,0,s,NA,s,h,NA,s,NA,NA,506,NA,16298,875,NA,506,NA,NA,2,legacy,1024,2,48000,-16,experiment,SSSSS,3,odd,18308,160044,NA,248889,2004,243489,NA,250497,2008,159167,NA,249392,250600,251108,250494,NA,NA,250600,Week4submit,117,62918,132,yes,1024
88.72180451,88.72180451,476.406015,476.406015,black,legacy,legacy,legacy,0,incongruent,uniform,1,undefined,1,h,0,0,0,132,0,132,0,132,0,0,0,132,132,132,132,NA,NA,132,9/25/19 17:27,600,The main experiment item,yes,Week4submit.osexp,C:/Users/DLGoupil/Desktop,no,mono,no,18,no,white,no,yes,768,legacy,52,79,C:/Users/DLGoupil/Desktop/subject-3.csv,legacy,Kafkaesque Koffka,3.2.8,0,h,NA,s,h,NA,h,NA,NA,444,NA,16298,875,NA,444,NA,NA,2,legacy,1024,2,48000,-16,experiment,SSHSS,3,odd,18308,160044,NA,248889,2004,243489,NA,252215,2008,159167,NA,251113,252318,252764,252212,NA,NA,252318,Week4submit,118,63362,133,yes,1024
88.80597015,88.80597015,475.8432836,475.8432836,black,legacy,legacy,legacy,0,congruent,uniform,1,undefined,1,s,0,0,0,133,0,133,0,133,0,0,0,133,133,133,133,NA,NA,133,9/25/19 17:27,600,The main experiment item,yes,Week4submit.osexp,C:/Users/DLGoupil/Desktop,no,mono,no,18,no,white,no,yes,768,legacy,53,79,C:/Users/DLGoupil/Desktop/subject-3.csv,legacy,Kafkaesque Koffka,3.2.8,0,s,NA,s,h,NA,s,NA,NA,401,NA,16298,875,NA,401,NA,NA,2,legacy,1024,2,48000,-16,experiment,SSSSS,3,odd,18308,160044,NA,248889,2004,243489,NA,253882,2008,159167,NA,252769,253985,254388,253879,NA,NA,253985,Week4submit,119,63763,134,yes,1024
88.88888889,88.88888889,475.237037,475.237037,black,legacy,legacy,legacy,0,incongruent,uniform,1,undefined,1,h,0,0,0,134,0,134,0,134,0,0,0,134,134,134,134,NA,NA,134,9/25/19 17:27,600,The main experiment item,yes,Week4submit.osexp,C:/Users/DLGoupil/Desktop,no,mono,no,18,no,white,no,yes,768,legacy,54,79,C:/Users/DLGoupil/Desktop/subject-3.csv,legacy,Kafkaesque Koffka,3.2.8,0,h,NA,s,h,NA,h,NA,NA,394,NA,16298,875,NA,394,NA,NA,2,legacy,1024,2,48000,-16,experiment,SSHSS,3,odd,18308,160044,NA,248889,2004,243489,NA,255505,2008,159167,NA,254393,255608,256004,255502,NA,NA,255608,Week4submit,120,64157,135,yes,1024
88.97058824,88.97058824,474.1985294,474.1985294,black,legacy,legacy,legacy,0,congruent,uniform,1,undefined,1,s,0,0,0,135,0,135,0,135,0,0,0,135,135,135,135,NA,NA,135,9/25/19 17:27,600,The main experiment item,yes,Week4submit.osexp,C:/Users/DLGoupil/Desktop,no,mono,no,18,no,white,no,yes,768,legacy,55,79,C:/Users/DLGoupil/Desktop/subject-3.csv,legacy,Kafkaesque Koffka,3.2.8,0,s,NA,s,h,NA,s,NA,NA,334,NA,16298,875,NA,334,NA,NA,2,legacy,1024,2,48000,-16,experiment,SSSSS,3,odd,18308,160044,NA,248889,2004,243489,NA,257125,2008,159167,NA,256009,257228,257564,257122,NA,NA,257228,Week4submit,121,64491,136,yes,1024
88.32116788,88.32116788,473.6715328,473.6715328,black,legacy,legacy,legacy,0,incongruent,uniform,0,undefined,0,h,0,0,0,136,0,136,0,136,0,0,0,136,136,136,136,NA,NA,136,9/25/19 17:27,600,The main experiment item,yes,Week4submit.osexp,C:/Users/DLGoupil/Desktop,no,mono,no,18,no,white,no,yes,768,legacy,56,79,C:/Users/DLGoupil/Desktop/subject-3.csv,legacy,Kafkaesque Koffka,3.2.8,0,s,NA,s,h,NA,s,NA,NA,402,NA,16298,875,NA,402,NA,NA,2,legacy,1024,2,48000,-16,experiment,SSHSS,3,odd,18308,160044,NA,248889,2004,243489,NA,258681,2008,159167,NA,257569,258784,259188,258678,NA,NA,258784,Week4submit,121,64893,137,yes,1024
88.4057971,88.4057971,473.1231884,473.1231884,black,legacy,legacy,legacy,0,congruent,uniform,1,undefined,1,h,0,0,0,137,0,137,0,137,0,0,0,137,137,137,137,NA,NA,137,9/25/19 17:27,600,The main experiment item,yes,Week4submit.osexp,C:/Users/DLGoupil/Desktop,no,mono,no,18,no,white,no,yes,768,legacy,57,79,C:/Users/DLGoupil/Desktop/subject-3.csv,legacy,Kafkaesque Koffka,3.2.8,0,h,NA,s,h,NA,h,NA,NA,398,NA,16298,875,NA,398,NA,NA,2,legacy,1024,2,48000,-16,experiment,HHHHH,3,odd,18308,160044,NA,259193,2004,243489,NA,260797,2008,159167,NA,259696,260900,261300,260794,NA,NA,260900,Week4submit,122,65291,138,yes,1024
88.48920863,88.48920863,473.4172662,473.4172662,black,legacy,legacy,legacy,0,incongruent,uniform,1,undefined,1,h,0,0,0,138,0,138,0,138,0,0,0,138,138,138,138,NA,NA,138,9/25/19 17:27,600,The main experiment item,yes,Week4submit.osexp,C:/Users/DLGoupil/Desktop,no,mono,no,18,no,white,no,yes,768,legacy,58,79,C:/Users/DLGoupil/Desktop/subject-3.csv,legacy,Kafkaesque Koffka,3.2.8,0,h,NA,s,h,NA,h,NA,NA,514,NA,16298,875,NA,514,NA,NA,2,legacy,1024,2,48000,-16,experiment,SSHSS,3,odd,18308,160044,NA,259193,2004,243489,NA,262409,2008,159167,NA,261305,262512,263028,262406,NA,NA,262512,Week4submit,123,65805,139,yes,1024
88.57142857,88.57142857,473.2071429,473.2071429,black,legacy,legacy,legacy,0,congruent,uniform,1,undefined,1,h,0,0,0,139,0,139,0,139,0,0,0,139,139,139,139,NA,NA,139,9/25/19 17:27,600,The main experiment item,yes,Week4submit.osexp,C:/Users/DLGoupil/Desktop,no,mono,no,18,no,white,no,yes,768,legacy,59,79,C:/Users/DLGoupil/Desktop/subject-3.csv,legacy,Kafkaesque Koffka,3.2.8,0,h,NA,s,h,NA,h,NA,NA,444,NA,16298,875,NA,444,NA,NA,2,legacy,1024,2,48000,-16,experiment,HHHHH,3,odd,18308,160044,NA,259193,2004,243489,NA,264143,2008,159167,NA,263033,264246,264692,264140,NA,NA,264246,Week4submit,124,66249,140,yes,1024
88.65248227,88.65248227,473.7730496,473.7730496,black,legacy,legacy,legacy,0,incongruent,uniform,1,undefined,1,h,0,0,0,140,0,140,0,140,0,0,0,140,140,140,140,NA,NA,140,9/25/19 17:27,600,The main experiment item,yes,Week4submit.osexp,C:/Users/DLGoupil/Desktop,no,mono,no,18,no,white,no,yes,768,legacy,60,79,C:/Users/DLGoupil/Desktop/subject-3.csv,legacy,Kafkaesque Koffka,3.2.8,0,h,NA,s,h,NA,h,NA,NA,553,NA,16298,875,NA,553,NA,NA,2,legacy,1024,2,48000,-16,experiment,SSHSS,3,odd,18308,160044,NA,259193,2004,243489,NA,265802,2008,159167,NA,264697,265905,266460,265799,NA,NA,265905,Week4submit,125,66802,141,yes,1024
88.73239437,88.73239437,473.6690141,473.6690141,black,legacy,legacy,legacy,0,congruent,uniform,1,undefined,1,h,0,0,0,141,0,141,0,141,0,0,0,141,141,141,141,NA,NA,141,9/25/19 17:27,600,The main experiment item,yes,Week4submit.osexp,C:/Users/DLGoupil/Desktop,no,mono,no,18,no,white,no,yes,768,legacy,61,79,C:/Users/DLGoupil/Desktop/subject-3.csv,legacy,Kafkaesque Koffka,3.2.8,0,h,NA,s,h,NA,h,NA,NA,459,NA,16298,875,NA,459,NA,NA,2,legacy,1024,2,48000,-16,experiment,HHHHH,3,odd,18308,160044,NA,259193,2004,243489,NA,267575,2008,159167,NA,266466,267679,268140,267573,NA,NA,267679,Week4submit,126,67261,142,yes,1024
88.81118881,88.81118881,473.9440559,473.9440559,black,legacy,legacy,legacy,0,incongruent,uniform,1,undefined,1,h,0,0,0,142,0,142,0,142,0,0,0,142,142,142,142,NA,NA,142,9/25/19 17:27,600,The main experiment item,yes,Week4submit.osexp,C:/Users/DLGoupil/Desktop,no,mono,no,18,no,white,no,yes,768,legacy,62,79,C:/Users/DLGoupil/Desktop/subject-3.csv,legacy,Kafkaesque Koffka,3.2.8,0,h,NA,s,h,NA,h,NA,NA,513,NA,16298,875,NA,513,NA,NA,2,legacy,1024,2,48000,-16,experiment,SSHSS,3,odd,18308,160044,NA,259193,2004,243489,NA,269250,2008,159167,NA,268145,269353,269868,269247,NA,NA,269353,Week4submit,127,67774,143,yes,1024
88.88888889,88.88888889,473.8402778,473.8402778,black,legacy,legacy,legacy,0,incongruent,uniform,1,undefined,1,h,0,0,0,143,0,143,0,143,0,0,0,143,143,143,143,NA,NA,143,9/25/19 17:27,600,The main experiment item,yes,Week4submit.osexp,C:/Users/DLGoupil/Desktop,no,mono,no,18,no,white,no,yes,768,legacy,63,79,C:/Users/DLGoupil/Desktop/subject-3.csv,legacy,Kafkaesque Koffka,3.2.8,0,h,NA,s,h,NA,h,NA,NA,459,NA,16298,875,NA,459,NA,NA,2,legacy,1024,2,48000,-16,experiment,SSHSS,3,odd,18308,160044,NA,259193,2004,243489,NA,270984,2008,159167,NA,269873,271087,271548,270981,NA,NA,271087,Week4submit,128,68233,144,yes,1024
88.96551724,88.96551724,473.7517241,473.7517241,black,legacy,legacy,legacy,0,congruent,uniform,1,undefined,1,h,0,0,0,144,0,144,0,144,0,0,0,144,144,144,144,NA,NA,144,9/25/19 17:27,600,The main experiment item,yes,Week4submit.osexp,C:/Users/DLGoupil/Desktop,no,mono,no,18,no,white,no,yes,768,legacy,64,79,C:/Users/DLGoupil/Desktop/subject-3.csv,legacy,Kafkaesque Koffka,3.2.8,0,h,NA,s,h,NA,h,NA,NA,461,NA,16298,875,NA,461,NA,NA,2,legacy,1024,2,48000,-16,experiment,HHHHH,3,odd,18308,160044,NA,259193,2004,243489,NA,272662,2008,159167,NA,271553,272765,273228,272660,NA,NA,272765,Week4submit,129,68694,145,yes,1024
89.04109589,89.04109589,474.3424658,474.3424658,black,legacy,legacy,legacy,0,incongruent,uniform,1,undefined,1,h,0,0,0,145,0,145,0,145,0,0,0,145,145,145,145,NA,NA,145,9/25/19 17:27,600,The main experiment item,yes,Week4submit.osexp,C:/Users/DLGoupil/Desktop,no,mono,no,18,no,white,no,yes,768,legacy,65,79,C:/Users/DLGoupil/Desktop/subject-3.csv,legacy,Kafkaesque Koffka,3.2.8,0,h,NA,s,h,NA,h,NA,NA,560,NA,16298,875,NA,560,NA,NA,2,legacy,1024,2,48000,-16,experiment,SSHSS,3,odd,18308,160044,NA,259193,2004,243489,NA,274347,2008,159167,NA,273233,274450,275012,274345,NA,NA,274450,Week4submit,130,69254,146,yes,1024
89.11564626,89.11564626,474.5510204,474.5510204,black,legacy,legacy,legacy,0,incongruent,uniform,1,undefined,1,h,0,0,0,146,0,146,0,146,0,0,0,146,146,146,146,NA,NA,146,9/25/19 17:27,600,The main experiment item,yes,Week4submit.osexp,C:/Users/DLGoupil/Desktop,no,mono,no,18,no,white,no,yes,768,legacy,66,79,C:/Users/DLGoupil/Desktop/subject-3.csv,legacy,Kafkaesque Koffka,3.2.8,0,h,NA,s,h,NA,h,NA,NA,505,NA,16298,875,NA,505,NA,NA,2,legacy,1024,2,48000,-16,experiment,SSHSS,3,odd,18308,160044,NA,259193,2004,243489,NA,276122,2008,159167,NA,275018,276225,276732,276119,NA,NA,276225,Week4submit,131,69759,147,yes,1024
89.18918919,89.18918919,474.0675676,474.0675676,black,legacy,legacy,legacy,0,incongruent,uniform,1,undefined,1,h,0,0,0,147,0,147,0,147,0,0,0,147,147,147,147,NA,NA,147,9/25/19 17:27,600,The main experiment item,yes,Week4submit.osexp,C:/Users/DLGoupil/Desktop,no,mono,no,18,no,white,no,yes,768,legacy,67,79,C:/Users/DLGoupil/Desktop/subject-3.csv,legacy,Kafkaesque Koffka,3.2.8,0,h,NA,s,h,NA,h,NA,NA,403,NA,16298,875,NA,403,NA,NA,2,legacy,1024,2,48000,-16,experiment,SSHSS,3,odd,18308,160044,NA,259193,2004,243489,NA,277840,2008,159167,NA,276737,277943,278348,277837,NA,NA,277943,Week4submit,132,70162,148,yes,1024
88.59060403,88.59060403,473.8657718,473.8657718,black,legacy,legacy,legacy,0,congruent,uniform,0,undefined,0,s,0,0,0,148,0,148,0,148,0,0,0,148,148,148,148,NA,NA,148,9/25/19 17:27,600,The main experiment item,yes,Week4submit.osexp,C:/Users/DLGoupil/Desktop,no,mono,no,18,no,white,no,yes,768,legacy,68,79,C:/Users/DLGoupil/Desktop/subject-3.csv,legacy,Kafkaesque Koffka,3.2.8,0,h,NA,s,h,NA,h,NA,NA,444,NA,16298,875,NA,444,NA,NA,2,legacy,1024,2,48000,-16,experiment,SSSSS,3,odd,18308,160044,NA,259193,2004,243489,NA,279455,2008,159167,NA,278353,279558,280004,279452,NA,NA,279558,Week4submit,132,70606,149,yes,1024
88.66666667,88.66666667,473.84,473.84,black,legacy,legacy,legacy,0,congruent,uniform,1,undefined,1,h,0,0,0,149,0,149,0,149,0,0,0,149,149,149,149,NA,NA,149,9/25/19 17:27,600,The main experiment item,yes,Week4submit.osexp,C:/Users/DLGoupil/Desktop,no,mono,no,18,no,white,no,yes,768,legacy,69,79,C:/Users/DLGoupil/Desktop/subject-3.csv,legacy,Kafkaesque Koffka,3.2.8,0,h,NA,s,h,NA,h,NA,NA,470,NA,16298,875,NA,470,NA,NA,2,legacy,1024,2,48000,-16,experiment,HHHHH,3,odd,18308,160044,NA,280009,2004,243489,NA,281613,2008,159167,NA,280512,281716,282188,281610,NA,NA,281716,Week4submit,133,71076,150,yes,1024
88.74172185,88.74172185,473.2781457,473.2781457,black,legacy,legacy,legacy,0,congruent,uniform,1,undefined,1,s,0,0,0,150,0,150,0,150,0,0,0,150,150,150,150,NA,NA,150,9/25/19 17:27,600,The main experiment item,yes,Week4submit.osexp,C:/Users/DLGoupil/Desktop,no,mono,no,18,no,white,no,yes,768,legacy,70,79,C:/Users/DLGoupil/Desktop/subject-3.csv,legacy,Kafkaesque Koffka,3.2.8,0,s,NA,s,h,NA,s,NA,NA,389,NA,16298,875,NA,389,NA,NA,2,legacy,1024,2,48000,-16,experiment,SSSSS,3,odd,18308,160044,NA,280009,2004,243489,NA,283294,2008,159167,NA,282193,283397,283788,283291,NA,NA,283397,Week4submit,134,71465,151,yes,1024
88.81578947,88.81578947,474.3486842,474.3486842,black,legacy,legacy,legacy,0,congruent,uniform,1,undefined,1,h,0,0,0,151,0,151,0,151,0,0,0,151,151,151,151,NA,NA,151,9/25/19 17:27,600,The main experiment item,yes,Week4submit.osexp,C:/Users/DLGoupil/Desktop,no,mono,no,18,no,white,no,yes,768,legacy,71,79,C:/Users/DLGoupil/Desktop/subject-3.csv,legacy,Kafkaesque Koffka,3.2.8,0,h,NA,s,h,NA,h,NA,NA,636,NA,16298,875,NA,636,NA,NA,2,legacy,1024,2,48000,-16,experiment,HHHHH,3,odd,18308,160044,NA,280009,2004,243489,NA,284903,2008,159167,NA,283793,285006,285644,284900,NA,NA,285006,Week4submit,135,72101,152,yes,1024
88.88888889,88.88888889,473.9607843,473.9607843,black,legacy,legacy,legacy,0,congruent,uniform,1,undefined,1,h,0,0,0,152,0,152,0,152,0,0,0,152,152,152,152,NA,NA,152,9/25/19 17:27,600,The main experiment item,yes,Week4submit.osexp,C:/Users/DLGoupil/Desktop,no,mono,no,18,no,white,no,yes,768,legacy,72,79,C:/Users/DLGoupil/Desktop/subject-3.csv,legacy,Kafkaesque Koffka,3.2.8,0,h,NA,s,h,NA,h,NA,NA,415,NA,16298,875,NA,415,NA,NA,2,legacy,1024,2,48000,-16,experiment,HHHHH,3,odd,18308,160044,NA,280009,2004,285649,NA,287252,2008,159167,NA,286152,287355,287772,287249,NA,NA,287355,Week4submit,136,72516,153,yes,1024
88.96103896,88.96103896,473.6558442,473.6558442,black,legacy,legacy,legacy,0,congruent,uniform,1,undefined,1,s,0,0,0,153,0,153,0,153,0,0,0,153,153,153,153,NA,NA,153,9/25/19 17:27,600,The main experiment item,yes,Week4submit.osexp,C:/Users/DLGoupil/Desktop,no,mono,no,18,no,white,no,yes,768,legacy,73,79,C:/Users/DLGoupil/Desktop/subject-3.csv,legacy,Kafkaesque Koffka,3.2.8,0,s,NA,s,h,NA,s,NA,NA,427,NA,16298,875,NA,427,NA,NA,2,legacy,1024,2,48000,-16,experiment,SSSSS,3,odd,18308,160044,NA,280009,2004,285649,NA,288880,2008,159167,NA,287777,288983,289412,288877,NA,NA,288983,Week4submit,137,72943,154,yes,1024
88.38709677,88.38709677,473.0258065,473.0258065,black,legacy,legacy,legacy,0,incongruent,uniform,0,undefined,0,s,0,0,0,154,0,154,0,154,0,0,0,154,154,154,154,NA,NA,154,9/25/19 17:27,600,The main experiment item,yes,Week4submit.osexp,C:/Users/DLGoupil/Desktop,no,mono,no,18,no,white,no,yes,768,legacy,74,79,C:/Users/DLGoupil/Desktop/subject-3.csv,legacy,Kafkaesque Koffka,3.2.8,0,h,NA,s,h,NA,h,NA,NA,376,NA,16298,875,NA,376,NA,NA,2,legacy,1024,2,48000,-16,experiment,HHSHH,3,odd,18308,160044,NA,280009,2004,285649,NA,290523,2008,159167,NA,289417,290626,291004,290520,NA,NA,290626,Week4submit,137,73319,155,yes,1024
88.46153846,88.46153846,473.0320513,473.0320513,black,legacy,legacy,legacy,0,congruent,uniform,1,undefined,1,s,0,0,0,155,0,155,0,155,0,0,0,155,155,155,155,NA,NA,155,9/25/19 17:27,600,The main experiment item,yes,Week4submit.osexp,C:/Users/DLGoupil/Desktop,no,mono,no,18,no,white,no,yes,768,legacy,75,79,C:/Users/DLGoupil/Desktop/subject-3.csv,legacy,Kafkaesque Koffka,3.2.8,0,s,NA,s,h,NA,s,NA,NA,474,NA,16298,875,NA,474,NA,NA,2,legacy,1024,2,48000,-16,experiment,SSSSS,3,odd,18308,160044,NA,291009,2004,285649,NA,292617,2008,159167,NA,291512,292720,293196,292614,NA,NA,292720,Week4submit,138,73793,156,yes,1024
88.53503185,88.53503185,472.7898089,472.7898089,black,legacy,legacy,legacy,0,congruent,uniform,1,undefined,1,s,0,0,0,156,0,156,0,156,0,0,0,156,156,156,156,NA,NA,156,9/25/19 17:27,600,The main experiment item,yes,Week4submit.osexp,C:/Users/DLGoupil/Desktop,no,mono,no,18,no,white,no,yes,768,legacy,76,79,C:/Users/DLGoupil/Desktop/subject-3.csv,legacy,Kafkaesque Koffka,3.2.8,0,s,NA,s,h,NA,s,NA,NA,435,NA,16298,875,NA,435,NA,NA,2,legacy,1024,2,48000,-16,experiment,SSSSS,3,odd,18308,160044,NA,291009,2004,285649,NA,294304,2008,159167,NA,293201,294407,294844,294301,NA,NA,294407,Week4submit,139,74228,157,yes,1024
88.60759494,88.60759494,472.3544304,472.3544304,black,legacy,legacy,legacy,0,incongruent,uniform,1,undefined,1,h,0,0,0,157,0,157,0,157,0,0,0,157,157,157,157,NA,NA,157,9/25/19 17:27,600,The main experiment item,yes,Week4submit.osexp,C:/Users/DLGoupil/Desktop,no,mono,no,18,no,white,no,yes,768,legacy,77,79,C:/Users/DLGoupil/Desktop/subject-3.csv,legacy,Kafkaesque Koffka,3.2.8,0,h,NA,s,h,NA,h,NA,NA,404,NA,16298,875,NA,404,NA,NA,2,legacy,1024,2,48000,-16,experiment,SSHSS,3,odd,18308,160044,NA,291009,2004,285649,NA,295951,2008,159167,NA,294849,296054,296460,295948,NA,NA,296054,Week4submit,140,74632,158,yes,1024
88.67924528,88.67924528,471.9308176,471.9308176,black,legacy,legacy,legacy,0,congruent,uniform,1,undefined,1,s,0,0,0,158,0,158,0,158,0,0,0,158,158,158,158,NA,NA,158,9/25/19 17:27,600,The main experiment item,yes,Week4submit.osexp,C:/Users/DLGoupil/Desktop,no,mono,no,18,no,white,no,yes,768,legacy,78,79,C:/Users/DLGoupil/Desktop/subject-3.csv,legacy,Kafkaesque Koffka,3.2.8,0,s,NA,s,h,NA,s,NA,NA,405,NA,16298,875,NA,405,NA,NA,2,legacy,1024,2,48000,-16,experiment,SSSSS,3,odd,18308,160044,NA,291009,2004,285649,NA,297574,2008,159167,NA,296465,297677,298084,297571,NA,NA,297677,Week4submit,141,75037,159,yes,1024
88.75,88.75,472.19375,472.19375,black,legacy,legacy,legacy,0,incongruent,uniform,1,undefined,1,s,0,0,0,159,0,159,0,159,0,0,0,159,159,159,159,NA,NA,159,9/25/19 17:27,600,The main experiment item,yes,Week4submit.osexp,C:/Users/DLGoupil/Desktop,no,mono,no,18,no,white,no,yes,768,legacy,79,79,C:/Users/DLGoupil/Desktop/subject-3.csv,legacy,Kafkaesque Koffka,3.2.8,0,s,NA,s,h,NA,s,NA,NA,514,NA,16298,875,NA,514,NA,NA,2,legacy,1024,2,48000,-16,experiment,HHSHH,3,odd,18308,160044,NA,291009,2004,285649,NA,299193,2008,159167,NA,298089,299296,299812,299190,NA,NA,299296,Week4submit,142,75551,160,yes,1024
88.81987578,88.81987578,472.5403727,472.5403727,black,legacy,legacy,legacy,0,incongruent,uniform,1,undefined,1,s,0,0,0,160,0,160,0,160,0,0,0,160,160,160,160,NA,NA,160,9/25/19 17:27,300,The main experiment item,yes,Week4submit.osexp,C:/Users/DLGoupil/Desktop,no,mono,no,18,no,white,no,yes,768,legacy,0,79,C:/Users/DLGoupil/Desktop/subject-3.csv,legacy,Kafkaesque Koffka,3.2.8,0,s,NA,s,h,s,s,NA,NA,528,NA,16298,875,712,528,NA,NA,2,legacy,1024,2,48000,-16,experiment,HHSHH,3,odd,18308,160044,301556,291009,2004,285649,NA,301651,2008,159167,300842,299817,301754,302284,301648,NA,NA,301754,Week4submit,143,76079,161,yes,1024
88.88888889,88.88888889,472.5,472.5,black,legacy,legacy,legacy,0,incongruent,uniform,1,undefined,1,h,0,0,0,161,0,161,0,161,0,0,0,161,161,161,161,NA,NA,161,9/25/19 17:27,300,The main experiment item,yes,Week4submit.osexp,C:/Users/DLGoupil/Desktop,no,mono,no,18,no,white,no,yes,768,legacy,1,79,C:/Users/DLGoupil/Desktop/subject-3.csv,legacy,Kafkaesque Koffka,3.2.8,0,h,NA,s,h,s,h,NA,NA,466,NA,16298,875,712,466,NA,NA,2,legacy,1024,2,48000,-16,experiment,SSHSS,3,odd,18308,160044,301556,291009,2004,302289,NA,303897,2008,159167,300842,302792,304000,304468,303894,NA,NA,304000,Week4submit,144,76545,162,yes,1024
88.95705521,88.95705521,473.6687117,473.6687117,black,legacy,legacy,legacy,0,congruent,uniform,1,undefined,1,h,0,0,0,162,0,162,0,162,0,0,0,162,162,162,162,NA,NA,162,9/25/19 17:27,300,The main experiment item,yes,Week4submit.osexp,C:/Users/DLGoupil/Desktop,no,mono,no,18,no,white,no,yes,768,legacy,2,79,C:/Users/DLGoupil/Desktop/subject-3.csv,legacy,Kafkaesque Koffka,3.2.8,0,h,NA,s,h,s,h,NA,NA,663,NA,16298,875,712,663,NA,NA,2,legacy,1024,2,48000,-16,experiment,HHHHH,3,odd,18308,160044,301556,291009,2004,304473,NA,306084,2008,159167,300842,304977,306187,306852,306081,NA,NA,306187,Week4submit,145,77208,163,yes,1024
89.02439024,89.02439024,473.7439024,473.7439024,black,legacy,legacy,legacy,0,incongruent,uniform,1,undefined,1,s,0,0,0,163,0,163,0,163,0,0,0,163,163,163,163,NA,NA,163,9/25/19 17:27,300,The main experiment item,yes,Week4submit.osexp,C:/Users/DLGoupil/Desktop,no,mono,no,18,no,white,no,yes,768,legacy,3,79,C:/Users/DLGoupil/Desktop/subject-3.csv,legacy,Kafkaesque Koffka,3.2.8,0,s,NA,s,h,s,s,NA,NA,486,NA,16298,875,712,486,NA,NA,2,legacy,1024,2,48000,-16,experiment,HHSHH,3,odd,18308,160044,301556,291009,2004,306857,NA,308461,2008,159167,300842,307360,308564,309052,308458,NA,NA,308564,Week4submit,146,77694,164,yes,1024
89.09090909,89.09090909,473.6181818,473.6181818,black,legacy,legacy,legacy,0,congruent,uniform,1,undefined,1,s,0,0,0,164,0,164,0,164,0,0,0,164,164,164,164,NA,NA,164,9/25/19 17:27,300,The main experiment item,yes,Week4submit.osexp,C:/Users/DLGoupil/Desktop,no,mono,no,18,no,white,no,yes,768,legacy,4,79,C:/Users/DLGoupil/Desktop/subject-3.csv,legacy,Kafkaesque Koffka,3.2.8,0,s,NA,s,h,s,s,NA,NA,453,NA,16298,875,712,453,NA,NA,2,legacy,1024,2,48000,-16,experiment,SSSSS,3,odd,18308,160044,301556,291009,2004,309057,NA,310662,2008,159167,300842,309561,310765,311220,310659,NA,NA,310765,Week4submit,147,78147,165,yes,1024
