"Stimulus","acc","accuracy","average_response_time","avg_rt","background","canvas_backend","clock_backend","color_backend","compensation","condition","coordinates","correct","correct_instructions1","correct_keyboard_response","correct_response","count_Block1","count_Block2","count_Block3","count_ISI","count_errorFeedback","count_experiment","count_faster","count_finish","count_fixation","count_instructions1","count_instructions2","count_instructions3","count_keyboard_response","count_logger","count_sequence","count_stimulus","datetime","deadline","description","disable_garbage_collection","experiment_file","experiment_path","font_bold","font_family","font_italic","font_size","font_underline","foreground","form_clicks","fullscreen","height","keyboard_backend","live_row","live_row_Block1","logfile","mouse_backend","new_column_1","opensesame_codename","opensesame_version","repeat_cycle","response","response_finish","response_instructions1","response_instructions2","response_instructions3","response_keyboard_response","response_time","response_time_finish","response_time_instructions1","response_time_instructions2","response_time_instructions3","response_time_keyboard_response","round_decimals","sampler_backend","sound_buf_size","sound_channels","sound_freq","sound_sample_size","start","stimulus","subject_nr","subject_parity","time_Block1","time_Block2","time_Block3","time_ISI","time_errorFeedback","time_experiment","time_faster","time_finish","time_fixation","time_instructions1","time_instructions2","time_instructions3","time_keyboard_response","time_logger","time_sequence","time_stimulus","title","total_correct","total_response_time","total_responses","uniform_coordinates","width"
"NA","0","0","1500","1500","black","legacy","legacy","legacy","0","congruent","uniform","0","undefined","0","h","0","0","0","0","0","0","0","0","0","0","0","0","0","0","0","0","Sat Sep 25 19:21:31 2021","1500","Flanker Task","yes","Flanker Task.osexp","C:\Users\rayra\Documents","no","mono","no","18","no","white","no","yes","768","legacy","0","0","C:/Users/rayra/Documents/subject-2.csv","legacy","NA","Lentiform Loewenfeld","3.3.9","0","None","NA","h","NA","NA","None","1500","NA","54996","NA","NA","1500","2","legacy","1024","2","48000","-16","experiment","HHHHH","2","even","58681","NA","NA","NA","NA","3680","NA","NA","58780","3684","NA","NA","58882","60382","58778","58882","Flanker Task","0","1500","1","yes","1024"
"NA","50","50","1263.5","1263.5","black","legacy","legacy","legacy","0","incongruent","uniform","1","undefined","1","h","0","0","0","1","1","0","1","0","1","0","0","0","1","1","1","1","Sat Sep 25 19:21:31 2021","1500","Flanker Task","yes","Flanker Task.osexp","C:\Users\rayra\Documents","no","mono","no","18","no","white","no","yes","768","legacy","1","1","C:/Users/rayra/Documents/subject-2.csv","legacy","NA","Lentiform Loewenfeld","3.3.9","0","h","NA","h","NA","NA","h","1027","NA","54996","NA","NA","1027","2","legacy","1024","2","48000","-16","experiment","SSHSS","2","even","58681","NA","NA","60896","60393","3680","NA","NA","62025","3684","NA","NA","62128","63156","62022","62128","Flanker Task","1","2527","2","yes","1024"
"NA","66.66666666666667","66.66666666666667","1094.6666666666667","1094.6666666666667","black","legacy","legacy","legacy","0","incongruent","uniform","1","undefined","1","s","0","0","0","2","2","0","2","0","2","0","0","0","2","2","2","2","Sat Sep 25 19:21:31 2021","1500","Flanker Task","yes","Flanker Task.osexp","C:\Users\rayra\Documents","no","mono","no","18","no","white","no","yes","768","legacy","2","2","C:/Users/rayra/Documents/subject-2.csv","legacy","NA","Lentiform Loewenfeld","3.3.9","0","s","NA","h","NA","NA","s","757","NA","54996","NA","NA","757","2","legacy","1024","2","48000","-16","experiment","HHSHH","2","even","58681","NA","NA","63163","60393","3680","NA","NA","64299","3684","NA","NA","64402","65160","64296","64402","Flanker Task","2","3284","3","yes","1024"
"NA","75","75","1013.5","1013.5","black","legacy","legacy","legacy","0","congruent","uniform","1","undefined","1","h","0","0","0","3","3","0","3","0","3","0","0","0","3","3","3","3","Sat Sep 25 19:21:31 2021","1500","Flanker Task","yes","Flanker Task.osexp","C:\Users\rayra\Documents","no","mono","no","18","no","white","no","yes","768","legacy","3","3","C:/Users/rayra/Documents/subject-2.csv","legacy","NA","Lentiform Loewenfeld","3.3.9","0","h","NA","h","NA","NA","h","770","NA","54996","NA","NA","770","2","legacy","1024","2","48000","-16","experiment","HHHHH","2","even","58681","NA","NA","65167","60393","3680","NA","NA","66288","3684","NA","NA","66391","67161","66285","66391","Flanker Task","3","4054","4","yes","1024"
"NA","80","80","960.4","960.4","black","legacy","legacy","legacy","0","incongruent","uniform","1","undefined","1","s","0","0","0","4","4","0","4","0","4","0","0","0","4","4","4","4","Sat Sep 25 19:21:31 2021","1500","Flanker Task","yes","Flanker Task.osexp","C:\Users\rayra\Documents","no","mono","no","18","no","white","no","yes","768","legacy","4","4","C:/Users/rayra/Documents/subject-2.csv","legacy","NA","Lentiform Loewenfeld","3.3.9","0","s","NA","h","NA","NA","s","748","NA","54996","NA","NA","748","2","legacy","1024","2","48000","-16","experiment","HHSHH","2","even","58681","NA","NA","67168","60393","3680","NA","NA","68278","3684","NA","NA","68381","69130","68276","68381","Flanker Task","4","4802","5","yes","1024"
"NA","83.33333333333333","83.33333333333333","917.6666666666666","917.6666666666666","black","legacy","legacy","legacy","0","incongruent","uniform","1","undefined","1","s","0","0","0","5","5","0","5","0","5","0","0","0","5","5","5","5","Sat Sep 25 19:21:31 2021","1500","Flanker Task","yes","Flanker Task.osexp","C:\Users\rayra\Documents","no","mono","no","18","no","white","no","yes","768","legacy","5","5","C:/Users/rayra/Documents/subject-2.csv","legacy","NA","Lentiform Loewenfeld","3.3.9","0","s","NA","h","NA","NA","s","704","NA","54996","NA","NA","704","2","legacy","1024","2","48000","-16","experiment","HHSHH","2","even","58681","NA","NA","69136","60393","3680","NA","NA","70279","3684","NA","NA","70382","71087","70276","70382","Flanker Task","5","5506","6","yes","1024"
"NA","85.71428571428571","85.71428571428571","875","875","black","legacy","legacy","legacy","0","incongruent","uniform","1","undefined","1","s","0","0","0","6","6","0","6","0","6","0","0","0","6","6","6","6","Sat Sep 25 19:21:31 2021","1500","Flanker Task","yes","Flanker Task.osexp","C:\Users\rayra\Documents","no","mono","no","18","no","white","no","yes","768","legacy","6","6","C:/Users/rayra/Documents/subject-2.csv","legacy","NA","Lentiform Loewenfeld","3.3.9","0","s","NA","h","NA","NA","s","619","NA","54996","NA","NA","619","2","legacy","1024","2","48000","-16","experiment","HHSHH","2","even","58681","NA","NA","71094","60393","3680","NA","NA","72225","3684","NA","NA","72329","72949","72221","72329","Flanker Task","6","6125","7","yes","1024"
"NA","87.5","87.5","882.875","882.875","black","legacy","legacy","legacy","0","congruent","uniform","1","undefined","1","s","0","0","0","7","7","0","7","0","7","0","0","0","7","7","7","7","Sat Sep 25 19:21:31 2021","1500","Flanker Task","yes","Flanker Task.osexp","C:\Users\rayra\Documents","no","mono","no","18","no","white","no","yes","768","legacy","7","7","C:/Users/rayra/Documents/subject-2.csv","legacy","NA","Lentiform Loewenfeld","3.3.9","0","s","NA","h","NA","NA","s","938","NA","54996","NA","NA","938","2","legacy","1024","2","48000","-16","experiment","SSSSS","2","even","58681","NA","NA","72957","60393","3680","NA","NA","74113","3684","NA","NA","74216","75154","74110","74216","Flanker Task","7","7063","8","yes","1024"
"NA","88.88888888888889","88.88888888888889","850.3333333333334","850.3333333333334","black","legacy","legacy","legacy","0","congruent","uniform","1","undefined","1","s","0","0","0","8","8","0","8","0","8","0","0","0","8","8","8","8","Sat Sep 25 19:21:31 2021","1500","Flanker Task","yes","Flanker Task.osexp","C:\Users\rayra\Documents","no","mono","no","18","no","white","no","yes","768","legacy","8","8","C:/Users/rayra/Documents/subject-2.csv","legacy","NA","Lentiform Loewenfeld","3.3.9","0","s","NA","h","NA","NA","s","590","NA","54996","NA","NA","590","2","legacy","1024","2","48000","-16","experiment","SSSSS","2","even","58681","NA","NA","75160","60393","3680","NA","NA","76272","3684","NA","NA","76375","76965","76269","76375","Flanker Task","8","7653","9","yes","1024"
"NA","90","90","818.4","818.4","black","legacy","legacy","legacy","0","incongruent","uniform","1","undefined","1","s","0","0","0","9","9","0","9","0","9","0","0","0","9","9","9","9","Sat Sep 25 19:21:31 2021","1500","Flanker Task","yes","Flanker Task.osexp","C:\Users\rayra\Documents","no","mono","no","18","no","white","no","yes","768","legacy","9","9","C:/Users/rayra/Documents/subject-2.csv","legacy","NA","Lentiform Loewenfeld","3.3.9","0","s","NA","h","NA","NA","s","531","NA","54996","NA","NA","531","2","legacy","1024","2","48000","-16","experiment","HHSHH","2","even","58681","NA","NA","76973","60393","3680","NA","NA","78112","3684","NA","NA","78216","78748","78109","78216","Flanker Task","9","8184","10","yes","1024"
"NA","90.9090909090909","90.9090909090909","806.8181818181819","806.8181818181819","black","legacy","legacy","legacy","0","incongruent","uniform","1","undefined","1","h","0","0","0","10","10","0","10","0","10","0","0","0","10","10","10","10","Sat Sep 25 19:21:31 2021","1500","Flanker Task","yes","Flanker Task.osexp","C:\Users\rayra\Documents","no","mono","no","18","no","white","no","yes","768","legacy","10","10","C:/Users/rayra/Documents/subject-2.csv","legacy","NA","Lentiform Loewenfeld","3.3.9","0","h","NA","h","NA","NA","h","691","NA","54996","NA","NA","691","2","legacy","1024","2","48000","-16","experiment","SSHSS","2","even","58681","NA","NA","78757","60393","3680","NA","NA","79902","3684","NA","NA","80006","80697","79899","80006","Flanker Task","10","8875","11","yes","1024"
"NA","91.66666666666667","91.66666666666667","797.1666666666666","797.1666666666666","black","legacy","legacy","legacy","0","incongruent","uniform","1","undefined","1","s","0","0","0","11","11","0","11","0","11","0","0","0","11","11","11","11","Sat Sep 25 19:21:31 2021","1500","Flanker Task","yes","Flanker Task.osexp","C:\Users\rayra\Documents","no","mono","no","18","no","white","no","yes","768","legacy","11","11","C:/Users/rayra/Documents/subject-2.csv","legacy","NA","Lentiform Loewenfeld","3.3.9","0","s","NA","h","NA","NA","s","691","NA","54996","NA","NA","691","2","legacy","1024","2","48000","-16","experiment","HHSHH","2","even","58681","NA","NA","80705","60393","3680","NA","NA","81858","3684","NA","NA","81961","82652","81854","81961","Flanker Task","11","9566","12","yes","1024"
"NA","92.3076923076923","92.3076923076923","784.6153846153846","784.6153846153846","black","legacy","legacy","legacy","0","congruent","uniform","1","undefined","1","h","0","0","0","12","12","0","12","0","12","0","0","0","12","12","12","12","Sat Sep 25 19:21:31 2021","1500","Flanker Task","yes","Flanker Task.osexp","C:\Users\rayra\Documents","no","mono","no","18","no","white","no","yes","768","legacy","12","12","C:/Users/rayra/Documents/subject-2.csv","legacy","NA","Lentiform Loewenfeld","3.3.9","0","h","NA","h","NA","NA","h","634","NA","54996","NA","NA","634","2","legacy","1024","2","48000","-16","experiment","HHHHH","2","even","58681","NA","NA","82659","60393","3680","NA","NA","83792","3684","NA","NA","83896","84531","83790","83896","Flanker Task","12","10200","13","yes","1024"
"NA","92.85714285714286","92.85714285714286","771.2857142857143","771.2857142857143","black","legacy","legacy","legacy","0","congruent","uniform","1","undefined","1","h","0","0","0","13","13","0","13","0","13","0","0","0","13","13","13","13","Sat Sep 25 19:21:31 2021","1500","Flanker Task","yes","Flanker Task.osexp","C:\Users\rayra\Documents","no","mono","no","18","no","white","no","yes","768","legacy","13","13","C:/Users/rayra/Documents/subject-2.csv","legacy","NA","Lentiform Loewenfeld","3.3.9","0","h","NA","h","NA","NA","h","598","NA","54996","NA","NA","598","2","legacy","1024","2","48000","-16","experiment","HHHHH","2","even","58681","NA","NA","84538","60393","3680","NA","NA","85671","3684","NA","NA","85775","86373","85668","85775","Flanker Task","13","10798","14","yes","1024"
"NA","93.33333333333333","93.33333333333333","764.0666666666667","764.0666666666667","black","legacy","legacy","legacy","0","incongruent","uniform","1","undefined","1","s","0","0","0","14","14","0","14","0","14","0","0","0","14","14","14","14","Sat Sep 25 19:21:31 2021","1500","Flanker Task","yes","Flanker Task.osexp","C:\Users\rayra\Documents","no","mono","no","18","no","white","no","yes","768","legacy","14","14","C:/Users/rayra/Documents/subject-2.csv","legacy","NA","Lentiform Loewenfeld","3.3.9","0","s","NA","h","NA","NA","s","663","NA","54996","NA","NA","663","2","legacy","1024","2","48000","-16","experiment","HHSHH","2","even","58681","NA","NA","86381","60393","3680","NA","NA","87523","3684","NA","NA","87627","88291","87520","87627","Flanker Task","14","11461","15","yes","1024"
"NA","93.75","93.75","754.875","754.875","black","legacy","legacy","legacy","0","incongruent","uniform","1","undefined","1","s","0","0","0","15","15","0","15","0","15","0","0","0","15","15","15","15","Sat Sep 25 19:21:31 2021","1500","Flanker Task","yes","Flanker Task.osexp","C:\Users\rayra\Documents","no","mono","no","18","no","white","no","yes","768","legacy","15","15","C:/Users/rayra/Documents/subject-2.csv","legacy","NA","Lentiform Loewenfeld","3.3.9","0","s","NA","h","NA","NA","s","617","NA","54996","NA","NA","617","2","legacy","1024","2","48000","-16","experiment","HHSHH","2","even","58681","NA","NA","88299","60393","3680","NA","NA","89460","3684","NA","NA","89564","90182","89458","89564","Flanker Task","15","12078","16","yes","1024"
"NA","94.11764705882354","94.11764705882354","754.7058823529412","754.7058823529412","black","legacy","legacy","legacy","0","incongruent","uniform","1","undefined","1","h","0","0","0","16","16","0","16","0","16","0","0","0","16","16","16","16","Sat Sep 25 19:21:31 2021","1500","Flanker Task","yes","Flanker Task.osexp","C:\Users\rayra\Documents","no","mono","no","18","no","white","no","yes","768","legacy","16","16","C:/Users/rayra/Documents/subject-2.csv","legacy","NA","Lentiform Loewenfeld","3.3.9","0","h","NA","h","NA","NA","h","752","NA","54996","NA","NA","752","2","legacy","1024","2","48000","-16","experiment","SSHSS","2","even","58681","NA","NA","90188","60393","3680","NA","NA","91329","3684","NA","NA","91432","92184","91326","91432","Flanker Task","16","12830","17","yes","1024"
"NA","94.44444444444444","94.44444444444444","747.9444444444445","747.9444444444445","black","legacy","legacy","legacy","0","incongruent","uniform","1","undefined","1","h","0","0","0","17","17","0","17","0","17","0","0","0","17","17","17","17","Sat Sep 25 19:21:31 2021","1500","Flanker Task","yes","Flanker Task.osexp","C:\Users\rayra\Documents","no","mono","no","18","no","white","no","yes","768","legacy","17","17","C:/Users/rayra/Documents/subject-2.csv","legacy","NA","Lentiform Loewenfeld","3.3.9","0","h","NA","h","NA","NA","h","633","NA","54996","NA","NA","633","2","legacy","1024","2","48000","-16","experiment","SSHSS","2","even","58681","NA","NA","92192","60393","3680","NA","NA","93299","3684","NA","NA","93402","94036","93296","93402","Flanker Task","17","13463","18","yes","1024"
"NA","94.73684210526316","94.73684210526316","751.1052631578947","751.1052631578947","black","legacy","legacy","legacy","0","congruent","uniform","1","undefined","1","h","0","0","0","18","18","0","18","0","18","0","0","0","18","18","18","18","Sat Sep 25 19:21:31 2021","1500","Flanker Task","yes","Flanker Task.osexp","C:\Users\rayra\Documents","no","mono","no","18","no","white","no","yes","768","legacy","18","18","C:/Users/rayra/Documents/subject-2.csv","legacy","NA","Lentiform Loewenfeld","3.3.9","0","h","NA","h","NA","NA","h","808","NA","54996","NA","NA","808","2","legacy","1024","2","48000","-16","experiment","HHHHH","2","even","58681","NA","NA","94044","60393","3680","NA","NA","95183","3684","NA","NA","95287","96096","95180","95287","Flanker Task","18","14271","19","yes","1024"
"NA","95","95","743.25","743.25","black","legacy","legacy","legacy","0","congruent","uniform","1","undefined","1","h","0","0","0","19","19","0","19","0","19","0","0","0","19","19","19","19","Sat Sep 25 19:21:31 2021","1500","Flanker Task","yes","Flanker Task.osexp","C:\Users\rayra\Documents","no","mono","no","18","no","white","no","yes","768","legacy","19","19","C:/Users/rayra/Documents/subject-2.csv","legacy","NA","Lentiform Loewenfeld","3.3.9","0","h","NA","h","NA","NA","h","594","NA","54996","NA","NA","594","2","legacy","1024","2","48000","-16","experiment","HHHHH","2","even","58681","NA","NA","96104","60393","3680","NA","NA","97247","3684","NA","NA","97350","97944","97244","97350","Flanker Task","19","14865","20","yes","1024"
"NA","95.23809523809524","95.23809523809524","744.047619047619","744.047619047619","black","legacy","legacy","legacy","0","incongruent","uniform","1","undefined","1","s","0","0","0","20","20","0","20","0","20","0","0","0","20","20","20","20","Sat Sep 25 19:21:31 2021","1500","Flanker Task","yes","Flanker Task.osexp","C:\Users\rayra\Documents","no","mono","no","18","no","white","no","yes","768","legacy","20","20","C:/Users/rayra/Documents/subject-2.csv","legacy","NA","Lentiform Loewenfeld","3.3.9","0","s","NA","h","NA","NA","s","760","NA","54996","NA","NA","760","2","legacy","1024","2","48000","-16","experiment","HHSHH","2","even","58681","NA","NA","97953","60393","3680","NA","NA","99069","3684","NA","NA","99171","99931","99066","99171","Flanker Task","20","15625","21","yes","1024"
"NA","95.45454545454545","95.45454545454545","737.4545454545455","737.4545454545455","black","legacy","legacy","legacy","0","incongruent","uniform","1","undefined","1","s","0","0","0","21","21","0","21","0","21","0","0","0","21","21","21","21","Sat Sep 25 19:21:31 2021","1500","Flanker Task","yes","Flanker Task.osexp","C:\Users\rayra\Documents","no","mono","no","18","no","white","no","yes","768","legacy","21","21","C:/Users/rayra/Documents/subject-2.csv","legacy","NA","Lentiform Loewenfeld","3.3.9","0","s","NA","h","NA","NA","s","599","NA","54996","NA","NA","599","2","legacy","1024","2","48000","-16","experiment","HHSHH","2","even","58681","NA","NA","99939","60393","3680","NA","NA","101057","3684","NA","NA","101161","101761","101054","101160","Flanker Task","21","16224","22","yes","1024"
"NA","95.65217391304348","95.65217391304348","733.5217391304348","733.5217391304348","black","legacy","legacy","legacy","0","congruent","uniform","1","undefined","1","s","0","0","0","22","22","0","22","0","22","0","0","0","22","22","22","22","Sat Sep 25 19:21:31 2021","1500","Flanker Task","yes","Flanker Task.osexp","C:\Users\rayra\Documents","no","mono","no","18","no","white","no","yes","768","legacy","22","22","C:/Users/rayra/Documents/subject-2.csv","legacy","NA","Lentiform Loewenfeld","3.3.9","0","s","NA","h","NA","NA","s","647","NA","54996","NA","NA","647","2","legacy","1024","2","48000","-16","experiment","SSSSS","2","even","58681","NA","NA","101770","60393","3680","NA","NA","102918","3684","NA","NA","103021","103668","102916","103021","Flanker Task","22","16871","23","yes","1024"
"NA","95.83333333333333","95.83333333333333","723.8333333333334","723.8333333333334","black","legacy","legacy","legacy","0","congruent","uniform","1","undefined","1","h","0","0","0","23","23","0","23","0","23","0","0","0","23","23","23","23","Sat Sep 25 19:21:31 2021","1500","Flanker Task","yes","Flanker Task.osexp","C:\Users\rayra\Documents","no","mono","no","18","no","white","no","yes","768","legacy","23","23","C:/Users/rayra/Documents/subject-2.csv","legacy","NA","Lentiform Loewenfeld","3.3.9","0","h","NA","h","NA","NA","h","501","NA","54996","NA","NA","501","2","legacy","1024","2","48000","-16","experiment","HHHHH","2","even","58681","NA","NA","103676","60393","3680","NA","NA","104830","3684","NA","NA","104933","105435","104828","104933","Flanker Task","23","17372","24","yes","1024"
"NA","96","96","718.48","718.48","black","legacy","legacy","legacy","0","incongruent","uniform","1","undefined","1","h","0","0","0","24","24","0","24","0","24","0","0","0","24","24","24","24","Sat Sep 25 19:21:31 2021","1500","Flanker Task","yes","Flanker Task.osexp","C:\Users\rayra\Documents","no","mono","no","18","no","white","no","yes","768","legacy","24","24","C:/Users/rayra/Documents/subject-2.csv","legacy","NA","Lentiform Loewenfeld","3.3.9","0","h","NA","h","NA","NA","h","590","NA","54996","NA","NA","590","2","legacy","1024","2","48000","-16","experiment","SSHSS","2","even","58681","NA","NA","105443","60393","3680","NA","NA","106564","3684","NA","NA","106667","107258","106561","106667","Flanker Task","24","17962","25","yes","1024"
"NA","96.15384615384616","96.15384615384616","713.9615384615385","713.9615384615385","black","legacy","legacy","legacy","0","congruent","uniform","1","undefined","1","s","0","0","0","25","25","0","25","0","25","0","0","0","25","25","25","25","Sat Sep 25 19:21:31 2021","1500","Flanker Task","yes","Flanker Task.osexp","C:\Users\rayra\Documents","no","mono","no","18","no","white","no","yes","768","legacy","25","25","C:/Users/rayra/Documents/subject-2.csv","legacy","NA","Lentiform Loewenfeld","3.3.9","0","s","NA","h","NA","NA","s","601","NA","54996","NA","NA","601","2","legacy","1024","2","48000","-16","experiment","SSSSS","2","even","58681","NA","NA","107267","60393","3680","NA","NA","108413","3684","NA","NA","108516","109118","108410","108516","Flanker Task","25","18563","26","yes","1024"
"NA","96.29629629629629","96.29629629629629","714.2222222222222","714.2222222222222","black","legacy","legacy","legacy","0","incongruent","uniform","1","undefined","1","s","0","0","0","26","26","0","26","0","26","0","0","0","26","26","26","26","Sat Sep 25 19:21:31 2021","1500","Flanker Task","yes","Flanker Task.osexp","C:\Users\rayra\Documents","no","mono","no","18","no","white","no","yes","768","legacy","26","26","C:/Users/rayra/Documents/subject-2.csv","legacy","NA","Lentiform Loewenfeld","3.3.9","0","s","NA","h","NA","NA","s","721","NA","54996","NA","NA","721","2","legacy","1024","2","48000","-16","experiment","HHSHH","2","even","58681","NA","NA","109125","60393","3680","NA","NA","110250","3684","NA","NA","110353","111074","110248","110353","Flanker Task","26","19284","27","yes","1024"
"NA","96.42857142857143","96.42857142857143","708.7142857142857","708.7142857142857","black","legacy","legacy","legacy","0","congruent","uniform","1","undefined","1","s","0","0","0","27","27","0","27","0","27","0","0","0","27","27","27","27","Sat Sep 25 19:21:31 2021","1500","Flanker Task","yes","Flanker Task.osexp","C:\Users\rayra\Documents","no","mono","no","18","no","white","no","yes","768","legacy","27","27","C:/Users/rayra/Documents/subject-2.csv","legacy","NA","Lentiform Loewenfeld","3.3.9","0","s","NA","h","NA","NA","s","560","NA","54996","NA","NA","560","2","legacy","1024","2","48000","-16","experiment","SSSSS","2","even","58681","NA","NA","111082","60393","3680","NA","NA","112214","3684","NA","NA","112317","112878","112210","112317","Flanker Task","27","19844","28","yes","1024"
"NA","96.55172413793103","96.55172413793103","702.0689655172414","702.0689655172414","black","legacy","legacy","legacy","0","congruent","uniform","1","undefined","1","s","0","0","0","28","28","0","28","0","28","0","0","0","28","28","28","28","Sat Sep 25 19:21:31 2021","1500","Flanker Task","yes","Flanker Task.osexp","C:\Users\rayra\Documents","no","mono","no","18","no","white","no","yes","768","legacy","28","28","C:/Users/rayra/Documents/subject-2.csv","legacy","NA","Lentiform Loewenfeld","3.3.9","0","s","NA","h","NA","NA","s","516","NA","54996","NA","NA","516","2","legacy","1024","2","48000","-16","experiment","SSSSS","2","even","58681","NA","NA","112886","60393","3680","NA","NA","114024","3684","NA","NA","114128","114645","114021","114128","Flanker Task","28","20360","29","yes","1024"
"NA","96.66666666666667","96.66666666666667","695.4333333333333","695.4333333333333","black","legacy","legacy","legacy","0","congruent","uniform","1","undefined","1","s","0","0","0","29","29","0","29","0","29","0","0","0","29","29","29","29","Sat Sep 25 19:21:31 2021","1500","Flanker Task","yes","Flanker Task.osexp","C:\Users\rayra\Documents","no","mono","no","18","no","white","no","yes","768","legacy","29","29","C:/Users/rayra/Documents/subject-2.csv","legacy","NA","Lentiform Loewenfeld","3.3.9","0","s","NA","h","NA","NA","s","503","NA","54996","NA","NA","503","2","legacy","1024","2","48000","-16","experiment","SSSSS","2","even","58681","NA","NA","114654","60393","3680","NA","NA","115797","3684","NA","NA","115901","116405","115795","115901","Flanker Task","29","20863","30","yes","1024"
"NA","96.7741935483871","96.7741935483871","693.2903225806451","693.2903225806451","black","legacy","legacy","legacy","0","incongruent","uniform","1","undefined","1","h","0","0","0","30","30","0","30","0","30","0","0","0","30","30","30","30","Sat Sep 25 19:21:31 2021","1500","Flanker Task","yes","Flanker Task.osexp","C:\Users\rayra\Documents","no","mono","no","18","no","white","no","yes","768","legacy","30","30","C:/Users/rayra/Documents/subject-2.csv","legacy","NA","Lentiform Loewenfeld","3.3.9","0","h","NA","h","NA","NA","h","629","NA","54996","NA","NA","629","2","legacy","1024","2","48000","-16","experiment","SSHSS","2","even","58681","NA","NA","116413","60393","3680","NA","NA","117575","3684","NA","NA","117679","118309","117572","117679","Flanker Task","30","21492","31","yes","1024"
"NA","96.875","96.875","689.34375","689.34375","black","legacy","legacy","legacy","0","congruent","uniform","1","undefined","1","h","0","0","0","31","31","0","31","0","31","0","0","0","31","31","31","31","Sat Sep 25 19:21:31 2021","1500","Flanker Task","yes","Flanker Task.osexp","C:\Users\rayra\Documents","no","mono","no","18","no","white","no","yes","768","legacy","31","31","C:/Users/rayra/Documents/subject-2.csv","legacy","NA","Lentiform Loewenfeld","3.3.9","0","h","NA","h","NA","NA","h","567","NA","54996","NA","NA","567","2","legacy","1024","2","48000","-16","experiment","HHHHH","2","even","58681","NA","NA","118317","60393","3680","NA","NA","119447","3684","NA","NA","119551","120119","119444","119551","Flanker Task","31","22059","32","yes","1024"
"NA","96.96969696969697","96.96969696969697","686.9090909090909","686.9090909090909","black","legacy","legacy","legacy","0","congruent","uniform","1","undefined","1","s","0","0","0","32","32","0","32","0","32","0","0","0","32","32","32","32","Sat Sep 25 19:21:31 2021","1500","Flanker Task","yes","Flanker Task.osexp","C:\Users\rayra\Documents","no","mono","no","18","no","white","no","yes","768","legacy","32","32","C:/Users/rayra/Documents/subject-2.csv","legacy","NA","Lentiform Loewenfeld","3.3.9","0","s","NA","h","NA","NA","s","609","NA","54996","NA","NA","609","2","legacy","1024","2","48000","-16","experiment","SSSSS","2","even","58681","NA","NA","120126","60393","3680","NA","NA","121275","3684","NA","NA","121378","121987","121272","121378","Flanker Task","32","22668","33","yes","1024"
"NA","97.05882352941177","97.05882352941177","687.3529411764706","687.3529411764706","black","legacy","legacy","legacy","0","congruent","uniform","1","undefined","1","s","0","0","0","33","33","0","33","0","33","0","0","0","33","33","33","33","Sat Sep 25 19:21:31 2021","1500","Flanker Task","yes","Flanker Task.osexp","C:\Users\rayra\Documents","no","mono","no","18","no","white","no","yes","768","legacy","33","33","C:/Users/rayra/Documents/subject-2.csv","legacy","NA","Lentiform Loewenfeld","3.3.9","0","s","NA","h","NA","NA","s","702","NA","54996","NA","NA","702","2","legacy","1024","2","48000","-16","experiment","SSSSS","2","even","58681","NA","NA","121994","60393","3680","NA","NA","123138","3684","NA","NA","123242","123945","123136","123242","Flanker Task","33","23370","34","yes","1024"
"NA","97.14285714285714","97.14285714285714","683.4571428571429","683.4571428571429","black","legacy","legacy","legacy","0","congruent","uniform","1","undefined","1","h","0","0","0","34","34","0","34","0","34","0","0","0","34","34","34","34","Sat Sep 25 19:21:31 2021","1500","Flanker Task","yes","Flanker Task.osexp","C:\Users\rayra\Documents","no","mono","no","18","no","white","no","yes","768","legacy","34","34","C:/Users/rayra/Documents/subject-2.csv","legacy","NA","Lentiform Loewenfeld","3.3.9","0","h","NA","h","NA","NA","h","551","NA","54996","NA","NA","551","2","legacy","1024","2","48000","-16","experiment","HHHHH","2","even","58681","NA","NA","123955","60393","3680","NA","NA","125117","3684","NA","NA","125221","125773","125114","125221","Flanker Task","34","23921","35","yes","1024"
"NA","97.22222222222223","97.22222222222223","685.7222222222222","685.7222222222222","black","legacy","legacy","legacy","0","incongruent","uniform","1","undefined","1","h","0","0","0","35","35","0","35","0","35","0","0","0","35","35","35","35","Sat Sep 25 19:21:31 2021","1500","Flanker Task","yes","Flanker Task.osexp","C:\Users\rayra\Documents","no","mono","no","18","no","white","no","yes","768","legacy","35","35","C:/Users/rayra/Documents/subject-2.csv","legacy","NA","Lentiform Loewenfeld","3.3.9","0","h","NA","h","NA","NA","h","765","NA","54996","NA","NA","765","2","legacy","1024","2","48000","-16","experiment","SSHSS","2","even","58681","NA","NA","125782","60393","3680","NA","NA","126906","3684","NA","NA","127011","127777","126903","127011","Flanker Task","35","24686","36","yes","1024"
"NA","97.29729729729729","97.29729729729729","682.1081081081081","682.1081081081081","black","legacy","legacy","legacy","0","congruent","uniform","1","undefined","1","s","0","0","0","36","36","0","36","0","36","0","0","0","36","36","36","36","Sat Sep 25 19:21:31 2021","1500","Flanker Task","yes","Flanker Task.osexp","C:\Users\rayra\Documents","no","mono","no","18","no","white","no","yes","768","legacy","36","36","C:/Users/rayra/Documents/subject-2.csv","legacy","NA","Lentiform Loewenfeld","3.3.9","0","s","NA","h","NA","NA","s","552","NA","54996","NA","NA","552","2","legacy","1024","2","48000","-16","experiment","SSSSS","2","even","58681","NA","NA","127785","60393","3680","NA","NA","128948","3684","NA","NA","129051","129604","128945","129051","Flanker Task","36","25238","37","yes","1024"
"NA","97.36842105263158","97.36842105263158","680.578947368421","680.578947368421","black","legacy","legacy","legacy","0","congruent","uniform","1","undefined","1","s","0","0","0","37","37","0","37","0","37","0","0","0","37","37","37","37","Sat Sep 25 19:21:31 2021","1500","Flanker Task","yes","Flanker Task.osexp","C:\Users\rayra\Documents","no","mono","no","18","no","white","no","yes","768","legacy","37","37","C:/Users/rayra/Documents/subject-2.csv","legacy","NA","Lentiform Loewenfeld","3.3.9","0","s","NA","h","NA","NA","s","624","NA","54996","NA","NA","624","2","legacy","1024","2","48000","-16","experiment","SSSSS","2","even","58681","NA","NA","129610","60393","3680","NA","NA","130722","3684","NA","NA","130825","131450","130719","130825","Flanker Task","37","25862","38","yes","1024"
"NA","97.43589743589743","97.43589743589743","679.2564102564103","679.2564102564103","black","legacy","legacy","legacy","0","congruent","uniform","1","undefined","1","s","0","0","0","38","38","0","38","0","38","0","0","0","38","38","38","38","Sat Sep 25 19:21:31 2021","1500","Flanker Task","yes","Flanker Task.osexp","C:\Users\rayra\Documents","no","mono","no","18","no","white","no","yes","768","legacy","38","38","C:/Users/rayra/Documents/subject-2.csv","legacy","NA","Lentiform Loewenfeld","3.3.9","0","s","NA","h","NA","NA","s","629","NA","54996","NA","NA","629","2","legacy","1024","2","48000","-16","experiment","SSSSS","2","even","58681","NA","NA","131458","60393","3680","NA","NA","132587","3684","NA","NA","132691","133322","132585","132690","Flanker Task","38","26491","39","yes","1024"
"NA","97.5","97.5","676.2","676.2","black","legacy","legacy","legacy","0","congruent","uniform","1","undefined","1","h","0","0","0","39","39","0","39","0","39","0","0","0","39","39","39","39","Sat Sep 25 19:21:31 2021","1500","Flanker Task","yes","Flanker Task.osexp","C:\Users\rayra\Documents","no","mono","no","18","no","white","no","yes","768","legacy","39","39","C:/Users/rayra/Documents/subject-2.csv","legacy","NA","Lentiform Loewenfeld","3.3.9","0","h","NA","h","NA","NA","h","557","NA","54996","NA","NA","557","2","legacy","1024","2","48000","-16","experiment","HHHHH","2","even","58681","NA","NA","133330","60393","3680","NA","NA","134450","3684","NA","NA","134553","135111","134447","134553","Flanker Task","39","27048","40","yes","1024"
"NA","97.5609756097561","97.5609756097561","674.6829268292682","674.6829268292682","black","legacy","legacy","legacy","0","incongruent","uniform","1","undefined","1","s","0","0","0","40","40","0","40","0","40","0","0","0","40","40","40","40","Sat Sep 25 19:21:31 2021","1500","Flanker Task","yes","Flanker Task.osexp","C:\Users\rayra\Documents","no","mono","no","18","no","white","no","yes","768","legacy","40","40","C:/Users/rayra/Documents/subject-2.csv","legacy","NA","Lentiform Loewenfeld","3.3.9","0","s","NA","h","NA","NA","s","614","NA","54996","NA","NA","614","2","legacy","1024","2","48000","-16","experiment","HHSHH","2","even","58681","NA","NA","135119","60393","3680","NA","NA","136272","3684","NA","NA","136375","136990","136269","136375","Flanker Task","40","27662","41","yes","1024"
"NA","97.61904761904762","97.61904761904762","672.3095238095239","672.3095238095239","black","legacy","legacy","legacy","0","congruent","uniform","1","undefined","1","h","0","0","0","41","41","0","41","0","41","0","0","0","41","41","41","41","Sat Sep 25 19:21:31 2021","1500","Flanker Task","yes","Flanker Task.osexp","C:\Users\rayra\Documents","no","mono","no","18","no","white","no","yes","768","legacy","41","41","C:/Users/rayra/Documents/subject-2.csv","legacy","NA","Lentiform Loewenfeld","3.3.9","0","h","NA","h","NA","NA","h","575","NA","54996","NA","NA","575","2","legacy","1024","2","48000","-16","experiment","HHHHH","2","even","58681","NA","NA","136999","60393","3680","NA","NA","138133","3684","NA","NA","138238","138815","138131","138237","Flanker Task","41","28237","42","yes","1024"
"NA","97.67441860465117","97.67441860465117","672.7441860465116","672.7441860465116","black","legacy","legacy","legacy","0","incongruent","uniform","1","undefined","1","h","0","0","0","42","42","0","42","0","42","0","0","0","42","42","42","42","Sat Sep 25 19:21:31 2021","1500","Flanker Task","yes","Flanker Task.osexp","C:\Users\rayra\Documents","no","mono","no","18","no","white","no","yes","768","legacy","42","42","C:/Users/rayra/Documents/subject-2.csv","legacy","NA","Lentiform Loewenfeld","3.3.9","0","h","NA","h","NA","NA","h","691","NA","54996","NA","NA","691","2","legacy","1024","2","48000","-16","experiment","SSHSS","2","even","58681","NA","NA","138823","60393","3680","NA","NA","139988","3684","NA","NA","140092","140784","139983","140092","Flanker Task","42","28928","43","yes","1024"
"NA","97.72727272727273","97.72727272727273","671.0227272727273","671.0227272727273","black","legacy","legacy","legacy","0","incongruent","uniform","1","undefined","1","h","0","0","0","43","43","0","43","0","43","0","0","0","43","43","43","43","Sat Sep 25 19:21:31 2021","1500","Flanker Task","yes","Flanker Task.osexp","C:\Users\rayra\Documents","no","mono","no","18","no","white","no","yes","768","legacy","43","43","C:/Users/rayra/Documents/subject-2.csv","legacy","NA","Lentiform Loewenfeld","3.3.9","0","h","NA","h","NA","NA","h","597","NA","54996","NA","NA","597","2","legacy","1024","2","48000","-16","experiment","SSHSS","2","even","58681","NA","NA","140792","60393","3680","NA","NA","141929","3684","NA","NA","142032","142630","141926","142032","Flanker Task","43","29525","44","yes","1024"
"NA","97.77777777777777","97.77777777777777","667.6","667.6","black","legacy","legacy","legacy","0","incongruent","uniform","1","undefined","1","h","0","0","0","44","44","0","44","0","44","0","0","0","44","44","44","44","Sat Sep 25 19:21:31 2021","1500","Flanker Task","yes","Flanker Task.osexp","C:\Users\rayra\Documents","no","mono","no","18","no","white","no","yes","768","legacy","44","44","C:/Users/rayra/Documents/subject-2.csv","legacy","NA","Lentiform Loewenfeld","3.3.9","0","h","NA","h","NA","NA","h","517","NA","54996","NA","NA","517","2","legacy","1024","2","48000","-16","experiment","SSHSS","2","even","58681","NA","NA","142638","60393","3680","NA","NA","143783","3684","NA","NA","143886","144405","143781","143886","Flanker Task","44","30042","45","yes","1024"
"NA","97.82608695652173","97.82608695652173","665.0434782608696","665.0434782608696","black","legacy","legacy","legacy","0","congruent","uniform","1","undefined","1","h","0","0","0","45","45","0","45","0","45","0","0","0","45","45","45","45","Sat Sep 25 19:21:31 2021","1500","Flanker Task","yes","Flanker Task.osexp","C:\Users\rayra\Documents","no","mono","no","18","no","white","no","yes","768","legacy","45","45","C:/Users/rayra/Documents/subject-2.csv","legacy","NA","Lentiform Loewenfeld","3.3.9","0","h","NA","h","NA","NA","h","550","NA","54996","NA","NA","550","2","legacy","1024","2","48000","-16","experiment","HHHHH","2","even","58681","NA","NA","144413","60393","3680","NA","NA","145549","3684","NA","NA","145653","146204","145546","145653","Flanker Task","45","30592","46","yes","1024"
"NA","97.87234042553192","97.87234042553192","662.936170212766","662.936170212766","black","legacy","legacy","legacy","0","incongruent","uniform","1","undefined","1","h","0","0","0","46","46","0","46","0","46","0","0","0","46","46","46","46","Sat Sep 25 19:21:31 2021","1500","Flanker Task","yes","Flanker Task.osexp","C:\Users\rayra\Documents","no","mono","no","18","no","white","no","yes","768","legacy","46","46","C:/Users/rayra/Documents/subject-2.csv","legacy","NA","Lentiform Loewenfeld","3.3.9","0","h","NA","h","NA","NA","h","566","NA","54996","NA","NA","566","2","legacy","1024","2","48000","-16","experiment","SSHSS","2","even","58681","NA","NA","146213","60393","3680","NA","NA","147337","3684","NA","NA","147441","148008","147335","147441","Flanker Task","46","31158","47","yes","1024"
"NA","97.91666666666667","97.91666666666667","659.3958333333334","659.3958333333334","black","legacy","legacy","legacy","0","incongruent","uniform","1","undefined","1","h","0","0","0","47","47","0","47","0","47","0","0","0","47","47","47","47","Sat Sep 25 19:21:31 2021","1500","Flanker Task","yes","Flanker Task.osexp","C:\Users\rayra\Documents","no","mono","no","18","no","white","no","yes","768","legacy","47","47","C:/Users/rayra/Documents/subject-2.csv","legacy","NA","Lentiform Loewenfeld","3.3.9","0","h","NA","h","NA","NA","h","493","NA","54996","NA","NA","493","2","legacy","1024","2","48000","-16","experiment","SSHSS","2","even","58681","NA","NA","148018","60393","3680","NA","NA","149148","3684","NA","NA","149252","149748","149145","149252","Flanker Task","47","31651","48","yes","1024"
"NA","97.95918367346938","97.95918367346938","655.9387755102041","655.9387755102041","black","legacy","legacy","legacy","0","congruent","uniform","1","undefined","1","s","0","0","0","48","48","0","48","0","48","0","0","0","48","48","48","48","Sat Sep 25 19:21:31 2021","1500","Flanker Task","yes","Flanker Task.osexp","C:\Users\rayra\Documents","no","mono","no","18","no","white","no","yes","768","legacy","48","48","C:/Users/rayra/Documents/subject-2.csv","legacy","NA","Lentiform Loewenfeld","3.3.9","0","s","NA","h","NA","NA","s","490","NA","54996","NA","NA","490","2","legacy","1024","2","48000","-16","experiment","SSSSS","2","even","58681","NA","NA","149758","60393","3680","NA","NA","150895","3684","NA","NA","150999","151490","150892","150998","Flanker Task","48","32141","49","yes","1024"
"NA","98","98","654.26","654.26","black","legacy","legacy","legacy","0","incongruent","uniform","1","undefined","1","s","0","0","0","49","49","0","49","0","49","0","0","0","49","49","49","49","Sat Sep 25 19:21:31 2021","1500","Flanker Task","yes","Flanker Task.osexp","C:\Users\rayra\Documents","no","mono","no","18","no","white","no","yes","768","legacy","49","49","C:/Users/rayra/Documents/subject-2.csv","legacy","NA","Lentiform Loewenfeld","3.3.9","0","s","NA","h","NA","NA","s","572","NA","54996","NA","NA","572","2","legacy","1024","2","48000","-16","experiment","HHSHH","2","even","58681","NA","NA","151499","60393","3680","NA","NA","152654","3684","NA","NA","152758","153333","152651","152758","Flanker Task","49","32713","50","yes","1024"
"NA","98.03921568627452","98.03921568627452","653.6078431372549","653.6078431372549","black","legacy","legacy","legacy","0","incongruent","uniform","1","undefined","1","h","0","0","0","50","50","0","50","0","50","0","0","0","50","50","50","50","Sat Sep 25 19:21:31 2021","1500","Flanker Task","yes","Flanker Task.osexp","C:\Users\rayra\Documents","no","mono","no","18","no","white","no","yes","768","legacy","50","50","C:/Users/rayra/Documents/subject-2.csv","legacy","NA","Lentiform Loewenfeld","3.3.9","0","h","NA","h","NA","NA","h","621","NA","54996","NA","NA","621","2","legacy","1024","2","48000","-16","experiment","SSHSS","2","even","58681","NA","NA","153340","60393","3680","NA","NA","154478","3684","NA","NA","154582","155205","154475","154582","Flanker Task","50","33334","51","yes","1024"
"NA","98.07692307692308","98.07692307692308","653.6538461538462","653.6538461538462","black","legacy","legacy","legacy","0","incongruent","uniform","1","undefined","1","s","0","0","0","51","51","0","51","0","51","0","0","0","51","51","51","51","Sat Sep 25 19:21:31 2021","1500","Flanker Task","yes","Flanker Task.osexp","C:\Users\rayra\Documents","no","mono","no","18","no","white","no","yes","768","legacy","51","51","C:/Users/rayra/Documents/subject-2.csv","legacy","NA","Lentiform Loewenfeld","3.3.9","0","s","NA","h","NA","NA","s","656","NA","54996","NA","NA","656","2","legacy","1024","2","48000","-16","experiment","HHSHH","2","even","58681","NA","NA","155212","60393","3680","NA","NA","156343","3684","NA","NA","156447","157104","156340","156447","Flanker Task","51","33990","52","yes","1024"
"NA","98.11320754716981","98.11320754716981","652.9811320754717","652.9811320754717","black","legacy","legacy","legacy","0","congruent","uniform","1","undefined","1","s","0","0","0","52","52","0","52","0","52","0","0","0","52","52","52","52","Sat Sep 25 19:21:31 2021","1500","Flanker Task","yes","Flanker Task.osexp","C:\Users\rayra\Documents","no","mono","no","18","no","white","no","yes","768","legacy","52","52","C:/Users/rayra/Documents/subject-2.csv","legacy","NA","Lentiform Loewenfeld","3.3.9","0","s","NA","h","NA","NA","s","618","NA","54996","NA","NA","618","2","legacy","1024","2","48000","-16","experiment","SSSSS","2","even","58681","NA","NA","157111","60393","3680","NA","NA","158255","3684","NA","NA","158359","158979","158252","158358","Flanker Task","52","34608","53","yes","1024"
"NA","98.14814814814815","98.14814814814815","652.1111111111111","652.1111111111111","black","legacy","legacy","legacy","0","congruent","uniform","1","undefined","1","s","0","0","0","53","53","0","53","0","53","0","0","0","53","53","53","53","Sat Sep 25 19:21:31 2021","1500","Flanker Task","yes","Flanker Task.osexp","C:\Users\rayra\Documents","no","mono","no","18","no","white","no","yes","768","legacy","53","53","C:/Users/rayra/Documents/subject-2.csv","legacy","NA","Lentiform Loewenfeld","3.3.9","0","s","NA","h","NA","NA","s","606","NA","54996","NA","NA","606","2","legacy","1024","2","48000","-16","experiment","SSSSS","2","even","58681","NA","NA","158986","60393","3680","NA","NA","160144","3684","NA","NA","160248","160854","160141","160248","Flanker Task","53","35214","54","yes","1024"
"NA","98.18181818181819","98.18181818181819","649.9818181818182","649.9818181818182","black","legacy","legacy","legacy","0","congruent","uniform","1","undefined","1","h","0","0","0","54","54","0","54","0","54","0","0","0","54","54","54","54","Sat Sep 25 19:21:31 2021","1500","Flanker Task","yes","Flanker Task.osexp","C:\Users\rayra\Documents","no","mono","no","18","no","white","no","yes","768","legacy","54","54","C:/Users/rayra/Documents/subject-2.csv","legacy","NA","Lentiform Loewenfeld","3.3.9","0","h","NA","h","NA","NA","h","535","NA","54996","NA","NA","535","2","legacy","1024","2","48000","-16","experiment","HHHHH","2","even","58681","NA","NA","160863","60393","3680","NA","NA","162011","3684","NA","NA","162115","162651","162009","162115","Flanker Task","54","35749","55","yes","1024"
"NA","98.21428571428571","98.21428571428571","647.75","647.75","black","legacy","legacy","legacy","0","incongruent","uniform","1","undefined","1","h","0","0","0","55","55","0","55","0","55","0","0","0","55","55","55","55","Sat Sep 25 19:21:31 2021","1500","Flanker Task","yes","Flanker Task.osexp","C:\Users\rayra\Documents","no","mono","no","18","no","white","no","yes","768","legacy","55","55","C:/Users/rayra/Documents/subject-2.csv","legacy","NA","Lentiform Loewenfeld","3.3.9","0","h","NA","h","NA","NA","h","525","NA","54996","NA","NA","525","2","legacy","1024","2","48000","-16","experiment","SSHSS","2","even","58681","NA","NA","162659","60393","3680","NA","NA","163796","3684","NA","NA","163900","164427","163794","163900","Flanker Task","55","36274","56","yes","1024"
"NA","98.24561403508773","98.24561403508773","646.4561403508771","646.4561403508771","black","legacy","legacy","legacy","0","congruent","uniform","1","undefined","1","s","0","0","0","56","56","0","56","0","56","0","0","0","56","56","56","56","Sat Sep 25 19:21:31 2021","1500","Flanker Task","yes","Flanker Task.osexp","C:\Users\rayra\Documents","no","mono","no","18","no","white","no","yes","768","legacy","56","56","C:/Users/rayra/Documents/subject-2.csv","legacy","NA","Lentiform Loewenfeld","3.3.9","0","s","NA","h","NA","NA","s","574","NA","54996","NA","NA","574","2","legacy","1024","2","48000","-16","experiment","SSSSS","2","even","58681","NA","NA","164434","60393","3680","NA","NA","165567","3684","NA","NA","165671","166246","165565","165671","Flanker Task","56","36848","57","yes","1024"
"NA","98.27586206896552","98.27586206896552","645.3793103448276","645.3793103448276","black","legacy","legacy","legacy","0","incongruent","uniform","1","undefined","1","h","0","0","0","57","57","0","57","0","57","0","0","0","57","57","57","57","Sat Sep 25 19:21:31 2021","1500","Flanker Task","yes","Flanker Task.osexp","C:\Users\rayra\Documents","no","mono","no","18","no","white","no","yes","768","legacy","57","57","C:/Users/rayra/Documents/subject-2.csv","legacy","NA","Lentiform Loewenfeld","3.3.9","0","h","NA","h","NA","NA","h","584","NA","54996","NA","NA","584","2","legacy","1024","2","48000","-16","experiment","SSHSS","2","even","58681","NA","NA","166253","60393","3680","NA","NA","167399","3684","NA","NA","167503","168088","167396","167503","Flanker Task","57","37432","58","yes","1024"
"NA","98.30508474576271","98.30508474576271","644.4067796610169","644.4067796610169","black","legacy","legacy","legacy","0","incongruent","uniform","1","undefined","1","h","0","0","0","58","58","0","58","0","58","0","0","0","58","58","58","58","Sat Sep 25 19:21:31 2021","1500","Flanker Task","yes","Flanker Task.osexp","C:\Users\rayra\Documents","no","mono","no","18","no","white","no","yes","768","legacy","58","58","C:/Users/rayra/Documents/subject-2.csv","legacy","NA","Lentiform Loewenfeld","3.3.9","0","h","NA","h","NA","NA","h","588","NA","54996","NA","NA","588","2","legacy","1024","2","48000","-16","experiment","SSHSS","2","even","58681","NA","NA","168097","60393","3680","NA","NA","169229","3684","NA","NA","169333","169922","169225","169331","Flanker Task","58","38020","59","yes","1024"
"NA","98.33333333333333","98.33333333333333","642.85","642.85","black","legacy","legacy","legacy","0","congruent","uniform","1","undefined","1","h","0","0","0","59","59","0","59","0","59","0","0","0","59","59","59","59","Sat Sep 25 19:21:31 2021","1500","Flanker Task","yes","Flanker Task.osexp","C:\Users\rayra\Documents","no","mono","no","18","no","white","no","yes","768","legacy","59","59","C:/Users/rayra/Documents/subject-2.csv","legacy","NA","Lentiform Loewenfeld","3.3.9","0","h","NA","h","NA","NA","h","551","NA","54996","NA","NA","551","2","legacy","1024","2","48000","-16","experiment","HHHHH","2","even","58681","NA","NA","169930","60393","3680","NA","NA","171077","3684","NA","NA","171181","171733","171073","171181","Flanker Task","59","38571","60","yes","1024"
"NA","98.36065573770492","98.36065573770492","641.5409836065573","641.5409836065573","black","legacy","legacy","legacy","0","congruent","uniform","1","undefined","1","s","0","0","0","60","60","0","60","0","60","0","0","0","60","60","60","60","Sat Sep 25 19:21:31 2021","1500","Flanker Task","yes","Flanker Task.osexp","C:\Users\rayra\Documents","no","mono","no","18","no","white","no","yes","768","legacy","60","60","C:/Users/rayra/Documents/subject-2.csv","legacy","NA","Lentiform Loewenfeld","3.3.9","0","s","NA","h","NA","NA","s","563","NA","54996","NA","NA","563","2","legacy","1024","2","48000","-16","experiment","SSSSS","2","even","58681","NA","NA","171740","60393","3680","NA","NA","172881","3684","NA","NA","172984","173548","172878","172984","Flanker Task","60","39134","61","yes","1024"
"NA","98.38709677419355","98.38709677419355","641.0967741935484","641.0967741935484","black","legacy","legacy","legacy","0","congruent","uniform","1","undefined","1","h","0","0","0","61","61","0","61","0","61","0","0","0","61","61","61","61","Sat Sep 25 19:21:31 2021","1500","Flanker Task","yes","Flanker Task.osexp","C:\Users\rayra\Documents","no","mono","no","18","no","white","no","yes","768","legacy","61","61","C:/Users/rayra/Documents/subject-2.csv","legacy","NA","Lentiform Loewenfeld","3.3.9","0","h","NA","h","NA","NA","h","614","NA","54996","NA","NA","614","2","legacy","1024","2","48000","-16","experiment","HHHHH","2","even","58681","NA","NA","173555","60393","3680","NA","NA","174706","3684","NA","NA","174810","175427","174703","174810","Flanker Task","61","39748","62","yes","1024"
"NA","98.41269841269842","98.41269841269842","639.5873015873016","639.5873015873016","black","legacy","legacy","legacy","0","incongruent","uniform","1","undefined","1","h","0","0","0","62","62","0","62","0","62","0","0","0","62","62","62","62","Sat Sep 25 19:21:31 2021","1500","Flanker Task","yes","Flanker Task.osexp","C:\Users\rayra\Documents","no","mono","no","18","no","white","no","yes","768","legacy","62","62","C:/Users/rayra/Documents/subject-2.csv","legacy","NA","Lentiform Loewenfeld","3.3.9","0","h","NA","h","NA","NA","h","546","NA","54996","NA","NA","546","2","legacy","1024","2","48000","-16","experiment","SSHSS","2","even","58681","NA","NA","175435","60393","3680","NA","NA","176598","3684","NA","NA","176702","177250","176595","176702","Flanker Task","62","40294","63","yes","1024"
"NA","98.4375","98.4375","639.4375","639.4375","black","legacy","legacy","legacy","0","incongruent","uniform","1","undefined","1","s","0","0","0","63","63","0","63","0","63","0","0","0","63","63","63","63","Sat Sep 25 19:21:31 2021","1500","Flanker Task","yes","Flanker Task.osexp","C:\Users\rayra\Documents","no","mono","no","18","no","white","no","yes","768","legacy","63","63","C:/Users/rayra/Documents/subject-2.csv","legacy","NA","Lentiform Loewenfeld","3.3.9","0","s","NA","h","NA","NA","s","630","NA","54996","NA","NA","630","2","legacy","1024","2","48000","-16","experiment","HHSHH","2","even","58681","NA","NA","177257","60393","3680","NA","NA","178427","3684","NA","NA","178531","179163","178424","178531","Flanker Task","63","40924","64","yes","1024"
"NA","98.46153846153847","98.46153846153847","638.2615384615384","638.2615384615384","black","legacy","legacy","legacy","0","incongruent","uniform","1","undefined","1","h","0","0","0","64","64","0","64","0","64","0","0","0","64","64","64","64","Sat Sep 25 19:21:31 2021","1500","Flanker Task","yes","Flanker Task.osexp","C:\Users\rayra\Documents","no","mono","no","18","no","white","no","yes","768","legacy","64","64","C:/Users/rayra/Documents/subject-2.csv","legacy","NA","Lentiform Loewenfeld","3.3.9","0","h","NA","h","NA","NA","h","563","NA","54996","NA","NA","563","2","legacy","1024","2","48000","-16","experiment","SSHSS","2","even","58681","NA","NA","179169","60393","3680","NA","NA","180332","3684","NA","NA","180435","181000","180329","180435","Flanker Task","64","41487","65","yes","1024"
"NA","98.48484848484848","98.48484848484848","636.5909090909091","636.5909090909091","black","legacy","legacy","legacy","0","congruent","uniform","1","undefined","1","s","0","0","0","65","65","0","65","0","65","0","0","0","65","65","65","65","Sat Sep 25 19:21:31 2021","1500","Flanker Task","yes","Flanker Task.osexp","C:\Users\rayra\Documents","no","mono","no","18","no","white","no","yes","768","legacy","65","65","C:/Users/rayra/Documents/subject-2.csv","legacy","NA","Lentiform Loewenfeld","3.3.9","0","s","NA","h","NA","NA","s","528","NA","54996","NA","NA","528","2","legacy","1024","2","48000","-16","experiment","SSSSS","2","even","58681","NA","NA","181008","60393","3680","NA","NA","182164","3684","NA","NA","182269","182799","182161","182268","Flanker Task","65","42015","66","yes","1024"
"NA","98.50746268656717","98.50746268656717","635.1194029850747","635.1194029850747","black","legacy","legacy","legacy","0","congruent","uniform","1","undefined","1","s","0","0","0","66","66","0","66","0","66","0","0","0","66","66","66","66","Sat Sep 25 19:21:31 2021","1500","Flanker Task","yes","Flanker Task.osexp","C:\Users\rayra\Documents","no","mono","no","18","no","white","no","yes","768","legacy","66","66","C:/Users/rayra/Documents/subject-2.csv","legacy","NA","Lentiform Loewenfeld","3.3.9","0","s","NA","h","NA","NA","s","538","NA","54996","NA","NA","538","2","legacy","1024","2","48000","-16","experiment","SSSSS","2","even","58681","NA","NA","182808","60393","3680","NA","NA","183952","3684","NA","NA","184058","184598","183949","184057","Flanker Task","66","42553","67","yes","1024"
"NA","98.52941176470588","98.52941176470588","637.6470588235294","637.6470588235294","black","legacy","legacy","legacy","0","incongruent","uniform","1","undefined","1","s","0","0","0","67","67","0","67","0","67","0","0","0","67","67","67","67","Sat Sep 25 19:21:31 2021","1500","Flanker Task","yes","Flanker Task.osexp","C:\Users\rayra\Documents","no","mono","no","18","no","white","no","yes","768","legacy","67","67","C:/Users/rayra/Documents/subject-2.csv","legacy","NA","Lentiform Loewenfeld","3.3.9","0","s","NA","h","NA","NA","s","807","NA","54996","NA","NA","807","2","legacy","1024","2","48000","-16","experiment","HHSHH","2","even","58681","NA","NA","184605","60393","3680","NA","NA","185730","3684","NA","NA","185833","186642","185727","185833","Flanker Task","67","43360","68","yes","1024"
"NA","98.55072463768116","98.55072463768116","638.072463768116","638.072463768116","black","legacy","legacy","legacy","0","incongruent","uniform","1","undefined","1","s","0","0","0","68","68","0","68","0","68","0","0","0","68","68","68","68","Sat Sep 25 19:21:31 2021","1500","Flanker Task","yes","Flanker Task.osexp","C:\Users\rayra\Documents","no","mono","no","18","no","white","no","yes","768","legacy","68","68","C:/Users/rayra/Documents/subject-2.csv","legacy","NA","Lentiform Loewenfeld","3.3.9","0","s","NA","h","NA","NA","s","667","NA","54996","NA","NA","667","2","legacy","1024","2","48000","-16","experiment","HHSHH","2","even","58681","NA","NA","186648","60393","3680","NA","NA","187773","3684","NA","NA","187877","188545","187770","187876","Flanker Task","68","44027","69","yes","1024"
"NA","98.57142857142857","98.57142857142857","637.5428571428571","637.5428571428571","black","legacy","legacy","legacy","0","congruent","uniform","1","undefined","1","h","0","0","0","69","69","0","69","0","69","0","0","0","69","69","69","69","Sat Sep 25 19:21:31 2021","1500","Flanker Task","yes","Flanker Task.osexp","C:\Users\rayra\Documents","no","mono","no","18","no","white","no","yes","768","legacy","69","69","C:/Users/rayra/Documents/subject-2.csv","legacy","NA","Lentiform Loewenfeld","3.3.9","0","h","NA","h","NA","NA","h","601","NA","54996","NA","NA","601","2","legacy","1024","2","48000","-16","experiment","HHHHH","2","even","58681","NA","NA","188553","60393","3680","NA","NA","189681","3684","NA","NA","189784","190387","189679","189783","Flanker Task","69","44628","70","yes","1024"
"NA","98.59154929577464","98.59154929577464","636.5915492957746","636.5915492957746","black","legacy","legacy","legacy","0","incongruent","uniform","1","undefined","1","h","0","0","0","70","70","0","70","0","70","0","0","0","70","70","70","70","Sat Sep 25 19:21:31 2021","1500","Flanker Task","yes","Flanker Task.osexp","C:\Users\rayra\Documents","no","mono","no","18","no","white","no","yes","768","legacy","70","70","C:/Users/rayra/Documents/subject-2.csv","legacy","NA","Lentiform Loewenfeld","3.3.9","0","h","NA","h","NA","NA","h","570","NA","54996","NA","NA","570","2","legacy","1024","2","48000","-16","experiment","SSHSS","2","even","58681","NA","NA","190396","60393","3680","NA","NA","191526","3684","NA","NA","191630","192201","191523","191630","Flanker Task","70","45198","71","yes","1024"
"NA","98.61111111111111","98.61111111111111","635.4027777777778","635.4027777777778","black","legacy","legacy","legacy","0","congruent","uniform","1","undefined","1","h","0","0","0","71","71","0","71","0","71","0","0","0","71","71","71","71","Sat Sep 25 19:21:31 2021","1500","Flanker Task","yes","Flanker Task.osexp","C:\Users\rayra\Documents","no","mono","no","18","no","white","no","yes","768","legacy","71","71","C:/Users/rayra/Documents/subject-2.csv","legacy","NA","Lentiform Loewenfeld","3.3.9","0","h","NA","h","NA","NA","h","551","NA","54996","NA","NA","551","2","legacy","1024","2","48000","-16","experiment","HHHHH","2","even","58681","NA","NA","192208","60393","3680","NA","NA","193326","3684","NA","NA","193429","193981","193323","193429","Flanker Task","71","45749","72","yes","1024"
"NA","98.63013698630137","98.63013698630137","633.4794520547945","633.4794520547945","black","legacy","legacy","legacy","0","congruent","uniform","1","undefined","1","h","0","0","0","72","72","0","72","0","72","0","0","0","72","72","72","72","Sat Sep 25 19:21:31 2021","1500","Flanker Task","yes","Flanker Task.osexp","C:\Users\rayra\Documents","no","mono","no","18","no","white","no","yes","768","legacy","72","72","C:/Users/rayra/Documents/subject-2.csv","legacy","NA","Lentiform Loewenfeld","3.3.9","0","h","NA","h","NA","NA","h","495","NA","54996","NA","NA","495","2","legacy","1024","2","48000","-16","experiment","HHHHH","2","even","58681","NA","NA","193989","60393","3680","NA","NA","195123","3684","NA","NA","195227","195725","195120","195227","Flanker Task","72","46244","73","yes","1024"
"NA","98.64864864864865","98.64864864864865","631.9324324324324","631.9324324324324","black","legacy","legacy","legacy","0","congruent","uniform","1","undefined","1","s","0","0","0","73","73","0","73","0","73","0","0","0","73","73","73","73","Sat Sep 25 19:21:31 2021","1500","Flanker Task","yes","Flanker Task.osexp","C:\Users\rayra\Documents","no","mono","no","18","no","white","no","yes","768","legacy","73","73","C:/Users/rayra/Documents/subject-2.csv","legacy","NA","Lentiform Loewenfeld","3.3.9","0","s","NA","h","NA","NA","s","519","NA","54996","NA","NA","519","2","legacy","1024","2","48000","-16","experiment","SSSSS","2","even","58681","NA","NA","195733","60393","3680","NA","NA","196853","3684","NA","NA","196958","197479","196851","196957","Flanker Task","73","46763","74","yes","1024"
"NA","98.66666666666667","98.66666666666667","630.12","630.12","black","legacy","legacy","legacy","0","incongruent","uniform","1","undefined","1","s","0","0","0","74","74","0","74","0","74","0","0","0","74","74","74","74","Sat Sep 25 19:21:31 2021","1500","Flanker Task","yes","Flanker Task.osexp","C:\Users\rayra\Documents","no","mono","no","18","no","white","no","yes","768","legacy","74","74","C:/Users/rayra/Documents/subject-2.csv","legacy","NA","Lentiform Loewenfeld","3.3.9","0","s","NA","h","NA","NA","s","496","NA","54996","NA","NA","496","2","legacy","1024","2","48000","-16","experiment","HHSHH","2","even","58681","NA","NA","197487","60393","3680","NA","NA","198631","3684","NA","NA","198735","199233","198628","198735","Flanker Task","74","47259","75","yes","1024"
"NA","98.6842105263158","98.6842105263158","629.5657894736842","629.5657894736842","black","legacy","legacy","legacy","0","incongruent","uniform","1","undefined","1","s","0","0","0","75","75","0","75","0","75","0","0","0","75","75","75","75","Sat Sep 25 19:21:31 2021","1500","Flanker Task","yes","Flanker Task.osexp","C:\Users\rayra\Documents","no","mono","no","18","no","white","no","yes","768","legacy","75","75","C:/Users/rayra/Documents/subject-2.csv","legacy","NA","Lentiform Loewenfeld","3.3.9","0","s","NA","h","NA","NA","s","588","NA","54996","NA","NA","588","2","legacy","1024","2","48000","-16","experiment","HHSHH","2","even","58681","NA","NA","199240","60393","3680","NA","NA","200411","3684","NA","NA","200515","201105","200408","200515","Flanker Task","75","47847","76","yes","1024"
"NA","98.7012987012987","98.7012987012987","629.1818181818181","629.1818181818181","black","legacy","legacy","legacy","0","incongruent","uniform","1","undefined","1","h","0","0","0","76","76","0","76","0","76","0","0","0","76","76","76","76","Sat Sep 25 19:21:31 2021","1500","Flanker Task","yes","Flanker Task.osexp","C:\Users\rayra\Documents","no","mono","no","18","no","white","no","yes","768","legacy","76","76","C:/Users/rayra/Documents/subject-2.csv","legacy","NA","Lentiform Loewenfeld","3.3.9","0","h","NA","h","NA","NA","h","600","NA","54996","NA","NA","600","2","legacy","1024","2","48000","-16","experiment","SSHSS","2","even","58681","NA","NA","201114","60393","3680","NA","NA","202249","3684","NA","NA","202352","202954","202247","202352","Flanker Task","76","48447","77","yes","1024"
"NA","98.71794871794872","98.71794871794872","629.0897435897435","629.0897435897435","black","legacy","legacy","legacy","0","incongruent","uniform","1","undefined","1","s","0","0","0","77","77","0","77","0","77","0","0","0","77","77","77","77","Sat Sep 25 19:21:31 2021","1500","Flanker Task","yes","Flanker Task.osexp","C:\Users\rayra\Documents","no","mono","no","18","no","white","no","yes","768","legacy","77","77","C:/Users/rayra/Documents/subject-2.csv","legacy","NA","Lentiform Loewenfeld","3.3.9","0","s","NA","h","NA","NA","s","622","NA","54996","NA","NA","622","2","legacy","1024","2","48000","-16","experiment","HHSHH","2","even","58681","NA","NA","202963","60393","3680","NA","NA","204120","3684","NA","NA","204224","204848","204117","204224","Flanker Task","77","49069","78","yes","1024"
"NA","98.73417721518987","98.73417721518987","627.7848101265823","627.7848101265823","black","legacy","legacy","legacy","0","congruent","uniform","1","undefined","1","h","0","0","0","78","78","0","78","0","78","0","0","0","78","78","78","78","Sat Sep 25 19:21:31 2021","1500","Flanker Task","yes","Flanker Task.osexp","C:\Users\rayra\Documents","no","mono","no","18","no","white","no","yes","768","legacy","78","78","C:/Users/rayra/Documents/subject-2.csv","legacy","NA","Lentiform Loewenfeld","3.3.9","0","h","NA","h","NA","NA","h","526","NA","54996","NA","NA","526","2","legacy","1024","2","48000","-16","experiment","HHHHH","2","even","58681","NA","NA","204856","60393","3680","NA","NA","206016","3684","NA","NA","206121","206648","206014","206121","Flanker Task","78","49595","79","yes","1024"
"NA","98.75","98.75","625.725","625.725","black","legacy","legacy","legacy","0","congruent","uniform","1","undefined","1","h","0","0","0","79","79","0","79","0","79","0","0","0","79","79","79","79","Sat Sep 25 19:21:31 2021","1500","Flanker Task","yes","Flanker Task.osexp","C:\Users\rayra\Documents","no","mono","no","18","no","white","no","yes","768","legacy","79","79","C:/Users/rayra/Documents/subject-2.csv","legacy","NA","Lentiform Loewenfeld","3.3.9","0","h","NA","h","NA","NA","h","463","NA","54996","NA","NA","463","2","legacy","1024","2","48000","-16","experiment","HHHHH","2","even","58681","NA","NA","206655","60393","3680","NA","NA","207796","3684","NA","NA","207899","208364","207793","207899","Flanker Task","79","50058","80","yes","1024"
"NA","98.76543209876543","98.76543209876543","631.7654320987655","631.7654320987655","black","legacy","legacy","legacy","0","incongruent","uniform","1","undefined","1","s","0","0","0","80","80","0","80","0","80","0","0","0","80","80","80","80","Sat Sep 25 19:21:31 2021","600","Flanker Task","yes","Flanker Task.osexp","C:\Users\rayra\Documents","no","mono","no","18","no","white","no","yes","768","legacy","0","79","C:/Users/rayra/Documents/subject-2.csv","legacy","NA","Lentiform Loewenfeld","3.3.9","0","s","NA","h","h","NA","s","1115","NA","54996","10716","NA","1115","2","legacy","1024","2","48000","-16","experiment","HHSHH","2","even","58681","220157","NA","208372","60393","3680","NA","NA","220237","3684","209439","NA","220339","221456","220235","220339","Flanker Task","80","51173","81","yes","1024"
"NA","98.78048780487805","98.78048780487805","630.8048780487804","630.8048780487804","black","legacy","legacy","legacy","0","incongruent","uniform","1","undefined","1","s","0","0","0","81","81","0","81","0","81","0","0","0","81","81","81","81","Sat Sep 25 19:21:31 2021","600","Flanker Task","yes","Flanker Task.osexp","C:\Users\rayra\Documents","no","mono","no","18","no","white","no","yes","768","legacy","1","79","C:/Users/rayra/Documents/subject-2.csv","legacy","NA","Lentiform Loewenfeld","3.3.9","0","s","NA","h","h","NA","s","553","NA","54996","10716","NA","553","2","legacy","1024","2","48000","-16","experiment","HHSHH","2","even","58681","220157","NA","221967","60393","3680","221463","NA","223093","3684","209439","NA","223196","223751","223089","223196","Flanker Task","81","51726","82","yes","1024"
"NA","98.79518072289157","98.79518072289157","629.1686746987951","629.1686746987951","black","legacy","legacy","legacy","0","congruent","uniform","1","undefined","1","s","0","0","0","82","82","0","82","0","82","0","0","0","82","82","82","82","Sat Sep 25 19:21:31 2021","600","Flanker Task","yes","Flanker Task.osexp","C:\Users\rayra\Documents","no","mono","no","18","no","white","no","yes","768","legacy","2","79","C:/Users/rayra/Documents/subject-2.csv","legacy","NA","Lentiform Loewenfeld","3.3.9","0","s","NA","h","h","NA","s","495","NA","54996","10716","NA","495","2","legacy","1024","2","48000","-16","experiment","SSSSS","2","even","58681","220157","NA","223757","60393","3680","221463","NA","224912","3684","209439","NA","225015","225511","224909","225015","Flanker Task","82","52221","83","yes","1024"
"NA","98.80952380952381","98.80952380952381","627.7619047619048","627.7619047619048","black","legacy","legacy","legacy","0","incongruent","uniform","1","undefined","1","s","0","0","0","83","83","0","83","0","83","0","0","0","83","83","83","83","Sat Sep 25 19:21:31 2021","600","Flanker Task","yes","Flanker Task.osexp","C:\Users\rayra\Documents","no","mono","no","18","no","white","no","yes","768","legacy","3","79","C:/Users/rayra/Documents/subject-2.csv","legacy","NA","Lentiform Loewenfeld","3.3.9","0","s","NA","h","h","NA","s","511","NA","54996","10716","NA","511","2","legacy","1024","2","48000","-16","experiment","HHSHH","2","even","58681","220157","NA","225517","60393","3680","221463","NA","226627","3684","209439","NA","226731","227244","226624","226731","Flanker Task","83","52732","84","yes","1024"
"NA","98.82352941176471","98.82352941176471","627.0117647058823","627.0117647058823","black","legacy","legacy","legacy","0","incongruent","uniform","1","undefined","1","h","0","0","0","84","84","0","84","0","84","0","0","0","84","84","84","84","Sat Sep 25 19:21:31 2021","600","Flanker Task","yes","Flanker Task.osexp","C:\Users\rayra\Documents","no","mono","no","18","no","white","no","yes","768","legacy","4","79","C:/Users/rayra/Documents/subject-2.csv","legacy","NA","Lentiform Loewenfeld","3.3.9","0","h","NA","h","h","NA","h","564","NA","54996","10716","NA","564","2","legacy","1024","2","48000","-16","experiment","SSHSS","2","even","58681","220157","NA","227253","60393","3680","221463","NA","228389","3684","209439","NA","228493","229058","228386","228493","Flanker Task","84","53296","85","yes","1024"
"NA","98.83720930232558","98.83720930232558","626.8604651162791","626.8604651162791","black","legacy","legacy","legacy","0","incongruent","uniform","1","undefined","1","s","0","0","0","85","85","0","85","0","85","0","0","0","85","85","85","85","Sat Sep 25 19:21:31 2021","600","Flanker Task","yes","Flanker Task.osexp","C:\Users\rayra\Documents","no","mono","no","18","no","white","no","yes","768","legacy","5","79","C:/Users/rayra/Documents/subject-2.csv","legacy","NA","Lentiform Loewenfeld","3.3.9","0","s","NA","h","h","NA","s","614","NA","54996","10716","NA","614","2","legacy","1024","2","48000","-16","experiment","HHSHH","2","even","58681","220157","NA","229067","60393","3680","221463","NA","230190","3684","209439","NA","230294","230910","230187","230294","Flanker Task","85","53910","86","yes","1024"
"NA","98.85057471264368","98.85057471264368","625.6206896551724","625.6206896551724","black","legacy","legacy","legacy","0","incongruent","uniform","1","undefined","1","h","0","0","0","86","86","0","86","0","86","0","0","0","86","86","86","86","Sat Sep 25 19:21:31 2021","600","Flanker Task","yes","Flanker Task.osexp","C:\Users\rayra\Documents","no","mono","no","18","no","white","no","yes","768","legacy","6","79","C:/Users/rayra/Documents/subject-2.csv","legacy","NA","Lentiform Loewenfeld","3.3.9","0","h","NA","h","h","NA","h","519","NA","54996","10716","NA","519","2","legacy","1024","2","48000","-16","experiment","SSHSS","2","even","58681","220157","NA","231422","60393","3680","230918","NA","232564","3684","209439","NA","232668","233188","232561","232668","Flanker Task","86","54429","87","yes","1024"
"NA","98.86363636363636","98.86363636363636","623.5909090909091","623.5909090909091","black","legacy","legacy","legacy","0","congruent","uniform","1","undefined","1","h","0","0","0","87","87","0","87","0","87","0","0","0","87","87","87","87","Sat Sep 25 19:21:31 2021","600","Flanker Task","yes","Flanker Task.osexp","C:\Users\rayra\Documents","no","mono","no","18","no","white","no","yes","768","legacy","7","79","C:/Users/rayra/Documents/subject-2.csv","legacy","NA","Lentiform Loewenfeld","3.3.9","0","h","NA","h","h","NA","h","447","NA","54996","10716","NA","447","2","legacy","1024","2","48000","-16","experiment","HHHHH","2","even","58681","220157","NA","233196","60393","3680","230918","NA","234345","3684","209439","NA","234448","234896","234342","234448","Flanker Task","87","54876","88","yes","1024"
"NA","98.87640449438203","98.87640449438203","621.3483146067416","621.3483146067416","black","legacy","legacy","legacy","0","incongruent","uniform","1","undefined","1","s","0","0","0","88","88","0","88","0","88","0","0","0","88","88","88","88","Sat Sep 25 19:21:31 2021","600","Flanker Task","yes","Flanker Task.osexp","C:\Users\rayra\Documents","no","mono","no","18","no","white","no","yes","768","legacy","8","79","C:/Users/rayra/Documents/subject-2.csv","legacy","NA","Lentiform Loewenfeld","3.3.9","0","s","NA","h","h","NA","s","424","NA","54996","10716","NA","424","2","legacy","1024","2","48000","-16","experiment","HHSHH","2","even","58681","220157","NA","234904","60393","3680","230918","NA","236052","3684","209439","NA","236156","236582","236050","236156","Flanker Task","88","55300","89","yes","1024"
"NA","98.88888888888889","98.88888888888889","620.0111111111111","620.0111111111111","black","legacy","legacy","legacy","0","congruent","uniform","1","undefined","1","s","0","0","0","89","89","0","89","0","89","0","0","0","89","89","89","89","Sat Sep 25 19:21:31 2021","600","Flanker Task","yes","Flanker Task.osexp","C:\Users\rayra\Documents","no","mono","no","18","no","white","no","yes","768","legacy","9","79","C:/Users/rayra/Documents/subject-2.csv","legacy","NA","Lentiform Loewenfeld","3.3.9","0","s","NA","h","h","NA","s","501","NA","54996","10716","NA","501","2","legacy","1024","2","48000","-16","experiment","SSSSS","2","even","58681","220157","NA","236590","60393","3680","230918","NA","237748","3684","209439","NA","237852","238356","237745","237852","Flanker Task","89","55801","90","yes","1024"
"NA","98.9010989010989","98.9010989010989","617.8791208791209","617.8791208791209","black","legacy","legacy","legacy","0","congruent","uniform","1","undefined","1","s","0","0","0","90","90","0","90","0","90","0","0","0","90","90","90","90","Sat Sep 25 19:21:31 2021","600","Flanker Task","yes","Flanker Task.osexp","C:\Users\rayra\Documents","no","mono","no","18","no","white","no","yes","768","legacy","10","79","C:/Users/rayra/Documents/subject-2.csv","legacy","NA","Lentiform Loewenfeld","3.3.9","0","s","NA","h","h","NA","s","426","NA","54996","10716","NA","426","2","legacy","1024","2","48000","-16","experiment","SSSSS","2","even","58681","220157","NA","238364","60393","3680","230918","NA","239521","3684","209439","NA","239625","240052","239518","239625","Flanker Task","90","56227","91","yes","1024"
"NA","98.91304347826087","98.91304347826087","615.8586956521739","615.8586956521739","black","legacy","legacy","legacy","0","congruent","uniform","1","undefined","1","s","0","0","0","91","91","0","91","0","91","0","0","0","91","91","91","91","Sat Sep 25 19:21:31 2021","600","Flanker Task","yes","Flanker Task.osexp","C:\Users\rayra\Documents","no","mono","no","18","no","white","no","yes","768","legacy","11","79","C:/Users/rayra/Documents/subject-2.csv","legacy","NA","Lentiform Loewenfeld","3.3.9","0","s","NA","h","h","NA","s","432","NA","54996","10716","NA","432","2","legacy","1024","2","48000","-16","experiment","SSSSS","2","even","58681","220157","NA","240061","60393","3680","230918","NA","241194","3684","209439","NA","241298","241732","241191","241298","Flanker Task","91","56659","92","yes","1024"
"NA","98.9247311827957","98.9247311827957","614.2688172043011","614.2688172043011","black","legacy","legacy","legacy","0","congruent","uniform","1","undefined","1","s","0","0","0","92","92","0","92","0","92","0","0","0","92","92","92","92","Sat Sep 25 19:21:31 2021","600","Flanker Task","yes","Flanker Task.osexp","C:\Users\rayra\Documents","no","mono","no","18","no","white","no","yes","768","legacy","12","79","C:/Users/rayra/Documents/subject-2.csv","legacy","NA","Lentiform Loewenfeld","3.3.9","0","s","NA","h","h","NA","s","468","NA","54996","10716","NA","468","2","legacy","1024","2","48000","-16","experiment","SSSSS","2","even","58681","220157","NA","241740","60393","3680","230918","NA","242856","3684","209439","NA","242960","243430","242853","242960","Flanker Task","92","57127","93","yes","1024"
"NA","98.93617021276596","98.93617021276596","612.4468085106383","612.4468085106383","black","legacy","legacy","legacy","0","congruent","uniform","1","undefined","1","s","0","0","0","93","93","0","93","0","93","0","0","0","93","93","93","93","Sat Sep 25 19:21:31 2021","600","Flanker Task","yes","Flanker Task.osexp","C:\Users\rayra\Documents","no","mono","no","18","no","white","no","yes","768","legacy","13","79","C:/Users/rayra/Documents/subject-2.csv","legacy","NA","Lentiform Loewenfeld","3.3.9","0","s","NA","h","h","NA","s","443","NA","54996","10716","NA","443","2","legacy","1024","2","48000","-16","experiment","SSSSS","2","even","58681","220157","NA","243438","60393","3680","230918","NA","244592","3684","209439","NA","244697","245143","244589","244697","Flanker Task","93","57570","94","yes","1024"
"NA","98.94736842105263","98.94736842105263","610.3894736842105","610.3894736842105","black","legacy","legacy","legacy","0","congruent","uniform","1","undefined","1","s","0","0","0","94","94","0","94","0","94","0","0","0","94","94","94","94","Sat Sep 25 19:21:31 2021","600","Flanker Task","yes","Flanker Task.osexp","C:\Users\rayra\Documents","no","mono","no","18","no","white","no","yes","768","legacy","14","79","C:/Users/rayra/Documents/subject-2.csv","legacy","NA","Lentiform Loewenfeld","3.3.9","0","s","NA","h","h","NA","s","417","NA","54996","10716","NA","417","2","legacy","1024","2","48000","-16","experiment","SSSSS","2","even","58681","220157","NA","245151","60393","3680","230918","NA","246301","3684","209439","NA","246405","246824","246298","246405","Flanker Task","94","57987","95","yes","1024"
"NA","98.95833333333333","98.95833333333333","608.5104166666666","608.5104166666666","black","legacy","legacy","legacy","0","congruent","uniform","1","undefined","1","s","0","0","0","95","95","0","95","0","95","0","0","0","95","95","95","95","Sat Sep 25 19:21:31 2021","600","Flanker Task","yes","Flanker Task.osexp","C:\Users\rayra\Documents","no","mono","no","18","no","white","no","yes","768","legacy","15","79","C:/Users/rayra/Documents/subject-2.csv","legacy","NA","Lentiform Loewenfeld","3.3.9","0","s","NA","h","h","NA","s","430","NA","54996","10716","NA","430","2","legacy","1024","2","48000","-16","experiment","SSSSS","2","even","58681","220157","NA","246832","60393","3680","230918","NA","247986","3684","209439","NA","248089","248522","247983","248089","Flanker Task","95","58417","96","yes","1024"
"NA","98.96907216494846","98.96907216494846","606.8144329896908","606.8144329896908","black","legacy","legacy","legacy","0","congruent","uniform","1","undefined","1","h","0","0","0","96","96","0","96","0","96","0","0","0","96","96","96","96","Sat Sep 25 19:21:31 2021","600","Flanker Task","yes","Flanker Task.osexp","C:\Users\rayra\Documents","no","mono","no","18","no","white","no","yes","768","legacy","16","79","C:/Users/rayra/Documents/subject-2.csv","legacy","NA","Lentiform Loewenfeld","3.3.9","0","h","NA","h","h","NA","h","444","NA","54996","10716","NA","444","2","legacy","1024","2","48000","-16","experiment","HHHHH","2","even","58681","220157","NA","248530","60393","3680","230918","NA","249692","3684","209439","NA","249795","250242","249688","249795","Flanker Task","96","58861","97","yes","1024"
"NA","98.9795918367347","98.9795918367347","605.0102040816327","605.0102040816327","black","legacy","legacy","legacy","0","congruent","uniform","1","undefined","1","h","0","0","0","97","97","0","97","0","97","0","0","0","97","97","97","97","Sat Sep 25 19:21:31 2021","600","Flanker Task","yes","Flanker Task.osexp","C:\Users\rayra\Documents","no","mono","no","18","no","white","no","yes","768","legacy","17","79","C:/Users/rayra/Documents/subject-2.csv","legacy","NA","Lentiform Loewenfeld","3.3.9","0","h","NA","h","h","NA","h","430","NA","54996","10716","NA","430","2","legacy","1024","2","48000","-16","experiment","HHHHH","2","even","58681","220157","NA","250249","60393","3680","230918","NA","251386","3684","209439","NA","251490","251922","251383","251490","Flanker Task","97","59291","98","yes","1024"
"NA","98.98989898989899","98.98989898989899","604.2626262626262","604.2626262626262","black","legacy","legacy","legacy","0","incongruent","uniform","1","undefined","1","s","0","0","0","98","98","0","98","0","98","0","0","0","98","98","98","98","Sat Sep 25 19:21:31 2021","600","Flanker Task","yes","Flanker Task.osexp","C:\Users\rayra\Documents","no","mono","no","18","no","white","no","yes","768","legacy","18","79","C:/Users/rayra/Documents/subject-2.csv","legacy","NA","Lentiform Loewenfeld","3.3.9","0","s","NA","h","h","NA","s","531","NA","54996","10716","NA","531","2","legacy","1024","2","48000","-16","experiment","HHSHH","2","even","58681","220157","NA","251930","60393","3680","230918","NA","253064","3684","209439","NA","253168","253700","253061","253168","Flanker Task","98","59822","99","yes","1024"
"NA","99","99","603.06","603.06","black","legacy","legacy","legacy","0","congruent","uniform","1","undefined","1","s","0","0","0","99","99","0","99","0","99","0","0","0","99","99","99","99","Sat Sep 25 19:21:31 2021","600","Flanker Task","yes","Flanker Task.osexp","C:\Users\rayra\Documents","no","mono","no","18","no","white","no","yes","768","legacy","19","79","C:/Users/rayra/Documents/subject-2.csv","legacy","NA","Lentiform Loewenfeld","3.3.9","0","s","NA","h","h","NA","s","484","NA","54996","10716","NA","484","2","legacy","1024","2","48000","-16","experiment","SSSSS","2","even","58681","220157","NA","253708","60393","3680","230918","NA","254845","3684","209439","NA","254950","255437","254843","254950","Flanker Task","99","60306","100","yes","1024"
"NA","99.00990099009901","99.00990099009901","602.019801980198","602.019801980198","black","legacy","legacy","legacy","0","incongruent","uniform","1","undefined","1","s","0","0","0","100","100","0","100","0","100","0","0","0","100","100","100","100","Sat Sep 25 19:21:31 2021","600","Flanker Task","yes","Flanker Task.osexp","C:\Users\rayra\Documents","no","mono","no","18","no","white","no","yes","768","legacy","20","79","C:/Users/rayra/Documents/subject-2.csv","legacy","NA","Lentiform Loewenfeld","3.3.9","0","s","NA","h","h","NA","s","498","NA","54996","10716","NA","498","2","legacy","1024","2","48000","-16","experiment","HHSHH","2","even","58681","220157","NA","255446","60393","3680","230918","NA","256589","3684","209439","NA","256693","257194","256586","256693","Flanker Task","100","60804","101","yes","1024"
"NA","99.01960784313725","99.01960784313725","600.7647058823529","600.7647058823529","black","legacy","legacy","legacy","0","incongruent","uniform","1","undefined","1","s","0","0","0","101","101","0","101","0","101","0","0","0","101","101","101","101","Sat Sep 25 19:21:31 2021","600","Flanker Task","yes","Flanker Task.osexp","C:\Users\rayra\Documents","no","mono","no","18","no","white","no","yes","768","legacy","21","79","C:/Users/rayra/Documents/subject-2.csv","legacy","NA","Lentiform Loewenfeld","3.3.9","0","s","NA","h","h","NA","s","474","NA","54996","10716","NA","474","2","legacy","1024","2","48000","-16","experiment","HHSHH","2","even","58681","220157","NA","257203","60393","3680","230918","NA","258342","3684","209439","NA","258445","258921","258339","258445","Flanker Task","101","61278","102","yes","1024"
"NA","98.05825242718447","98.05825242718447","599.9320388349514","599.9320388349514","black","legacy","legacy","legacy","0","incongruent","uniform","0","undefined","0","h","0","0","0","102","102","0","102","0","102","0","0","0","102","102","102","102","Sat Sep 25 19:21:31 2021","600","Flanker Task","yes","Flanker Task.osexp","C:\Users\rayra\Documents","no","mono","no","18","no","white","no","yes","768","legacy","22","79","C:/Users/rayra/Documents/subject-2.csv","legacy","NA","Lentiform Loewenfeld","3.3.9","0","s","NA","h","h","NA","s","515","NA","54996","10716","NA","515","2","legacy","1024","2","48000","-16","experiment","SSHSS","2","even","58681","220157","NA","258929","60393","3680","230918","NA","260058","3684","209439","NA","260162","260679","260056","260161","Flanker Task","101","61793","103","yes","1024"
"NA","98.07692307692308","98.07692307692308","598.5192307692307","598.5192307692307","black","legacy","legacy","legacy","0","congruent","uniform","1","undefined","1","h","0","0","0","103","103","0","103","0","103","0","0","0","103","103","103","103","Sat Sep 25 19:21:31 2021","600","Flanker Task","yes","Flanker Task.osexp","C:\Users\rayra\Documents","no","mono","no","18","no","white","no","yes","768","legacy","23","79","C:/Users/rayra/Documents/subject-2.csv","legacy","NA","Lentiform Loewenfeld","3.3.9","0","h","NA","h","h","NA","h","453","NA","54996","10716","NA","453","2","legacy","1024","2","48000","-16","experiment","HHHHH","2","even","58681","220157","NA","261191","260688","3680","230918","NA","262298","3684","209439","NA","262402","262858","262296","262402","Flanker Task","102","62246","104","yes","1024"
"NA","98.0952380952381","98.0952380952381","598.0952380952381","598.0952380952381","black","legacy","legacy","legacy","0","incongruent","uniform","1","undefined","1","s","0","0","0","104","104","0","104","0","104","0","0","0","104","104","104","104","Sat Sep 25 19:21:31 2021","600","Flanker Task","yes","Flanker Task.osexp","C:\Users\rayra\Documents","no","mono","no","18","no","white","no","yes","768","legacy","24","79","C:/Users/rayra/Documents/subject-2.csv","legacy","NA","Lentiform Loewenfeld","3.3.9","0","s","NA","h","h","NA","s","554","NA","54996","10716","NA","554","2","legacy","1024","2","48000","-16","experiment","HHSHH","2","even","58681","220157","NA","262867","260688","3680","230918","NA","263992","3684","209439","NA","264096","264653","263989","264095","Flanker Task","103","62800","105","yes","1024"
"NA","98.11320754716981","98.11320754716981","597.5566037735849","597.5566037735849","black","legacy","legacy","legacy","0","congruent","uniform","1","undefined","1","s","0","0","0","105","105","0","105","0","105","0","0","0","105","105","105","105","Sat Sep 25 19:21:31 2021","600","Flanker Task","yes","Flanker Task.osexp","C:\Users\rayra\Documents","no","mono","no","18","no","white","no","yes","768","legacy","25","79","C:/Users/rayra/Documents/subject-2.csv","legacy","NA","Lentiform Loewenfeld","3.3.9","0","s","NA","h","h","NA","s","541","NA","54996","10716","NA","541","2","legacy","1024","2","48000","-16","experiment","SSSSS","2","even","58681","220157","NA","264660","260688","3680","230918","NA","265797","3684","209439","NA","265902","266445","265795","265901","Flanker Task","104","63341","106","yes","1024"
"NA","98.13084112149532","98.13084112149532","596.2149532710281","596.2149532710281","black","legacy","legacy","legacy","0","congruent","uniform","1","undefined","1","s","0","0","0","106","106","0","106","0","106","0","0","0","106","106","106","106","Sat Sep 25 19:21:31 2021","600","Flanker Task","yes","Flanker Task.osexp","C:\Users\rayra\Documents","no","mono","no","18","no","white","no","yes","768","legacy","26","79","C:/Users/rayra/Documents/subject-2.csv","legacy","NA","Lentiform Loewenfeld","3.3.9","0","s","NA","h","h","NA","s","454","NA","54996","10716","NA","454","2","legacy","1024","2","48000","-16","experiment","SSSSS","2","even","58681","220157","NA","266453","260688","3680","230918","NA","267588","3684","209439","NA","267692","268149","267585","267692","Flanker Task","105","63795","107","yes","1024"
"NA","98.14814814814815","98.14814814814815","595.0925925925926","595.0925925925926","black","legacy","legacy","legacy","0","incongruent","uniform","1","undefined","1","s","0","0","0","107","107","0","107","0","107","0","0","0","107","107","107","107","Sat Sep 25 19:21:31 2021","600","Flanker Task","yes","Flanker Task.osexp","C:\Users\rayra\Documents","no","mono","no","18","no","white","no","yes","768","legacy","27","79","C:/Users/rayra/Documents/subject-2.csv","legacy","NA","Lentiform Loewenfeld","3.3.9","0","s","NA","h","h","NA","s","475","NA","54996","10716","NA","475","2","legacy","1024","2","48000","-16","experiment","HHSHH","2","even","58681","220157","NA","268155","260688","3680","230918","NA","269344","3684","209439","NA","269448","269925","269340","269448","Flanker Task","106","64270","108","yes","1024"
"NA","97.24770642201835","97.24770642201835","594.1376146788991","594.1376146788991","black","legacy","legacy","legacy","0","incongruent","uniform","0","undefined","0","h","0","0","0","108","108","0","108","0","108","0","0","0","108","108","108","108","Sat Sep 25 19:21:31 2021","600","Flanker Task","yes","Flanker Task.osexp","C:\Users\rayra\Documents","no","mono","no","18","no","white","no","yes","768","legacy","28","79","C:/Users/rayra/Documents/subject-2.csv","legacy","NA","Lentiform Loewenfeld","3.3.9","0","s","NA","h","h","NA","s","491","NA","54996","10716","NA","491","2","legacy","1024","2","48000","-16","experiment","SSHSS","2","even","58681","220157","NA","269934","260688","3680","230918","NA","271078","3684","209439","NA","271182","271676","271075","271182","Flanker Task","106","64761","109","yes","1024"
"NA","97.27272727272727","97.27272727272727","593.4818181818182","593.4818181818182","black","legacy","legacy","legacy","0","incongruent","uniform","1","undefined","1","h","0","0","0","109","109","0","109","0","109","0","0","0","109","109","109","109","Sat Sep 25 19:21:31 2021","600","Flanker Task","yes","Flanker Task.osexp","C:\Users\rayra\Documents","no","mono","no","18","no","white","no","yes","768","legacy","29","79","C:/Users/rayra/Documents/subject-2.csv","legacy","NA","Lentiform Loewenfeld","3.3.9","0","h","NA","h","h","NA","h","522","NA","54996","10716","NA","522","2","legacy","1024","2","48000","-16","experiment","SSHSS","2","even","58681","220157","NA","272187","271684","3680","230918","NA","273340","3684","209439","NA","273444","273968","273336","273444","Flanker Task","107","65283","110","yes","1024"
"NA","97.29729729729729","97.29729729729729","593.063063063063","593.063063063063","black","legacy","legacy","legacy","0","incongruent","uniform","1","undefined","1","s","0","0","0","110","110","0","110","0","110","0","0","0","110","110","110","110","Sat Sep 25 19:21:31 2021","600","Flanker Task","yes","Flanker Task.osexp","C:\Users\rayra\Documents","no","mono","no","18","no","white","no","yes","768","legacy","30","79","C:/Users/rayra/Documents/subject-2.csv","legacy","NA","Lentiform Loewenfeld","3.3.9","0","s","NA","h","h","NA","s","547","NA","54996","10716","NA","547","2","legacy","1024","2","48000","-16","experiment","HHSHH","2","even","58681","220157","NA","273977","271684","3680","230918","NA","275133","3684","209439","NA","275236","275784","275131","275236","Flanker Task","108","65830","111","yes","1024"
"NA","97.32142857142857","97.32142857142857","593","593","black","legacy","legacy","legacy","0","incongruent","uniform","1","undefined","1","s","0","0","0","111","111","0","111","0","111","0","0","0","111","111","111","111","Sat Sep 25 19:21:31 2021","600","Flanker Task","yes","Flanker Task.osexp","C:\Users\rayra\Documents","no","mono","no","18","no","white","no","yes","768","legacy","31","79","C:/Users/rayra/Documents/subject-2.csv","legacy","NA","Lentiform Loewenfeld","3.3.9","0","s","NA","h","h","NA","s","586","NA","54996","10716","NA","586","2","legacy","1024","2","48000","-16","experiment","HHSHH","2","even","58681","220157","NA","275791","271684","3680","230918","NA","276908","3684","209439","NA","277011","277599","276906","277011","Flanker Task","109","66416","112","yes","1024"
"NA","97.34513274336283","97.34513274336283","591.8230088495575","591.8230088495575","black","legacy","legacy","legacy","0","congruent","uniform","1","undefined","1","h","0","0","0","112","112","0","112","0","112","0","0","0","112","112","112","112","Sat Sep 25 19:21:31 2021","600","Flanker Task","yes","Flanker Task.osexp","C:\Users\rayra\Documents","no","mono","no","18","no","white","no","yes","768","legacy","32","79","C:/Users/rayra/Documents/subject-2.csv","legacy","NA","Lentiform Loewenfeld","3.3.9","0","h","NA","h","h","NA","h","460","NA","54996","10716","NA","460","2","legacy","1024","2","48000","-16","experiment","HHHHH","2","even","58681","220157","NA","277607","271684","3680","230918","NA","278763","3684","209439","NA","278869","279332","278760","278868","Flanker Task","110","66876","113","yes","1024"
"NA","97.36842105263158","97.36842105263158","590.8157894736842","590.8157894736842","black","legacy","legacy","legacy","0","incongruent","uniform","1","undefined","1","h","0","0","0","113","113","0","113","0","113","0","0","0","113","113","113","113","Sat Sep 25 19:21:31 2021","600","Flanker Task","yes","Flanker Task.osexp","C:\Users\rayra\Documents","no","mono","no","18","no","white","no","yes","768","legacy","33","79","C:/Users/rayra/Documents/subject-2.csv","legacy","NA","Lentiform Loewenfeld","3.3.9","0","h","NA","h","h","NA","h","477","NA","54996","10716","NA","477","2","legacy","1024","2","48000","-16","experiment","SSHSS","2","even","58681","220157","NA","279340","271684","3680","230918","NA","280498","3684","209439","NA","280601","281081","280495","280601","Flanker Task","111","67353","114","yes","1024"
"NA","97.3913043478261","97.3913043478261","590.5826086956522","590.5826086956522","black","legacy","legacy","legacy","0","incongruent","uniform","1","undefined","1","s","0","0","0","114","114","0","114","0","114","0","0","0","114","114","114","114","Sat Sep 25 19:21:31 2021","600","Flanker Task","yes","Flanker Task.osexp","C:\Users\rayra\Documents","no","mono","no","18","no","white","no","yes","768","legacy","34","79","C:/Users/rayra/Documents/subject-2.csv","legacy","NA","Lentiform Loewenfeld","3.3.9","0","s","NA","h","h","NA","s","564","NA","54996","10716","NA","564","2","legacy","1024","2","48000","-16","experiment","HHSHH","2","even","58681","220157","NA","281089","271684","3680","230918","NA","282228","3684","209439","NA","282332","282899","282225","282332","Flanker Task","112","67917","115","yes","1024"
"NA","97.41379310344827","97.41379310344827","589.8189655172414","589.8189655172414","black","legacy","legacy","legacy","0","incongruent","uniform","1","undefined","1","h","0","0","0","115","115","0","115","0","115","0","0","0","115","115","115","115","Sat Sep 25 19:21:31 2021","600","Flanker Task","yes","Flanker Task.osexp","C:\Users\rayra\Documents","no","mono","no","18","no","white","no","yes","768","legacy","35","79","C:/Users/rayra/Documents/subject-2.csv","legacy","NA","Lentiform Loewenfeld","3.3.9","0","h","NA","h","h","NA","h","502","NA","54996","10716","NA","502","2","legacy","1024","2","48000","-16","experiment","SSHSS","2","even","58681","220157","NA","282908","271684","3680","230918","NA","284033","3684","209439","NA","284138","284643","284031","284138","Flanker Task","113","68419","116","yes","1024"
"NA","97.43589743589743","97.43589743589743","589.2735042735043","589.2735042735043","black","legacy","legacy","legacy","0","incongruent","uniform","1","undefined","1","h","0","0","0","116","116","0","116","0","116","0","0","0","116","116","116","116","Sat Sep 25 19:21:31 2021","600","Flanker Task","yes","Flanker Task.osexp","C:\Users\rayra\Documents","no","mono","no","18","no","white","no","yes","768","legacy","36","79","C:/Users/rayra/Documents/subject-2.csv","legacy","NA","Lentiform Loewenfeld","3.3.9","0","h","NA","h","h","NA","h","526","NA","54996","10716","NA","526","2","legacy","1024","2","48000","-16","experiment","SSHSS","2","even","58681","220157","NA","284651","271684","3680","230918","NA","285813","3684","209439","NA","285917","286446","285810","285917","Flanker Task","114","68945","117","yes","1024"
"NA","97.45762711864407","97.45762711864407","589.3983050847457","589.3983050847457","black","legacy","legacy","legacy","0","incongruent","uniform","1","undefined","1","s","0","0","0","117","117","0","117","0","117","0","0","0","117","117","117","117","Sat Sep 25 19:21:31 2021","600","Flanker Task","yes","Flanker Task.osexp","C:\Users\rayra\Documents","no","mono","no","18","no","white","no","yes","768","legacy","37","79","C:/Users/rayra/Documents/subject-2.csv","legacy","NA","Lentiform Loewenfeld","3.3.9","0","s","NA","h","h","NA","s","604","NA","54996","10716","NA","604","2","legacy","1024","2","48000","-16","experiment","HHSHH","2","even","58681","220157","NA","286455","271684","3680","230918","NA","287581","3684","209439","NA","287685","288291","287579","287685","Flanker Task","115","69549","118","yes","1024"
"NA","97.47899159663865","97.47899159663865","588.6974789915967","588.6974789915967","black","legacy","legacy","legacy","0","congruent","uniform","1","undefined","1","s","0","0","0","118","118","0","118","0","118","0","0","0","118","118","118","118","Sat Sep 25 19:21:31 2021","600","Flanker Task","yes","Flanker Task.osexp","C:\Users\rayra\Documents","no","mono","no","18","no","white","no","yes","768","legacy","38","79","C:/Users/rayra/Documents/subject-2.csv","legacy","NA","Lentiform Loewenfeld","3.3.9","0","s","NA","h","h","NA","s","506","NA","54996","10716","NA","506","2","legacy","1024","2","48000","-16","experiment","SSSSS","2","even","58681","220157","NA","288803","271684","3680","288300","NA","289942","3684","209439","NA","290046","290554","289939","290045","Flanker Task","116","70055","119","yes","1024"
"NA","97.5","97.5","587.6","587.6","black","legacy","legacy","legacy","0","incongruent","uniform","1","undefined","1","h","0","0","0","119","119","0","119","0","119","0","0","0","119","119","119","119","Sat Sep 25 19:21:31 2021","600","Flanker Task","yes","Flanker Task.osexp","C:\Users\rayra\Documents","no","mono","no","18","no","white","no","yes","768","legacy","39","79","C:/Users/rayra/Documents/subject-2.csv","legacy","NA","Lentiform Loewenfeld","3.3.9","0","h","NA","h","h","NA","h","457","NA","54996","10716","NA","457","2","legacy","1024","2","48000","-16","experiment","SSHSS","2","even","58681","220157","NA","290561","271684","3680","288300","NA","291707","3684","209439","NA","291811","292270","291704","291811","Flanker Task","117","70512","120","yes","1024"
"NA","97.52066115702479","97.52066115702479","586.8512396694215","586.8512396694215","black","legacy","legacy","legacy","0","incongruent","uniform","1","undefined","1","h","0","0","0","120","120","0","120","0","120","0","0","0","120","120","120","120","Sat Sep 25 19:21:31 2021","600","Flanker Task","yes","Flanker Task.osexp","C:\Users\rayra\Documents","no","mono","no","18","no","white","no","yes","768","legacy","40","79","C:/Users/rayra/Documents/subject-2.csv","legacy","NA","Lentiform Loewenfeld","3.3.9","0","h","NA","h","h","NA","h","497","NA","54996","10716","NA","497","2","legacy","1024","2","48000","-16","experiment","SSHSS","2","even","58681","220157","NA","292279","271684","3680","288300","NA","293397","3684","209439","NA","293501","294002","293394","293501","Flanker Task","118","71009","121","yes","1024"
"NA","97.54098360655738","97.54098360655738","586.2950819672132","586.2950819672132","black","legacy","legacy","legacy","0","incongruent","uniform","1","undefined","1","h","0","0","0","121","121","0","121","0","121","0","0","0","121","121","121","121","Sat Sep 25 19:21:31 2021","600","Flanker Task","yes","Flanker Task.osexp","C:\Users\rayra\Documents","no","mono","no","18","no","white","no","yes","768","legacy","41","79","C:/Users/rayra/Documents/subject-2.csv","legacy","NA","Lentiform Loewenfeld","3.3.9","0","h","NA","h","h","NA","h","519","NA","54996","10716","NA","519","2","legacy","1024","2","48000","-16","experiment","SSHSS","2","even","58681","220157","NA","294010","271684","3680","288300","NA","295124","3684","209439","NA","295228","295748","295121","295228","Flanker Task","119","71528","122","yes","1024"
"NA","97.5609756097561","97.5609756097561","584.9024390243902","584.9024390243902","black","legacy","legacy","legacy","0","incongruent","uniform","1","undefined","1","h","0","0","0","122","122","0","122","0","122","0","0","0","122","122","122","122","Sat Sep 25 19:21:31 2021","600","Flanker Task","yes","Flanker Task.osexp","C:\Users\rayra\Documents","no","mono","no","18","no","white","no","yes","768","legacy","42","79","C:/Users/rayra/Documents/subject-2.csv","legacy","NA","Lentiform Loewenfeld","3.3.9","0","h","NA","h","h","NA","h","415","NA","54996","10716","NA","415","2","legacy","1024","2","48000","-16","experiment","SSHSS","2","even","58681","220157","NA","295755","271684","3680","288300","NA","296904","3684","209439","NA","297008","297426","296902","297008","Flanker Task","120","71943","123","yes","1024"
