"Stimulus","acc","accuracy","average_response_time","avg_rt","background","canvas_backend","clock_backend","color_backend","compensation","condition","coordinates","correct","correct_instructions1","correct_keyboard_response","correct_response","count_Block1","count_Block2","count_Block3","count_ISI","count_errorFeedback","count_experiment","count_faster","count_finish","count_fixation","count_instructions1","count_instructions2","count_instructions3","count_keyboard_response","count_logger","count_sequence","count_stimulus","datetime","deadline","description","disable_garbage_collection","experiment_file","experiment_path","font_bold","font_family","font_italic","font_size","font_underline","foreground","form_clicks","fullscreen","height","keyboard_backend","live_row","live_row_Block1","logfile","mouse_backend","new_column_1","opensesame_codename","opensesame_version","repeat_cycle","response","response_finish","response_instructions1","response_instructions2","response_instructions3","response_keyboard_response","response_time","response_time_finish","response_time_instructions1","response_time_instructions2","response_time_instructions3","response_time_keyboard_response","round_decimals","sampler_backend","sound_buf_size","sound_channels","sound_freq","sound_sample_size","start","stimulus","subject_nr","subject_parity","time_Block1","time_Block2","time_Block3","time_ISI","time_errorFeedback","time_experiment","time_faster","time_finish","time_fixation","time_instructions1","time_instructions2","time_instructions3","time_keyboard_response","time_logger","time_sequence","time_stimulus","title","total_correct","total_response_time","total_responses","uniform_coordinates","width"
"NA","0","0","1500","1500","black","legacy","legacy","legacy","0","congruent","uniform","0","undefined","0","s","0","0","0","0","0","0","0","0","0","0","0","0","0","0","0","0","Sun Sep 26 20:30:24 2021","1500","Flanker Task","yes","Flanker Task.osexp","C:\Users\rayra\Documents","no","mono","no","18","no","white","no","yes","768","legacy","0","0","C:/Users/rayra/Documents/subject-4.csv","legacy","NA","Lentiform Loewenfeld","3.3.9","0","None","NA","right","NA","NA","None","1500","NA","71500","NA","NA","1500","2","legacy","1024","2","48000","-16","experiment","SSSSS","4","even","76123","NA","NA","NA","NA","4617","NA","NA","76222","4622","NA","NA","76324","77824","76219","76324","Flanker Task","0","1500","1","yes","1024"
"NA","0","0","1500","1500","black","legacy","legacy","legacy","0","incongruent","uniform","0","undefined","0","s","0","0","0","1","1","0","1","0","1","0","0","0","1","1","1","1","Sun Sep 26 20:30:24 2021","1500","Flanker Task","yes","Flanker Task.osexp","C:\Users\rayra\Documents","no","mono","no","18","no","white","no","yes","768","legacy","1","1","C:/Users/rayra/Documents/subject-4.csv","legacy","NA","Lentiform Loewenfeld","3.3.9","0","None","NA","right","NA","NA","None","1500","NA","71500","NA","NA","1500","2","legacy","1024","2","48000","-16","experiment","HHSHH","4","even","76123","NA","NA","78337","77834","4617","NA","NA","79449","4622","NA","NA","79553","81053","79446","79552","Flanker Task","0","3000","2","yes","1024"
"NA","0","0","1500","1500","black","legacy","legacy","legacy","0","incongruent","uniform","0","undefined","0","s","0","0","0","2","2","0","2","0","2","0","0","0","2","2","2","2","Sun Sep 26 20:30:24 2021","1500","Flanker Task","yes","Flanker Task.osexp","C:\Users\rayra\Documents","no","mono","no","18","no","white","no","yes","768","legacy","2","2","C:/Users/rayra/Documents/subject-4.csv","legacy","NA","Lentiform Loewenfeld","3.3.9","0","None","NA","right","NA","NA","None","1500","NA","71500","NA","NA","1500","2","legacy","1024","2","48000","-16","experiment","HHSHH","4","even","76123","NA","NA","81562","81059","4617","NA","NA","82698","4622","NA","NA","82802","84302","82695","82802","Flanker Task","0","4500","3","yes","1024"
"NA","0","0","1500.25","1500.25","black","legacy","legacy","legacy","0","congruent","uniform","0","undefined","0","s","0","0","0","3","3","0","3","0","3","0","0","0","3","3","3","3","Sun Sep 26 20:30:24 2021","1500","Flanker Task","yes","Flanker Task.osexp","C:\Users\rayra\Documents","no","mono","no","18","no","white","no","yes","768","legacy","3","3","C:/Users/rayra/Documents/subject-4.csv","legacy","NA","Lentiform Loewenfeld","3.3.9","0","None","NA","right","NA","NA","None","1501","NA","71500","NA","NA","1501","2","legacy","1024","2","48000","-16","experiment","SSSSS","4","even","76123","NA","NA","84827","84324","4617","NA","NA","85951","4622","NA","NA","86054","87555","85948","86054","Flanker Task","0","6001","4","yes","1024"
"NA","20","20","1390","1390","black","legacy","legacy","legacy","0","congruent","uniform","1","undefined","1","s","0","0","0","4","4","0","4","0","4","0","0","0","4","4","4","4","Sun Sep 26 20:30:24 2021","1500","Flanker Task","yes","Flanker Task.osexp","C:\Users\rayra\Documents","no","mono","no","18","no","white","no","yes","768","legacy","4","4","C:/Users/rayra/Documents/subject-4.csv","legacy","NA","Lentiform Loewenfeld","3.3.9","0","s","NA","right","NA","NA","s","949","NA","71500","NA","NA","949","2","legacy","1024","2","48000","-16","experiment","SSSSS","4","even","76123","NA","NA","88568","87561","4617","88064","NA","89681","4622","NA","NA","89784","90734","89679","89784","Flanker Task","1","6950","5","yes","1024"
"NA","16.666666666666668","16.666666666666668","1408.3333333333333","1408.3333333333333","black","legacy","legacy","legacy","0","incongruent","uniform","0","undefined","0","s","0","0","0","5","5","0","5","0","5","0","0","0","5","5","5","5","Sun Sep 26 20:30:24 2021","1500","Flanker Task","yes","Flanker Task.osexp","C:\Users\rayra\Documents","no","mono","no","18","no","white","no","yes","768","legacy","5","5","C:/Users/rayra/Documents/subject-4.csv","legacy","NA","Lentiform Loewenfeld","3.3.9","0","None","NA","right","NA","NA","None","1500","NA","71500","NA","NA","1500","2","legacy","1024","2","48000","-16","experiment","HHSHH","4","even","76123","NA","NA","90741","87561","4617","88064","NA","91874","4622","NA","NA","91978","93478","91872","91977","Flanker Task","1","8450","6","yes","1024"
"NA","28.571428571428573","28.571428571428573","1406.142857142857","1406.142857142857","black","legacy","legacy","legacy","0","incongruent","uniform","1","undefined","1","h","0","0","0","6","6","0","6","0","6","0","0","0","6","6","6","6","Sun Sep 26 20:30:24 2021","1500","Flanker Task","yes","Flanker Task.osexp","C:\Users\rayra\Documents","no","mono","no","18","no","white","no","yes","768","legacy","6","6","C:/Users/rayra/Documents/subject-4.csv","legacy","NA","Lentiform Loewenfeld","3.3.9","0","h","NA","right","NA","NA","h","1393","NA","71500","NA","NA","1393","2","legacy","1024","2","48000","-16","experiment","SSHSS","4","even","76123","NA","NA","93986","93483","4617","88064","NA","95104","4622","NA","NA","95207","96601","95101","95207","Flanker Task","2","9843","7","yes","1024"
"NA","25","25","1417.875","1417.875","black","legacy","legacy","legacy","0","incongruent","uniform","0","undefined","0","s","0","0","0","7","7","0","7","0","7","0","0","0","7","7","7","7","Sun Sep 26 20:30:24 2021","1500","Flanker Task","yes","Flanker Task.osexp","C:\Users\rayra\Documents","no","mono","no","18","no","white","no","yes","768","legacy","7","7","C:/Users/rayra/Documents/subject-4.csv","legacy","NA","Lentiform Loewenfeld","3.3.9","0","None","NA","right","NA","NA","None","1500","NA","71500","NA","NA","1500","2","legacy","1024","2","48000","-16","experiment","HHSHH","4","even","76123","NA","NA","96607","93483","4617","88064","NA","97731","4622","NA","NA","97834","99334","97728","97834","Flanker Task","2","11343","8","yes","1024"
"NA","33.333333333333336","33.333333333333336","1394.4444444444443","1394.4444444444443","black","legacy","legacy","legacy","0","congruent","uniform","1","undefined","1","s","0","0","0","8","8","0","8","0","8","0","0","0","8","8","8","8","Sun Sep 26 20:30:24 2021","1500","Flanker Task","yes","Flanker Task.osexp","C:\Users\rayra\Documents","no","mono","no","18","no","white","no","yes","768","legacy","8","8","C:/Users/rayra/Documents/subject-4.csv","legacy","NA","Lentiform Loewenfeld","3.3.9","0","s","NA","right","NA","NA","s","1207","NA","71500","NA","NA","1207","2","legacy","1024","2","48000","-16","experiment","SSSSS","4","even","76123","NA","NA","99843","99340","4617","88064","NA","100955","4622","NA","NA","101058","102266","100953","101058","Flanker Task","3","12550","9","yes","1024"
"NA","40","40","1354.4","1354.4","black","legacy","legacy","legacy","0","incongruent","uniform","1","undefined","1","h","0","0","0","9","9","0","9","0","9","0","0","0","9","9","9","9","Sun Sep 26 20:30:24 2021","1500","Flanker Task","yes","Flanker Task.osexp","C:\Users\rayra\Documents","no","mono","no","18","no","white","no","yes","768","legacy","9","9","C:/Users/rayra/Documents/subject-4.csv","legacy","NA","Lentiform Loewenfeld","3.3.9","0","h","NA","right","NA","NA","h","994","NA","71500","NA","NA","994","2","legacy","1024","2","48000","-16","experiment","SSHSS","4","even","76123","NA","NA","102272","99340","4617","88064","NA","103404","4622","NA","NA","103507","104502","103401","103507","Flanker Task","4","13544","10","yes","1024"
"NA","45.45454545454545","45.45454545454545","1298.5454545454545","1298.5454545454545","black","legacy","legacy","legacy","0","incongruent","uniform","1","undefined","1","h","0","0","0","10","10","0","10","0","10","0","0","0","10","10","10","10","Sun Sep 26 20:30:24 2021","1500","Flanker Task","yes","Flanker Task.osexp","C:\Users\rayra\Documents","no","mono","no","18","no","white","no","yes","768","legacy","10","10","C:/Users/rayra/Documents/subject-4.csv","legacy","NA","Lentiform Loewenfeld","3.3.9","0","h","NA","right","NA","NA","h","740","NA","71500","NA","NA","740","2","legacy","1024","2","48000","-16","experiment","SSHSS","4","even","76123","NA","NA","104509","99340","4617","88064","NA","105638","4622","NA","NA","105741","106481","105635","105741","Flanker Task","5","14284","11","yes","1024"
"NA","50","50","1250.5833333333333","1250.5833333333333","black","legacy","legacy","legacy","0","congruent","uniform","1","undefined","1","s","0","0","0","11","11","0","11","0","11","0","0","0","11","11","11","11","Sun Sep 26 20:30:24 2021","1500","Flanker Task","yes","Flanker Task.osexp","C:\Users\rayra\Documents","no","mono","no","18","no","white","no","yes","768","legacy","11","11","C:/Users/rayra/Documents/subject-4.csv","legacy","NA","Lentiform Loewenfeld","3.3.9","0","s","NA","right","NA","NA","s","723","NA","71500","NA","NA","723","2","legacy","1024","2","48000","-16","experiment","SSSSS","4","even","76123","NA","NA","106488","99340","4617","88064","NA","107608","4622","NA","NA","107711","108434","107605","107710","Flanker Task","6","15007","12","yes","1024"
"NA","53.84615384615385","53.84615384615385","1209.7692307692307","1209.7692307692307","black","legacy","legacy","legacy","0","congruent","uniform","1","undefined","1","h","0","0","0","12","12","0","12","0","12","0","0","0","12","12","12","12","Sun Sep 26 20:30:24 2021","1500","Flanker Task","yes","Flanker Task.osexp","C:\Users\rayra\Documents","no","mono","no","18","no","white","no","yes","768","legacy","12","12","C:/Users/rayra/Documents/subject-4.csv","legacy","NA","Lentiform Loewenfeld","3.3.9","0","h","NA","right","NA","NA","h","720","NA","71500","NA","NA","720","2","legacy","1024","2","48000","-16","experiment","HHHHH","4","even","76123","NA","NA","108441","99340","4617","88064","NA","109575","4622","NA","NA","109678","110399","109572","109678","Flanker Task","7","15727","13","yes","1024"
"NA","57.142857142857146","57.142857142857146","1170.857142857143","1170.857142857143","black","legacy","legacy","legacy","0","congruent","uniform","1","undefined","1","s","0","0","0","13","13","0","13","0","13","0","0","0","13","13","13","13","Sun Sep 26 20:30:24 2021","1500","Flanker Task","yes","Flanker Task.osexp","C:\Users\rayra\Documents","no","mono","no","18","no","white","no","yes","768","legacy","13","13","C:/Users/rayra/Documents/subject-4.csv","legacy","NA","Lentiform Loewenfeld","3.3.9","0","s","NA","right","NA","NA","s","665","NA","71500","NA","NA","665","2","legacy","1024","2","48000","-16","experiment","SSSSS","4","even","76123","NA","NA","110405","99340","4617","88064","NA","111528","4622","NA","NA","111632","112297","111526","111631","Flanker Task","8","16392","14","yes","1024"
"NA","60","60","1165.4","1165.4","black","legacy","legacy","legacy","0","congruent","uniform","1","undefined","1","h","0","0","0","14","14","0","14","0","14","0","0","0","14","14","14","14","Sun Sep 26 20:30:24 2021","1500","Flanker Task","yes","Flanker Task.osexp","C:\Users\rayra\Documents","no","mono","no","18","no","white","no","yes","768","legacy","14","14","C:/Users/rayra/Documents/subject-4.csv","legacy","NA","Lentiform Loewenfeld","3.3.9","0","h","NA","right","NA","NA","h","1089","NA","71500","NA","NA","1089","2","legacy","1024","2","48000","-16","experiment","HHHHH","4","even","76123","NA","NA","112304","99340","4617","88064","NA","113428","4622","NA","NA","113531","114620","113424","113531","Flanker Task","9","17481","15","yes","1024"
"NA","62.5","62.5","1128.8125","1128.8125","black","legacy","legacy","legacy","0","congruent","uniform","1","undefined","1","s","0","0","0","15","15","0","15","0","15","0","0","0","15","15","15","15","Sun Sep 26 20:30:24 2021","1500","Flanker Task","yes","Flanker Task.osexp","C:\Users\rayra\Documents","no","mono","no","18","no","white","no","yes","768","legacy","15","15","C:/Users/rayra/Documents/subject-4.csv","legacy","NA","Lentiform Loewenfeld","3.3.9","0","s","NA","right","NA","NA","s","580","NA","71500","NA","NA","580","2","legacy","1024","2","48000","-16","experiment","SSSSS","4","even","76123","NA","NA","114628","99340","4617","88064","NA","115760","4622","NA","NA","115864","116444","115757","115864","Flanker Task","10","18061","16","yes","1024"
"NA","64.70588235294117","64.70588235294117","1104.0588235294117","1104.0588235294117","black","legacy","legacy","legacy","0","congruent","uniform","1","undefined","1","h","0","0","0","16","16","0","16","0","16","0","0","0","16","16","16","16","Sun Sep 26 20:30:24 2021","1500","Flanker Task","yes","Flanker Task.osexp","C:\Users\rayra\Documents","no","mono","no","18","no","white","no","yes","768","legacy","16","16","C:/Users/rayra/Documents/subject-4.csv","legacy","NA","Lentiform Loewenfeld","3.3.9","0","h","NA","right","NA","NA","h","708","NA","71500","NA","NA","708","2","legacy","1024","2","48000","-16","experiment","HHHHH","4","even","76123","NA","NA","116451","99340","4617","88064","NA","117571","4622","NA","NA","117676","118385","117568","117676","Flanker Task","11","18769","17","yes","1024"
"NA","66.66666666666667","66.66666666666667","1084.888888888889","1084.888888888889","black","legacy","legacy","legacy","0","incongruent","uniform","1","undefined","1","s","0","0","0","17","17","0","17","0","17","0","0","0","17","17","17","17","Sun Sep 26 20:30:24 2021","1500","Flanker Task","yes","Flanker Task.osexp","C:\Users\rayra\Documents","no","mono","no","18","no","white","no","yes","768","legacy","17","17","C:/Users/rayra/Documents/subject-4.csv","legacy","NA","Lentiform Loewenfeld","3.3.9","0","s","NA","right","NA","NA","s","759","NA","71500","NA","NA","759","2","legacy","1024","2","48000","-16","experiment","HHSHH","4","even","76123","NA","NA","118391","99340","4617","88064","NA","119525","4622","NA","NA","119628","120387","119522","119628","Flanker Task","12","19528","18","yes","1024"
"NA","68.42105263157895","68.42105263157895","1067.3157894736842","1067.3157894736842","black","legacy","legacy","legacy","0","incongruent","uniform","1","undefined","1","s","0","0","0","18","18","0","18","0","18","0","0","0","18","18","18","18","Sun Sep 26 20:30:24 2021","1500","Flanker Task","yes","Flanker Task.osexp","C:\Users\rayra\Documents","no","mono","no","18","no","white","no","yes","768","legacy","18","18","C:/Users/rayra/Documents/subject-4.csv","legacy","NA","Lentiform Loewenfeld","3.3.9","0","s","NA","right","NA","NA","s","751","NA","71500","NA","NA","751","2","legacy","1024","2","48000","-16","experiment","HHSHH","4","even","76123","NA","NA","120393","99340","4617","88064","NA","121504","4622","NA","NA","121608","122360","121501","121607","Flanker Task","13","20279","19","yes","1024"
"NA","70","70","1050.55","1050.55","black","legacy","legacy","legacy","0","congruent","uniform","1","undefined","1","s","0","0","0","19","19","0","19","0","19","0","0","0","19","19","19","19","Sun Sep 26 20:30:24 2021","1500","Flanker Task","yes","Flanker Task.osexp","C:\Users\rayra\Documents","no","mono","no","18","no","white","no","yes","768","legacy","19","19","C:/Users/rayra/Documents/subject-4.csv","legacy","NA","Lentiform Loewenfeld","3.3.9","0","s","NA","right","NA","NA","s","732","NA","71500","NA","NA","732","2","legacy","1024","2","48000","-16","experiment","SSSSS","4","even","76123","NA","NA","122367","99340","4617","88064","NA","123485","4622","NA","NA","123588","124321","123482","123588","Flanker Task","14","21011","20","yes","1024"
"NA","71.42857142857143","71.42857142857143","1042.6190476190477","1042.6190476190477","black","legacy","legacy","legacy","0","incongruent","uniform","1","undefined","1","s","0","0","0","20","20","0","20","0","20","0","0","0","20","20","20","20","Sun Sep 26 20:30:24 2021","1500","Flanker Task","yes","Flanker Task.osexp","C:\Users\rayra\Documents","no","mono","no","18","no","white","no","yes","768","legacy","20","20","C:/Users/rayra/Documents/subject-4.csv","legacy","NA","Lentiform Loewenfeld","3.3.9","0","s","NA","right","NA","NA","s","884","NA","71500","NA","NA","884","2","legacy","1024","2","48000","-16","experiment","HHSHH","4","even","76123","NA","NA","124327","99340","4617","88064","NA","125461","4622","NA","NA","125565","126450","125459","125565","Flanker Task","15","21895","21","yes","1024"
"NA","72.72727272727273","72.72727272727273","1020.0454545454545","1020.0454545454545","black","legacy","legacy","legacy","0","incongruent","uniform","1","undefined","1","s","0","0","0","21","21","0","21","0","21","0","0","0","21","21","21","21","Sun Sep 26 20:30:24 2021","1500","Flanker Task","yes","Flanker Task.osexp","C:\Users\rayra\Documents","no","mono","no","18","no","white","no","yes","768","legacy","21","21","C:/Users/rayra/Documents/subject-4.csv","legacy","NA","Lentiform Loewenfeld","3.3.9","0","s","NA","right","NA","NA","s","546","NA","71500","NA","NA","546","2","legacy","1024","2","48000","-16","experiment","HHSHH","4","even","76123","NA","NA","126457","99340","4617","88064","NA","127608","4622","NA","NA","127712","128259","127605","127712","Flanker Task","16","22441","22","yes","1024"
"NA","73.91304347826087","73.91304347826087","1004.5652173913044","1004.5652173913044","black","legacy","legacy","legacy","0","congruent","uniform","1","undefined","1","h","0","0","0","22","22","0","22","0","22","0","0","0","22","22","22","22","Sun Sep 26 20:30:24 2021","1500","Flanker Task","yes","Flanker Task.osexp","C:\Users\rayra\Documents","no","mono","no","18","no","white","no","yes","768","legacy","22","22","C:/Users/rayra/Documents/subject-4.csv","legacy","NA","Lentiform Loewenfeld","3.3.9","0","h","NA","right","NA","NA","h","664","NA","71500","NA","NA","664","2","legacy","1024","2","48000","-16","experiment","HHHHH","4","even","76123","NA","NA","128264","99340","4617","88064","NA","129398","4622","NA","NA","129501","130165","129396","129501","Flanker Task","17","23105","23","yes","1024"
"NA","75","75","990.2083333333334","990.2083333333334","black","legacy","legacy","legacy","0","congruent","uniform","1","undefined","1","h","0","0","0","23","23","0","23","0","23","0","0","0","23","23","23","23","Sun Sep 26 20:30:24 2021","1500","Flanker Task","yes","Flanker Task.osexp","C:\Users\rayra\Documents","no","mono","no","18","no","white","no","yes","768","legacy","23","23","C:/Users/rayra/Documents/subject-4.csv","legacy","NA","Lentiform Loewenfeld","3.3.9","0","h","NA","right","NA","NA","h","660","NA","71500","NA","NA","660","2","legacy","1024","2","48000","-16","experiment","HHHHH","4","even","76123","NA","NA","130171","99340","4617","88064","NA","131308","4622","NA","NA","131412","132072","131305","131412","Flanker Task","18","23765","24","yes","1024"
"NA","76","76","983.36","983.36","black","legacy","legacy","legacy","0","incongruent","uniform","1","undefined","1","h","0","0","0","24","24","0","24","0","24","0","0","0","24","24","24","24","Sun Sep 26 20:30:24 2021","1500","Flanker Task","yes","Flanker Task.osexp","C:\Users\rayra\Documents","no","mono","no","18","no","white","no","yes","768","legacy","24","24","C:/Users/rayra/Documents/subject-4.csv","legacy","NA","Lentiform Loewenfeld","3.3.9","0","h","NA","right","NA","NA","h","819","NA","71500","NA","NA","819","2","legacy","1024","2","48000","-16","experiment","SSHSS","4","even","76123","NA","NA","132078","99340","4617","88064","NA","133221","4622","NA","NA","133325","134145","133218","133325","Flanker Task","19","24584","25","yes","1024"
"NA","76.92307692307692","76.92307692307692","972.5","972.5","black","legacy","legacy","legacy","0","incongruent","uniform","1","undefined","1","h","0","0","0","25","25","0","25","0","25","0","0","0","25","25","25","25","Sun Sep 26 20:30:24 2021","1500","Flanker Task","yes","Flanker Task.osexp","C:\Users\rayra\Documents","no","mono","no","18","no","white","no","yes","768","legacy","25","25","C:/Users/rayra/Documents/subject-4.csv","legacy","NA","Lentiform Loewenfeld","3.3.9","0","h","NA","right","NA","NA","h","701","NA","71500","NA","NA","701","2","legacy","1024","2","48000","-16","experiment","SSHSS","4","even","76123","NA","NA","134152","99340","4617","88064","NA","135293","4622","NA","NA","135397","136099","135291","135397","Flanker Task","20","25285","26","yes","1024"
"NA","77.77777777777777","77.77777777777777","955","955","black","legacy","legacy","legacy","0","congruent","uniform","1","undefined","1","h","0","0","0","26","26","0","26","0","26","0","0","0","26","26","26","26","Sun Sep 26 20:30:24 2021","1500","Flanker Task","yes","Flanker Task.osexp","C:\Users\rayra\Documents","no","mono","no","18","no","white","no","yes","768","legacy","26","26","C:/Users/rayra/Documents/subject-4.csv","legacy","NA","Lentiform Loewenfeld","3.3.9","0","h","NA","right","NA","NA","h","500","NA","71500","NA","NA","500","2","legacy","1024","2","48000","-16","experiment","HHHHH","4","even","76123","NA","NA","136107","99340","4617","88064","NA","137231","4622","NA","NA","137336","137836","137229","137336","Flanker Task","21","25785","27","yes","1024"
"NA","78.57142857142857","78.57142857142857","941.5714285714286","941.5714285714286","black","legacy","legacy","legacy","0","incongruent","uniform","1","undefined","1","s","0","0","0","27","27","0","27","0","27","0","0","0","27","27","27","27","Sun Sep 26 20:30:24 2021","1500","Flanker Task","yes","Flanker Task.osexp","C:\Users\rayra\Documents","no","mono","no","18","no","white","no","yes","768","legacy","27","27","C:/Users/rayra/Documents/subject-4.csv","legacy","NA","Lentiform Loewenfeld","3.3.9","0","s","NA","right","NA","NA","s","579","NA","71500","NA","NA","579","2","legacy","1024","2","48000","-16","experiment","HHSHH","4","even","76123","NA","NA","137843","99340","4617","88064","NA","138987","4622","NA","NA","139091","139670","138984","139091","Flanker Task","22","26364","28","yes","1024"
"NA","79.3103448275862","79.3103448275862","936.0689655172414","936.0689655172414","black","legacy","legacy","legacy","0","incongruent","uniform","1","undefined","1","h","0","0","0","28","28","0","28","0","28","0","0","0","28","28","28","28","Sun Sep 26 20:30:24 2021","1500","Flanker Task","yes","Flanker Task.osexp","C:\Users\rayra\Documents","no","mono","no","18","no","white","no","yes","768","legacy","28","28","C:/Users/rayra/Documents/subject-4.csv","legacy","NA","Lentiform Loewenfeld","3.3.9","0","h","NA","right","NA","NA","h","782","NA","71500","NA","NA","782","2","legacy","1024","2","48000","-16","experiment","SSHSS","4","even","76123","NA","NA","139677","99340","4617","88064","NA","140820","4622","NA","NA","140924","141708","140817","140924","Flanker Task","23","27146","29","yes","1024"
"NA","80","80","926.8333333333334","926.8333333333334","black","legacy","legacy","legacy","0","incongruent","uniform","1","undefined","1","s","0","0","0","29","29","0","29","0","29","0","0","0","29","29","29","29","Sun Sep 26 20:30:24 2021","1500","Flanker Task","yes","Flanker Task.osexp","C:\Users\rayra\Documents","no","mono","no","18","no","white","no","yes","768","legacy","29","29","C:/Users/rayra/Documents/subject-4.csv","legacy","NA","Lentiform Loewenfeld","3.3.9","0","s","NA","right","NA","NA","s","659","NA","71500","NA","NA","659","2","legacy","1024","2","48000","-16","experiment","HHSHH","4","even","76123","NA","NA","141716","99340","4617","88064","NA","142848","4622","NA","NA","142952","143611","142845","142952","Flanker Task","24","27805","30","yes","1024"
"NA","80.64516129032258","80.64516129032258","915.8064516129032","915.8064516129032","black","legacy","legacy","legacy","0","congruent","uniform","1","undefined","1","s","0","0","0","30","30","0","30","0","30","0","0","0","30","30","30","30","Sun Sep 26 20:30:24 2021","1500","Flanker Task","yes","Flanker Task.osexp","C:\Users\rayra\Documents","no","mono","no","18","no","white","no","yes","768","legacy","30","30","C:/Users/rayra/Documents/subject-4.csv","legacy","NA","Lentiform Loewenfeld","3.3.9","0","s","NA","right","NA","NA","s","585","NA","71500","NA","NA","585","2","legacy","1024","2","48000","-16","experiment","SSSSS","4","even","76123","NA","NA","143618","99340","4617","88064","NA","144728","4622","NA","NA","144832","145418","144725","144832","Flanker Task","25","28390","31","yes","1024"
"NA","81.25","81.25","904.75","904.75","black","legacy","legacy","legacy","0","incongruent","uniform","1","undefined","1","s","0","0","0","31","31","0","31","0","31","0","0","0","31","31","31","31","Sun Sep 26 20:30:24 2021","1500","Flanker Task","yes","Flanker Task.osexp","C:\Users\rayra\Documents","no","mono","no","18","no","white","no","yes","768","legacy","31","31","C:/Users/rayra/Documents/subject-4.csv","legacy","NA","Lentiform Loewenfeld","3.3.9","0","s","NA","right","NA","NA","s","562","NA","71500","NA","NA","562","2","legacy","1024","2","48000","-16","experiment","HHSHH","4","even","76123","NA","NA","145424","99340","4617","88064","NA","146568","4622","NA","NA","146672","147234","146565","146672","Flanker Task","26","28952","32","yes","1024"
"NA","81.81818181818181","81.81818181818181","895.2424242424242","895.2424242424242","black","legacy","legacy","legacy","0","congruent","uniform","1","undefined","1","h","0","0","0","32","32","0","32","0","32","0","0","0","32","32","32","32","Sun Sep 26 20:30:24 2021","1500","Flanker Task","yes","Flanker Task.osexp","C:\Users\rayra\Documents","no","mono","no","18","no","white","no","yes","768","legacy","32","32","C:/Users/rayra/Documents/subject-4.csv","legacy","NA","Lentiform Loewenfeld","3.3.9","0","h","NA","right","NA","NA","h","591","NA","71500","NA","NA","591","2","legacy","1024","2","48000","-16","experiment","HHHHH","4","even","76123","NA","NA","147240","99340","4617","88064","NA","148361","4622","NA","NA","148466","149058","148359","148466","Flanker Task","27","29543","33","yes","1024"
"NA","82.3529411764706","82.3529411764706","886.6176470588235","886.6176470588235","black","legacy","legacy","legacy","0","congruent","uniform","1","undefined","1","s","0","0","0","33","33","0","33","0","33","0","0","0","33","33","33","33","Sun Sep 26 20:30:24 2021","1500","Flanker Task","yes","Flanker Task.osexp","C:\Users\rayra\Documents","no","mono","no","18","no","white","no","yes","768","legacy","33","33","C:/Users/rayra/Documents/subject-4.csv","legacy","NA","Lentiform Loewenfeld","3.3.9","0","s","NA","right","NA","NA","s","602","NA","71500","NA","NA","602","2","legacy","1024","2","48000","-16","experiment","SSSSS","4","even","76123","NA","NA","149065","99340","4617","88064","NA","150213","4622","NA","NA","150317","150920","150211","150317","Flanker Task","28","30145","34","yes","1024"
"NA","82.85714285714286","82.85714285714286","873.7714285714286","873.7714285714286","black","legacy","legacy","legacy","0","congruent","uniform","1","undefined","1","s","0","0","0","34","34","0","34","0","34","0","0","0","34","34","34","34","Sun Sep 26 20:30:24 2021","1500","Flanker Task","yes","Flanker Task.osexp","C:\Users\rayra\Documents","no","mono","no","18","no","white","no","yes","768","legacy","34","34","C:/Users/rayra/Documents/subject-4.csv","legacy","NA","Lentiform Loewenfeld","3.3.9","0","s","NA","right","NA","NA","s","437","NA","71500","NA","NA","437","2","legacy","1024","2","48000","-16","experiment","SSSSS","4","even","76123","NA","NA","150925","99340","4617","88064","NA","152058","4622","NA","NA","152162","152600","152055","152161","Flanker Task","29","30582","35","yes","1024"
"NA","80.55555555555556","80.55555555555556","862.7222222222222","862.7222222222222","black","legacy","legacy","legacy","0","incongruent","uniform","0","undefined","0","h","0","0","0","35","35","0","35","0","35","0","0","0","35","35","35","35","Sun Sep 26 20:30:24 2021","1500","Flanker Task","yes","Flanker Task.osexp","C:\Users\rayra\Documents","no","mono","no","18","no","white","no","yes","768","legacy","35","35","C:/Users/rayra/Documents/subject-4.csv","legacy","NA","Lentiform Loewenfeld","3.3.9","0","s","NA","right","NA","NA","s","476","NA","71500","NA","NA","476","2","legacy","1024","2","48000","-16","experiment","SSHSS","4","even","76123","NA","NA","152606","99340","4617","88064","NA","153742","4622","NA","NA","153846","154324","153740","153846","Flanker Task","29","31058","36","yes","1024"
"NA","81.08108108108108","81.08108108108108","855.9459459459459","855.9459459459459","black","legacy","legacy","legacy","0","congruent","uniform","1","undefined","1","s","0","0","0","36","36","0","36","0","36","0","0","0","36","36","36","36","Sun Sep 26 20:30:24 2021","1500","Flanker Task","yes","Flanker Task.osexp","C:\Users\rayra\Documents","no","mono","no","18","no","white","no","yes","768","legacy","36","36","C:/Users/rayra/Documents/subject-4.csv","legacy","NA","Lentiform Loewenfeld","3.3.9","0","s","NA","right","NA","NA","s","612","NA","71500","NA","NA","612","2","legacy","1024","2","48000","-16","experiment","SSSSS","4","even","76123","NA","NA","154837","154333","4617","88064","NA","155952","4622","NA","NA","156056","156668","155949","156056","Flanker Task","30","31670","37","yes","1024"
"NA","81.57894736842105","81.57894736842105","861.2105263157895","861.2105263157895","black","legacy","legacy","legacy","0","incongruent","uniform","1","undefined","1","s","0","0","0","37","37","0","37","0","37","0","0","0","37","37","37","37","Sun Sep 26 20:30:24 2021","1500","Flanker Task","yes","Flanker Task.osexp","C:\Users\rayra\Documents","no","mono","no","18","no","white","no","yes","768","legacy","37","37","C:/Users/rayra/Documents/subject-4.csv","legacy","NA","Lentiform Loewenfeld","3.3.9","0","s","NA","right","NA","NA","s","1056","NA","71500","NA","NA","1056","2","legacy","1024","2","48000","-16","experiment","HHSHH","4","even","76123","NA","NA","156675","154333","4617","88064","NA","157820","4622","NA","NA","157925","158981","157818","157925","Flanker Task","31","32726","38","yes","1024"
"NA","82.05128205128206","82.05128205128206","857.7179487179487","857.7179487179487","black","legacy","legacy","legacy","0","congruent","uniform","1","undefined","1","h","0","0","0","38","38","0","38","0","38","0","0","0","38","38","38","38","Sun Sep 26 20:30:24 2021","1500","Flanker Task","yes","Flanker Task.osexp","C:\Users\rayra\Documents","no","mono","no","18","no","white","no","yes","768","legacy","38","38","C:/Users/rayra/Documents/subject-4.csv","legacy","NA","Lentiform Loewenfeld","3.3.9","0","h","NA","right","NA","NA","h","725","NA","71500","NA","NA","725","2","legacy","1024","2","48000","-16","experiment","HHHHH","4","even","76123","NA","NA","158987","154333","4617","88064","NA","160122","4622","NA","NA","160226","160951","160120","160225","Flanker Task","32","33451","39","yes","1024"
"NA","82.5","82.5","858.175","858.175","black","legacy","legacy","legacy","0","incongruent","uniform","1","undefined","1","h","0","0","0","39","39","0","39","0","39","0","0","0","39","39","39","39","Sun Sep 26 20:30:24 2021","1500","Flanker Task","yes","Flanker Task.osexp","C:\Users\rayra\Documents","no","mono","no","18","no","white","no","yes","768","legacy","39","39","C:/Users/rayra/Documents/subject-4.csv","legacy","NA","Lentiform Loewenfeld","3.3.9","0","h","NA","right","NA","NA","h","876","NA","71500","NA","NA","876","2","legacy","1024","2","48000","-16","experiment","SSHSS","4","even","76123","NA","NA","160957","154333","4617","88064","NA","162104","4622","NA","NA","162207","163084","162101","162207","Flanker Task","33","34327","40","yes","1024"
"NA","82.92682926829268","82.92682926829268","853.9268292682926","853.9268292682926","black","legacy","legacy","legacy","0","incongruent","uniform","1","undefined","1","h","0","0","0","40","40","0","40","0","40","0","0","0","40","40","40","40","Sun Sep 26 20:30:24 2021","1500","Flanker Task","yes","Flanker Task.osexp","C:\Users\rayra\Documents","no","mono","no","18","no","white","no","yes","768","legacy","40","40","C:/Users/rayra/Documents/subject-4.csv","legacy","NA","Lentiform Loewenfeld","3.3.9","0","h","NA","right","NA","NA","h","684","NA","71500","NA","NA","684","2","legacy","1024","2","48000","-16","experiment","SSHSS","4","even","76123","NA","NA","163092","154333","4617","88064","NA","164199","4622","NA","NA","164303","164988","164196","164302","Flanker Task","34","35011","41","yes","1024"
"NA","83.33333333333333","83.33333333333333","851.1428571428571","851.1428571428571","black","legacy","legacy","legacy","0","congruent","uniform","1","undefined","1","h","0","0","0","41","41","0","41","0","41","0","0","0","41","41","41","41","Sun Sep 26 20:30:24 2021","1500","Flanker Task","yes","Flanker Task.osexp","C:\Users\rayra\Documents","no","mono","no","18","no","white","no","yes","768","legacy","41","41","C:/Users/rayra/Documents/subject-4.csv","legacy","NA","Lentiform Loewenfeld","3.3.9","0","h","NA","right","NA","NA","h","737","NA","71500","NA","NA","737","2","legacy","1024","2","48000","-16","experiment","HHHHH","4","even","76123","NA","NA","164994","154333","4617","88064","NA","166123","4622","NA","NA","166226","166964","166120","166226","Flanker Task","35","35748","42","yes","1024"
"NA","83.72093023255815","83.72093023255815","849.3953488372093","849.3953488372093","black","legacy","legacy","legacy","0","incongruent","uniform","1","undefined","1","s","0","0","0","42","42","0","42","0","42","0","0","0","42","42","42","42","Sun Sep 26 20:30:24 2021","1500","Flanker Task","yes","Flanker Task.osexp","C:\Users\rayra\Documents","no","mono","no","18","no","white","no","yes","768","legacy","42","42","C:/Users/rayra/Documents/subject-4.csv","legacy","NA","Lentiform Loewenfeld","3.3.9","0","s","NA","right","NA","NA","s","776","NA","71500","NA","NA","776","2","legacy","1024","2","48000","-16","experiment","HHSHH","4","even","76123","NA","NA","166970","154333","4617","88064","NA","168111","4622","NA","NA","168215","168992","168108","168215","Flanker Task","36","36524","43","yes","1024"
"NA","84.0909090909091","84.0909090909091","851.2954545454545","851.2954545454545","black","legacy","legacy","legacy","0","incongruent","uniform","1","undefined","1","h","0","0","0","43","43","0","43","0","43","0","0","0","43","43","43","43","Sun Sep 26 20:30:24 2021","1500","Flanker Task","yes","Flanker Task.osexp","C:\Users\rayra\Documents","no","mono","no","18","no","white","no","yes","768","legacy","43","43","C:/Users/rayra/Documents/subject-4.csv","legacy","NA","Lentiform Loewenfeld","3.3.9","0","h","NA","right","NA","NA","h","933","NA","71500","NA","NA","933","2","legacy","1024","2","48000","-16","experiment","SSHSS","4","even","76123","NA","NA","169000","154333","4617","88064","NA","170128","4622","NA","NA","170231","171165","170125","170231","Flanker Task","37","37457","44","yes","1024"
"NA","84.44444444444444","84.44444444444444","849.4","849.4","black","legacy","legacy","legacy","0","incongruent","uniform","1","undefined","1","s","0","0","0","44","44","0","44","0","44","0","0","0","44","44","44","44","Sun Sep 26 20:30:24 2021","1500","Flanker Task","yes","Flanker Task.osexp","C:\Users\rayra\Documents","no","mono","no","18","no","white","no","yes","768","legacy","44","44","C:/Users/rayra/Documents/subject-4.csv","legacy","NA","Lentiform Loewenfeld","3.3.9","0","s","NA","right","NA","NA","s","766","NA","71500","NA","NA","766","2","legacy","1024","2","48000","-16","experiment","HHSHH","4","even","76123","NA","NA","171171","154333","4617","88064","NA","172269","4622","NA","NA","172372","173139","172267","172372","Flanker Task","38","38223","45","yes","1024"
"NA","84.78260869565217","84.78260869565217","851.4565217391304","851.4565217391304","black","legacy","legacy","legacy","0","incongruent","uniform","1","undefined","1","s","0","0","0","45","45","0","45","0","45","0","0","0","45","45","45","45","Sun Sep 26 20:30:24 2021","1500","Flanker Task","yes","Flanker Task.osexp","C:\Users\rayra\Documents","no","mono","no","18","no","white","no","yes","768","legacy","45","45","C:/Users/rayra/Documents/subject-4.csv","legacy","NA","Lentiform Loewenfeld","3.3.9","0","s","NA","right","NA","NA","s","944","NA","71500","NA","NA","944","2","legacy","1024","2","48000","-16","experiment","HHSHH","4","even","76123","NA","NA","173145","154333","4617","88064","NA","174271","4622","NA","NA","174376","175321","174268","174375","Flanker Task","39","39167","46","yes","1024"
"NA","85.1063829787234","85.1063829787234","849.1914893617021","849.1914893617021","black","legacy","legacy","legacy","0","incongruent","uniform","1","undefined","1","h","0","0","0","46","46","0","46","0","46","0","0","0","46","46","46","46","Sun Sep 26 20:30:24 2021","1500","Flanker Task","yes","Flanker Task.osexp","C:\Users\rayra\Documents","no","mono","no","18","no","white","no","yes","768","legacy","46","46","C:/Users/rayra/Documents/subject-4.csv","legacy","NA","Lentiform Loewenfeld","3.3.9","0","h","NA","right","NA","NA","h","745","NA","71500","NA","NA","745","2","legacy","1024","2","48000","-16","experiment","SSHSS","4","even","76123","NA","NA","175328","154333","4617","88064","NA","176458","4622","NA","NA","176561","177306","176456","176561","Flanker Task","40","39912","47","yes","1024"
"NA","85.41666666666667","85.41666666666667","847.5625","847.5625","black","legacy","legacy","legacy","0","congruent","uniform","1","undefined","1","h","0","0","0","47","47","0","47","0","47","0","0","0","47","47","47","47","Sun Sep 26 20:30:24 2021","1500","Flanker Task","yes","Flanker Task.osexp","C:\Users\rayra\Documents","no","mono","no","18","no","white","no","yes","768","legacy","47","47","C:/Users/rayra/Documents/subject-4.csv","legacy","NA","Lentiform Loewenfeld","3.3.9","0","h","NA","right","NA","NA","h","771","NA","71500","NA","NA","771","2","legacy","1024","2","48000","-16","experiment","HHHHH","4","even","76123","NA","NA","177313","154333","4617","88064","NA","178448","4622","NA","NA","178551","179323","178445","178551","Flanker Task","41","40683","48","yes","1024"
"NA","85.71428571428571","85.71428571428571","853.1428571428571","853.1428571428571","black","legacy","legacy","legacy","0","incongruent","uniform","1","undefined","1","h","0","0","0","48","48","0","48","0","48","0","0","0","48","48","48","48","Sun Sep 26 20:30:24 2021","1500","Flanker Task","yes","Flanker Task.osexp","C:\Users\rayra\Documents","no","mono","no","18","no","white","no","yes","768","legacy","48","48","C:/Users/rayra/Documents/subject-4.csv","legacy","NA","Lentiform Loewenfeld","3.3.9","0","h","NA","right","NA","NA","h","1121","NA","71500","NA","NA","1121","2","legacy","1024","2","48000","-16","experiment","SSHSS","4","even","76123","NA","NA","179329","154333","4617","88064","NA","180465","4622","NA","NA","180568","181690","180462","180568","Flanker Task","42","41804","49","yes","1024"
"NA","86","86","851.02","851.02","black","legacy","legacy","legacy","0","incongruent","uniform","1","undefined","1","h","0","0","0","49","49","0","49","0","49","0","0","0","49","49","49","49","Sun Sep 26 20:30:24 2021","1500","Flanker Task","yes","Flanker Task.osexp","C:\Users\rayra\Documents","no","mono","no","18","no","white","no","yes","768","legacy","49","49","C:/Users/rayra/Documents/subject-4.csv","legacy","NA","Lentiform Loewenfeld","3.3.9","0","h","NA","right","NA","NA","h","747","NA","71500","NA","NA","747","2","legacy","1024","2","48000","-16","experiment","SSHSS","4","even","76123","NA","NA","181696","154333","4617","88064","NA","182831","4622","NA","NA","182935","183683","182828","182935","Flanker Task","43","42551","50","yes","1024"
"NA","86.27450980392157","86.27450980392157","847.9019607843137","847.9019607843137","black","legacy","legacy","legacy","0","incongruent","uniform","1","undefined","1","s","0","0","0","50","50","0","50","0","50","0","0","0","50","50","50","50","Sun Sep 26 20:30:24 2021","1500","Flanker Task","yes","Flanker Task.osexp","C:\Users\rayra\Documents","no","mono","no","18","no","white","no","yes","768","legacy","50","50","C:/Users/rayra/Documents/subject-4.csv","legacy","NA","Lentiform Loewenfeld","3.3.9","0","s","NA","right","NA","NA","s","692","NA","71500","NA","NA","692","2","legacy","1024","2","48000","-16","experiment","HHSHH","4","even","76123","NA","NA","183689","154333","4617","88064","NA","184807","4622","NA","NA","184911","185603","184804","184910","Flanker Task","44","43243","51","yes","1024"
"NA","86.53846153846153","86.53846153846153","844.3269230769231","844.3269230769231","black","legacy","legacy","legacy","0","congruent","uniform","1","undefined","1","h","0","0","0","51","51","0","51","0","51","0","0","0","51","51","51","51","Sun Sep 26 20:30:24 2021","1500","Flanker Task","yes","Flanker Task.osexp","C:\Users\rayra\Documents","no","mono","no","18","no","white","no","yes","768","legacy","51","51","C:/Users/rayra/Documents/subject-4.csv","legacy","NA","Lentiform Loewenfeld","3.3.9","0","h","NA","right","NA","NA","h","662","NA","71500","NA","NA","662","2","legacy","1024","2","48000","-16","experiment","HHHHH","4","even","76123","NA","NA","185610","154333","4617","88064","NA","186749","4622","NA","NA","186852","187514","186746","186852","Flanker Task","45","43905","52","yes","1024"
"NA","86.79245283018868","86.79245283018868","839.566037735849","839.566037735849","black","legacy","legacy","legacy","0","congruent","uniform","1","undefined","1","s","0","0","0","52","52","0","52","0","52","0","0","0","52","52","52","52","Sun Sep 26 20:30:24 2021","1500","Flanker Task","yes","Flanker Task.osexp","C:\Users\rayra\Documents","no","mono","no","18","no","white","no","yes","768","legacy","52","52","C:/Users/rayra/Documents/subject-4.csv","legacy","NA","Lentiform Loewenfeld","3.3.9","0","s","NA","right","NA","NA","s","592","NA","71500","NA","NA","592","2","legacy","1024","2","48000","-16","experiment","SSSSS","4","even","76123","NA","NA","187522","154333","4617","88064","NA","188667","4622","NA","NA","188771","189364","188664","188770","Flanker Task","46","44497","53","yes","1024"
"NA","87.03703703703704","87.03703703703704","838.6296296296297","838.6296296296297","black","legacy","legacy","legacy","0","incongruent","uniform","1","undefined","1","s","0","0","0","53","53","0","53","0","53","0","0","0","53","53","53","53","Sun Sep 26 20:30:24 2021","1500","Flanker Task","yes","Flanker Task.osexp","C:\Users\rayra\Documents","no","mono","no","18","no","white","no","yes","768","legacy","53","53","C:/Users/rayra/Documents/subject-4.csv","legacy","NA","Lentiform Loewenfeld","3.3.9","0","s","NA","right","NA","NA","s","789","NA","71500","NA","NA","789","2","legacy","1024","2","48000","-16","experiment","HHSHH","4","even","76123","NA","NA","189371","154333","4617","88064","NA","190516","4622","NA","NA","190619","191409","190513","190619","Flanker Task","47","45286","54","yes","1024"
"NA","87.27272727272727","87.27272727272727","835.1272727272727","835.1272727272727","black","legacy","legacy","legacy","0","congruent","uniform","1","undefined","1","h","0","0","0","54","54","0","54","0","54","0","0","0","54","54","54","54","Sun Sep 26 20:30:24 2021","1500","Flanker Task","yes","Flanker Task.osexp","C:\Users\rayra\Documents","no","mono","no","18","no","white","no","yes","768","legacy","54","54","C:/Users/rayra/Documents/subject-4.csv","legacy","NA","Lentiform Loewenfeld","3.3.9","0","h","NA","right","NA","NA","h","646","NA","71500","NA","NA","646","2","legacy","1024","2","48000","-16","experiment","HHHHH","4","even","76123","NA","NA","191416","154333","4617","88064","NA","192555","4622","NA","NA","192658","193305","192552","192658","Flanker Task","48","45932","55","yes","1024"
"NA","87.5","87.5","830.1071428571429","830.1071428571429","black","legacy","legacy","legacy","0","congruent","uniform","1","undefined","1","h","0","0","0","55","55","0","55","0","55","0","0","0","55","55","55","55","Sun Sep 26 20:30:24 2021","1500","Flanker Task","yes","Flanker Task.osexp","C:\Users\rayra\Documents","no","mono","no","18","no","white","no","yes","768","legacy","55","55","C:/Users/rayra/Documents/subject-4.csv","legacy","NA","Lentiform Loewenfeld","3.3.9","0","h","NA","right","NA","NA","h","554","NA","71500","NA","NA","554","2","legacy","1024","2","48000","-16","experiment","HHHHH","4","even","76123","NA","NA","193311","154333","4617","88064","NA","194457","4622","NA","NA","194561","195116","194454","194561","Flanker Task","49","46486","56","yes","1024"
"NA","87.71929824561404","87.71929824561404","825.1228070175439","825.1228070175439","black","legacy","legacy","legacy","0","congruent","uniform","1","undefined","1","h","0","0","0","56","56","0","56","0","56","0","0","0","56","56","56","56","Sun Sep 26 20:30:24 2021","1500","Flanker Task","yes","Flanker Task.osexp","C:\Users\rayra\Documents","no","mono","no","18","no","white","no","yes","768","legacy","56","56","C:/Users/rayra/Documents/subject-4.csv","legacy","NA","Lentiform Loewenfeld","3.3.9","0","h","NA","right","NA","NA","h","546","NA","71500","NA","NA","546","2","legacy","1024","2","48000","-16","experiment","HHHHH","4","even","76123","NA","NA","195122","154333","4617","88064","NA","196252","4622","NA","NA","196356","196904","196249","196356","Flanker Task","50","47032","57","yes","1024"
"NA","87.93103448275862","87.93103448275862","823.9827586206897","823.9827586206897","black","legacy","legacy","legacy","0","incongruent","uniform","1","undefined","1","h","0","0","0","57","57","0","57","0","57","0","0","0","57","57","57","57","Sun Sep 26 20:30:24 2021","1500","Flanker Task","yes","Flanker Task.osexp","C:\Users\rayra\Documents","no","mono","no","18","no","white","no","yes","768","legacy","57","57","C:/Users/rayra/Documents/subject-4.csv","legacy","NA","Lentiform Loewenfeld","3.3.9","0","h","NA","right","NA","NA","h","759","NA","71500","NA","NA","759","2","legacy","1024","2","48000","-16","experiment","SSHSS","4","even","76123","NA","NA","196911","154333","4617","88064","NA","198030","4622","NA","NA","198134","198894","198028","198134","Flanker Task","51","47791","58","yes","1024"
"NA","86.44067796610169","86.44067796610169","821.1016949152543","821.1016949152543","black","legacy","legacy","legacy","0","incongruent","uniform","0","undefined","0","h","0","0","0","58","58","0","58","0","58","0","0","0","58","58","58","58","Sun Sep 26 20:30:24 2021","1500","Flanker Task","yes","Flanker Task.osexp","C:\Users\rayra\Documents","no","mono","no","18","no","white","no","yes","768","legacy","58","58","C:/Users/rayra/Documents/subject-4.csv","legacy","NA","Lentiform Loewenfeld","3.3.9","0","s","NA","right","NA","NA","s","654","NA","71500","NA","NA","654","2","legacy","1024","2","48000","-16","experiment","SSHSS","4","even","76123","NA","NA","198901","154333","4617","88064","NA","200039","4622","NA","NA","200143","200798","200036","200143","Flanker Task","51","48445","59","yes","1024"
"NA","86.66666666666667","86.66666666666667","818.5666666666667","818.5666666666667","black","legacy","legacy","legacy","0","congruent","uniform","1","undefined","1","h","0","0","0","59","59","0","59","0","59","0","0","0","59","59","59","59","Sun Sep 26 20:30:24 2021","1500","Flanker Task","yes","Flanker Task.osexp","C:\Users\rayra\Documents","no","mono","no","18","no","white","no","yes","768","legacy","59","59","C:/Users/rayra/Documents/subject-4.csv","legacy","NA","Lentiform Loewenfeld","3.3.9","0","h","NA","right","NA","NA","h","669","NA","71500","NA","NA","669","2","legacy","1024","2","48000","-16","experiment","HHHHH","4","even","76123","NA","NA","201310","200806","4617","88064","NA","202417","4622","NA","NA","202521","203190","202415","202521","Flanker Task","52","49114","60","yes","1024"
"NA","86.88524590163935","86.88524590163935","820.639344262295","820.639344262295","black","legacy","legacy","legacy","0","incongruent","uniform","1","undefined","1","h","0","0","0","60","60","0","60","0","60","0","0","0","60","60","60","60","Sun Sep 26 20:30:24 2021","1500","Flanker Task","yes","Flanker Task.osexp","C:\Users\rayra\Documents","no","mono","no","18","no","white","no","yes","768","legacy","60","60","C:/Users/rayra/Documents/subject-4.csv","legacy","NA","Lentiform Loewenfeld","3.3.9","0","h","NA","right","NA","NA","h","945","NA","71500","NA","NA","945","2","legacy","1024","2","48000","-16","experiment","SSHSS","4","even","76123","NA","NA","203197","200806","4617","88064","NA","204341","4622","NA","NA","204446","205392","204338","204446","Flanker Task","53","50059","61","yes","1024"
"NA","87.09677419354838","87.09677419354838","820","820","black","legacy","legacy","legacy","0","incongruent","uniform","1","undefined","1","s","0","0","0","61","61","0","61","0","61","0","0","0","61","61","61","61","Sun Sep 26 20:30:24 2021","1500","Flanker Task","yes","Flanker Task.osexp","C:\Users\rayra\Documents","no","mono","no","18","no","white","no","yes","768","legacy","61","61","C:/Users/rayra/Documents/subject-4.csv","legacy","NA","Lentiform Loewenfeld","3.3.9","0","s","NA","right","NA","NA","s","781","NA","71500","NA","NA","781","2","legacy","1024","2","48000","-16","experiment","HHSHH","4","even","76123","NA","NA","205399","200806","4617","88064","NA","206522","4622","NA","NA","206625","207407","206519","206625","Flanker Task","54","50840","62","yes","1024"
"NA","87.3015873015873","87.3015873015873","818.1746031746031","818.1746031746031","black","legacy","legacy","legacy","0","congruent","uniform","1","undefined","1","h","0","0","0","62","62","0","62","0","62","0","0","0","62","62","62","62","Sun Sep 26 20:30:24 2021","1500","Flanker Task","yes","Flanker Task.osexp","C:\Users\rayra\Documents","no","mono","no","18","no","white","no","yes","768","legacy","62","62","C:/Users/rayra/Documents/subject-4.csv","legacy","NA","Lentiform Loewenfeld","3.3.9","0","h","NA","right","NA","NA","h","705","NA","71500","NA","NA","705","2","legacy","1024","2","48000","-16","experiment","HHHHH","4","even","76123","NA","NA","207414","200806","4617","88064","NA","208549","4622","NA","NA","208652","209359","208547","208652","Flanker Task","55","51545","63","yes","1024"
"NA","87.5","87.5","820.015625","820.015625","black","legacy","legacy","legacy","0","incongruent","uniform","1","undefined","1","h","0","0","0","63","63","0","63","0","63","0","0","0","63","63","63","63","Sun Sep 26 20:30:24 2021","1500","Flanker Task","yes","Flanker Task.osexp","C:\Users\rayra\Documents","no","mono","no","18","no","white","no","yes","768","legacy","63","63","C:/Users/rayra/Documents/subject-4.csv","legacy","NA","Lentiform Loewenfeld","3.3.9","0","h","NA","right","NA","NA","h","936","NA","71500","NA","NA","936","2","legacy","1024","2","48000","-16","experiment","SSHSS","4","even","76123","NA","NA","209365","200806","4617","88064","NA","210510","4622","NA","NA","210613","211550","210507","210613","Flanker Task","56","52481","64","yes","1024"
"NA","87.6923076923077","87.6923076923077","816.7846153846153","816.7846153846153","black","legacy","legacy","legacy","0","congruent","uniform","1","undefined","1","s","0","0","0","64","64","0","64","0","64","0","0","0","64","64","64","64","Sun Sep 26 20:30:24 2021","1500","Flanker Task","yes","Flanker Task.osexp","C:\Users\rayra\Documents","no","mono","no","18","no","white","no","yes","768","legacy","64","64","C:/Users/rayra/Documents/subject-4.csv","legacy","NA","Lentiform Loewenfeld","3.3.9","0","s","NA","right","NA","NA","s","610","NA","71500","NA","NA","610","2","legacy","1024","2","48000","-16","experiment","SSSSS","4","even","76123","NA","NA","211556","200806","4617","88064","NA","212688","4622","NA","NA","212791","213402","212686","212791","Flanker Task","57","53091","65","yes","1024"
"NA","87.87878787878788","87.87878787878788","813.439393939394","813.439393939394","black","legacy","legacy","legacy","0","congruent","uniform","1","undefined","1","s","0","0","0","65","65","0","65","0","65","0","0","0","65","65","65","65","Sun Sep 26 20:30:24 2021","1500","Flanker Task","yes","Flanker Task.osexp","C:\Users\rayra\Documents","no","mono","no","18","no","white","no","yes","768","legacy","65","65","C:/Users/rayra/Documents/subject-4.csv","legacy","NA","Lentiform Loewenfeld","3.3.9","0","s","NA","right","NA","NA","s","596","NA","71500","NA","NA","596","2","legacy","1024","2","48000","-16","experiment","SSSSS","4","even","76123","NA","NA","213409","200806","4617","88064","NA","214543","4622","NA","NA","214647","215245","214540","214647","Flanker Task","58","53687","66","yes","1024"
"NA","88.05970149253731","88.05970149253731","812.1343283582089","812.1343283582089","black","legacy","legacy","legacy","0","congruent","uniform","1","undefined","1","h","0","0","0","66","66","0","66","0","66","0","0","0","66","66","66","66","Sun Sep 26 20:30:24 2021","1500","Flanker Task","yes","Flanker Task.osexp","C:\Users\rayra\Documents","no","mono","no","18","no","white","no","yes","768","legacy","66","66","C:/Users/rayra/Documents/subject-4.csv","legacy","NA","Lentiform Loewenfeld","3.3.9","0","h","NA","right","NA","NA","h","726","NA","71500","NA","NA","726","2","legacy","1024","2","48000","-16","experiment","HHHHH","4","even","76123","NA","NA","215251","200806","4617","88064","NA","216386","4622","NA","NA","216490","217217","216383","216490","Flanker Task","59","54413","67","yes","1024"
"NA","88.23529411764706","88.23529411764706","815.1029411764706","815.1029411764706","black","legacy","legacy","legacy","0","incongruent","uniform","1","undefined","1","h","0","0","0","67","67","0","67","0","67","0","0","0","67","67","67","67","Sun Sep 26 20:30:24 2021","1500","Flanker Task","yes","Flanker Task.osexp","C:\Users\rayra\Documents","no","mono","no","18","no","white","no","yes","768","legacy","67","67","C:/Users/rayra/Documents/subject-4.csv","legacy","NA","Lentiform Loewenfeld","3.3.9","0","h","NA","right","NA","NA","h","1014","NA","71500","NA","NA","1014","2","legacy","1024","2","48000","-16","experiment","SSHSS","4","even","76123","NA","NA","217224","200806","4617","88064","NA","218347","4622","NA","NA","218451","219466","218345","218451","Flanker Task","60","55427","68","yes","1024"
"NA","88.40579710144928","88.40579710144928","811.2898550724638","811.2898550724638","black","legacy","legacy","legacy","0","congruent","uniform","1","undefined","1","h","0","0","0","68","68","0","68","0","68","0","0","0","68","68","68","68","Sun Sep 26 20:30:24 2021","1500","Flanker Task","yes","Flanker Task.osexp","C:\Users\rayra\Documents","no","mono","no","18","no","white","no","yes","768","legacy","68","68","C:/Users/rayra/Documents/subject-4.csv","legacy","NA","Lentiform Loewenfeld","3.3.9","0","h","NA","right","NA","NA","h","552","NA","71500","NA","NA","552","2","legacy","1024","2","48000","-16","experiment","HHHHH","4","even","76123","NA","NA","219473","200806","4617","88064","NA","220619","4622","NA","NA","220722","221276","220616","220722","Flanker Task","61","55979","69","yes","1024"
"NA","88.57142857142857","88.57142857142857","809.6857142857143","809.6857142857143","black","legacy","legacy","legacy","0","incongruent","uniform","1","undefined","1","s","0","0","0","69","69","0","69","0","69","0","0","0","69","69","69","69","Sun Sep 26 20:30:24 2021","1500","Flanker Task","yes","Flanker Task.osexp","C:\Users\rayra\Documents","no","mono","no","18","no","white","no","yes","768","legacy","69","69","C:/Users/rayra/Documents/subject-4.csv","legacy","NA","Lentiform Loewenfeld","3.3.9","0","s","NA","right","NA","NA","s","699","NA","71500","NA","NA","699","2","legacy","1024","2","48000","-16","experiment","HHSHH","4","even","76123","NA","NA","221284","200806","4617","88064","NA","222408","4622","NA","NA","222512","223213","222406","222511","Flanker Task","62","56678","70","yes","1024"
"NA","88.73239436619718","88.73239436619718","809.0422535211268","809.0422535211268","black","legacy","legacy","legacy","0","congruent","uniform","1","undefined","1","h","0","0","0","70","70","0","70","0","70","0","0","0","70","70","70","70","Sun Sep 26 20:30:24 2021","1500","Flanker Task","yes","Flanker Task.osexp","C:\Users\rayra\Documents","no","mono","no","18","no","white","no","yes","768","legacy","70","70","C:/Users/rayra/Documents/subject-4.csv","legacy","NA","Lentiform Loewenfeld","3.3.9","0","h","NA","right","NA","NA","h","764","NA","71500","NA","NA","764","2","legacy","1024","2","48000","-16","experiment","HHHHH","4","even","76123","NA","NA","223220","200806","4617","88064","NA","224344","4622","NA","NA","224448","225214","224341","224448","Flanker Task","63","57442","71","yes","1024"
"NA","88.88888888888889","88.88888888888889","806.8611111111111","806.8611111111111","black","legacy","legacy","legacy","0","congruent","uniform","1","undefined","1","h","0","0","0","71","71","0","71","0","71","0","0","0","71","71","71","71","Sun Sep 26 20:30:24 2021","1500","Flanker Task","yes","Flanker Task.osexp","C:\Users\rayra\Documents","no","mono","no","18","no","white","no","yes","768","legacy","71","71","C:/Users/rayra/Documents/subject-4.csv","legacy","NA","Lentiform Loewenfeld","3.3.9","0","h","NA","right","NA","NA","h","652","NA","71500","NA","NA","652","2","legacy","1024","2","48000","-16","experiment","HHHHH","4","even","76123","NA","NA","225220","200806","4617","88064","NA","226355","4622","NA","NA","226459","227113","226352","226459","Flanker Task","64","58094","72","yes","1024"
"NA","89.04109589041096","89.04109589041096","803.8219178082192","803.8219178082192","black","legacy","legacy","legacy","0","congruent","uniform","1","undefined","1","s","0","0","0","72","72","0","72","0","72","0","0","0","72","72","72","72","Sun Sep 26 20:30:24 2021","1500","Flanker Task","yes","Flanker Task.osexp","C:\Users\rayra\Documents","no","mono","no","18","no","white","no","yes","768","legacy","72","72","C:/Users/rayra/Documents/subject-4.csv","legacy","NA","Lentiform Loewenfeld","3.3.9","0","s","NA","right","NA","NA","s","585","NA","71500","NA","NA","585","2","legacy","1024","2","48000","-16","experiment","SSSSS","4","even","76123","NA","NA","227121","200806","4617","88064","NA","228282","4622","NA","NA","228387","228974","228279","228386","Flanker Task","65","58679","73","yes","1024"
"NA","89.1891891891892","89.1891891891892","806.918918918919","806.918918918919","black","legacy","legacy","legacy","0","incongruent","uniform","1","undefined","1","h","0","0","0","73","73","0","73","0","73","0","0","0","73","73","73","73","Sun Sep 26 20:30:24 2021","1500","Flanker Task","yes","Flanker Task.osexp","C:\Users\rayra\Documents","no","mono","no","18","no","white","no","yes","768","legacy","73","73","C:/Users/rayra/Documents/subject-4.csv","legacy","NA","Lentiform Loewenfeld","3.3.9","0","h","NA","right","NA","NA","h","1033","NA","71500","NA","NA","1033","2","legacy","1024","2","48000","-16","experiment","SSHSS","4","even","76123","NA","NA","228980","200806","4617","88064","NA","230101","4622","NA","NA","230204","231238","230098","230204","Flanker Task","66","59712","74","yes","1024"
"NA","89.33333333333333","89.33333333333333","804.56","804.56","black","legacy","legacy","legacy","0","congruent","uniform","1","undefined","1","s","0","0","0","74","74","0","74","0","74","0","0","0","74","74","74","74","Sun Sep 26 20:30:24 2021","1500","Flanker Task","yes","Flanker Task.osexp","C:\Users\rayra\Documents","no","mono","no","18","no","white","no","yes","768","legacy","74","74","C:/Users/rayra/Documents/subject-4.csv","legacy","NA","Lentiform Loewenfeld","3.3.9","0","s","NA","right","NA","NA","s","630","NA","71500","NA","NA","630","2","legacy","1024","2","48000","-16","experiment","SSSSS","4","even","76123","NA","NA","231244","200806","4617","88064","NA","232366","4622","NA","NA","232469","233100","232364","232469","Flanker Task","67","60342","75","yes","1024"
"NA","89.47368421052632","89.47368421052632","803.3684210526316","803.3684210526316","black","legacy","legacy","legacy","0","incongruent","uniform","1","undefined","1","s","0","0","0","75","75","0","75","0","75","0","0","0","75","75","75","75","Sun Sep 26 20:30:24 2021","1500","Flanker Task","yes","Flanker Task.osexp","C:\Users\rayra\Documents","no","mono","no","18","no","white","no","yes","768","legacy","75","75","C:/Users/rayra/Documents/subject-4.csv","legacy","NA","Lentiform Loewenfeld","3.3.9","0","s","NA","right","NA","NA","s","714","NA","71500","NA","NA","714","2","legacy","1024","2","48000","-16","experiment","HHSHH","4","even","76123","NA","NA","233106","200806","4617","88064","NA","234230","4622","NA","NA","234334","235049","234227","234334","Flanker Task","68","61056","76","yes","1024"
"NA","89.6103896103896","89.6103896103896","799.8051948051948","799.8051948051948","black","legacy","legacy","legacy","0","congruent","uniform","1","undefined","1","s","0","0","0","76","76","0","76","0","76","0","0","0","76","76","76","76","Sun Sep 26 20:30:24 2021","1500","Flanker Task","yes","Flanker Task.osexp","C:\Users\rayra\Documents","no","mono","no","18","no","white","no","yes","768","legacy","76","76","C:/Users/rayra/Documents/subject-4.csv","legacy","NA","Lentiform Loewenfeld","3.3.9","0","s","NA","right","NA","NA","s","529","NA","71500","NA","NA","529","2","legacy","1024","2","48000","-16","experiment","SSSSS","4","even","76123","NA","NA","235055","200806","4617","88064","NA","236195","4622","NA","NA","236299","236830","236192","236298","Flanker Task","69","61585","77","yes","1024"
"NA","89.74358974358974","89.74358974358974","795.6025641025641","795.6025641025641","black","legacy","legacy","legacy","0","congruent","uniform","1","undefined","1","s","0","0","0","77","77","0","77","0","77","0","0","0","77","77","77","77","Sun Sep 26 20:30:24 2021","1500","Flanker Task","yes","Flanker Task.osexp","C:\Users\rayra\Documents","no","mono","no","18","no","white","no","yes","768","legacy","77","77","C:/Users/rayra/Documents/subject-4.csv","legacy","NA","Lentiform Loewenfeld","3.3.9","0","s","NA","right","NA","NA","s","472","NA","71500","NA","NA","472","2","legacy","1024","2","48000","-16","experiment","SSSSS","4","even","76123","NA","NA","236836","200806","4617","88064","NA","237976","4622","NA","NA","238080","238553","237973","238080","Flanker Task","70","62057","78","yes","1024"
"NA","89.87341772151899","89.87341772151899","793.9240506329114","793.9240506329114","black","legacy","legacy","legacy","0","incongruent","uniform","1","undefined","1","h","0","0","0","78","78","0","78","0","78","0","0","0","78","78","78","78","Sun Sep 26 20:30:24 2021","1500","Flanker Task","yes","Flanker Task.osexp","C:\Users\rayra\Documents","no","mono","no","18","no","white","no","yes","768","legacy","78","78","C:/Users/rayra/Documents/subject-4.csv","legacy","NA","Lentiform Loewenfeld","3.3.9","0","h","NA","right","NA","NA","h","663","NA","71500","NA","NA","663","2","legacy","1024","2","48000","-16","experiment","SSHSS","4","even","76123","NA","NA","238560","200806","4617","88064","NA","239691","4622","NA","NA","239796","240460","239688","239795","Flanker Task","71","62720","79","yes","1024"
"NA","90","90","790.5625","790.5625","black","legacy","legacy","legacy","0","congruent","uniform","1","undefined","1","s","0","0","0","79","79","0","79","0","79","0","0","0","79","79","79","79","Sun Sep 26 20:30:24 2021","1500","Flanker Task","yes","Flanker Task.osexp","C:\Users\rayra\Documents","no","mono","no","18","no","white","no","yes","768","legacy","79","79","C:/Users/rayra/Documents/subject-4.csv","legacy","NA","Lentiform Loewenfeld","3.3.9","0","s","NA","right","NA","NA","s","525","NA","71500","NA","NA","525","2","legacy","1024","2","48000","-16","experiment","SSSSS","4","even","76123","NA","NA","240467","200806","4617","88064","NA","241605","4622","NA","NA","241708","242234","241602","241708","Flanker Task","72","63245","80","yes","1024"
"NA","88.88888888888889","88.88888888888889","799.320987654321","799.320987654321","black","legacy","legacy","legacy","0","incongruent","uniform","0","undefined","0","s","0","0","0","80","80","0","80","0","80","0","0","0","80","80","80","80","Sun Sep 26 20:30:24 2021","600","Flanker Task","yes","Flanker Task.osexp","C:\Users\rayra\Documents","no","mono","no","18","no","white","no","yes","768","legacy","0","79","C:/Users/rayra/Documents/subject-4.csv","legacy","NA","Lentiform Loewenfeld","3.3.9","0","None","NA","right","right","NA","None","1500","NA","71500","27250","NA","1500","2","legacy","1024","2","48000","-16","experiment","HHSHH","4","even","76123","270553","NA","242241","200806","4617","88064","NA","270634","4622","243302","NA","270737","272237","270631","270736","Flanker Task","72","64745","81","yes","1024"
"NA","89.02439024390245","89.02439024390245","803","803","black","legacy","legacy","legacy","0","congruent","uniform","1","undefined","1","h","0","0","0","81","81","0","81","0","81","0","0","0","81","81","81","81","Sun Sep 26 20:30:24 2021","600","Flanker Task","yes","Flanker Task.osexp","C:\Users\rayra\Documents","no","mono","no","18","no","white","no","yes","768","legacy","1","79","C:/Users/rayra/Documents/subject-4.csv","legacy","NA","Lentiform Loewenfeld","3.3.9","0","h","NA","right","right","NA","h","1101","NA","71500","27250","NA","1101","2","legacy","1024","2","48000","-16","experiment","HHHHH","4","even","76123","270553","NA","273250","272243","4617","272747","NA","274394","4622","243302","NA","274497","275599","274390","274497","Flanker Task","73","65846","82","yes","1024"
"NA","89.1566265060241","89.1566265060241","803.3373493975904","803.3373493975904","black","legacy","legacy","legacy","0","congruent","uniform","1","undefined","1","s","0","0","0","82","82","0","82","0","82","0","0","0","82","82","82","82","Sun Sep 26 20:30:24 2021","600","Flanker Task","yes","Flanker Task.osexp","C:\Users\rayra\Documents","no","mono","no","18","no","white","no","yes","768","legacy","2","79","C:/Users/rayra/Documents/subject-4.csv","legacy","NA","Lentiform Loewenfeld","3.3.9","0","s","NA","right","right","NA","s","831","NA","71500","27250","NA","831","2","legacy","1024","2","48000","-16","experiment","SSSSS","4","even","76123","270553","NA","276108","272243","4617","275605","NA","277244","4622","243302","NA","277348","278181","277241","277348","Flanker Task","74","66677","83","yes","1024"
"NA","89.28571428571429","89.28571428571429","799.8452380952381","799.8452380952381","black","legacy","legacy","legacy","0","congruent","uniform","1","undefined","1","h","0","0","0","83","83","0","83","0","83","0","0","0","83","83","83","83","Sun Sep 26 20:30:24 2021","600","Flanker Task","yes","Flanker Task.osexp","C:\Users\rayra\Documents","no","mono","no","18","no","white","no","yes","768","legacy","3","79","C:/Users/rayra/Documents/subject-4.csv","legacy","NA","Lentiform Loewenfeld","3.3.9","0","h","NA","right","right","NA","h","510","NA","71500","27250","NA","510","2","legacy","1024","2","48000","-16","experiment","HHHHH","4","even","76123","270553","NA","278689","272243","4617","278186","NA","279807","4622","243302","NA","279911","280422","279804","279911","Flanker Task","75","67187","84","yes","1024"
"NA","89.41176470588235","89.41176470588235","795.1764705882352","795.1764705882352","black","legacy","legacy","legacy","0","congruent","uniform","1","undefined","1","s","0","0","0","84","84","0","84","0","84","0","0","0","84","84","84","84","Sun Sep 26 20:30:24 2021","600","Flanker Task","yes","Flanker Task.osexp","C:\Users\rayra\Documents","no","mono","no","18","no","white","no","yes","768","legacy","4","79","C:/Users/rayra/Documents/subject-4.csv","legacy","NA","Lentiform Loewenfeld","3.3.9","0","s","NA","right","right","NA","s","403","NA","71500","27250","NA","403","2","legacy","1024","2","48000","-16","experiment","SSSSS","4","even","76123","270553","NA","280431","272243","4617","278186","NA","281562","4622","243302","NA","281665","282070","281559","281665","Flanker Task","76","67590","85","yes","1024"
"NA","88.37209302325581","88.37209302325581","790.4069767441861","790.4069767441861","black","legacy","legacy","legacy","0","incongruent","uniform","0","undefined","0","h","0","0","0","85","85","0","85","0","85","0","0","0","85","85","85","85","Sun Sep 26 20:30:24 2021","600","Flanker Task","yes","Flanker Task.osexp","C:\Users\rayra\Documents","no","mono","no","18","no","white","no","yes","768","legacy","5","79","C:/Users/rayra/Documents/subject-4.csv","legacy","NA","Lentiform Loewenfeld","3.3.9","0","s","NA","right","right","NA","s","385","NA","71500","27250","NA","385","2","legacy","1024","2","48000","-16","experiment","SSHSS","4","even","76123","270553","NA","282076","272243","4617","278186","NA","283226","4622","243302","NA","283330","283717","283223","283330","Flanker Task","76","67975","86","yes","1024"
"NA","88.50574712643679","88.50574712643679","787.3218390804598","787.3218390804598","black","legacy","legacy","legacy","0","congruent","uniform","1","undefined","1","h","0","0","0","86","86","0","86","0","86","0","0","0","86","86","86","86","Sun Sep 26 20:30:24 2021","600","Flanker Task","yes","Flanker Task.osexp","C:\Users\rayra\Documents","no","mono","no","18","no","white","no","yes","768","legacy","6","79","C:/Users/rayra/Documents/subject-4.csv","legacy","NA","Lentiform Loewenfeld","3.3.9","0","h","NA","right","right","NA","h","522","NA","71500","27250","NA","522","2","legacy","1024","2","48000","-16","experiment","HHHHH","4","even","76123","270553","NA","284228","283725","4617","278186","NA","285337","4622","243302","NA","285441","285965","285334","285441","Flanker Task","77","68497","87","yes","1024"
"NA","88.63636363636364","88.63636363636364","784.1363636363636","784.1363636363636","black","legacy","legacy","legacy","0","congruent","uniform","1","undefined","1","h","0","0","0","87","87","0","87","0","87","0","0","0","87","87","87","87","Sun Sep 26 20:30:24 2021","600","Flanker Task","yes","Flanker Task.osexp","C:\Users\rayra\Documents","no","mono","no","18","no","white","no","yes","768","legacy","7","79","C:/Users/rayra/Documents/subject-4.csv","legacy","NA","Lentiform Loewenfeld","3.3.9","0","h","NA","right","right","NA","h","507","NA","71500","27250","NA","507","2","legacy","1024","2","48000","-16","experiment","HHHHH","4","even","76123","270553","NA","285972","283725","4617","278186","NA","287081","4622","243302","NA","287185","287694","287079","287185","Flanker Task","78","69004","88","yes","1024"
"NA","88.76404494382022","88.76404494382022","780.8539325842696","780.8539325842696","black","legacy","legacy","legacy","0","congruent","uniform","1","undefined","1","s","0","0","0","88","88","0","88","0","88","0","0","0","88","88","88","88","Sun Sep 26 20:30:24 2021","600","Flanker Task","yes","Flanker Task.osexp","C:\Users\rayra\Documents","no","mono","no","18","no","white","no","yes","768","legacy","8","79","C:/Users/rayra/Documents/subject-4.csv","legacy","NA","Lentiform Loewenfeld","3.3.9","0","s","NA","right","right","NA","s","492","NA","71500","27250","NA","492","2","legacy","1024","2","48000","-16","experiment","SSSSS","4","even","76123","270553","NA","287702","283725","4617","278186","NA","288868","4622","243302","NA","288972","289466","288866","288971","Flanker Task","79","69496","89","yes","1024"
"NA","87.77777777777777","87.77777777777777","777.7222222222222","777.7222222222222","black","legacy","legacy","legacy","0","incongruent","uniform","0","undefined","0","s","0","0","0","89","89","0","89","0","89","0","0","0","89","89","89","89","Sun Sep 26 20:30:24 2021","600","Flanker Task","yes","Flanker Task.osexp","C:\Users\rayra\Documents","no","mono","no","18","no","white","no","yes","768","legacy","9","79","C:/Users/rayra/Documents/subject-4.csv","legacy","NA","Lentiform Loewenfeld","3.3.9","0","h","NA","right","right","NA","h","499","NA","71500","27250","NA","499","2","legacy","1024","2","48000","-16","experiment","HHSHH","4","even","76123","270553","NA","289474","283725","4617","278186","NA","290620","4622","243302","NA","290724","291226","290617","290723","Flanker Task","79","69995","90","yes","1024"
"NA","87.91208791208791","87.91208791208791","774.6923076923077","774.6923076923077","black","legacy","legacy","legacy","0","congruent","uniform","1","undefined","1","s","0","0","0","90","90","0","90","0","90","0","0","0","90","90","90","90","Sun Sep 26 20:30:24 2021","600","Flanker Task","yes","Flanker Task.osexp","C:\Users\rayra\Documents","no","mono","no","18","no","white","no","yes","768","legacy","10","79","C:/Users/rayra/Documents/subject-4.csv","legacy","NA","Lentiform Loewenfeld","3.3.9","0","s","NA","right","right","NA","s","502","NA","71500","27250","NA","502","2","legacy","1024","2","48000","-16","experiment","SSSSS","4","even","76123","270553","NA","291737","291233","4617","278186","NA","292894","4622","243302","NA","292998","293502","292889","292998","Flanker Task","80","70497","91","yes","1024"
"NA","88.04347826086956","88.04347826086956","770.7934782608696","770.7934782608696","black","legacy","legacy","legacy","0","congruent","uniform","1","undefined","1","s","0","0","0","91","91","0","91","0","91","0","0","0","91","91","91","91","Sun Sep 26 20:30:24 2021","600","Flanker Task","yes","Flanker Task.osexp","C:\Users\rayra\Documents","no","mono","no","18","no","white","no","yes","768","legacy","11","79","C:/Users/rayra/Documents/subject-4.csv","legacy","NA","Lentiform Loewenfeld","3.3.9","0","s","NA","right","right","NA","s","416","NA","71500","27250","NA","416","2","legacy","1024","2","48000","-16","experiment","SSSSS","4","even","76123","270553","NA","293510","291233","4617","278186","NA","294663","4622","243302","NA","294768","295186","294660","294768","Flanker Task","81","70913","92","yes","1024"
"NA","87.09677419354838","87.09677419354838","767.6989247311828","767.6989247311828","black","legacy","legacy","legacy","0","incongruent","uniform","0","undefined","0","s","0","0","0","92","92","0","92","0","92","0","0","0","92","92","92","92","Sun Sep 26 20:30:24 2021","600","Flanker Task","yes","Flanker Task.osexp","C:\Users\rayra\Documents","no","mono","no","18","no","white","no","yes","768","legacy","12","79","C:/Users/rayra/Documents/subject-4.csv","legacy","NA","Lentiform Loewenfeld","3.3.9","0","h","NA","right","right","NA","h","483","NA","71500","27250","NA","483","2","legacy","1024","2","48000","-16","experiment","HHSHH","4","even","76123","270553","NA","295194","291233","4617","278186","NA","296340","4622","243302","NA","296444","296929","296337","296443","Flanker Task","81","71396","93","yes","1024"
"NA","87.23404255319149","87.23404255319149","766.2340425531914","766.2340425531914","black","legacy","legacy","legacy","0","congruent","uniform","1","undefined","1","h","0","0","0","93","93","0","93","0","93","0","0","0","93","93","93","93","Sun Sep 26 20:30:24 2021","600","Flanker Task","yes","Flanker Task.osexp","C:\Users\rayra\Documents","no","mono","no","18","no","white","no","yes","768","legacy","13","79","C:/Users/rayra/Documents/subject-4.csv","legacy","NA","Lentiform Loewenfeld","3.3.9","0","h","NA","right","right","NA","h","630","NA","71500","27250","NA","630","2","legacy","1024","2","48000","-16","experiment","HHHHH","4","even","76123","270553","NA","297440","296937","4617","278186","NA","298560","4622","243302","NA","298664","299296","298557","298663","Flanker Task","82","72026","94","yes","1024"
"NA","87.36842105263158","87.36842105263158","765.9684210526316","765.9684210526316","black","legacy","legacy","legacy","0","incongruent","uniform","1","undefined","1","h","0","0","0","94","94","0","94","0","94","0","0","0","94","94","94","94","Sun Sep 26 20:30:24 2021","600","Flanker Task","yes","Flanker Task.osexp","C:\Users\rayra\Documents","no","mono","no","18","no","white","no","yes","768","legacy","14","79","C:/Users/rayra/Documents/subject-4.csv","legacy","NA","Lentiform Loewenfeld","3.3.9","0","h","NA","right","right","NA","h","741","NA","71500","27250","NA","741","2","legacy","1024","2","48000","-16","experiment","SSHSS","4","even","76123","270553","NA","299806","296937","4617","299303","NA","300924","4622","243302","NA","301028","301771","300922","301028","Flanker Task","83","72767","95","yes","1024"
"NA","87.5","87.5","763","763","black","legacy","legacy","legacy","0","congruent","uniform","1","undefined","1","s","0","0","0","95","95","0","95","0","95","0","0","0","95","95","95","95","Sun Sep 26 20:30:24 2021","600","Flanker Task","yes","Flanker Task.osexp","C:\Users\rayra\Documents","no","mono","no","18","no","white","no","yes","768","legacy","15","79","C:/Users/rayra/Documents/subject-4.csv","legacy","NA","Lentiform Loewenfeld","3.3.9","0","s","NA","right","right","NA","s","481","NA","71500","27250","NA","481","2","legacy","1024","2","48000","-16","experiment","SSSSS","4","even","76123","270553","NA","302284","296937","4617","301780","NA","303397","4622","243302","NA","303501","303984","303395","303501","Flanker Task","84","73248","96","yes","1024"
"NA","87.62886597938144","87.62886597938144","761.7422680412371","761.7422680412371","black","legacy","legacy","legacy","0","incongruent","uniform","1","undefined","1","s","0","0","0","96","96","0","96","0","96","0","0","0","96","96","96","96","Sun Sep 26 20:30:24 2021","600","Flanker Task","yes","Flanker Task.osexp","C:\Users\rayra\Documents","no","mono","no","18","no","white","no","yes","768","legacy","16","79","C:/Users/rayra/Documents/subject-4.csv","legacy","NA","Lentiform Loewenfeld","3.3.9","0","s","NA","right","right","NA","s","641","NA","71500","27250","NA","641","2","legacy","1024","2","48000","-16","experiment","HHSHH","4","even","76123","270553","NA","303992","296937","4617","301780","NA","305148","4622","243302","NA","305252","305895","305145","305252","Flanker Task","85","73889","97","yes","1024"
"NA","87.75510204081633","87.75510204081633","758.7755102040817","758.7755102040817","black","legacy","legacy","legacy","0","congruent","uniform","1","undefined","1","s","0","0","0","97","97","0","97","0","97","0","0","0","97","97","97","97","Sun Sep 26 20:30:24 2021","600","Flanker Task","yes","Flanker Task.osexp","C:\Users\rayra\Documents","no","mono","no","18","no","white","no","yes","768","legacy","17","79","C:/Users/rayra/Documents/subject-4.csv","legacy","NA","Lentiform Loewenfeld","3.3.9","0","s","NA","right","right","NA","s","471","NA","71500","27250","NA","471","2","legacy","1024","2","48000","-16","experiment","SSSSS","4","even","76123","270553","NA","306407","296937","4617","305903","NA","307581","4622","243302","NA","307683","308155","307579","307683","Flanker Task","86","74360","98","yes","1024"
"NA","87.87878787878788","87.87878787878788","757.6767676767677","757.6767676767677","black","legacy","legacy","legacy","0","congruent","uniform","1","undefined","1","h","0","0","0","98","98","0","98","0","98","0","0","0","98","98","98","98","Sun Sep 26 20:30:24 2021","600","Flanker Task","yes","Flanker Task.osexp","C:\Users\rayra\Documents","no","mono","no","18","no","white","no","yes","768","legacy","18","79","C:/Users/rayra/Documents/subject-4.csv","legacy","NA","Lentiform Loewenfeld","3.3.9","0","h","NA","right","right","NA","h","650","NA","71500","27250","NA","650","2","legacy","1024","2","48000","-16","experiment","HHHHH","4","even","76123","270553","NA","308162","296937","4617","305903","NA","309278","4622","243302","NA","309382","310035","309275","309382","Flanker Task","87","75010","99","yes","1024"
"NA","88","88","757.7","757.7","black","legacy","legacy","legacy","0","incongruent","uniform","1","undefined","1","h","0","0","0","99","99","0","99","0","99","0","0","0","99","99","99","99","Sun Sep 26 20:30:24 2021","600","Flanker Task","yes","Flanker Task.osexp","C:\Users\rayra\Documents","no","mono","no","18","no","white","no","yes","768","legacy","19","79","C:/Users/rayra/Documents/subject-4.csv","legacy","NA","Lentiform Loewenfeld","3.3.9","0","h","NA","right","right","NA","h","760","NA","71500","27250","NA","760","2","legacy","1024","2","48000","-16","experiment","SSHSS","4","even","76123","270553","NA","310545","296937","4617","310042","NA","311690","4622","243302","NA","311794","312556","311687","311793","Flanker Task","88","75770","100","yes","1024"
"NA","87.12871287128714","87.12871287128714","755.7227722772277","755.7227722772277","black","legacy","legacy","legacy","0","incongruent","uniform","0","undefined","0","h","0","0","0","100","100","0","100","0","100","0","0","0","100","100","100","100","Sun Sep 26 20:30:24 2021","600","Flanker Task","yes","Flanker Task.osexp","C:\Users\rayra\Documents","no","mono","no","18","no","white","no","yes","768","legacy","20","79","C:/Users/rayra/Documents/subject-4.csv","legacy","NA","Lentiform Loewenfeld","3.3.9","0","s","NA","right","right","NA","s","558","NA","71500","27250","NA","558","2","legacy","1024","2","48000","-16","experiment","SSHSS","4","even","76123","270553","NA","313067","296937","4617","312563","NA","314189","4622","243302","NA","314293","314852","314186","314293","Flanker Task","88","76328","101","yes","1024"
"NA","87.25490196078431","87.25490196078431","754.0196078431372","754.0196078431372","black","legacy","legacy","legacy","0","congruent","uniform","1","undefined","1","h","0","0","0","101","101","0","101","0","101","0","0","0","101","101","101","101","Sun Sep 26 20:30:24 2021","600","Flanker Task","yes","Flanker Task.osexp","C:\Users\rayra\Documents","no","mono","no","18","no","white","no","yes","768","legacy","21","79","C:/Users/rayra/Documents/subject-4.csv","legacy","NA","Lentiform Loewenfeld","3.3.9","0","h","NA","right","right","NA","h","582","NA","71500","27250","NA","582","2","legacy","1024","2","48000","-16","experiment","HHHHH","4","even","76123","270553","NA","315364","314860","4617","312563","NA","316497","4622","243302","NA","316601","317185","316494","316601","Flanker Task","89","76910","102","yes","1024"
"NA","87.37864077669903","87.37864077669903","750.6796116504854","750.6796116504854","black","legacy","legacy","legacy","0","congruent","uniform","1","undefined","1","s","0","0","0","102","102","0","102","0","102","0","0","0","102","102","102","102","Sun Sep 26 20:30:24 2021","600","Flanker Task","yes","Flanker Task.osexp","C:\Users\rayra\Documents","no","mono","no","18","no","white","no","yes","768","legacy","22","79","C:/Users/rayra/Documents/subject-4.csv","legacy","NA","Lentiform Loewenfeld","3.3.9","0","s","NA","right","right","NA","s","410","NA","71500","27250","NA","410","2","legacy","1024","2","48000","-16","experiment","SSSSS","4","even","76123","270553","NA","317193","314860","4617","312563","NA","318344","4622","243302","NA","318448","318861","318341","318448","Flanker Task","90","77320","103","yes","1024"
"NA","87.5","87.5","749.4903846153846","749.4903846153846","black","legacy","legacy","legacy","0","incongruent","uniform","1","undefined","1","s","0","0","0","103","103","0","103","0","103","0","0","0","103","103","103","103","Sun Sep 26 20:30:24 2021","600","Flanker Task","yes","Flanker Task.osexp","C:\Users\rayra\Documents","no","mono","no","18","no","white","no","yes","768","legacy","23","79","C:/Users/rayra/Documents/subject-4.csv","legacy","NA","Lentiform Loewenfeld","3.3.9","0","s","NA","right","right","NA","s","627","NA","71500","27250","NA","627","2","legacy","1024","2","48000","-16","experiment","HHSHH","4","even","76123","270553","NA","318868","314860","4617","312563","NA","320009","4622","243302","NA","320112","320742","320006","320112","Flanker Task","91","77947","104","yes","1024"
"NA","87.61904761904762","87.61904761904762","747.2190476190476","747.2190476190476","black","legacy","legacy","legacy","0","congruent","uniform","1","undefined","1","s","0","0","0","104","104","0","104","0","104","0","0","0","104","104","104","104","Sun Sep 26 20:30:24 2021","600","Flanker Task","yes","Flanker Task.osexp","C:\Users\rayra\Documents","no","mono","no","18","no","white","no","yes","768","legacy","24","79","C:/Users/rayra/Documents/subject-4.csv","legacy","NA","Lentiform Loewenfeld","3.3.9","0","s","NA","right","right","NA","s","511","NA","71500","27250","NA","511","2","legacy","1024","2","48000","-16","experiment","SSSSS","4","even","76123","270553","NA","321253","314860","4617","320750","NA","322412","4622","243302","NA","322517","323029","322408","322517","Flanker Task","92","78458","105","yes","1024"
"NA","87.73584905660377","87.73584905660377","744.7830188679245","744.7830188679245","black","legacy","legacy","legacy","0","congruent","uniform","1","undefined","1","h","0","0","0","105","105","0","105","0","105","0","0","0","105","105","105","105","Sun Sep 26 20:30:24 2021","600","Flanker Task","yes","Flanker Task.osexp","C:\Users\rayra\Documents","no","mono","no","18","no","white","no","yes","768","legacy","25","79","C:/Users/rayra/Documents/subject-4.csv","legacy","NA","Lentiform Loewenfeld","3.3.9","0","h","NA","right","right","NA","h","489","NA","71500","27250","NA","489","2","legacy","1024","2","48000","-16","experiment","HHHHH","4","even","76123","270553","NA","323037","314860","4617","320750","NA","324153","4622","243302","NA","324258","324750","324151","324258","Flanker Task","93","78947","106","yes","1024"
"NA","86.91588785046729","86.91588785046729","743.4299065420561","743.4299065420561","black","legacy","legacy","legacy","0","incongruent","uniform","0","undefined","0","h","0","0","0","106","106","0","106","0","106","0","0","0","106","106","106","106","Sun Sep 26 20:30:24 2021","600","Flanker Task","yes","Flanker Task.osexp","C:\Users\rayra\Documents","no","mono","no","18","no","white","no","yes","768","legacy","26","79","C:/Users/rayra/Documents/subject-4.csv","legacy","NA","Lentiform Loewenfeld","3.3.9","0","s","NA","right","right","NA","s","600","NA","71500","27250","NA","600","2","legacy","1024","2","48000","-16","experiment","SSHSS","4","even","76123","270553","NA","324757","314860","4617","320750","NA","325890","4622","243302","NA","325994","326596","325887","325994","Flanker Task","93","79547","107","yes","1024"
"NA","87.03703703703704","87.03703703703704","741.4444444444445","741.4444444444445","black","legacy","legacy","legacy","0","congruent","uniform","1","undefined","1","h","0","0","0","107","107","0","107","0","107","0","0","0","107","107","107","107","Sun Sep 26 20:30:24 2021","600","Flanker Task","yes","Flanker Task.osexp","C:\Users\rayra\Documents","no","mono","no","18","no","white","no","yes","768","legacy","27","79","C:/Users/rayra/Documents/subject-4.csv","legacy","NA","Lentiform Loewenfeld","3.3.9","0","h","NA","right","right","NA","h","529","NA","71500","27250","NA","529","2","legacy","1024","2","48000","-16","experiment","HHHHH","4","even","76123","270553","NA","327107","326603","4617","320750","NA","328252","4622","243302","NA","328356","328887","328250","328355","Flanker Task","94","80076","108","yes","1024"
"NA","87.1559633027523","87.1559633027523","739.2385321100918","739.2385321100918","black","legacy","legacy","legacy","0","congruent","uniform","1","undefined","1","s","0","0","0","108","108","0","108","0","108","0","0","0","108","108","108","108","Sun Sep 26 20:30:24 2021","600","Flanker Task","yes","Flanker Task.osexp","C:\Users\rayra\Documents","no","mono","no","18","no","white","no","yes","768","legacy","28","79","C:/Users/rayra/Documents/subject-4.csv","legacy","NA","Lentiform Loewenfeld","3.3.9","0","s","NA","right","right","NA","s","501","NA","71500","27250","NA","501","2","legacy","1024","2","48000","-16","experiment","SSSSS","4","even","76123","270553","NA","328895","326603","4617","320750","NA","330018","4622","243302","NA","330122","330626","330016","330122","Flanker Task","95","80577","109","yes","1024"
"NA","87.27272727272727","87.27272727272727","738.5636363636364","738.5636363636364","black","legacy","legacy","legacy","0","incongruent","uniform","1","undefined","1","h","0","0","0","109","109","0","109","0","109","0","0","0","109","109","109","109","Sun Sep 26 20:30:24 2021","600","Flanker Task","yes","Flanker Task.osexp","C:\Users\rayra\Documents","no","mono","no","18","no","white","no","yes","768","legacy","29","79","C:/Users/rayra/Documents/subject-4.csv","legacy","NA","Lentiform Loewenfeld","3.3.9","0","h","NA","right","right","NA","h","665","NA","71500","27250","NA","665","2","legacy","1024","2","48000","-16","experiment","SSHSS","4","even","76123","270553","NA","330632","326603","4617","320750","NA","331804","4622","243302","NA","331908","332575","331801","331908","Flanker Task","96","81242","110","yes","1024"
"NA","87.38738738738739","87.38738738738739","737.2342342342342","737.2342342342342","black","legacy","legacy","legacy","0","congruent","uniform","1","undefined","1","h","0","0","0","110","110","0","110","0","110","0","0","0","110","110","110","110","Sun Sep 26 20:30:24 2021","600","Flanker Task","yes","Flanker Task.osexp","C:\Users\rayra\Documents","no","mono","no","18","no","white","no","yes","768","legacy","30","79","C:/Users/rayra/Documents/subject-4.csv","legacy","NA","Lentiform Loewenfeld","3.3.9","0","h","NA","right","right","NA","h","591","NA","71500","27250","NA","591","2","legacy","1024","2","48000","-16","experiment","HHHHH","4","even","76123","270553","NA","333086","326603","4617","332583","NA","334234","4622","243302","NA","334336","334929","334231","334336","Flanker Task","97","81833","111","yes","1024"
"NA","87.5","87.5","734.8035714285714","734.8035714285714","black","legacy","legacy","legacy","0","congruent","uniform","1","undefined","1","h","0","0","0","111","111","0","111","0","111","0","0","0","111","111","111","111","Sun Sep 26 20:30:24 2021","600","Flanker Task","yes","Flanker Task.osexp","C:\Users\rayra\Documents","no","mono","no","18","no","white","no","yes","768","legacy","31","79","C:/Users/rayra/Documents/subject-4.csv","legacy","NA","Lentiform Loewenfeld","3.3.9","0","h","NA","right","right","NA","h","465","NA","71500","27250","NA","465","2","legacy","1024","2","48000","-16","experiment","HHHHH","4","even","76123","270553","NA","334936","326603","4617","332583","NA","336076","4622","243302","NA","336180","336647","336073","336179","Flanker Task","98","82298","112","yes","1024"
"NA","86.72566371681415","86.72566371681415","733.433628318584","733.433628318584","black","legacy","legacy","legacy","0","incongruent","uniform","0","undefined","0","h","0","0","0","112","112","0","112","0","112","0","0","0","112","112","112","112","Sun Sep 26 20:30:24 2021","600","Flanker Task","yes","Flanker Task.osexp","C:\Users\rayra\Documents","no","mono","no","18","no","white","no","yes","768","legacy","32","79","C:/Users/rayra/Documents/subject-4.csv","legacy","NA","Lentiform Loewenfeld","3.3.9","0","s","NA","right","right","NA","s","580","NA","71500","27250","NA","580","2","legacy","1024","2","48000","-16","experiment","SSHSS","4","even","76123","270553","NA","336655","326603","4617","332583","NA","337797","4622","243302","NA","337901","338484","337795","337901","Flanker Task","98","82878","113","yes","1024"
"NA","86.84210526315789","86.84210526315789","732.5701754385965","732.5701754385965","black","legacy","legacy","legacy","0","incongruent","uniform","1","undefined","1","h","0","0","0","113","113","0","113","0","113","0","0","0","113","113","113","113","Sun Sep 26 20:30:24 2021","600","Flanker Task","yes","Flanker Task.osexp","C:\Users\rayra\Documents","no","mono","no","18","no","white","no","yes","768","legacy","33","79","C:/Users/rayra/Documents/subject-4.csv","legacy","NA","Lentiform Loewenfeld","3.3.9","0","h","NA","right","right","NA","h","635","NA","71500","27250","NA","635","2","legacy","1024","2","48000","-16","experiment","SSHSS","4","even","76123","270553","NA","338996","338492","4617","332583","NA","340126","4622","243302","NA","340230","340867","340124","340230","Flanker Task","99","83513","114","yes","1024"
"NA","86.95652173913044","86.95652173913044","730.5391304347826","730.5391304347826","black","legacy","legacy","legacy","0","congruent","uniform","1","undefined","1","s","0","0","0","114","114","0","114","0","114","0","0","0","114","114","114","114","Sun Sep 26 20:30:24 2021","600","Flanker Task","yes","Flanker Task.osexp","C:\Users\rayra\Documents","no","mono","no","18","no","white","no","yes","768","legacy","34","79","C:/Users/rayra/Documents/subject-4.csv","legacy","NA","Lentiform Loewenfeld","3.3.9","0","s","NA","right","right","NA","s","499","NA","71500","27250","NA","499","2","legacy","1024","2","48000","-16","experiment","SSSSS","4","even","76123","270553","NA","341377","338492","4617","340874","NA","342488","4622","243302","NA","342592","343094","342485","342591","Flanker Task","100","84012","115","yes","1024"
"NA","87.06896551724138","87.06896551724138","730.0862068965517","730.0862068965517","black","legacy","legacy","legacy","0","congruent","uniform","1","undefined","1","h","0","0","0","115","115","0","115","0","115","0","0","0","115","115","115","115","Sun Sep 26 20:30:24 2021","600","Flanker Task","yes","Flanker Task.osexp","C:\Users\rayra\Documents","no","mono","no","18","no","white","no","yes","768","legacy","35","79","C:/Users/rayra/Documents/subject-4.csv","legacy","NA","Lentiform Loewenfeld","3.3.9","0","h","NA","right","right","NA","h","678","NA","71500","27250","NA","678","2","legacy","1024","2","48000","-16","experiment","HHHHH","4","even","76123","270553","NA","343102","338492","4617","340874","NA","344254","4622","243302","NA","344358","345037","344251","344358","Flanker Task","101","84690","116","yes","1024"
"NA","87.17948717948718","87.17948717948718","728.9316239316239","728.9316239316239","black","legacy","legacy","legacy","0","congruent","uniform","1","undefined","1","s","0","0","0","116","116","0","116","0","116","0","0","0","116","116","116","116","Sun Sep 26 20:30:24 2021","600","Flanker Task","yes","Flanker Task.osexp","C:\Users\rayra\Documents","no","mono","no","18","no","white","no","yes","768","legacy","36","79","C:/Users/rayra/Documents/subject-4.csv","legacy","NA","Lentiform Loewenfeld","3.3.9","0","s","NA","right","right","NA","s","595","NA","71500","27250","NA","595","2","legacy","1024","2","48000","-16","experiment","SSSSS","4","even","76123","270553","NA","345548","338492","4617","345045","NA","346677","4622","243302","NA","346781","347379","346674","346781","Flanker Task","102","85285","117","yes","1024"
"NA","87.28813559322033","87.28813559322033","727.6949152542373","727.6949152542373","black","legacy","legacy","legacy","0","congruent","uniform","1","undefined","1","s","0","0","0","117","117","0","117","0","117","0","0","0","117","117","117","117","Sun Sep 26 20:30:24 2021","600","Flanker Task","yes","Flanker Task.osexp","C:\Users\rayra\Documents","no","mono","no","18","no","white","no","yes","768","legacy","37","79","C:/Users/rayra/Documents/subject-4.csv","legacy","NA","Lentiform Loewenfeld","3.3.9","0","s","NA","right","right","NA","s","583","NA","71500","27250","NA","583","2","legacy","1024","2","48000","-16","experiment","SSSSS","4","even","76123","270553","NA","347386","338492","4617","345045","NA","348537","4622","243302","NA","348641","349226","348534","348641","Flanker Task","103","85868","118","yes","1024"
"NA","87.39495798319328","87.39495798319328","726.6638655462185","726.6638655462185","black","legacy","legacy","legacy","0","incongruent","uniform","1","undefined","1","h","0","0","0","118","118","0","118","0","118","0","0","0","118","118","118","118","Sun Sep 26 20:30:24 2021","600","Flanker Task","yes","Flanker Task.osexp","C:\Users\rayra\Documents","no","mono","no","18","no","white","no","yes","768","legacy","38","79","C:/Users/rayra/Documents/subject-4.csv","legacy","NA","Lentiform Loewenfeld","3.3.9","0","h","NA","right","right","NA","h","605","NA","71500","27250","NA","605","2","legacy","1024","2","48000","-16","experiment","SSHSS","4","even","76123","270553","NA","349234","338492","4617","345045","NA","350349","4622","243302","NA","350453","351061","350346","350453","Flanker Task","104","86473","119","yes","1024"
"NA","87.5","87.5","725.0416666666666","725.0416666666666","black","legacy","legacy","legacy","0","congruent","uniform","1","undefined","1","h","0","0","0","119","119","0","119","0","119","0","0","0","119","119","119","119","Sun Sep 26 20:30:24 2021","600","Flanker Task","yes","Flanker Task.osexp","C:\Users\rayra\Documents","no","mono","no","18","no","white","no","yes","768","legacy","39","79","C:/Users/rayra/Documents/subject-4.csv","legacy","NA","Lentiform Loewenfeld","3.3.9","0","h","NA","right","right","NA","h","532","NA","71500","27250","NA","532","2","legacy","1024","2","48000","-16","experiment","HHHHH","4","even","76123","270553","NA","351572","338492","4617","351069","NA","352698","4622","243302","NA","352802","353337","352695","352802","Flanker Task","105","87005","120","yes","1024"
"NA","86.77685950413223","86.77685950413223","723.8677685950413","723.8677685950413","black","legacy","legacy","legacy","0","incongruent","uniform","0","undefined","0","h","0","0","0","120","120","0","120","0","120","0","0","0","120","120","120","120","Sun Sep 26 20:30:24 2021","600","Flanker Task","yes","Flanker Task.osexp","C:\Users\rayra\Documents","no","mono","no","18","no","white","no","yes","768","legacy","40","79","C:/Users/rayra/Documents/subject-4.csv","legacy","NA","Lentiform Loewenfeld","3.3.9","0","s","NA","right","right","NA","s","583","NA","71500","27250","NA","583","2","legacy","1024","2","48000","-16","experiment","SSHSS","4","even","76123","270553","NA","353344","338492","4617","351069","NA","354493","4622","243302","NA","354597","355183","354490","354596","Flanker Task","105","87588","121","yes","1024"
"NA","86.88524590163935","86.88524590163935","723.2131147540983","723.2131147540983","black","legacy","legacy","legacy","0","incongruent","uniform","1","undefined","1","h","0","0","0","121","121","0","121","0","121","0","0","0","121","121","121","121","Sun Sep 26 20:30:24 2021","600","Flanker Task","yes","Flanker Task.osexp","C:\Users\rayra\Documents","no","mono","no","18","no","white","no","yes","768","legacy","41","79","C:/Users/rayra/Documents/subject-4.csv","legacy","NA","Lentiform Loewenfeld","3.3.9","0","h","NA","right","right","NA","h","644","NA","71500","27250","NA","644","2","legacy","1024","2","48000","-16","experiment","SSHSS","4","even","76123","270553","NA","355694","355190","4617","351069","NA","356813","4622","243302","NA","356917","357565","356810","356917","Flanker Task","106","88232","122","yes","1024"
