acc,accuracy,average_response_time,avg_rt,background,canvas_backend,clock_backend,color_backend,compensation,condition,coordinates,correct,correct_Instructions1,correct_keyboardresponse,correct_response,count_Block1,count_Block2,count_Finish,count_Fixation,count_ISI,count_Instructions1,count_Instructions2,count_Instructions3,count_Sequence,count_Stimulus,count_block3,count_errorFeedback,count_experiment,count_faster,count_getting_started,count_keyboardresponse,count_logger,count_welcome,datetime,deadline,description,disable_garbage_collection,experiment_file,experiment_path,font_bold,font_family,font_italic,font_size,font_underline,foreground,form_clicks,fullscreen,height,keyboard_backend,live_row,live_row_Block1,logfile,mouse_backend,opensesame_codename,opensesame_version,repeat_cycle,response,response_Finish,response_Instructions1,response_Instructions2,response_Instructions3,response_keyboardresponse,response_time,response_time_Finish,response_time_Instructions1,response_time_Instructions2,response_time_Instructions3,response_time_keyboardresponse,response_time_welcome,response_welcome,round_decimals,sampler_backend,sound_buf_size,sound_channels,sound_freq,sound_sample_size,start,stimulus,subject_nr,subject_parity,time_Block1,time_Block2,time_Finish,time_Fixation,time_ISI,time_Instructions1,time_Instructions2,time_Instructions3,time_Sequence,time_Stimulus,time_block3,time_errorFeedback,time_experiment,time_faster,time_getting_started,time_keyboardresponse,time_logger,time_welcome,title,total_correct,total_response_time,total_responses,uniform_coordinates,width
100,100,507,507,#000000,legacy,legacy,legacy,0,incongruent,uniform,1,undefined,1,h,0,0,0,0,0,0,0,0,0,0,0,0,0,0,NA,0,0,NA,9/25/2021 17:51,1500,The main experiment item,yes,Lab21TestFlankerTask.osexp,C:\Users\mmcel\OneDrive\GRAD SCHOOL\fall 2021\Advanced Quant,no,mono,no,18,no,#ffffff,no,yes,768,legacy,0,0,C:/Users/mmcel/OneDrive/GRAD SCHOOL/fall 2021/Advanced Quant/MM-Subject-1.csv,legacy,Lentiform Loewenfeld,3.3.9,0,h,NA,h,NA,NA,h,507,NA,11609,NA,NA,507,NA,NA,2,legacy,1024,2,48000,-16,experiment,SSHSS,1,odd,15659,NA,NA,15930,NA,4050,NA,NA,15928,16035,NA,NA,4047,NA,NA,16035,16543,NA,Lab 2.1 Test Flanker Task,1,507,1,yes,1024
100,100,482,482,#000000,legacy,legacy,legacy,0,congruent,uniform,1,undefined,1,s,0,0,0,1,1,0,0,0,1,1,0,1,0,1,NA,1,1,NA,9/25/2021 17:51,1500,The main experiment item,yes,Lab21TestFlankerTask.osexp,C:\Users\mmcel\OneDrive\GRAD SCHOOL\fall 2021\Advanced Quant,no,mono,no,18,no,#ffffff,no,yes,768,legacy,1,1,C:/Users/mmcel/OneDrive/GRAD SCHOOL/fall 2021/Advanced Quant/MM-Subject-1.csv,legacy,Lentiform Loewenfeld,3.3.9,0,s,NA,h,NA,NA,s,457,NA,11609,NA,NA,457,NA,NA,2,legacy,1024,2,48000,-16,experiment,SSSSS,1,odd,15659,NA,NA,17704,16577,4050,NA,NA,17701,17810,NA,NA,4047,NA,NA,17810,18268,NA,Lab 2.1 Test Flanker Task,2,964,2,yes,1024
100,100,448.3333333,448.3333333,#000000,legacy,legacy,legacy,0,congruent,uniform,1,undefined,1,h,0,0,0,2,2,0,0,0,2,2,0,2,0,2,NA,2,2,NA,9/25/2021 17:51,1500,The main experiment item,yes,Lab21TestFlankerTask.osexp,C:\Users\mmcel\OneDrive\GRAD SCHOOL\fall 2021\Advanced Quant,no,mono,no,18,no,#ffffff,no,yes,768,legacy,2,2,C:/Users/mmcel/OneDrive/GRAD SCHOOL/fall 2021/Advanced Quant/MM-Subject-1.csv,legacy,Lentiform Loewenfeld,3.3.9,0,h,NA,h,NA,NA,h,381,NA,11609,NA,NA,381,NA,NA,2,legacy,1024,2,48000,-16,experiment,HHHHH,1,odd,15659,NA,NA,19446,18325,4050,NA,NA,19443,19553,NA,NA,4047,NA,NA,19553,19935,NA,Lab 2.1 Test Flanker Task,3,1345,3,yes,1024
100,100,423.75,423.75,#000000,legacy,legacy,legacy,0,congruent,uniform,1,undefined,1,s,0,0,0,3,3,0,0,0,3,3,0,3,0,3,NA,3,3,NA,9/25/2021 17:51,1500,The main experiment item,yes,Lab21TestFlankerTask.osexp,C:\Users\mmcel\OneDrive\GRAD SCHOOL\fall 2021\Advanced Quant,no,mono,no,18,no,#ffffff,no,yes,768,legacy,3,3,C:/Users/mmcel/OneDrive/GRAD SCHOOL/fall 2021/Advanced Quant/MM-Subject-1.csv,legacy,Lentiform Loewenfeld,3.3.9,0,s,NA,h,NA,NA,s,350,NA,11609,NA,NA,350,NA,NA,2,legacy,1024,2,48000,-16,experiment,SSSSS,1,odd,15659,NA,NA,21100,19992,4050,NA,NA,21097,21205,NA,NA,4047,NA,NA,21205,21557,NA,Lab 2.1 Test Flanker Task,4,1695,4,yes,1024
100,100,449.6,449.6,#000000,legacy,legacy,legacy,0,incongruent,uniform,1,undefined,1,h,0,0,0,4,4,0,0,0,4,4,0,4,0,4,NA,4,4,NA,9/25/2021 17:51,1500,The main experiment item,yes,Lab21TestFlankerTask.osexp,C:\Users\mmcel\OneDrive\GRAD SCHOOL\fall 2021\Advanced Quant,no,mono,no,18,no,#ffffff,no,yes,768,legacy,4,4,C:/Users/mmcel/OneDrive/GRAD SCHOOL/fall 2021/Advanced Quant/MM-Subject-1.csv,legacy,Lentiform Loewenfeld,3.3.9,0,h,NA,h,NA,NA,h,553,NA,11609,NA,NA,553,NA,NA,2,legacy,1024,2,48000,-16,experiment,SSHSS,1,odd,15659,NA,NA,22693,21583,4050,NA,NA,22691,22798,NA,NA,4047,NA,NA,22798,23351,NA,Lab 2.1 Test Flanker Task,5,2248,5,yes,1024
100,100,451.6666667,451.6666667,#000000,legacy,legacy,legacy,0,congruent,uniform,1,undefined,1,h,0,0,0,5,5,0,0,0,5,5,0,5,0,5,NA,5,5,NA,9/25/2021 17:51,1500,The main experiment item,yes,Lab21TestFlankerTask.osexp,C:\Users\mmcel\OneDrive\GRAD SCHOOL\fall 2021\Advanced Quant,no,mono,no,18,no,#ffffff,no,yes,768,legacy,5,5,C:/Users/mmcel/OneDrive/GRAD SCHOOL/fall 2021/Advanced Quant/MM-Subject-1.csv,legacy,Lentiform Loewenfeld,3.3.9,0,h,NA,h,NA,NA,h,462,NA,11609,NA,NA,462,NA,NA,2,legacy,1024,2,48000,-16,experiment,HHHHH,1,odd,15659,NA,NA,24517,23403,4050,NA,NA,24515,24622,NA,NA,4047,NA,NA,24623,25085,NA,Lab 2.1 Test Flanker Task,6,2710,6,yes,1024
100,100,440.2857143,440.2857143,#000000,legacy,legacy,legacy,0,congruent,uniform,1,undefined,1,s,0,0,0,6,6,0,0,0,6,6,0,6,0,6,NA,6,6,NA,9/25/2021 17:51,1500,The main experiment item,yes,Lab21TestFlankerTask.osexp,C:\Users\mmcel\OneDrive\GRAD SCHOOL\fall 2021\Advanced Quant,no,mono,no,18,no,#ffffff,no,yes,768,legacy,6,6,C:/Users/mmcel/OneDrive/GRAD SCHOOL/fall 2021/Advanced Quant/MM-Subject-1.csv,legacy,Lentiform Loewenfeld,3.3.9,0,s,NA,h,NA,NA,s,372,NA,11609,NA,NA,372,NA,NA,2,legacy,1024,2,48000,-16,experiment,SSSSS,1,odd,15659,NA,NA,26255,25137,4050,NA,NA,26253,26360,NA,NA,4047,NA,NA,26360,26732,NA,Lab 2.1 Test Flanker Task,7,3082,7,yes,1024
100,100,431.75,431.75,#000000,legacy,legacy,legacy,0,incongruent,uniform,1,undefined,1,h,0,0,0,7,7,0,0,0,7,7,0,7,0,7,NA,7,7,NA,9/25/2021 17:51,1500,The main experiment item,yes,Lab21TestFlankerTask.osexp,C:\Users\mmcel\OneDrive\GRAD SCHOOL\fall 2021\Advanced Quant,no,mono,no,18,no,#ffffff,no,yes,768,legacy,7,7,C:/Users/mmcel/OneDrive/GRAD SCHOOL/fall 2021/Advanced Quant/MM-Subject-1.csv,legacy,Lentiform Loewenfeld,3.3.9,0,h,NA,h,NA,NA,h,372,NA,11609,NA,NA,372,NA,NA,2,legacy,1024,2,48000,-16,experiment,SSHSS,1,odd,15659,NA,NA,27902,26779,4050,NA,NA,27900,28004,NA,NA,4047,NA,NA,28004,28377,NA,Lab 2.1 Test Flanker Task,8,3454,8,yes,1024
100,100,422,422,#000000,legacy,legacy,legacy,0,congruent,uniform,1,undefined,1,h,0,0,0,8,8,0,0,0,8,8,0,8,0,8,NA,8,8,NA,9/25/2021 17:51,1500,The main experiment item,yes,Lab21TestFlankerTask.osexp,C:\Users\mmcel\OneDrive\GRAD SCHOOL\fall 2021\Advanced Quant,no,mono,no,18,no,#ffffff,no,yes,768,legacy,8,8,C:/Users/mmcel/OneDrive/GRAD SCHOOL/fall 2021/Advanced Quant/MM-Subject-1.csv,legacy,Lentiform Loewenfeld,3.3.9,0,h,NA,h,NA,NA,h,344,NA,11609,NA,NA,344,NA,NA,2,legacy,1024,2,48000,-16,experiment,HHHHH,1,odd,15659,NA,NA,29531,28424,4050,NA,NA,29528,29636,NA,NA,4047,NA,NA,29637,29982,NA,Lab 2.1 Test Flanker Task,9,3798,9,yes,1024
100,100,419.2,419.2,#000000,legacy,legacy,legacy,0,congruent,uniform,1,undefined,1,h,0,0,0,9,9,0,0,0,9,9,0,9,0,9,NA,9,9,NA,9/25/2021 17:51,1500,The main experiment item,yes,Lab21TestFlankerTask.osexp,C:\Users\mmcel\OneDrive\GRAD SCHOOL\fall 2021\Advanced Quant,no,mono,no,18,no,#ffffff,no,yes,768,legacy,9,9,C:/Users/mmcel/OneDrive/GRAD SCHOOL/fall 2021/Advanced Quant/MM-Subject-1.csv,legacy,Lentiform Loewenfeld,3.3.9,0,h,NA,h,NA,NA,h,394,NA,11609,NA,NA,394,NA,NA,2,legacy,1024,2,48000,-16,experiment,HHHHH,1,odd,15659,NA,NA,31147,30037,4050,NA,NA,31145,31252,NA,NA,4047,NA,NA,31253,31648,NA,Lab 2.1 Test Flanker Task,10,4192,10,yes,1024
100,100,414.7272727,414.7272727,#000000,legacy,legacy,legacy,0,congruent,uniform,1,undefined,1,s,0,0,0,10,10,0,0,0,10,10,0,10,0,10,NA,10,10,NA,9/25/2021 17:51,1500,The main experiment item,yes,Lab21TestFlankerTask.osexp,C:\Users\mmcel\OneDrive\GRAD SCHOOL\fall 2021\Advanced Quant,no,mono,no,18,no,#ffffff,no,yes,768,legacy,10,10,C:/Users/mmcel/OneDrive/GRAD SCHOOL/fall 2021/Advanced Quant/MM-Subject-1.csv,legacy,Lentiform Loewenfeld,3.3.9,0,s,NA,h,NA,NA,s,370,NA,11609,NA,NA,370,NA,NA,2,legacy,1024,2,48000,-16,experiment,SSSSS,1,odd,15659,NA,NA,32775,31667,4050,NA,NA,32772,32880,NA,NA,4047,NA,NA,32881,33252,NA,Lab 2.1 Test Flanker Task,11,4562,11,yes,1024
100,100,407.6666667,407.6666667,#000000,legacy,legacy,legacy,0,incongruent,uniform,1,undefined,1,h,0,0,0,11,11,0,0,0,11,11,0,11,0,11,NA,11,11,NA,9/25/2021 17:51,1500,The main experiment item,yes,Lab21TestFlankerTask.osexp,C:\Users\mmcel\OneDrive\GRAD SCHOOL\fall 2021\Advanced Quant,no,mono,no,18,no,#ffffff,no,yes,768,legacy,11,11,C:/Users/mmcel/OneDrive/GRAD SCHOOL/fall 2021/Advanced Quant/MM-Subject-1.csv,legacy,Lentiform Loewenfeld,3.3.9,0,h,NA,h,NA,NA,h,330,NA,11609,NA,NA,330,NA,NA,2,legacy,1024,2,48000,-16,experiment,SSHSS,1,odd,15659,NA,NA,34419,33303,4050,NA,NA,34418,34524,NA,NA,4047,NA,NA,34524,34854,NA,Lab 2.1 Test Flanker Task,12,4892,12,yes,1024
100,100,403.4615385,403.4615385,#000000,legacy,legacy,legacy,0,incongruent,uniform,1,undefined,1,h,0,0,0,12,12,0,0,0,12,12,0,12,0,12,NA,12,12,NA,9/25/2021 17:51,1500,The main experiment item,yes,Lab21TestFlankerTask.osexp,C:\Users\mmcel\OneDrive\GRAD SCHOOL\fall 2021\Advanced Quant,no,mono,no,18,no,#ffffff,no,yes,768,legacy,12,12,C:/Users/mmcel/OneDrive/GRAD SCHOOL/fall 2021/Advanced Quant/MM-Subject-1.csv,legacy,Lentiform Loewenfeld,3.3.9,0,h,NA,h,NA,NA,h,353,NA,11609,NA,NA,353,NA,NA,2,legacy,1024,2,48000,-16,experiment,SSHSS,1,odd,15659,NA,NA,36009,34901,4050,NA,NA,36007,36114,NA,NA,4047,NA,NA,36115,36469,NA,Lab 2.1 Test Flanker Task,13,5245,13,yes,1024
100,100,398,398,#000000,legacy,legacy,legacy,0,congruent,uniform,1,undefined,1,h,0,0,0,13,13,0,0,0,13,13,0,13,0,13,NA,13,13,NA,9/25/2021 17:51,1500,The main experiment item,yes,Lab21TestFlankerTask.osexp,C:\Users\mmcel\OneDrive\GRAD SCHOOL\fall 2021\Advanced Quant,no,mono,no,18,no,#ffffff,no,yes,768,legacy,13,13,C:/Users/mmcel/OneDrive/GRAD SCHOOL/fall 2021/Advanced Quant/MM-Subject-1.csv,legacy,Lentiform Loewenfeld,3.3.9,0,h,NA,h,NA,NA,h,327,NA,11609,NA,NA,327,NA,NA,2,legacy,1024,2,48000,-16,experiment,HHHHH,1,odd,15659,NA,NA,37598,36489,4050,NA,NA,37596,37704,NA,NA,4047,NA,NA,37704,38031,NA,Lab 2.1 Test Flanker Task,14,5572,14,yes,1024
100,100,407.5333333,407.5333333,#000000,legacy,legacy,legacy,0,incongruent,uniform,1,undefined,1,h,0,0,0,14,14,0,0,0,14,14,0,14,0,14,NA,14,14,NA,9/25/2021 17:51,1500,The main experiment item,yes,Lab21TestFlankerTask.osexp,C:\Users\mmcel\OneDrive\GRAD SCHOOL\fall 2021\Advanced Quant,no,mono,no,18,no,#ffffff,no,yes,768,legacy,14,14,C:/Users/mmcel/OneDrive/GRAD SCHOOL/fall 2021/Advanced Quant/MM-Subject-1.csv,legacy,Lentiform Loewenfeld,3.3.9,0,h,NA,h,NA,NA,h,541,NA,11609,NA,NA,541,NA,NA,2,legacy,1024,2,48000,-16,experiment,SSHSS,1,odd,15659,NA,NA,39190,38080,4050,NA,NA,39187,39295,NA,NA,4047,NA,NA,39295,39836,NA,Lab 2.1 Test Flanker Task,15,6113,15,yes,1024
100,100,404.3125,404.3125,#000000,legacy,legacy,legacy,0,congruent,uniform,1,undefined,1,h,0,0,0,15,15,0,0,0,15,15,0,15,0,15,NA,15,15,NA,9/25/2021 17:51,1500,The main experiment item,yes,Lab21TestFlankerTask.osexp,C:\Users\mmcel\OneDrive\GRAD SCHOOL\fall 2021\Advanced Quant,no,mono,no,18,no,#ffffff,no,yes,768,legacy,15,15,C:/Users/mmcel/OneDrive/GRAD SCHOOL/fall 2021/Advanced Quant/MM-Subject-1.csv,legacy,Lentiform Loewenfeld,3.3.9,0,h,NA,h,NA,NA,h,356,NA,11609,NA,NA,356,NA,NA,2,legacy,1024,2,48000,-16,experiment,HHHHH,1,odd,15659,NA,NA,40988,39880,4050,NA,NA,40986,41093,NA,NA,4047,NA,NA,41093,41449,NA,Lab 2.1 Test Flanker Task,16,6469,16,yes,1024
100,100,407.7058824,407.7058824,#000000,legacy,legacy,legacy,0,incongruent,uniform,1,undefined,1,s,0,0,0,16,16,0,0,0,16,16,0,16,0,16,NA,16,16,NA,9/25/2021 17:51,1500,The main experiment item,yes,Lab21TestFlankerTask.osexp,C:\Users\mmcel\OneDrive\GRAD SCHOOL\fall 2021\Advanced Quant,no,mono,no,18,no,#ffffff,no,yes,768,legacy,16,16,C:/Users/mmcel/OneDrive/GRAD SCHOOL/fall 2021/Advanced Quant/MM-Subject-1.csv,legacy,Lentiform Loewenfeld,3.3.9,0,s,NA,h,NA,NA,s,462,NA,11609,NA,NA,462,NA,NA,2,legacy,1024,2,48000,-16,experiment,HHSHH,1,odd,15659,NA,NA,42610,41503,4050,NA,NA,42607,42715,NA,NA,4047,NA,NA,42715,43178,NA,Lab 2.1 Test Flanker Task,17,6931,17,yes,1024
94.44444444,94.44444444,405.3888889,405.3888889,#000000,legacy,legacy,legacy,0,incongruent,uniform,0,undefined,0,s,0,0,0,17,17,0,0,0,17,17,0,17,0,17,NA,17,17,NA,9/25/2021 17:51,1500,The main experiment item,yes,Lab21TestFlankerTask.osexp,C:\Users\mmcel\OneDrive\GRAD SCHOOL\fall 2021\Advanced Quant,no,mono,no,18,no,#ffffff,no,yes,768,legacy,17,17,C:/Users/mmcel/OneDrive/GRAD SCHOOL/fall 2021/Advanced Quant/MM-Subject-1.csv,legacy,Lentiform Loewenfeld,3.3.9,0,h,NA,h,NA,NA,h,366,NA,11609,NA,NA,366,NA,NA,2,legacy,1024,2,48000,-16,experiment,HHSHH,1,odd,15659,NA,NA,44317,43202,4050,NA,NA,44314,44422,NA,NA,4047,NA,NA,44422,44788,NA,Lab 2.1 Test Flanker Task,17,7297,18,yes,1024
94.73684211,94.73684211,404.1052632,404.1052632,#000000,legacy,legacy,legacy,0,incongruent,uniform,1,undefined,1,s,0,0,0,18,18,0,0,0,18,18,0,18,0,18,NA,18,18,NA,9/25/2021 17:51,1500,The main experiment item,yes,Lab21TestFlankerTask.osexp,C:\Users\mmcel\OneDrive\GRAD SCHOOL\fall 2021\Advanced Quant,no,mono,no,18,no,#ffffff,no,yes,768,legacy,18,18,C:/Users/mmcel/OneDrive/GRAD SCHOOL/fall 2021/Advanced Quant/MM-Subject-1.csv,legacy,Lentiform Loewenfeld,3.3.9,0,s,NA,h,NA,NA,s,381,NA,11609,NA,NA,381,NA,NA,2,legacy,1024,2,48000,-16,experiment,HHSHH,1,odd,15659,NA,NA,46451,45343,4050,NA,NA,46448,46556,NA,44838,4047,NA,NA,46556,46938,NA,Lab 2.1 Test Flanker Task,18,7678,19,yes,1024
95,95,405.45,405.45,#000000,legacy,legacy,legacy,0,congruent,uniform,1,undefined,1,h,0,0,0,19,19,0,0,0,19,19,0,19,0,19,NA,19,19,NA,9/25/2021 17:51,1500,The main experiment item,yes,Lab21TestFlankerTask.osexp,C:\Users\mmcel\OneDrive\GRAD SCHOOL\fall 2021\Advanced Quant,no,mono,no,18,no,#ffffff,no,yes,768,legacy,19,19,C:/Users/mmcel/OneDrive/GRAD SCHOOL/fall 2021/Advanced Quant/MM-Subject-1.csv,legacy,Lentiform Loewenfeld,3.3.9,0,h,NA,h,NA,NA,h,431,NA,11609,NA,NA,431,NA,NA,2,legacy,1024,2,48000,-16,experiment,HHHHH,1,odd,15659,NA,NA,48101,46994,4050,NA,NA,48098,48206,NA,44838,4047,NA,NA,48206,48638,NA,Lab 2.1 Test Flanker Task,19,8109,20,yes,1024
95.23809524,95.23809524,406.2380952,406.2380952,#000000,legacy,legacy,legacy,0,incongruent,uniform,1,undefined,1,s,0,0,0,20,20,0,0,0,20,20,0,20,0,20,NA,20,20,NA,9/25/2021 17:51,1500,The main experiment item,yes,Lab21TestFlankerTask.osexp,C:\Users\mmcel\OneDrive\GRAD SCHOOL\fall 2021\Advanced Quant,no,mono,no,18,no,#ffffff,no,yes,768,legacy,20,20,C:/Users/mmcel/OneDrive/GRAD SCHOOL/fall 2021/Advanced Quant/MM-Subject-1.csv,legacy,Lentiform Loewenfeld,3.3.9,0,s,NA,h,NA,NA,s,422,NA,11609,NA,NA,422,NA,NA,2,legacy,1024,2,48000,-16,experiment,HHSHH,1,odd,15659,NA,NA,49777,48658,4050,NA,NA,49775,49883,NA,44838,4047,NA,NA,49883,50306,NA,Lab 2.1 Test Flanker Task,20,8531,21,yes,1024
95.45454545,95.45454545,408.1363636,408.1363636,#000000,legacy,legacy,legacy,0,incongruent,uniform,1,undefined,1,s,0,0,0,21,21,0,0,0,21,21,0,21,0,21,NA,21,21,NA,9/25/2021 17:51,1500,The main experiment item,yes,Lab21TestFlankerTask.osexp,C:\Users\mmcel\OneDrive\GRAD SCHOOL\fall 2021\Advanced Quant,no,mono,no,18,no,#ffffff,no,yes,768,legacy,21,21,C:/Users/mmcel/OneDrive/GRAD SCHOOL/fall 2021/Advanced Quant/MM-Subject-1.csv,legacy,Lentiform Loewenfeld,3.3.9,0,s,NA,h,NA,NA,s,448,NA,11609,NA,NA,448,NA,NA,2,legacy,1024,2,48000,-16,experiment,HHSHH,1,odd,15659,NA,NA,51500,50356,4050,NA,NA,51498,51605,NA,44838,4047,NA,NA,51605,52053,NA,Lab 2.1 Test Flanker Task,21,8979,22,yes,1024
95.65217391,95.65217391,406.8695652,406.8695652,#000000,legacy,legacy,legacy,0,congruent,uniform,1,undefined,1,h,0,0,0,22,22,0,0,0,22,22,0,22,0,22,NA,22,22,NA,9/25/2021 17:51,1500,The main experiment item,yes,Lab21TestFlankerTask.osexp,C:\Users\mmcel\OneDrive\GRAD SCHOOL\fall 2021\Advanced Quant,no,mono,no,18,no,#ffffff,no,yes,768,legacy,22,22,C:/Users/mmcel/OneDrive/GRAD SCHOOL/fall 2021/Advanced Quant/MM-Subject-1.csv,legacy,Lentiform Loewenfeld,3.3.9,0,h,NA,h,NA,NA,h,379,NA,11609,NA,NA,379,NA,NA,2,legacy,1024,2,48000,-16,experiment,HHHHH,1,odd,15659,NA,NA,53229,52119,4050,NA,NA,53227,53335,NA,44838,4047,NA,NA,53335,53715,NA,Lab 2.1 Test Flanker Task,22,9358,23,yes,1024
95.83333333,95.83333333,412.125,412.125,#000000,legacy,legacy,legacy,0,incongruent,uniform,1,undefined,1,h,0,0,0,23,23,0,0,0,23,23,0,23,0,23,NA,23,23,NA,9/25/2021 17:51,1500,The main experiment item,yes,Lab21TestFlankerTask.osexp,C:\Users\mmcel\OneDrive\GRAD SCHOOL\fall 2021\Advanced Quant,no,mono,no,18,no,#ffffff,no,yes,768,legacy,23,23,C:/Users/mmcel/OneDrive/GRAD SCHOOL/fall 2021/Advanced Quant/MM-Subject-1.csv,legacy,Lentiform Loewenfeld,3.3.9,0,h,NA,h,NA,NA,h,533,NA,11609,NA,NA,533,NA,NA,2,legacy,1024,2,48000,-16,experiment,SSHSS,1,odd,15659,NA,NA,54879,53772,4050,NA,NA,54876,54983,NA,44838,4047,NA,NA,54984,55518,NA,Lab 2.1 Test Flanker Task,23,9891,24,yes,1024
92,92,413.2,413.2,#000000,legacy,legacy,legacy,0,incongruent,uniform,0,undefined,0,s,0,0,0,24,24,0,0,0,24,24,0,24,0,24,NA,24,24,NA,9/25/2021 17:51,1500,The main experiment item,yes,Lab21TestFlankerTask.osexp,C:\Users\mmcel\OneDrive\GRAD SCHOOL\fall 2021\Advanced Quant,no,mono,no,18,no,#ffffff,no,yes,768,legacy,24,24,C:/Users/mmcel/OneDrive/GRAD SCHOOL/fall 2021/Advanced Quant/MM-Subject-1.csv,legacy,Lentiform Loewenfeld,3.3.9,0,h,NA,h,NA,NA,h,439,NA,11609,NA,NA,439,NA,NA,2,legacy,1024,2,48000,-16,experiment,HHSHH,1,odd,15659,NA,NA,56654,55546,4050,NA,NA,56652,56760,NA,44838,4047,NA,NA,56760,57200,NA,Lab 2.1 Test Flanker Task,23,10330,25,yes,1024
92.30769231,92.30769231,415.1153846,415.1153846,#000000,legacy,legacy,legacy,0,incongruent,uniform,1,undefined,1,h,0,0,0,25,25,0,0,0,25,25,0,25,0,25,NA,25,25,NA,9/25/2021 17:51,1500,The main experiment item,yes,Lab21TestFlankerTask.osexp,C:\Users\mmcel\OneDrive\GRAD SCHOOL\fall 2021\Advanced Quant,no,mono,no,18,no,#ffffff,no,yes,768,legacy,25,25,C:/Users/mmcel/OneDrive/GRAD SCHOOL/fall 2021/Advanced Quant/MM-Subject-1.csv,legacy,Lentiform Loewenfeld,3.3.9,0,h,NA,h,NA,NA,h,463,NA,11609,NA,NA,463,NA,NA,2,legacy,1024,2,48000,-16,experiment,SSHSS,1,odd,15659,NA,NA,58833,57728,4050,NA,NA,58830,58938,NA,57223,4047,NA,NA,58938,59402,NA,Lab 2.1 Test Flanker Task,24,10793,26,yes,1024
92.59259259,92.59259259,415.4074074,415.4074074,#000000,legacy,legacy,legacy,0,incongruent,uniform,1,undefined,1,h,0,0,0,26,26,0,0,0,26,26,0,26,0,26,NA,26,26,NA,9/25/2021 17:51,1500,The main experiment item,yes,Lab21TestFlankerTask.osexp,C:\Users\mmcel\OneDrive\GRAD SCHOOL\fall 2021\Advanced Quant,no,mono,no,18,no,#ffffff,no,yes,768,legacy,26,26,C:/Users/mmcel/OneDrive/GRAD SCHOOL/fall 2021/Advanced Quant/MM-Subject-1.csv,legacy,Lentiform Loewenfeld,3.3.9,0,h,NA,h,NA,NA,h,423,NA,11609,NA,NA,423,NA,NA,2,legacy,1024,2,48000,-16,experiment,SSHSS,1,odd,15659,NA,NA,60584,59461,4050,NA,NA,60582,60690,NA,57223,4047,NA,NA,60691,61115,NA,Lab 2.1 Test Flanker Task,25,11216,27,yes,1024
92.85714286,92.85714286,424.8928571,424.8928571,#000000,legacy,legacy,legacy,0,congruent,uniform,1,undefined,1,h,0,0,0,27,27,0,0,0,27,27,0,27,0,27,NA,27,27,NA,9/25/2021 17:51,1500,The main experiment item,yes,Lab21TestFlankerTask.osexp,C:\Users\mmcel\OneDrive\GRAD SCHOOL\fall 2021\Advanced Quant,no,mono,no,18,no,#ffffff,no,yes,768,legacy,27,27,C:/Users/mmcel/OneDrive/GRAD SCHOOL/fall 2021/Advanced Quant/MM-Subject-1.csv,legacy,Lentiform Loewenfeld,3.3.9,0,h,NA,h,NA,NA,h,681,NA,11609,NA,NA,681,NA,NA,2,legacy,1024,2,48000,-16,experiment,HHHHH,1,odd,15659,NA,NA,62292,61172,4050,NA,NA,62290,62397,NA,57223,4047,NA,NA,62397,63078,NA,Lab 2.1 Test Flanker Task,26,11897,28,yes,1024
93.10344828,93.10344828,421.7241379,421.7241379,#000000,legacy,legacy,legacy,0,incongruent,uniform,1,undefined,1,h,0,0,0,28,28,0,0,0,28,28,0,28,0,28,NA,28,28,NA,9/25/2021 17:51,1500,The main experiment item,yes,Lab21TestFlankerTask.osexp,C:\Users\mmcel\OneDrive\GRAD SCHOOL\fall 2021\Advanced Quant,no,mono,no,18,no,#ffffff,no,yes,768,legacy,28,28,C:/Users/mmcel/OneDrive/GRAD SCHOOL/fall 2021/Advanced Quant/MM-Subject-1.csv,legacy,Lentiform Loewenfeld,3.3.9,0,h,NA,h,NA,NA,h,333,NA,11609,NA,NA,333,NA,NA,2,legacy,1024,2,48000,-16,experiment,SSHSS,1,odd,15659,NA,NA,64211,63102,4050,NA,NA,64209,64317,NA,57223,4047,NA,NA,64317,64651,NA,Lab 2.1 Test Flanker Task,27,12230,29,yes,1024
93.33333333,93.33333333,420.8666667,420.8666667,#000000,legacy,legacy,legacy,0,congruent,uniform,1,undefined,1,s,0,0,0,29,29,0,0,0,29,29,0,29,0,29,NA,29,29,NA,9/25/2021 17:51,1500,The main experiment item,yes,Lab21TestFlankerTask.osexp,C:\Users\mmcel\OneDrive\GRAD SCHOOL\fall 2021\Advanced Quant,no,mono,no,18,no,#ffffff,no,yes,768,legacy,29,29,C:/Users/mmcel/OneDrive/GRAD SCHOOL/fall 2021/Advanced Quant/MM-Subject-1.csv,legacy,Lentiform Loewenfeld,3.3.9,0,s,NA,h,NA,NA,s,396,NA,11609,NA,NA,396,NA,NA,2,legacy,1024,2,48000,-16,experiment,SSSSS,1,odd,15659,NA,NA,65853,64729,4050,NA,NA,65851,65958,NA,57223,4047,NA,NA,65959,66356,NA,Lab 2.1 Test Flanker Task,28,12626,30,yes,1024
90.32258065,90.32258065,419.7096774,419.7096774,#000000,legacy,legacy,legacy,0,congruent,uniform,0,undefined,0,s,0,0,0,30,30,0,0,0,30,30,0,30,0,30,NA,30,30,NA,9/25/2021 17:51,1500,The main experiment item,yes,Lab21TestFlankerTask.osexp,C:\Users\mmcel\OneDrive\GRAD SCHOOL\fall 2021\Advanced Quant,no,mono,no,18,no,#ffffff,no,yes,768,legacy,30,30,C:/Users/mmcel/OneDrive/GRAD SCHOOL/fall 2021/Advanced Quant/MM-Subject-1.csv,legacy,Lentiform Loewenfeld,3.3.9,0,h,NA,h,NA,NA,h,385,NA,11609,NA,NA,385,NA,NA,2,legacy,1024,2,48000,-16,experiment,SSSSS,1,odd,15659,NA,NA,67538,66428,4050,NA,NA,67535,67643,NA,57223,4047,NA,NA,67643,68029,NA,Lab 2.1 Test Flanker Task,28,13011,31,yes,1024
87.5,87.5,420.53125,420.53125,#000000,legacy,legacy,legacy,0,incongruent,uniform,0,undefined,0,s,0,0,0,31,31,0,0,0,31,31,0,31,0,31,NA,31,31,NA,9/25/2021 17:51,1500,The main experiment item,yes,Lab21TestFlankerTask.osexp,C:\Users\mmcel\OneDrive\GRAD SCHOOL\fall 2021\Advanced Quant,no,mono,no,18,no,#ffffff,no,yes,768,legacy,31,31,C:/Users/mmcel/OneDrive/GRAD SCHOOL/fall 2021/Advanced Quant/MM-Subject-1.csv,legacy,Lentiform Loewenfeld,3.3.9,0,h,NA,h,NA,NA,h,446,NA,11609,NA,NA,446,NA,NA,2,legacy,1024,2,48000,-16,experiment,HHSHH,1,odd,15659,NA,NA,69699,68587,4050,NA,NA,69697,69805,NA,68082,4047,NA,NA,69805,70252,NA,Lab 2.1 Test Flanker Task,28,13457,32,yes,1024
87.87878788,87.87878788,424.6969697,424.6969697,#000000,legacy,legacy,legacy,0,incongruent,uniform,1,undefined,1,s,0,0,0,32,32,0,0,0,32,32,0,32,0,32,NA,32,32,NA,9/25/2021 17:51,1500,The main experiment item,yes,Lab21TestFlankerTask.osexp,C:\Users\mmcel\OneDrive\GRAD SCHOOL\fall 2021\Advanced Quant,no,mono,no,18,no,#ffffff,no,yes,768,legacy,32,32,C:/Users/mmcel/OneDrive/GRAD SCHOOL/fall 2021/Advanced Quant/MM-Subject-1.csv,legacy,Lentiform Loewenfeld,3.3.9,0,s,NA,h,NA,NA,s,558,NA,11609,NA,NA,558,NA,NA,2,legacy,1024,2,48000,-16,experiment,HHSHH,1,odd,15659,NA,NA,71918,70809,4050,NA,NA,71916,72023,NA,70304,4047,NA,NA,72023,72581,NA,Lab 2.1 Test Flanker Task,29,14015,33,yes,1024
88.23529412,88.23529412,423.7352941,423.7352941,#000000,legacy,legacy,legacy,0,congruent,uniform,1,undefined,1,s,0,0,0,33,33,0,0,0,33,33,0,33,0,33,NA,33,33,NA,9/25/2021 17:51,1500,The main experiment item,yes,Lab21TestFlankerTask.osexp,C:\Users\mmcel\OneDrive\GRAD SCHOOL\fall 2021\Advanced Quant,no,mono,no,18,no,#ffffff,no,yes,768,legacy,33,33,C:/Users/mmcel/OneDrive/GRAD SCHOOL/fall 2021/Advanced Quant/MM-Subject-1.csv,legacy,Lentiform Loewenfeld,3.3.9,0,s,NA,h,NA,NA,s,392,NA,11609,NA,NA,392,NA,NA,2,legacy,1024,2,48000,-16,experiment,SSSSS,1,odd,15659,NA,NA,73717,72604,4050,NA,NA,73715,73822,NA,70304,4047,NA,NA,73823,74215,NA,Lab 2.1 Test Flanker Task,30,14407,34,yes,1024
88.57142857,88.57142857,422.8857143,422.8857143,#000000,legacy,legacy,legacy,0,congruent,uniform,1,undefined,1,s,0,0,0,34,34,0,0,0,34,34,0,34,0,34,NA,34,34,NA,9/25/2021 17:51,1500,The main experiment item,yes,Lab21TestFlankerTask.osexp,C:\Users\mmcel\OneDrive\GRAD SCHOOL\fall 2021\Advanced Quant,no,mono,no,18,no,#ffffff,no,yes,768,legacy,34,34,C:/Users/mmcel/OneDrive/GRAD SCHOOL/fall 2021/Advanced Quant/MM-Subject-1.csv,legacy,Lentiform Loewenfeld,3.3.9,0,s,NA,h,NA,NA,s,394,NA,11609,NA,NA,394,NA,NA,2,legacy,1024,2,48000,-16,experiment,SSSSS,1,odd,15659,NA,NA,75395,74269,4050,NA,NA,75391,75500,NA,70304,4047,NA,NA,75500,75896,NA,Lab 2.1 Test Flanker Task,31,14801,35,yes,1024
86.11111111,86.11111111,421.7777778,421.7777778,#000000,legacy,legacy,legacy,0,incongruent,uniform,0,undefined,0,s,0,0,0,35,35,0,0,0,35,35,0,35,0,35,NA,35,35,NA,9/25/2021 17:51,1500,The main experiment item,yes,Lab21TestFlankerTask.osexp,C:\Users\mmcel\OneDrive\GRAD SCHOOL\fall 2021\Advanced Quant,no,mono,no,18,no,#ffffff,no,yes,768,legacy,35,35,C:/Users/mmcel/OneDrive/GRAD SCHOOL/fall 2021/Advanced Quant/MM-Subject-1.csv,legacy,Lentiform Loewenfeld,3.3.9,0,h,NA,h,NA,NA,h,383,NA,11609,NA,NA,383,NA,NA,2,legacy,1024,2,48000,-16,experiment,HHSHH,1,odd,15659,NA,NA,77075,75952,4050,NA,NA,77073,77180,NA,70304,4047,NA,NA,77180,77563,NA,Lab 2.1 Test Flanker Task,31,15184,36,yes,1024
86.48648649,86.48648649,422.3243243,422.3243243,#000000,legacy,legacy,legacy,0,incongruent,uniform,1,undefined,1,s,0,0,0,36,36,0,0,0,36,36,0,36,0,36,NA,36,36,NA,9/25/2021 17:51,1500,The main experiment item,yes,Lab21TestFlankerTask.osexp,C:\Users\mmcel\OneDrive\GRAD SCHOOL\fall 2021\Advanced Quant,no,mono,no,18,no,#ffffff,no,yes,768,legacy,36,36,C:/Users/mmcel/OneDrive/GRAD SCHOOL/fall 2021/Advanced Quant/MM-Subject-1.csv,legacy,Lentiform Loewenfeld,3.3.9,0,s,NA,h,NA,NA,s,442,NA,11609,NA,NA,442,NA,NA,2,legacy,1024,2,48000,-16,experiment,HHSHH,1,odd,15659,NA,NA,79208,78096,4050,NA,NA,79206,79314,NA,77591,4047,NA,NA,79314,79757,NA,Lab 2.1 Test Flanker Task,32,15626,37,yes,1024
86.84210526,86.84210526,422.0263158,422.0263158,#000000,legacy,legacy,legacy,0,congruent,uniform,1,undefined,1,h,0,0,0,37,37,0,0,0,37,37,0,37,0,37,NA,37,37,NA,9/25/2021 17:51,1500,The main experiment item,yes,Lab21TestFlankerTask.osexp,C:\Users\mmcel\OneDrive\GRAD SCHOOL\fall 2021\Advanced Quant,no,mono,no,18,no,#ffffff,no,yes,768,legacy,37,37,C:/Users/mmcel/OneDrive/GRAD SCHOOL/fall 2021/Advanced Quant/MM-Subject-1.csv,legacy,Lentiform Loewenfeld,3.3.9,0,h,NA,h,NA,NA,h,411,NA,11609,NA,NA,411,NA,NA,2,legacy,1024,2,48000,-16,experiment,HHHHH,1,odd,15659,NA,NA,80952,79817,4050,NA,NA,80950,81058,NA,77591,4047,NA,NA,81059,81470,NA,Lab 2.1 Test Flanker Task,33,16037,38,yes,1024
87.17948718,87.17948718,420.4102564,420.4102564,#000000,legacy,legacy,legacy,0,incongruent,uniform,1,undefined,1,h,0,0,0,38,38,0,0,0,38,38,0,38,0,38,NA,38,38,NA,9/25/2021 17:51,1500,The main experiment item,yes,Lab21TestFlankerTask.osexp,C:\Users\mmcel\OneDrive\GRAD SCHOOL\fall 2021\Advanced Quant,no,mono,no,18,no,#ffffff,no,yes,768,legacy,38,38,C:/Users/mmcel/OneDrive/GRAD SCHOOL/fall 2021/Advanced Quant/MM-Subject-1.csv,legacy,Lentiform Loewenfeld,3.3.9,0,h,NA,h,NA,NA,h,359,NA,11609,NA,NA,359,NA,NA,2,legacy,1024,2,48000,-16,experiment,SSHSS,1,odd,15659,NA,NA,82654,81529,4050,NA,NA,82651,82755,NA,77591,4047,NA,NA,82755,83114,NA,Lab 2.1 Test Flanker Task,34,16396,39,yes,1024
87.5,87.5,423.425,423.425,#000000,legacy,legacy,legacy,0,congruent,uniform,1,undefined,1,s,0,0,0,39,39,0,0,0,39,39,0,39,0,39,NA,39,39,NA,9/25/2021 17:51,1500,The main experiment item,yes,Lab21TestFlankerTask.osexp,C:\Users\mmcel\OneDrive\GRAD SCHOOL\fall 2021\Advanced Quant,no,mono,no,18,no,#ffffff,no,yes,768,legacy,39,39,C:/Users/mmcel/OneDrive/GRAD SCHOOL/fall 2021/Advanced Quant/MM-Subject-1.csv,legacy,Lentiform Loewenfeld,3.3.9,0,s,NA,h,NA,NA,s,541,NA,11609,NA,NA,541,NA,NA,2,legacy,1024,2,48000,-16,experiment,SSSSS,1,odd,15659,NA,NA,84280,83173,4050,NA,NA,84277,84386,NA,77591,4047,NA,NA,84386,84928,NA,Lab 2.1 Test Flanker Task,35,16937,40,yes,1024
87.80487805,87.80487805,421.2682927,421.2682927,#000000,legacy,legacy,legacy,0,congruent,uniform,1,undefined,1,h,0,0,0,40,40,0,0,0,40,40,0,40,0,40,NA,40,40,NA,9/25/2021 17:51,1500,The main experiment item,yes,Lab21TestFlankerTask.osexp,C:\Users\mmcel\OneDrive\GRAD SCHOOL\fall 2021\Advanced Quant,no,mono,no,18,no,#ffffff,no,yes,768,legacy,40,40,C:/Users/mmcel/OneDrive/GRAD SCHOOL/fall 2021/Advanced Quant/MM-Subject-1.csv,legacy,Lentiform Loewenfeld,3.3.9,0,h,NA,h,NA,NA,h,335,NA,11609,NA,NA,335,NA,NA,2,legacy,1024,2,48000,-16,experiment,HHHHH,1,odd,15659,NA,NA,86062,84984,4050,NA,NA,86060,86168,NA,77591,4047,NA,NA,86168,86503,NA,Lab 2.1 Test Flanker Task,36,17272,41,yes,1024
88.0952381,88.0952381,419.8095238,419.8095238,#000000,legacy,legacy,legacy,0,congruent,uniform,1,undefined,1,s,0,0,0,41,41,0,0,0,41,41,0,41,0,41,NA,41,41,NA,9/25/2021 17:51,1500,The main experiment item,yes,Lab21TestFlankerTask.osexp,C:\Users\mmcel\OneDrive\GRAD SCHOOL\fall 2021\Advanced Quant,no,mono,no,18,no,#ffffff,no,yes,768,legacy,41,41,C:/Users/mmcel/OneDrive/GRAD SCHOOL/fall 2021/Advanced Quant/MM-Subject-1.csv,legacy,Lentiform Loewenfeld,3.3.9,0,s,NA,h,NA,NA,s,360,NA,11609,NA,NA,360,NA,NA,2,legacy,1024,2,48000,-16,experiment,SSSSS,1,odd,15659,NA,NA,87667,86537,4050,NA,NA,87665,87768,NA,77591,4047,NA,NA,87768,88129,NA,Lab 2.1 Test Flanker Task,37,17632,42,yes,1024
86.04651163,86.04651163,418.0232558,418.0232558,#000000,legacy,legacy,legacy,0,congruent,uniform,0,undefined,0,s,0,0,0,42,42,0,0,0,42,42,0,42,0,42,NA,42,42,NA,9/25/2021 17:51,1500,The main experiment item,yes,Lab21TestFlankerTask.osexp,C:\Users\mmcel\OneDrive\GRAD SCHOOL\fall 2021\Advanced Quant,no,mono,no,18,no,#ffffff,no,yes,768,legacy,42,42,C:/Users/mmcel/OneDrive/GRAD SCHOOL/fall 2021/Advanced Quant/MM-Subject-1.csv,legacy,Lentiform Loewenfeld,3.3.9,0,h,NA,h,NA,NA,h,343,NA,11609,NA,NA,343,NA,NA,2,legacy,1024,2,48000,-16,experiment,SSSSS,1,odd,15659,NA,NA,89287,88174,4050,NA,NA,89284,89392,NA,77591,4047,NA,NA,89392,89736,NA,Lab 2.1 Test Flanker Task,37,17975,43,yes,1024
86.36363636,86.36363636,416.4545455,416.4545455,#000000,legacy,legacy,legacy,0,congruent,uniform,1,undefined,1,h,0,0,0,43,43,0,0,0,43,43,0,43,0,43,NA,43,43,NA,9/25/2021 17:51,1500,The main experiment item,yes,Lab21TestFlankerTask.osexp,C:\Users\mmcel\OneDrive\GRAD SCHOOL\fall 2021\Advanced Quant,no,mono,no,18,no,#ffffff,no,yes,768,legacy,43,43,C:/Users/mmcel/OneDrive/GRAD SCHOOL/fall 2021/Advanced Quant/MM-Subject-1.csv,legacy,Lentiform Loewenfeld,3.3.9,0,h,NA,h,NA,NA,h,349,NA,11609,NA,NA,349,NA,NA,2,legacy,1024,2,48000,-16,experiment,HHHHH,1,odd,15659,NA,NA,91413,90290,4050,NA,NA,91411,91518,NA,89784,4047,NA,NA,91518,91867,NA,Lab 2.1 Test Flanker Task,38,18324,44,yes,1024
86.66666667,86.66666667,415.2444444,415.2444444,#000000,legacy,legacy,legacy,0,congruent,uniform,1,undefined,1,s,0,0,0,44,44,0,0,0,44,44,0,44,0,44,NA,44,44,NA,9/25/2021 17:51,1500,The main experiment item,yes,Lab21TestFlankerTask.osexp,C:\Users\mmcel\OneDrive\GRAD SCHOOL\fall 2021\Advanced Quant,no,mono,no,18,no,#ffffff,no,yes,768,legacy,44,44,C:/Users/mmcel/OneDrive/GRAD SCHOOL/fall 2021/Advanced Quant/MM-Subject-1.csv,legacy,Lentiform Loewenfeld,3.3.9,0,s,NA,h,NA,NA,s,362,NA,11609,NA,NA,362,NA,NA,2,legacy,1024,2,48000,-16,experiment,SSSSS,1,odd,15659,NA,NA,93036,91918,4050,NA,NA,93034,93141,NA,89784,4047,NA,NA,93141,93503,NA,Lab 2.1 Test Flanker Task,39,18686,45,yes,1024
84.7826087,84.7826087,414.2391304,414.2391304,#000000,legacy,legacy,legacy,0,incongruent,uniform,0,undefined,0,s,0,0,0,45,45,0,0,0,45,45,0,45,0,45,NA,45,45,NA,9/25/2021 17:51,1500,The main experiment item,yes,Lab21TestFlankerTask.osexp,C:\Users\mmcel\OneDrive\GRAD SCHOOL\fall 2021\Advanced Quant,no,mono,no,18,no,#ffffff,no,yes,768,legacy,45,45,C:/Users/mmcel/OneDrive/GRAD SCHOOL/fall 2021/Advanced Quant/MM-Subject-1.csv,legacy,Lentiform Loewenfeld,3.3.9,0,h,NA,h,NA,NA,h,369,NA,11609,NA,NA,369,NA,NA,2,legacy,1024,2,48000,-16,experiment,HHSHH,1,odd,15659,NA,NA,94683,93558,4050,NA,NA,94681,94784,NA,89784,4047,NA,NA,94784,95154,NA,Lab 2.1 Test Flanker Task,39,19055,46,yes,1024
85.10638298,85.10638298,413.8297872,413.8297872,#000000,legacy,legacy,legacy,0,incongruent,uniform,1,undefined,1,h,0,0,0,46,46,0,0,0,46,46,0,46,0,46,NA,46,46,NA,9/25/2021 17:51,1500,The main experiment item,yes,Lab21TestFlankerTask.osexp,C:\Users\mmcel\OneDrive\GRAD SCHOOL\fall 2021\Advanced Quant,no,mono,no,18,no,#ffffff,no,yes,768,legacy,46,46,C:/Users/mmcel/OneDrive/GRAD SCHOOL/fall 2021/Advanced Quant/MM-Subject-1.csv,legacy,Lentiform Loewenfeld,3.3.9,0,h,NA,h,NA,NA,h,395,NA,11609,NA,NA,395,NA,NA,2,legacy,1024,2,48000,-16,experiment,SSHSS,1,odd,15659,NA,NA,96819,95705,4050,NA,NA,96817,96924,NA,95199,4047,NA,NA,96924,97320,NA,Lab 2.1 Test Flanker Task,40,19450,47,yes,1024
83.33333333,83.33333333,412.3333333,412.3333333,#000000,legacy,legacy,legacy,0,incongruent,uniform,0,undefined,0,h,0,0,0,47,47,0,0,0,47,47,0,47,0,47,NA,47,47,NA,9/25/2021 17:51,1500,The main experiment item,yes,Lab21TestFlankerTask.osexp,C:\Users\mmcel\OneDrive\GRAD SCHOOL\fall 2021\Advanced Quant,no,mono,no,18,no,#ffffff,no,yes,768,legacy,47,47,C:/Users/mmcel/OneDrive/GRAD SCHOOL/fall 2021/Advanced Quant/MM-Subject-1.csv,legacy,Lentiform Loewenfeld,3.3.9,0,s,NA,h,NA,NA,s,342,NA,11609,NA,NA,342,NA,NA,2,legacy,1024,2,48000,-16,experiment,SSHSS,1,odd,15659,NA,NA,98470,97362,4050,NA,NA,98468,98571,NA,95199,4047,NA,NA,98571,98914,NA,Lab 2.1 Test Flanker Task,40,19792,48,yes,1024
83.67346939,83.67346939,413.1836735,413.1836735,#000000,legacy,legacy,legacy,0,incongruent,uniform,1,undefined,1,s,0,0,0,48,48,0,0,0,48,48,0,48,0,48,NA,48,48,NA,9/25/2021 17:51,1500,The main experiment item,yes,Lab21TestFlankerTask.osexp,C:\Users\mmcel\OneDrive\GRAD SCHOOL\fall 2021\Advanced Quant,no,mono,no,18,no,#ffffff,no,yes,768,legacy,48,48,C:/Users/mmcel/OneDrive/GRAD SCHOOL/fall 2021/Advanced Quant/MM-Subject-1.csv,legacy,Lentiform Loewenfeld,3.3.9,0,s,NA,h,NA,NA,s,454,NA,11609,NA,NA,454,NA,NA,2,legacy,1024,2,48000,-16,experiment,HHSHH,1,odd,15659,NA,NA,100528,99449,4050,NA,NA,100525,100629,NA,98943,4047,NA,NA,100629,101084,NA,Lab 2.1 Test Flanker Task,41,20246,49,yes,1024
84,84,411.1,411.1,#000000,legacy,legacy,legacy,0,congruent,uniform,1,undefined,1,h,0,0,0,49,49,0,0,0,49,49,0,49,0,49,NA,49,49,NA,9/25/2021 17:51,1500,The main experiment item,yes,Lab21TestFlankerTask.osexp,C:\Users\mmcel\OneDrive\GRAD SCHOOL\fall 2021\Advanced Quant,no,mono,no,18,no,#ffffff,no,yes,768,legacy,49,49,C:/Users/mmcel/OneDrive/GRAD SCHOOL/fall 2021/Advanced Quant/MM-Subject-1.csv,legacy,Lentiform Loewenfeld,3.3.9,0,h,NA,h,NA,NA,h,309,NA,11609,NA,NA,309,NA,NA,2,legacy,1024,2,48000,-16,experiment,HHHHH,1,odd,15659,NA,NA,102218,101103,4050,NA,NA,102216,102323,NA,98943,4047,NA,NA,102323,102632,NA,Lab 2.1 Test Flanker Task,42,20555,50,yes,1024
82.35294118,82.35294118,410.4117647,410.4117647,#000000,legacy,legacy,legacy,0,incongruent,uniform,0,undefined,0,s,0,0,0,50,50,0,0,0,50,50,0,50,0,50,NA,50,50,NA,9/25/2021 17:51,1500,The main experiment item,yes,Lab21TestFlankerTask.osexp,C:\Users\mmcel\OneDrive\GRAD SCHOOL\fall 2021\Advanced Quant,no,mono,no,18,no,#ffffff,no,yes,768,legacy,50,50,C:/Users/mmcel/OneDrive/GRAD SCHOOL/fall 2021/Advanced Quant/MM-Subject-1.csv,legacy,Lentiform Loewenfeld,3.3.9,0,h,NA,h,NA,NA,h,376,NA,11609,NA,NA,376,NA,NA,2,legacy,1024,2,48000,-16,experiment,HHSHH,1,odd,15659,NA,NA,103810,102700,4050,NA,NA,103808,103915,NA,98943,4047,NA,NA,103915,104293,NA,Lab 2.1 Test Flanker Task,42,20931,51,yes,1024
82.69230769,82.69230769,409.8076923,409.8076923,#000000,legacy,legacy,legacy,0,incongruent,uniform,1,undefined,1,h,0,0,0,51,51,0,0,0,51,51,0,51,0,51,NA,51,51,NA,9/25/2021 17:51,1500,The main experiment item,yes,Lab21TestFlankerTask.osexp,C:\Users\mmcel\OneDrive\GRAD SCHOOL\fall 2021\Advanced Quant,no,mono,no,18,no,#ffffff,no,yes,768,legacy,51,51,C:/Users/mmcel/OneDrive/GRAD SCHOOL/fall 2021/Advanced Quant/MM-Subject-1.csv,legacy,Lentiform Loewenfeld,3.3.9,0,h,NA,h,NA,NA,h,379,NA,11609,NA,NA,379,NA,NA,2,legacy,1024,2,48000,-16,experiment,SSHSS,1,odd,15659,NA,NA,105972,104860,4050,NA,NA,105970,106077,NA,104355,4047,NA,NA,106077,106457,NA,Lab 2.1 Test Flanker Task,43,21310,52,yes,1024
83.01886792,83.01886792,408.6415094,408.6415094,#000000,legacy,legacy,legacy,0,congruent,uniform,1,undefined,1,h,0,0,0,52,52,0,0,0,52,52,0,52,0,52,NA,52,52,NA,9/25/2021 17:51,1500,The main experiment item,yes,Lab21TestFlankerTask.osexp,C:\Users\mmcel\OneDrive\GRAD SCHOOL\fall 2021\Advanced Quant,no,mono,no,18,no,#ffffff,no,yes,768,legacy,52,52,C:/Users/mmcel/OneDrive/GRAD SCHOOL/fall 2021/Advanced Quant/MM-Subject-1.csv,legacy,Lentiform Loewenfeld,3.3.9,0,h,NA,h,NA,NA,h,348,NA,11609,NA,NA,348,NA,NA,2,legacy,1024,2,48000,-16,experiment,HHHHH,1,odd,15659,NA,NA,107619,106501,4050,NA,NA,107618,107724,NA,104355,4047,NA,NA,107724,108073,NA,Lab 2.1 Test Flanker Task,44,21658,53,yes,1024
83.33333333,83.33333333,408.9814815,408.9814815,#000000,legacy,legacy,legacy,0,congruent,uniform,1,undefined,1,s,0,0,0,53,53,0,0,0,53,53,0,53,0,53,NA,53,53,NA,9/25/2021 17:51,1500,The main experiment item,yes,Lab21TestFlankerTask.osexp,C:\Users\mmcel\OneDrive\GRAD SCHOOL\fall 2021\Advanced Quant,no,mono,no,18,no,#ffffff,no,yes,768,legacy,53,53,C:/Users/mmcel/OneDrive/GRAD SCHOOL/fall 2021/Advanced Quant/MM-Subject-1.csv,legacy,Lentiform Loewenfeld,3.3.9,0,s,NA,h,NA,NA,s,427,NA,11609,NA,NA,427,NA,NA,2,legacy,1024,2,48000,-16,experiment,SSSSS,1,odd,15659,NA,NA,109238,108119,4050,NA,NA,109235,109342,NA,104355,4047,NA,NA,109342,109770,NA,Lab 2.1 Test Flanker Task,45,22085,54,yes,1024
83.63636364,83.63636364,408.5272727,408.5272727,#000000,legacy,legacy,legacy,0,congruent,uniform,1,undefined,1,h,0,0,0,54,54,0,0,0,54,54,0,54,0,54,NA,54,54,NA,9/25/2021 17:51,1500,The main experiment item,yes,Lab21TestFlankerTask.osexp,C:\Users\mmcel\OneDrive\GRAD SCHOOL\fall 2021\Advanced Quant,no,mono,no,18,no,#ffffff,no,yes,768,legacy,54,54,C:/Users/mmcel/OneDrive/GRAD SCHOOL/fall 2021/Advanced Quant/MM-Subject-1.csv,legacy,Lentiform Loewenfeld,3.3.9,0,h,NA,h,NA,NA,h,384,NA,11609,NA,NA,384,NA,NA,2,legacy,1024,2,48000,-16,experiment,HHHHH,1,odd,15659,NA,NA,110923,109817,4050,NA,NA,110921,111028,NA,104355,4047,NA,NA,111028,111413,NA,Lab 2.1 Test Flanker Task,46,22469,55,yes,1024
83.92857143,83.92857143,408.5535714,408.5535714,#000000,legacy,legacy,legacy,0,congruent,uniform,1,undefined,1,s,0,0,0,55,55,0,0,0,55,55,0,55,0,55,NA,55,55,NA,9/25/2021 17:51,1500,The main experiment item,yes,Lab21TestFlankerTask.osexp,C:\Users\mmcel\OneDrive\GRAD SCHOOL\fall 2021\Advanced Quant,no,mono,no,18,no,#ffffff,no,yes,768,legacy,55,55,C:/Users/mmcel/OneDrive/GRAD SCHOOL/fall 2021/Advanced Quant/MM-Subject-1.csv,legacy,Lentiform Loewenfeld,3.3.9,0,s,NA,h,NA,NA,s,410,NA,11609,NA,NA,410,NA,NA,2,legacy,1024,2,48000,-16,experiment,SSSSS,1,odd,15659,NA,NA,112689,111577,4050,NA,NA,112686,112794,NA,104355,4047,NA,NA,112795,113208,NA,Lab 2.1 Test Flanker Task,47,22879,56,yes,1024
84.21052632,84.21052632,409.8596491,409.8596491,#000000,legacy,legacy,legacy,0,incongruent,uniform,1,undefined,1,s,0,0,0,56,56,0,0,0,56,56,0,56,0,56,NA,56,56,NA,9/25/2021 17:51,1500,The main experiment item,yes,Lab21TestFlankerTask.osexp,C:\Users\mmcel\OneDrive\GRAD SCHOOL\fall 2021\Advanced Quant,no,mono,no,18,no,#ffffff,no,yes,768,legacy,56,56,C:/Users/mmcel/OneDrive/GRAD SCHOOL/fall 2021/Advanced Quant/MM-Subject-1.csv,legacy,Lentiform Loewenfeld,3.3.9,0,s,NA,h,NA,NA,s,483,NA,11609,NA,NA,483,NA,NA,2,legacy,1024,2,48000,-16,experiment,HHSHH,1,odd,15659,NA,NA,114395,113267,4050,NA,NA,114393,114499,NA,104355,4047,NA,NA,114500,114984,NA,Lab 2.1 Test Flanker Task,48,23362,57,yes,1024
84.48275862,84.48275862,408.6206897,408.6206897,#000000,legacy,legacy,legacy,0,congruent,uniform,1,undefined,1,h,0,0,0,57,57,0,0,0,57,57,0,57,0,57,NA,57,57,NA,9/25/2021 17:51,1500,The main experiment item,yes,Lab21TestFlankerTask.osexp,C:\Users\mmcel\OneDrive\GRAD SCHOOL\fall 2021\Advanced Quant,no,mono,no,18,no,#ffffff,no,yes,768,legacy,57,57,C:/Users/mmcel/OneDrive/GRAD SCHOOL/fall 2021/Advanced Quant/MM-Subject-1.csv,legacy,Lentiform Loewenfeld,3.3.9,0,h,NA,h,NA,NA,h,338,NA,11609,NA,NA,338,NA,NA,2,legacy,1024,2,48000,-16,experiment,HHHHH,1,odd,15659,NA,NA,116148,115030,4050,NA,NA,116145,116252,NA,104355,4047,NA,NA,116252,116591,NA,Lab 2.1 Test Flanker Task,49,23700,58,yes,1024
84.74576271,84.74576271,408.5254237,408.5254237,#000000,legacy,legacy,legacy,0,congruent,uniform,1,undefined,1,s,0,0,0,58,58,0,0,0,58,58,0,58,0,58,NA,58,58,NA,9/25/2021 17:51,1500,The main experiment item,yes,Lab21TestFlankerTask.osexp,C:\Users\mmcel\OneDrive\GRAD SCHOOL\fall 2021\Advanced Quant,no,mono,no,18,no,#ffffff,no,yes,768,legacy,58,58,C:/Users/mmcel/OneDrive/GRAD SCHOOL/fall 2021/Advanced Quant/MM-Subject-1.csv,legacy,Lentiform Loewenfeld,3.3.9,0,s,NA,h,NA,NA,s,403,NA,11609,NA,NA,403,NA,NA,2,legacy,1024,2,48000,-16,experiment,SSSSS,1,odd,15659,NA,NA,117731,116641,4050,NA,NA,117729,117835,NA,104355,4047,NA,NA,117835,118239,NA,Lab 2.1 Test Flanker Task,50,24103,59,yes,1024
83.33333333,83.33333333,407.5,407.5,#000000,legacy,legacy,legacy,0,congruent,uniform,0,undefined,0,h,0,0,0,59,59,0,0,0,59,59,0,59,0,59,NA,59,59,NA,9/25/2021 17:51,1500,The main experiment item,yes,Lab21TestFlankerTask.osexp,C:\Users\mmcel\OneDrive\GRAD SCHOOL\fall 2021\Advanced Quant,no,mono,no,18,no,#ffffff,no,yes,768,legacy,59,59,C:/Users/mmcel/OneDrive/GRAD SCHOOL/fall 2021/Advanced Quant/MM-Subject-1.csv,legacy,Lentiform Loewenfeld,3.3.9,0,s,NA,h,NA,NA,s,347,NA,11609,NA,NA,347,NA,NA,2,legacy,1024,2,48000,-16,experiment,HHHHH,1,odd,15659,NA,NA,119422,118305,4050,NA,NA,119417,119527,NA,104355,4047,NA,NA,119527,119875,NA,Lab 2.1 Test Flanker Task,50,24450,60,yes,1024
83.60655738,83.60655738,408.2131148,408.2131148,#000000,legacy,legacy,legacy,0,congruent,uniform,1,undefined,1,s,0,0,0,60,60,0,0,0,60,60,0,60,0,60,NA,60,60,NA,9/25/2021 17:51,1500,The main experiment item,yes,Lab21TestFlankerTask.osexp,C:\Users\mmcel\OneDrive\GRAD SCHOOL\fall 2021\Advanced Quant,no,mono,no,18,no,#ffffff,no,yes,768,legacy,60,60,C:/Users/mmcel/OneDrive/GRAD SCHOOL/fall 2021/Advanced Quant/MM-Subject-1.csv,legacy,Lentiform Loewenfeld,3.3.9,0,s,NA,h,NA,NA,s,451,NA,11609,NA,NA,451,NA,NA,2,legacy,1024,2,48000,-16,experiment,SSSSS,1,odd,15659,NA,NA,121521,120423,4050,NA,NA,121519,121626,NA,119919,4047,NA,NA,121626,122081,NA,Lab 2.1 Test Flanker Task,51,24901,61,yes,1024
83.87096774,83.87096774,408.6935484,408.6935484,#000000,legacy,legacy,legacy,0,congruent,uniform,1,undefined,1,h,0,0,0,61,61,0,0,0,61,61,0,61,0,61,NA,61,61,NA,9/25/2021 17:51,1500,The main experiment item,yes,Lab21TestFlankerTask.osexp,C:\Users\mmcel\OneDrive\GRAD SCHOOL\fall 2021\Advanced Quant,no,mono,no,18,no,#ffffff,no,yes,768,legacy,61,61,C:/Users/mmcel/OneDrive/GRAD SCHOOL/fall 2021/Advanced Quant/MM-Subject-1.csv,legacy,Lentiform Loewenfeld,3.3.9,0,h,NA,h,NA,NA,h,438,NA,11609,NA,NA,438,NA,NA,2,legacy,1024,2,48000,-16,experiment,HHHHH,1,odd,15659,NA,NA,123275,122156,4050,NA,NA,123273,123380,NA,119919,4047,NA,NA,123381,123820,NA,Lab 2.1 Test Flanker Task,52,25339,62,yes,1024
84.12698413,84.12698413,408.1746032,408.1746032,#000000,legacy,legacy,legacy,0,congruent,uniform,1,undefined,1,h,0,0,0,62,62,0,0,0,62,62,0,62,0,62,NA,62,62,NA,9/25/2021 17:51,1500,The main experiment item,yes,Lab21TestFlankerTask.osexp,C:\Users\mmcel\OneDrive\GRAD SCHOOL\fall 2021\Advanced Quant,no,mono,no,18,no,#ffffff,no,yes,768,legacy,62,62,C:/Users/mmcel/OneDrive/GRAD SCHOOL/fall 2021/Advanced Quant/MM-Subject-1.csv,legacy,Lentiform Loewenfeld,3.3.9,0,h,NA,h,NA,NA,h,376,NA,11609,NA,NA,376,NA,NA,2,legacy,1024,2,48000,-16,experiment,HHHHH,1,odd,15659,NA,NA,124989,123879,4050,NA,NA,124986,125093,NA,119919,4047,NA,NA,125093,125475,NA,Lab 2.1 Test Flanker Task,53,25715,63,yes,1024
82.8125,82.8125,406.96875,406.96875,#000000,legacy,legacy,legacy,0,incongruent,uniform,0,undefined,0,h,0,0,0,63,63,0,0,0,63,63,0,63,0,63,NA,63,63,NA,9/25/2021 17:51,1500,The main experiment item,yes,Lab21TestFlankerTask.osexp,C:\Users\mmcel\OneDrive\GRAD SCHOOL\fall 2021\Advanced Quant,no,mono,no,18,no,#ffffff,no,yes,768,legacy,63,63,C:/Users/mmcel/OneDrive/GRAD SCHOOL/fall 2021/Advanced Quant/MM-Subject-1.csv,legacy,Lentiform Loewenfeld,3.3.9,0,s,NA,h,NA,NA,s,331,NA,11609,NA,NA,331,NA,NA,2,legacy,1024,2,48000,-16,experiment,SSHSS,1,odd,15659,NA,NA,126639,125523,4050,NA,NA,126637,126744,NA,119919,4047,NA,NA,126744,127076,NA,Lab 2.1 Test Flanker Task,53,26046,64,yes,1024
83.07692308,83.07692308,409.3538462,409.3538462,#000000,legacy,legacy,legacy,0,incongruent,uniform,1,undefined,1,h,0,0,0,64,64,0,0,0,64,64,0,64,0,64,NA,64,64,NA,9/25/2021 17:51,1500,The main experiment item,yes,Lab21TestFlankerTask.osexp,C:\Users\mmcel\OneDrive\GRAD SCHOOL\fall 2021\Advanced Quant,no,mono,no,18,no,#ffffff,no,yes,768,legacy,64,64,C:/Users/mmcel/OneDrive/GRAD SCHOOL/fall 2021/Advanced Quant/MM-Subject-1.csv,legacy,Lentiform Loewenfeld,3.3.9,0,h,NA,h,NA,NA,h,562,NA,11609,NA,NA,562,NA,NA,2,legacy,1024,2,48000,-16,experiment,SSHSS,1,odd,15659,NA,NA,128740,127625,4050,NA,NA,128738,128845,NA,127120,4047,NA,NA,128845,129409,NA,Lab 2.1 Test Flanker Task,54,26608,65,yes,1024
83.33333333,83.33333333,409.1212121,409.1212121,#000000,legacy,legacy,legacy,0,incongruent,uniform,1,undefined,1,h,0,0,0,65,65,0,0,0,65,65,0,65,0,65,NA,65,65,NA,9/25/2021 17:51,1500,The main experiment item,yes,Lab21TestFlankerTask.osexp,C:\Users\mmcel\OneDrive\GRAD SCHOOL\fall 2021\Advanced Quant,no,mono,no,18,no,#ffffff,no,yes,768,legacy,65,65,C:/Users/mmcel/OneDrive/GRAD SCHOOL/fall 2021/Advanced Quant/MM-Subject-1.csv,legacy,Lentiform Loewenfeld,3.3.9,0,h,NA,h,NA,NA,h,394,NA,11609,NA,NA,394,NA,NA,2,legacy,1024,2,48000,-16,experiment,SSHSS,1,odd,15659,NA,NA,130565,129446,4050,NA,NA,130563,130670,NA,127120,4047,NA,NA,130670,131067,NA,Lab 2.1 Test Flanker Task,55,27002,66,yes,1024
82.08955224,82.08955224,408.0298507,408.0298507,#000000,legacy,legacy,legacy,0,incongruent,uniform,0,undefined,0,s,0,0,0,66,66,0,0,0,66,66,0,66,0,66,NA,66,66,NA,9/25/2021 17:51,1500,The main experiment item,yes,Lab21TestFlankerTask.osexp,C:\Users\mmcel\OneDrive\GRAD SCHOOL\fall 2021\Advanced Quant,no,mono,no,18,no,#ffffff,no,yes,768,legacy,66,66,C:/Users/mmcel/OneDrive/GRAD SCHOOL/fall 2021/Advanced Quant/MM-Subject-1.csv,legacy,Lentiform Loewenfeld,3.3.9,0,h,NA,h,NA,NA,h,336,NA,11609,NA,NA,336,NA,NA,2,legacy,1024,2,48000,-16,experiment,HHSHH,1,odd,15659,NA,NA,132220,131111,4050,NA,NA,132218,132325,NA,127120,4047,NA,NA,132325,132664,NA,Lab 2.1 Test Flanker Task,55,27338,67,yes,1024
82.35294118,82.35294118,409.0294118,409.0294118,#000000,legacy,legacy,legacy,0,incongruent,uniform,1,undefined,1,s,0,0,0,67,67,0,0,0,67,67,0,67,0,67,NA,67,67,NA,9/25/2021 17:51,1500,The main experiment item,yes,Lab21TestFlankerTask.osexp,C:\Users\mmcel\OneDrive\GRAD SCHOOL\fall 2021\Advanced Quant,no,mono,no,18,no,#ffffff,no,yes,768,legacy,67,67,C:/Users/mmcel/OneDrive/GRAD SCHOOL/fall 2021/Advanced Quant/MM-Subject-1.csv,legacy,Lentiform Loewenfeld,3.3.9,0,s,NA,h,NA,NA,s,476,NA,11609,NA,NA,476,NA,NA,2,legacy,1024,2,48000,-16,experiment,HHSHH,1,odd,15659,NA,NA,134318,133203,4050,NA,NA,134316,134424,NA,132698,4047,NA,NA,134424,134900,NA,Lab 2.1 Test Flanker Task,56,27814,68,yes,1024
82.60869565,82.60869565,408,408,#000000,legacy,legacy,legacy,0,congruent,uniform,1,undefined,1,h,0,0,0,68,68,0,0,0,68,68,0,68,0,68,NA,68,68,NA,9/25/2021 17:51,1500,The main experiment item,yes,Lab21TestFlankerTask.osexp,C:\Users\mmcel\OneDrive\GRAD SCHOOL\fall 2021\Advanced Quant,no,mono,no,18,no,#ffffff,no,yes,768,legacy,68,68,C:/Users/mmcel/OneDrive/GRAD SCHOOL/fall 2021/Advanced Quant/MM-Subject-1.csv,legacy,Lentiform Loewenfeld,3.3.9,0,h,NA,h,NA,NA,h,338,NA,11609,NA,NA,338,NA,NA,2,legacy,1024,2,48000,-16,experiment,HHHHH,1,odd,15659,NA,NA,136091,134985,4050,NA,NA,136089,136196,NA,132698,4047,NA,NA,136196,136535,NA,Lab 2.1 Test Flanker Task,57,28152,69,yes,1024
81.42857143,81.42857143,407.9142857,407.9142857,#000000,legacy,legacy,legacy,0,incongruent,uniform,0,undefined,0,s,0,0,0,69,69,0,0,0,69,69,0,69,0,69,NA,69,69,NA,9/25/2021 17:51,1500,The main experiment item,yes,Lab21TestFlankerTask.osexp,C:\Users\mmcel\OneDrive\GRAD SCHOOL\fall 2021\Advanced Quant,no,mono,no,18,no,#ffffff,no,yes,768,legacy,69,69,C:/Users/mmcel/OneDrive/GRAD SCHOOL/fall 2021/Advanced Quant/MM-Subject-1.csv,legacy,Lentiform Loewenfeld,3.3.9,0,h,NA,h,NA,NA,h,402,NA,11609,NA,NA,402,NA,NA,2,legacy,1024,2,48000,-16,experiment,HHSHH,1,odd,15659,NA,NA,137706,136587,4050,NA,NA,137704,137811,NA,132698,4047,NA,NA,137811,138214,NA,Lab 2.1 Test Flanker Task,57,28554,70,yes,1024
81.69014085,81.69014085,408.2112676,408.2112676,#000000,legacy,legacy,legacy,0,congruent,uniform,1,undefined,1,s,0,0,0,70,70,0,0,0,70,70,0,70,0,70,NA,70,70,NA,9/25/2021 17:51,1500,The main experiment item,yes,Lab21TestFlankerTask.osexp,C:\Users\mmcel\OneDrive\GRAD SCHOOL\fall 2021\Advanced Quant,no,mono,no,18,no,#ffffff,no,yes,768,legacy,70,70,C:/Users/mmcel/OneDrive/GRAD SCHOOL/fall 2021/Advanced Quant/MM-Subject-1.csv,legacy,Lentiform Loewenfeld,3.3.9,0,s,NA,h,NA,NA,s,429,NA,11609,NA,NA,429,NA,NA,2,legacy,1024,2,48000,-16,experiment,SSSSS,1,odd,15659,NA,NA,139892,138769,4050,NA,NA,139890,139997,NA,138263,4047,NA,NA,139997,140427,NA,Lab 2.1 Test Flanker Task,58,28983,71,yes,1024
81.94444444,81.94444444,409.0972222,409.0972222,#000000,legacy,legacy,legacy,0,incongruent,uniform,1,undefined,1,s,0,0,0,71,71,0,0,0,71,71,0,71,0,71,NA,71,71,NA,9/25/2021 17:51,1500,The main experiment item,yes,Lab21TestFlankerTask.osexp,C:\Users\mmcel\OneDrive\GRAD SCHOOL\fall 2021\Advanced Quant,no,mono,no,18,no,#ffffff,no,yes,768,legacy,71,71,C:/Users/mmcel/OneDrive/GRAD SCHOOL/fall 2021/Advanced Quant/MM-Subject-1.csv,legacy,Lentiform Loewenfeld,3.3.9,0,s,NA,h,NA,NA,s,472,NA,11609,NA,NA,472,NA,NA,2,legacy,1024,2,48000,-16,experiment,HHSHH,1,odd,15659,NA,NA,141579,140472,4050,NA,NA,141577,141685,NA,138263,4047,NA,NA,141685,142158,NA,Lab 2.1 Test Flanker Task,59,29455,72,yes,1024
82.19178082,82.19178082,409.260274,409.260274,#000000,legacy,legacy,legacy,0,incongruent,uniform,1,undefined,1,h,0,0,0,72,72,0,0,0,72,72,0,72,0,72,NA,72,72,NA,9/25/2021 17:51,1500,The main experiment item,yes,Lab21TestFlankerTask.osexp,C:\Users\mmcel\OneDrive\GRAD SCHOOL\fall 2021\Advanced Quant,no,mono,no,18,no,#ffffff,no,yes,768,legacy,72,72,C:/Users/mmcel/OneDrive/GRAD SCHOOL/fall 2021/Advanced Quant/MM-Subject-1.csv,legacy,Lentiform Loewenfeld,3.3.9,0,h,NA,h,NA,NA,h,421,NA,11609,NA,NA,421,NA,NA,2,legacy,1024,2,48000,-16,experiment,SSHSS,1,odd,15659,NA,NA,143343,142221,4050,NA,NA,143341,143450,NA,138263,4047,NA,NA,143450,143872,NA,Lab 2.1 Test Flanker Task,60,29876,73,yes,1024
82.43243243,82.43243243,409.0135135,409.0135135,#000000,legacy,legacy,legacy,0,incongruent,uniform,1,undefined,1,h,0,0,0,73,73,0,0,0,73,73,0,73,0,73,NA,73,73,NA,9/25/2021 17:51,1500,The main experiment item,yes,Lab21TestFlankerTask.osexp,C:\Users\mmcel\OneDrive\GRAD SCHOOL\fall 2021\Advanced Quant,no,mono,no,18,no,#ffffff,no,yes,768,legacy,73,73,C:/Users/mmcel/OneDrive/GRAD SCHOOL/fall 2021/Advanced Quant/MM-Subject-1.csv,legacy,Lentiform Loewenfeld,3.3.9,0,h,NA,h,NA,NA,h,391,NA,11609,NA,NA,391,NA,NA,2,legacy,1024,2,48000,-16,experiment,SSHSS,1,odd,15659,NA,NA,145152,144045,4050,NA,NA,145149,145257,NA,138263,4047,NA,NA,145257,145648,NA,Lab 2.1 Test Flanker Task,61,30267,74,yes,1024
81.33333333,81.33333333,408.6533333,408.6533333,#000000,legacy,legacy,legacy,0,congruent,uniform,0,undefined,0,s,0,0,0,74,74,0,0,0,74,74,0,74,0,74,NA,74,74,NA,9/25/2021 17:51,1500,The main experiment item,yes,Lab21TestFlankerTask.osexp,C:\Users\mmcel\OneDrive\GRAD SCHOOL\fall 2021\Advanced Quant,no,mono,no,18,no,#ffffff,no,yes,768,legacy,74,74,C:/Users/mmcel/OneDrive/GRAD SCHOOL/fall 2021/Advanced Quant/MM-Subject-1.csv,legacy,Lentiform Loewenfeld,3.3.9,0,h,NA,h,NA,NA,h,382,NA,11609,NA,NA,382,NA,NA,2,legacy,1024,2,48000,-16,experiment,SSSSS,1,odd,15659,NA,NA,146806,145695,4050,NA,NA,146804,146911,NA,138263,4047,NA,NA,146911,147294,NA,Lab 2.1 Test Flanker Task,61,30649,75,yes,1024
81.57894737,81.57894737,409.4342105,409.4342105,#000000,legacy,legacy,legacy,0,incongruent,uniform,1,undefined,1,s,0,0,0,75,75,0,0,0,75,75,0,75,0,75,NA,75,75,NA,9/25/2021 17:51,1500,The main experiment item,yes,Lab21TestFlankerTask.osexp,C:\Users\mmcel\OneDrive\GRAD SCHOOL\fall 2021\Advanced Quant,no,mono,no,18,no,#ffffff,no,yes,768,legacy,75,75,C:/Users/mmcel/OneDrive/GRAD SCHOOL/fall 2021/Advanced Quant/MM-Subject-1.csv,legacy,Lentiform Loewenfeld,3.3.9,0,s,NA,h,NA,NA,s,468,NA,11609,NA,NA,468,NA,NA,2,legacy,1024,2,48000,-16,experiment,HHSHH,1,odd,15659,NA,NA,148957,147845,4050,NA,NA,148954,149062,NA,147340,4047,NA,NA,149063,149532,NA,Lab 2.1 Test Flanker Task,62,31117,76,yes,1024
81.81818182,81.81818182,409.1168831,409.1168831,#000000,legacy,legacy,legacy,0,congruent,uniform,1,undefined,1,s,0,0,0,76,76,0,0,0,76,76,0,76,0,76,NA,76,76,NA,9/25/2021 17:51,1500,The main experiment item,yes,Lab21TestFlankerTask.osexp,C:\Users\mmcel\OneDrive\GRAD SCHOOL\fall 2021\Advanced Quant,no,mono,no,18,no,#ffffff,no,yes,768,legacy,76,76,C:/Users/mmcel/OneDrive/GRAD SCHOOL/fall 2021/Advanced Quant/MM-Subject-1.csv,legacy,Lentiform Loewenfeld,3.3.9,0,s,NA,h,NA,NA,s,385,NA,11609,NA,NA,385,NA,NA,2,legacy,1024,2,48000,-16,experiment,SSSSS,1,odd,15659,NA,NA,150695,149578,4050,NA,NA,150694,150800,NA,147340,4047,NA,NA,150800,151186,NA,Lab 2.1 Test Flanker Task,63,31502,77,yes,1024
82.05128205,82.05128205,409.4487179,409.4487179,#000000,legacy,legacy,legacy,0,incongruent,uniform,1,undefined,1,s,0,0,0,77,77,0,0,0,77,77,0,77,0,77,NA,77,77,NA,9/25/2021 17:51,1500,The main experiment item,yes,Lab21TestFlankerTask.osexp,C:\Users\mmcel\OneDrive\GRAD SCHOOL\fall 2021\Advanced Quant,no,mono,no,18,no,#ffffff,no,yes,768,legacy,77,77,C:/Users/mmcel/OneDrive/GRAD SCHOOL/fall 2021/Advanced Quant/MM-Subject-1.csv,legacy,Lentiform Loewenfeld,3.3.9,0,s,NA,h,NA,NA,s,435,NA,11609,NA,NA,435,NA,NA,2,legacy,1024,2,48000,-16,experiment,HHSHH,1,odd,15659,NA,NA,152349,151243,4050,NA,NA,152347,152455,NA,147340,4047,NA,NA,152455,152891,NA,Lab 2.1 Test Flanker Task,64,31937,78,yes,1024
82.27848101,82.27848101,409.8860759,409.8860759,#000000,legacy,legacy,legacy,0,congruent,uniform,1,undefined,1,s,0,0,0,78,78,0,0,0,78,78,0,78,0,78,NA,78,78,NA,9/25/2021 17:51,1500,The main experiment item,yes,Lab21TestFlankerTask.osexp,C:\Users\mmcel\OneDrive\GRAD SCHOOL\fall 2021\Advanced Quant,no,mono,no,18,no,#ffffff,no,yes,768,legacy,78,78,C:/Users/mmcel/OneDrive/GRAD SCHOOL/fall 2021/Advanced Quant/MM-Subject-1.csv,legacy,Lentiform Loewenfeld,3.3.9,0,s,NA,h,NA,NA,s,444,NA,11609,NA,NA,444,NA,NA,2,legacy,1024,2,48000,-16,experiment,SSSSS,1,odd,15659,NA,NA,154057,152943,4050,NA,NA,154055,154162,NA,147340,4047,NA,NA,154163,154608,NA,Lab 2.1 Test Flanker Task,65,32381,79,yes,1024
82.5,82.5,409.8875,409.8875,#000000,legacy,legacy,legacy,0,incongruent,uniform,1,undefined,1,h,0,0,0,79,79,0,0,0,79,79,0,79,0,79,NA,79,79,NA,9/25/2021 17:51,1500,The main experiment item,yes,Lab21TestFlankerTask.osexp,C:\Users\mmcel\OneDrive\GRAD SCHOOL\fall 2021\Advanced Quant,no,mono,no,18,no,#ffffff,no,yes,768,legacy,79,79,C:/Users/mmcel/OneDrive/GRAD SCHOOL/fall 2021/Advanced Quant/MM-Subject-1.csv,legacy,Lentiform Loewenfeld,3.3.9,0,h,NA,h,NA,NA,h,410,NA,11609,NA,NA,410,NA,NA,2,legacy,1024,2,48000,-16,experiment,SSHSS,1,odd,15659,NA,NA,155769,154662,4050,NA,NA,155767,155874,NA,147340,4047,NA,NA,155874,156285,NA,Lab 2.1 Test Flanker Task,66,32791,80,yes,1024
82.71604938,82.71604938,411.7037037,411.7037037,#000000,legacy,legacy,legacy,0,congruent,uniform,1,undefined,1,h,0,0,0,80,80,0,0,0,80,80,0,80,0,80,NA,80,80,NA,9/25/2021 17:51,600,The main experiment item,yes,Lab21TestFlankerTask.osexp,C:\Users\mmcel\OneDrive\GRAD SCHOOL\fall 2021\Advanced Quant,no,mono,no,18,no,#ffffff,no,yes,768,legacy,0,79,C:/Users/mmcel/OneDrive/GRAD SCHOOL/fall 2021/Advanced Quant/MM-Subject-1.csv,legacy,Lentiform Loewenfeld,3.3.9,0,h,NA,h,h,NA,h,557,NA,11609,20837,NA,557,NA,NA,2,legacy,1024,2,48000,-16,experiment,HHHHH,1,odd,15659,178213,NA,178281,156344,4050,157375,NA,178279,178387,NA,147340,4047,NA,NA,178388,178945,NA,Lab 2.1 Test Flanker Task,67,33348,81,yes,1024
82.92682927,82.92682927,411.8536585,411.8536585,#000000,legacy,legacy,legacy,0,incongruent,uniform,1,undefined,1,s,0,0,0,81,81,0,0,0,81,81,0,81,0,81,NA,81,81,NA,9/25/2021 17:51,600,The main experiment item,yes,Lab21TestFlankerTask.osexp,C:\Users\mmcel\OneDrive\GRAD SCHOOL\fall 2021\Advanced Quant,no,mono,no,18,no,#ffffff,no,yes,768,legacy,1,79,C:/Users/mmcel/OneDrive/GRAD SCHOOL/fall 2021/Advanced Quant/MM-Subject-1.csv,legacy,Lentiform Loewenfeld,3.3.9,0,s,NA,h,h,NA,s,424,NA,11609,20837,NA,424,NA,NA,2,legacy,1024,2,48000,-16,experiment,HHSHH,1,odd,15659,178213,NA,180096,178976,4050,157375,NA,180094,180201,NA,147340,4047,NA,NA,180201,180627,NA,Lab 2.1 Test Flanker Task,68,33772,82,yes,1024
83.13253012,83.13253012,411.3614458,411.3614458,#000000,legacy,legacy,legacy,0,incongruent,uniform,1,undefined,1,h,0,0,0,82,82,0,0,0,82,82,0,82,0,82,NA,82,82,NA,9/25/2021 17:51,600,The main experiment item,yes,Lab21TestFlankerTask.osexp,C:\Users\mmcel\OneDrive\GRAD SCHOOL\fall 2021\Advanced Quant,no,mono,no,18,no,#ffffff,no,yes,768,legacy,2,79,C:/Users/mmcel/OneDrive/GRAD SCHOOL/fall 2021/Advanced Quant/MM-Subject-1.csv,legacy,Lentiform Loewenfeld,3.3.9,0,h,NA,h,h,NA,h,371,NA,11609,20837,NA,371,NA,NA,2,legacy,1024,2,48000,-16,experiment,SSHSS,1,odd,15659,178213,NA,181784,180676,4050,157375,NA,181782,181889,NA,147340,4047,NA,NA,181889,182261,NA,Lab 2.1 Test Flanker Task,69,34143,83,yes,1024
83.33333333,83.33333333,410.5,410.5,#000000,legacy,legacy,legacy,0,congruent,uniform,1,undefined,1,h,0,0,0,83,83,0,0,0,83,83,0,83,0,83,NA,83,83,NA,9/25/2021 17:51,600,The main experiment item,yes,Lab21TestFlankerTask.osexp,C:\Users\mmcel\OneDrive\GRAD SCHOOL\fall 2021\Advanced Quant,no,mono,no,18,no,#ffffff,no,yes,768,legacy,3,79,C:/Users/mmcel/OneDrive/GRAD SCHOOL/fall 2021/Advanced Quant/MM-Subject-1.csv,legacy,Lentiform Loewenfeld,3.3.9,0,h,NA,h,h,NA,h,339,NA,11609,20837,NA,339,NA,NA,2,legacy,1024,2,48000,-16,experiment,HHHHH,1,odd,15659,178213,NA,183427,182310,4050,157375,NA,183425,183532,NA,147340,4047,NA,NA,183532,183874,NA,Lab 2.1 Test Flanker Task,70,34482,84,yes,1024
83.52941176,83.52941176,410.9411765,410.9411765,#000000,legacy,legacy,legacy,0,incongruent,uniform,1,undefined,1,h,0,0,0,84,84,0,0,0,84,84,0,84,0,84,NA,84,84,NA,9/25/2021 17:51,600,The main experiment item,yes,Lab21TestFlankerTask.osexp,C:\Users\mmcel\OneDrive\GRAD SCHOOL\fall 2021\Advanced Quant,no,mono,no,18,no,#ffffff,no,yes,768,legacy,4,79,C:/Users/mmcel/OneDrive/GRAD SCHOOL/fall 2021/Advanced Quant/MM-Subject-1.csv,legacy,Lentiform Loewenfeld,3.3.9,0,h,NA,h,h,NA,h,448,NA,11609,20837,NA,448,NA,NA,2,legacy,1024,2,48000,-16,experiment,SSHSS,1,odd,15659,178213,NA,185047,183934,4050,157375,NA,185045,185152,NA,147340,4047,NA,NA,185152,185601,NA,Lab 2.1 Test Flanker Task,71,34930,85,yes,1024
82.55813953,82.55813953,410.4069767,410.4069767,#000000,legacy,legacy,legacy,0,incongruent,uniform,0,undefined,0,h,0,0,0,85,85,0,0,0,85,85,0,85,0,85,NA,85,85,NA,9/25/2021 17:51,600,The main experiment item,yes,Lab21TestFlankerTask.osexp,C:\Users\mmcel\OneDrive\GRAD SCHOOL\fall 2021\Advanced Quant,no,mono,no,18,no,#ffffff,no,yes,768,legacy,5,79,C:/Users/mmcel/OneDrive/GRAD SCHOOL/fall 2021/Advanced Quant/MM-Subject-1.csv,legacy,Lentiform Loewenfeld,3.3.9,0,s,NA,h,h,NA,s,365,NA,11609,20837,NA,365,NA,NA,2,legacy,1024,2,48000,-16,experiment,SSHSS,1,odd,15659,178213,NA,186767,185655,4050,157375,NA,186765,186872,NA,147340,4047,NA,NA,186872,187238,NA,Lab 2.1 Test Flanker Task,71,35295,86,yes,1024
81.6091954,81.6091954,409.9425287,409.9425287,#000000,legacy,legacy,legacy,0,incongruent,uniform,0,undefined,0,s,0,0,0,86,86,0,0,0,86,86,0,86,0,86,NA,86,86,NA,9/25/2021 17:51,600,The main experiment item,yes,Lab21TestFlankerTask.osexp,C:\Users\mmcel\OneDrive\GRAD SCHOOL\fall 2021\Advanced Quant,no,mono,no,18,no,#ffffff,no,yes,768,legacy,6,79,C:/Users/mmcel/OneDrive/GRAD SCHOOL/fall 2021/Advanced Quant/MM-Subject-1.csv,legacy,Lentiform Loewenfeld,3.3.9,0,h,NA,h,h,NA,h,370,NA,11609,20837,NA,370,NA,NA,2,legacy,1024,2,48000,-16,experiment,HHSHH,1,odd,15659,178213,NA,188915,187796,4050,157375,NA,188913,189020,NA,187291,4047,NA,NA,189020,189391,NA,Lab 2.1 Test Flanker Task,71,35665,87,yes,1024
81.81818182,81.81818182,410.4318182,410.4318182,#000000,legacy,legacy,legacy,0,incongruent,uniform,1,undefined,1,h,0,0,0,87,87,0,0,0,87,87,0,87,0,87,NA,87,87,NA,9/25/2021 17:51,600,The main experiment item,yes,Lab21TestFlankerTask.osexp,C:\Users\mmcel\OneDrive\GRAD SCHOOL\fall 2021\Advanced Quant,no,mono,no,18,no,#ffffff,no,yes,768,legacy,7,79,C:/Users/mmcel/OneDrive/GRAD SCHOOL/fall 2021/Advanced Quant/MM-Subject-1.csv,legacy,Lentiform Loewenfeld,3.3.9,0,h,NA,h,h,NA,h,453,NA,11609,20837,NA,453,NA,NA,2,legacy,1024,2,48000,-16,experiment,SSHSS,1,odd,15659,178213,NA,191073,189951,4050,157375,NA,191071,191178,NA,189445,4047,NA,NA,191178,191632,NA,Lab 2.1 Test Flanker Task,72,36118,88,yes,1024
80.8988764,80.8988764,410.1123596,410.1123596,#000000,legacy,legacy,legacy,0,incongruent,uniform,0,undefined,0,s,0,0,0,88,88,0,0,0,88,88,0,88,0,88,NA,88,88,NA,9/25/2021 17:51,600,The main experiment item,yes,Lab21TestFlankerTask.osexp,C:\Users\mmcel\OneDrive\GRAD SCHOOL\fall 2021\Advanced Quant,no,mono,no,18,no,#ffffff,no,yes,768,legacy,8,79,C:/Users/mmcel/OneDrive/GRAD SCHOOL/fall 2021/Advanced Quant/MM-Subject-1.csv,legacy,Lentiform Loewenfeld,3.3.9,0,h,NA,h,h,NA,h,382,NA,11609,20837,NA,382,NA,NA,2,legacy,1024,2,48000,-16,experiment,HHSHH,1,odd,15659,178213,NA,192794,191687,4050,157375,NA,192792,192900,NA,189445,4047,NA,NA,192900,193283,NA,Lab 2.1 Test Flanker Task,72,36500,89,yes,1024
81.11111111,81.11111111,410.4777778,410.4777778,#000000,legacy,legacy,legacy,0,incongruent,uniform,1,undefined,1,h,0,0,0,89,89,0,0,0,89,89,0,89,0,89,NA,89,89,NA,9/25/2021 17:51,600,The main experiment item,yes,Lab21TestFlankerTask.osexp,C:\Users\mmcel\OneDrive\GRAD SCHOOL\fall 2021\Advanced Quant,no,mono,no,18,no,#ffffff,no,yes,768,legacy,9,79,C:/Users/mmcel/OneDrive/GRAD SCHOOL/fall 2021/Advanced Quant/MM-Subject-1.csv,legacy,Lentiform Loewenfeld,3.3.9,0,h,NA,h,h,NA,h,443,NA,11609,20837,NA,443,NA,NA,2,legacy,1024,2,48000,-16,experiment,SSHSS,1,odd,15659,178213,NA,194950,193836,4050,157375,NA,194947,195055,NA,193331,4047,NA,NA,195056,195501,NA,Lab 2.1 Test Flanker Task,73,36943,90,yes,1024
81.31868132,81.31868132,410.2087912,410.2087912,#000000,legacy,legacy,legacy,0,congruent,uniform,1,undefined,1,h,0,0,0,90,90,0,0,0,90,90,0,90,0,90,NA,90,90,NA,9/25/2021 17:51,600,The main experiment item,yes,Lab21TestFlankerTask.osexp,C:\Users\mmcel\OneDrive\GRAD SCHOOL\fall 2021\Advanced Quant,no,mono,no,18,no,#ffffff,no,yes,768,legacy,10,79,C:/Users/mmcel/OneDrive/GRAD SCHOOL/fall 2021/Advanced Quant/MM-Subject-1.csv,legacy,Lentiform Loewenfeld,3.3.9,0,h,NA,h,h,NA,h,386,NA,11609,20837,NA,386,NA,NA,2,legacy,1024,2,48000,-16,experiment,HHHHH,1,odd,15659,178213,NA,196686,195569,4050,157375,NA,196684,196794,NA,193331,4047,NA,NA,196794,197183,NA,Lab 2.1 Test Flanker Task,74,37329,91,yes,1024
81.52173913,81.52173913,410.2173913,410.2173913,#000000,legacy,legacy,legacy,0,congruent,uniform,1,undefined,1,s,0,0,0,91,91,0,0,0,91,91,0,91,0,91,NA,91,91,NA,9/25/2021 17:51,600,The main experiment item,yes,Lab21TestFlankerTask.osexp,C:\Users\mmcel\OneDrive\GRAD SCHOOL\fall 2021\Advanced Quant,no,mono,no,18,no,#ffffff,no,yes,768,legacy,11,79,C:/Users/mmcel/OneDrive/GRAD SCHOOL/fall 2021/Advanced Quant/MM-Subject-1.csv,legacy,Lentiform Loewenfeld,3.3.9,0,s,NA,h,h,NA,s,411,NA,11609,20837,NA,411,NA,NA,2,legacy,1024,2,48000,-16,experiment,SSSSS,1,odd,15659,178213,NA,198375,197247,4050,157375,NA,198373,198480,NA,193331,4047,NA,NA,198480,198892,NA,Lab 2.1 Test Flanker Task,75,37740,92,yes,1024
81.72043011,81.72043011,411.2043011,411.2043011,#000000,legacy,legacy,legacy,0,incongruent,uniform,1,undefined,1,h,0,0,0,92,92,0,0,0,92,92,0,92,0,92,NA,92,92,NA,9/25/2021 17:51,600,The main experiment item,yes,Lab21TestFlankerTask.osexp,C:\Users\mmcel\OneDrive\GRAD SCHOOL\fall 2021\Advanced Quant,no,mono,no,18,no,#ffffff,no,yes,768,legacy,12,79,C:/Users/mmcel/OneDrive/GRAD SCHOOL/fall 2021/Advanced Quant/MM-Subject-1.csv,legacy,Lentiform Loewenfeld,3.3.9,0,h,NA,h,h,NA,h,502,NA,11609,20837,NA,502,NA,NA,2,legacy,1024,2,48000,-16,experiment,SSHSS,1,odd,15659,178213,NA,200083,198957,4050,157375,NA,200080,200194,NA,193331,4047,NA,NA,200194,200697,NA,Lab 2.1 Test Flanker Task,76,38242,93,yes,1024
80.85106383,80.85106383,410.7765957,410.7765957,#000000,legacy,legacy,legacy,0,congruent,uniform,0,undefined,0,s,0,0,0,93,93,0,0,0,93,93,0,93,0,93,NA,93,93,NA,9/25/2021 17:51,600,The main experiment item,yes,Lab21TestFlankerTask.osexp,C:\Users\mmcel\OneDrive\GRAD SCHOOL\fall 2021\Advanced Quant,no,mono,no,18,no,#ffffff,no,yes,768,legacy,13,79,C:/Users/mmcel/OneDrive/GRAD SCHOOL/fall 2021/Advanced Quant/MM-Subject-1.csv,legacy,Lentiform Loewenfeld,3.3.9,0,h,NA,h,h,NA,h,371,NA,11609,20837,NA,371,NA,NA,2,legacy,1024,2,48000,-16,experiment,SSSSS,1,odd,15659,178213,NA,201878,200757,4050,157375,NA,201876,201983,NA,193331,4047,NA,NA,201983,202355,NA,Lab 2.1 Test Flanker Task,76,38613,94,yes,1024
81.05263158,81.05263158,411.7578947,411.7578947,#000000,legacy,legacy,legacy,0,incongruent,uniform,1,undefined,1,s,0,0,0,94,94,0,0,0,94,94,0,94,0,94,NA,94,94,NA,9/25/2021 17:51,600,The main experiment item,yes,Lab21TestFlankerTask.osexp,C:\Users\mmcel\OneDrive\GRAD SCHOOL\fall 2021\Advanced Quant,no,mono,no,18,no,#ffffff,no,yes,768,legacy,14,79,C:/Users/mmcel/OneDrive/GRAD SCHOOL/fall 2021/Advanced Quant/MM-Subject-1.csv,legacy,Lentiform Loewenfeld,3.3.9,0,s,NA,h,h,NA,s,504,NA,11609,20837,NA,504,NA,NA,2,legacy,1024,2,48000,-16,experiment,HHSHH,1,odd,15659,178213,NA,204029,202918,4050,157375,NA,204027,204134,NA,202413,4047,NA,NA,204134,204639,NA,Lab 2.1 Test Flanker Task,77,39117,95,yes,1024
81.25,81.25,411.6770833,411.6770833,#000000,legacy,legacy,legacy,0,congruent,uniform,1,undefined,1,s,0,0,0,95,95,0,0,0,95,95,0,95,0,95,NA,95,95,NA,9/25/2021 17:51,600,The main experiment item,yes,Lab21TestFlankerTask.osexp,C:\Users\mmcel\OneDrive\GRAD SCHOOL\fall 2021\Advanced Quant,no,mono,no,18,no,#ffffff,no,yes,768,legacy,15,79,C:/Users/mmcel/OneDrive/GRAD SCHOOL/fall 2021/Advanced Quant/MM-Subject-1.csv,legacy,Lentiform Loewenfeld,3.3.9,0,s,NA,h,h,NA,s,404,NA,11609,20837,NA,404,NA,NA,2,legacy,1024,2,48000,-16,experiment,SSSSS,1,odd,15659,178213,NA,205810,204702,4050,157375,NA,205808,205915,NA,202413,4047,NA,NA,205915,206320,NA,Lab 2.1 Test Flanker Task,78,39521,96,yes,1024
81.44329897,81.44329897,411.2680412,411.2680412,#000000,legacy,legacy,legacy,0,incongruent,uniform,1,undefined,1,h,0,0,0,96,96,0,0,0,96,96,0,96,0,96,NA,96,96,NA,9/25/2021 17:51,600,The main experiment item,yes,Lab21TestFlankerTask.osexp,C:\Users\mmcel\OneDrive\GRAD SCHOOL\fall 2021\Advanced Quant,no,mono,no,18,no,#ffffff,no,yes,768,legacy,16,79,C:/Users/mmcel/OneDrive/GRAD SCHOOL/fall 2021/Advanced Quant/MM-Subject-1.csv,legacy,Lentiform Loewenfeld,3.3.9,0,h,NA,h,h,NA,h,372,NA,11609,20837,NA,372,NA,NA,2,legacy,1024,2,48000,-16,experiment,SSHSS,1,odd,15659,178213,NA,207488,206379,4050,157375,NA,207485,207594,NA,202413,4047,NA,NA,207594,207973,NA,Lab 2.1 Test Flanker Task,79,39893,97,yes,1024
81.63265306,81.63265306,410.5408163,410.5408163,#000000,legacy,legacy,legacy,0,congruent,uniform,1,undefined,1,h,0,0,0,97,97,0,0,0,97,97,0,97,0,97,NA,97,97,NA,9/25/2021 17:51,600,The main experiment item,yes,Lab21TestFlankerTask.osexp,C:\Users\mmcel\OneDrive\GRAD SCHOOL\fall 2021\Advanced Quant,no,mono,no,18,no,#ffffff,no,yes,768,legacy,17,79,C:/Users/mmcel/OneDrive/GRAD SCHOOL/fall 2021/Advanced Quant/MM-Subject-1.csv,legacy,Lentiform Loewenfeld,3.3.9,0,h,NA,h,h,NA,h,340,NA,11609,20837,NA,340,NA,NA,2,legacy,1024,2,48000,-16,experiment,HHHHH,1,odd,15659,178213,NA,209139,208033,4050,157375,NA,209137,209245,NA,202413,4047,NA,NA,209245,209586,NA,Lab 2.1 Test Flanker Task,80,40233,98,yes,1024
81.81818182,81.81818182,410.1212121,410.1212121,#000000,legacy,legacy,legacy,0,incongruent,uniform,1,undefined,1,h,0,0,0,98,98,0,0,0,98,98,0,98,0,98,NA,98,98,NA,9/25/2021 17:51,600,The main experiment item,yes,Lab21TestFlankerTask.osexp,C:\Users\mmcel\OneDrive\GRAD SCHOOL\fall 2021\Advanced Quant,no,mono,no,18,no,#ffffff,no,yes,768,legacy,18,79,C:/Users/mmcel/OneDrive/GRAD SCHOOL/fall 2021/Advanced Quant/MM-Subject-1.csv,legacy,Lentiform Loewenfeld,3.3.9,0,h,NA,h,h,NA,h,369,NA,11609,20837,NA,369,NA,NA,2,legacy,1024,2,48000,-16,experiment,SSHSS,1,odd,15659,178213,NA,210728,209609,4050,157375,NA,210725,210832,NA,202413,4047,NA,NA,210832,211202,NA,Lab 2.1 Test Flanker Task,81,40602,99,yes,1024
82,82,409.19,409.19,#000000,legacy,legacy,legacy,0,congruent,uniform,1,undefined,1,h,0,0,0,99,99,0,0,0,99,99,0,99,0,99,NA,99,99,NA,9/25/2021 17:51,600,The main experiment item,yes,Lab21TestFlankerTask.osexp,C:\Users\mmcel\OneDrive\GRAD SCHOOL\fall 2021\Advanced Quant,no,mono,no,18,no,#ffffff,no,yes,768,legacy,19,79,C:/Users/mmcel/OneDrive/GRAD SCHOOL/fall 2021/Advanced Quant/MM-Subject-1.csv,legacy,Lentiform Loewenfeld,3.3.9,0,h,NA,h,h,NA,h,317,NA,11609,20837,NA,317,NA,NA,2,legacy,1024,2,48000,-16,experiment,HHHHH,1,odd,15659,178213,NA,212379,211267,4050,157375,NA,212377,212484,NA,202413,4047,NA,NA,212484,212802,NA,Lab 2.1 Test Flanker Task,82,40919,100,yes,1024
82.17821782,82.17821782,409.2574257,409.2574257,#000000,legacy,legacy,legacy,0,congruent,uniform,1,undefined,1,s,0,0,0,100,100,0,0,0,100,100,0,100,0,100,NA,100,100,NA,9/25/2021 17:51,600,The main experiment item,yes,Lab21TestFlankerTask.osexp,C:\Users\mmcel\OneDrive\GRAD SCHOOL\fall 2021\Advanced Quant,no,mono,no,18,no,#ffffff,no,yes,768,legacy,20,79,C:/Users/mmcel/OneDrive/GRAD SCHOOL/fall 2021/Advanced Quant/MM-Subject-1.csv,legacy,Lentiform Loewenfeld,3.3.9,0,s,NA,h,h,NA,s,416,NA,11609,20837,NA,416,NA,NA,2,legacy,1024,2,48000,-16,experiment,SSSSS,1,odd,15659,178213,NA,213968,212859,4050,157375,NA,213966,214073,NA,202413,4047,NA,NA,214073,214490,NA,Lab 2.1 Test Flanker Task,83,41335,101,yes,1024
81.37254902,81.37254902,408.8823529,408.8823529,#000000,legacy,legacy,legacy,0,incongruent,uniform,0,undefined,0,s,0,0,0,101,101,0,0,0,101,101,0,101,0,101,NA,101,101,NA,9/25/2021 17:51,600,The main experiment item,yes,Lab21TestFlankerTask.osexp,C:\Users\mmcel\OneDrive\GRAD SCHOOL\fall 2021\Advanced Quant,no,mono,no,18,no,#ffffff,no,yes,768,legacy,21,79,C:/Users/mmcel/OneDrive/GRAD SCHOOL/fall 2021/Advanced Quant/MM-Subject-1.csv,legacy,Lentiform Loewenfeld,3.3.9,0,h,NA,h,h,NA,h,371,NA,11609,20837,NA,371,NA,NA,2,legacy,1024,2,48000,-16,experiment,HHSHH,1,odd,15659,178213,NA,215653,214547,4050,157375,NA,215650,215758,NA,202413,4047,NA,NA,215758,216130,NA,Lab 2.1 Test Flanker Task,83,41706,102,yes,1024
81.55339806,81.55339806,408.8932039,408.8932039,#000000,legacy,legacy,legacy,0,congruent,uniform,1,undefined,1,s,0,0,0,102,102,0,0,0,102,102,0,102,0,102,NA,102,102,NA,9/25/2021 17:51,600,The main experiment item,yes,Lab21TestFlankerTask.osexp,C:\Users\mmcel\OneDrive\GRAD SCHOOL\fall 2021\Advanced Quant,no,mono,no,18,no,#ffffff,no,yes,768,legacy,22,79,C:/Users/mmcel/OneDrive/GRAD SCHOOL/fall 2021/Advanced Quant/MM-Subject-1.csv,legacy,Lentiform Loewenfeld,3.3.9,0,s,NA,h,h,NA,s,410,NA,11609,20837,NA,410,NA,NA,2,legacy,1024,2,48000,-16,experiment,SSSSS,1,odd,15659,178213,NA,217810,216697,4050,157375,NA,217807,217915,NA,216192,4047,NA,NA,217915,218326,NA,Lab 2.1 Test Flanker Task,84,42116,103,yes,1024
81.73076923,81.73076923,408.6346154,408.6346154,#000000,legacy,legacy,legacy,0,congruent,uniform,1,undefined,1,s,0,0,0,103,103,0,0,0,103,103,0,103,0,103,NA,103,103,NA,9/25/2021 17:51,600,The main experiment item,yes,Lab21TestFlankerTask.osexp,C:\Users\mmcel\OneDrive\GRAD SCHOOL\fall 2021\Advanced Quant,no,mono,no,18,no,#ffffff,no,yes,768,legacy,23,79,C:/Users/mmcel/OneDrive/GRAD SCHOOL/fall 2021/Advanced Quant/MM-Subject-1.csv,legacy,Lentiform Loewenfeld,3.3.9,0,s,NA,h,h,NA,s,382,NA,11609,20837,NA,382,NA,NA,2,legacy,1024,2,48000,-16,experiment,SSSSS,1,odd,15659,178213,NA,219489,218378,4050,157375,NA,219486,219595,NA,216192,4047,NA,NA,219595,219979,NA,Lab 2.1 Test Flanker Task,85,42498,104,yes,1024
81.9047619,81.9047619,408.5238095,408.5238095,#000000,legacy,legacy,legacy,0,congruent,uniform,1,undefined,1,h,0,0,0,104,104,0,0,0,104,104,0,104,0,104,NA,104,104,NA,9/25/2021 17:51,600,The main experiment item,yes,Lab21TestFlankerTask.osexp,C:\Users\mmcel\OneDrive\GRAD SCHOOL\fall 2021\Advanced Quant,no,mono,no,18,no,#ffffff,no,yes,768,legacy,24,79,C:/Users/mmcel/OneDrive/GRAD SCHOOL/fall 2021/Advanced Quant/MM-Subject-1.csv,legacy,Lentiform Loewenfeld,3.3.9,0,h,NA,h,h,NA,h,397,NA,11609,20837,NA,397,NA,NA,2,legacy,1024,2,48000,-16,experiment,HHHHH,1,odd,15659,178213,NA,221141,220034,4050,157375,NA,221139,221246,NA,216192,4047,NA,NA,221246,221645,NA,Lab 2.1 Test Flanker Task,86,42895,105,yes,1024
82.0754717,82.0754717,408.6886792,408.6886792,#000000,legacy,legacy,legacy,0,incongruent,uniform,1,undefined,1,s,0,0,0,105,105,0,0,0,105,105,0,105,0,105,NA,105,105,NA,9/25/2021 17:51,600,The main experiment item,yes,Lab21TestFlankerTask.osexp,C:\Users\mmcel\OneDrive\GRAD SCHOOL\fall 2021\Advanced Quant,no,mono,no,18,no,#ffffff,no,yes,768,legacy,25,79,C:/Users/mmcel/OneDrive/GRAD SCHOOL/fall 2021/Advanced Quant/MM-Subject-1.csv,legacy,Lentiform Loewenfeld,3.3.9,0,s,NA,h,h,NA,s,426,NA,11609,20837,NA,426,NA,NA,2,legacy,1024,2,48000,-16,experiment,HHSHH,1,odd,15659,178213,NA,222819,221703,4050,157375,NA,222816,222924,NA,216192,4047,NA,NA,222924,223351,NA,Lab 2.1 Test Flanker Task,87,43321,106,yes,1024
82.24299065,82.24299065,408.588785,408.588785,#000000,legacy,legacy,legacy,0,congruent,uniform,1,undefined,1,h,0,0,0,106,106,0,0,0,106,106,0,106,0,106,NA,106,106,NA,9/25/2021 17:51,600,The main experiment item,yes,Lab21TestFlankerTask.osexp,C:\Users\mmcel\OneDrive\GRAD SCHOOL\fall 2021\Advanced Quant,no,mono,no,18,no,#ffffff,no,yes,768,legacy,26,79,C:/Users/mmcel/OneDrive/GRAD SCHOOL/fall 2021/Advanced Quant/MM-Subject-1.csv,legacy,Lentiform Loewenfeld,3.3.9,0,h,NA,h,h,NA,h,398,NA,11609,20837,NA,398,NA,NA,2,legacy,1024,2,48000,-16,experiment,HHHHH,1,odd,15659,178213,NA,224529,223412,4050,157375,NA,224527,224634,NA,216192,4047,NA,NA,224635,225034,NA,Lab 2.1 Test Flanker Task,88,43719,107,yes,1024
82.40740741,82.40740741,408.6851852,408.6851852,#000000,legacy,legacy,legacy,0,incongruent,uniform,1,undefined,1,s,0,0,0,107,107,0,0,0,107,107,0,107,0,107,NA,107,107,NA,9/25/2021 17:51,600,The main experiment item,yes,Lab21TestFlankerTask.osexp,C:\Users\mmcel\OneDrive\GRAD SCHOOL\fall 2021\Advanced Quant,no,mono,no,18,no,#ffffff,no,yes,768,legacy,27,79,C:/Users/mmcel/OneDrive/GRAD SCHOOL/fall 2021/Advanced Quant/MM-Subject-1.csv,legacy,Lentiform Loewenfeld,3.3.9,0,s,NA,h,h,NA,s,419,NA,11609,20837,NA,419,NA,NA,2,legacy,1024,2,48000,-16,experiment,HHSHH,1,odd,15659,178213,NA,226208,225092,4050,157375,NA,226205,226313,NA,216192,4047,NA,NA,226313,226733,NA,Lab 2.1 Test Flanker Task,89,44138,108,yes,1024
81.65137615,81.65137615,408.7522936,408.7522936,#000000,legacy,legacy,legacy,0,incongruent,uniform,0,undefined,0,h,0,0,0,108,108,0,0,0,108,108,0,108,0,108,NA,108,108,NA,9/25/2021 17:51,600,The main experiment item,yes,Lab21TestFlankerTask.osexp,C:\Users\mmcel\OneDrive\GRAD SCHOOL\fall 2021\Advanced Quant,no,mono,no,18,no,#ffffff,no,yes,768,legacy,28,79,C:/Users/mmcel/OneDrive/GRAD SCHOOL/fall 2021/Advanced Quant/MM-Subject-1.csv,legacy,Lentiform Loewenfeld,3.3.9,0,s,NA,h,h,NA,s,416,NA,11609,20837,NA,416,NA,NA,2,legacy,1024,2,48000,-16,experiment,SSHSS,1,odd,15659,178213,NA,227913,226789,4050,157375,NA,227911,228018,NA,216192,4047,NA,NA,228018,228440,NA,Lab 2.1 Test Flanker Task,89,44554,109,yes,1024
81.81818182,81.81818182,409.0454545,409.0454545,#000000,legacy,legacy,legacy,0,congruent,uniform,1,undefined,1,s,0,0,0,109,109,0,0,0,109,109,0,109,0,109,NA,109,109,NA,9/25/2021 17:51,600,The main experiment item,yes,Lab21TestFlankerTask.osexp,C:\Users\mmcel\OneDrive\GRAD SCHOOL\fall 2021\Advanced Quant,no,mono,no,18,no,#ffffff,no,yes,768,legacy,29,79,C:/Users/mmcel/OneDrive/GRAD SCHOOL/fall 2021/Advanced Quant/MM-Subject-1.csv,legacy,Lentiform Loewenfeld,3.3.9,0,s,NA,h,h,NA,s,441,NA,11609,20837,NA,441,NA,NA,2,legacy,1024,2,48000,-16,experiment,SSSSS,1,odd,15659,178213,NA,230133,229008,4050,157375,NA,230130,230238,NA,228503,4047,NA,NA,230238,230680,NA,Lab 2.1 Test Flanker Task,90,44995,110,yes,1024
81.98198198,81.98198198,408.9189189,408.9189189,#000000,legacy,legacy,legacy,0,incongruent,uniform,1,undefined,1,h,0,0,0,110,110,0,0,0,110,110,0,110,0,110,NA,110,110,NA,9/25/2021 17:51,600,The main experiment item,yes,Lab21TestFlankerTask.osexp,C:\Users\mmcel\OneDrive\GRAD SCHOOL\fall 2021\Advanced Quant,no,mono,no,18,no,#ffffff,no,yes,768,legacy,30,79,C:/Users/mmcel/OneDrive/GRAD SCHOOL/fall 2021/Advanced Quant/MM-Subject-1.csv,legacy,Lentiform Loewenfeld,3.3.9,0,h,NA,h,h,NA,h,395,NA,11609,20837,NA,395,NA,NA,2,legacy,1024,2,48000,-16,experiment,SSHSS,1,odd,15659,178213,NA,231823,230713,4050,157375,NA,231821,231928,NA,228503,4047,NA,NA,231928,232324,NA,Lab 2.1 Test Flanker Task,91,45390,111,yes,1024
81.25,81.25,408.9285714,408.9285714,#000000,legacy,legacy,legacy,0,incongruent,uniform,0,undefined,0,s,0,0,0,111,111,0,0,0,111,111,0,111,0,111,NA,111,111,NA,9/25/2021 17:51,600,The main experiment item,yes,Lab21TestFlankerTask.osexp,C:\Users\mmcel\OneDrive\GRAD SCHOOL\fall 2021\Advanced Quant,no,mono,no,18,no,#ffffff,no,yes,768,legacy,31,79,C:/Users/mmcel/OneDrive/GRAD SCHOOL/fall 2021/Advanced Quant/MM-Subject-1.csv,legacy,Lentiform Loewenfeld,3.3.9,0,h,NA,h,h,NA,h,410,NA,11609,20837,NA,410,NA,NA,2,legacy,1024,2,48000,-16,experiment,HHSHH,1,odd,15659,178213,NA,233499,232381,4050,157375,NA,233496,233605,NA,228503,4047,NA,NA,233605,234016,NA,Lab 2.1 Test Flanker Task,91,45800,112,yes,1024
81.4159292,81.4159292,408.8584071,408.8584071,#000000,legacy,legacy,legacy,0,congruent,uniform,1,undefined,1,s,0,0,0,112,112,0,0,0,112,112,0,112,0,112,NA,112,112,NA,9/25/2021 17:51,600,The main experiment item,yes,Lab21TestFlankerTask.osexp,C:\Users\mmcel\OneDrive\GRAD SCHOOL\fall 2021\Advanced Quant,no,mono,no,18,no,#ffffff,no,yes,768,legacy,32,79,C:/Users/mmcel/OneDrive/GRAD SCHOOL/fall 2021/Advanced Quant/MM-Subject-1.csv,legacy,Lentiform Loewenfeld,3.3.9,0,s,NA,h,h,NA,s,401,NA,11609,20837,NA,401,NA,NA,2,legacy,1024,2,48000,-16,experiment,SSSSS,1,odd,15659,178213,NA,235690,234582,4050,157375,NA,235687,235795,NA,234077,4047,NA,NA,235795,236197,NA,Lab 2.1 Test Flanker Task,92,46201,113,yes,1024
81.57894737,81.57894737,409.4649123,409.4649123,#000000,legacy,legacy,legacy,0,incongruent,uniform,1,undefined,1,s,0,0,0,113,113,0,0,0,113,113,0,113,0,113,NA,113,113,NA,9/25/2021 17:51,600,The main experiment item,yes,Lab21TestFlankerTask.osexp,C:\Users\mmcel\OneDrive\GRAD SCHOOL\fall 2021\Advanced Quant,no,mono,no,18,no,#ffffff,no,yes,768,legacy,33,79,C:/Users/mmcel/OneDrive/GRAD SCHOOL/fall 2021/Advanced Quant/MM-Subject-1.csv,legacy,Lentiform Loewenfeld,3.3.9,0,s,NA,h,h,NA,s,478,NA,11609,20837,NA,478,NA,NA,2,legacy,1024,2,48000,-16,experiment,HHSHH,1,odd,15659,178213,NA,237369,236259,4050,157375,NA,237367,237474,NA,234077,4047,NA,NA,237474,237953,NA,Lab 2.1 Test Flanker Task,93,46679,114,yes,1024
80.86956522,80.86956522,409.026087,409.026087,#000000,legacy,legacy,legacy,0,incongruent,uniform,0,undefined,0,s,0,0,0,114,114,0,0,0,114,114,0,114,0,114,NA,114,114,NA,9/25/2021 17:51,600,The main experiment item,yes,Lab21TestFlankerTask.osexp,C:\Users\mmcel\OneDrive\GRAD SCHOOL\fall 2021\Advanced Quant,no,mono,no,18,no,#ffffff,no,yes,768,legacy,34,79,C:/Users/mmcel/OneDrive/GRAD SCHOOL/fall 2021/Advanced Quant/MM-Subject-1.csv,legacy,Lentiform Loewenfeld,3.3.9,0,h,NA,h,h,NA,h,359,NA,11609,20837,NA,359,NA,NA,2,legacy,1024,2,48000,-16,experiment,HHSHH,1,odd,15659,178213,NA,239136,238015,4050,157375,NA,239133,239241,NA,234077,4047,NA,NA,239241,239602,NA,Lab 2.1 Test Flanker Task,93,47038,115,yes,1024
80.17241379,80.17241379,408.9741379,408.9741379,#000000,legacy,legacy,legacy,0,incongruent,uniform,0,undefined,0,h,0,0,0,115,115,0,0,0,115,115,0,115,0,115,NA,115,115,NA,9/25/2021 17:51,600,The main experiment item,yes,Lab21TestFlankerTask.osexp,C:\Users\mmcel\OneDrive\GRAD SCHOOL\fall 2021\Advanced Quant,no,mono,no,18,no,#ffffff,no,yes,768,legacy,35,79,C:/Users/mmcel/OneDrive/GRAD SCHOOL/fall 2021/Advanced Quant/MM-Subject-1.csv,legacy,Lentiform Loewenfeld,3.3.9,0,s,NA,h,h,NA,s,403,NA,11609,20837,NA,403,NA,NA,2,legacy,1024,2,48000,-16,experiment,SSHSS,1,odd,15659,178213,NA,241293,240164,4050,157375,NA,241291,241399,NA,239659,4047,NA,NA,241399,241804,NA,Lab 2.1 Test Flanker Task,93,47441,116,yes,1024
79.48717949,79.48717949,409.2222222,409.2222222,#000000,legacy,legacy,legacy,0,incongruent,uniform,0,undefined,0,h,0,0,0,116,116,0,0,0,116,116,0,116,0,116,NA,116,116,NA,9/25/2021 17:51,600,The main experiment item,yes,Lab21TestFlankerTask.osexp,C:\Users\mmcel\OneDrive\GRAD SCHOOL\fall 2021\Advanced Quant,no,mono,no,18,no,#ffffff,no,yes,768,legacy,36,79,C:/Users/mmcel/OneDrive/GRAD SCHOOL/fall 2021/Advanced Quant/MM-Subject-1.csv,legacy,Lentiform Loewenfeld,3.3.9,0,s,NA,h,h,NA,s,438,NA,11609,20837,NA,438,NA,NA,2,legacy,1024,2,48000,-16,experiment,SSHSS,1,odd,15659,178213,NA,243484,242366,4050,157375,NA,243482,243589,NA,241860,4047,NA,NA,243589,244028,NA,Lab 2.1 Test Flanker Task,93,47879,117,yes,1024
79.66101695,79.66101695,409.279661,409.279661,#000000,legacy,legacy,legacy,0,congruent,uniform,1,undefined,1,h,0,0,0,117,117,0,0,0,117,117,0,117,0,117,NA,117,117,NA,9/25/2021 17:51,600,The main experiment item,yes,Lab21TestFlankerTask.osexp,C:\Users\mmcel\OneDrive\GRAD SCHOOL\fall 2021\Advanced Quant,no,mono,no,18,no,#ffffff,no,yes,768,legacy,37,79,C:/Users/mmcel/OneDrive/GRAD SCHOOL/fall 2021/Advanced Quant/MM-Subject-1.csv,legacy,Lentiform Loewenfeld,3.3.9,0,h,NA,h,h,NA,h,416,NA,11609,20837,NA,416,NA,NA,2,legacy,1024,2,48000,-16,experiment,HHHHH,1,odd,15659,178213,NA,245708,244598,4050,157375,NA,245706,245813,NA,244093,4047,NA,NA,245813,246230,NA,Lab 2.1 Test Flanker Task,94,48295,118,yes,1024
79.83193277,79.83193277,408.6554622,408.6554622,#000000,legacy,legacy,legacy,0,congruent,uniform,1,undefined,1,s,0,0,0,118,118,0,0,0,118,118,0,118,0,118,NA,118,118,NA,9/25/2021 17:51,600,The main experiment item,yes,Lab21TestFlankerTask.osexp,C:\Users\mmcel\OneDrive\GRAD SCHOOL\fall 2021\Advanced Quant,no,mono,no,18,no,#ffffff,no,yes,768,legacy,38,79,C:/Users/mmcel/OneDrive/GRAD SCHOOL/fall 2021/Advanced Quant/MM-Subject-1.csv,legacy,Lentiform Loewenfeld,3.3.9,0,s,NA,h,h,NA,s,335,NA,11609,20837,NA,335,NA,NA,2,legacy,1024,2,48000,-16,experiment,SSSSS,1,odd,15659,178213,NA,247416,246292,4050,157375,NA,247414,247521,NA,244093,4047,NA,NA,247521,247858,NA,Lab 2.1 Test Flanker Task,95,48630,119,yes,1024
80,80,408.775,408.775,#000000,legacy,legacy,legacy,0,congruent,uniform,1,undefined,1,s,0,0,0,119,119,0,0,0,119,119,0,119,0,119,NA,119,119,NA,9/25/2021 17:51,600,The main experiment item,yes,Lab21TestFlankerTask.osexp,C:\Users\mmcel\OneDrive\GRAD SCHOOL\fall 2021\Advanced Quant,no,mono,no,18,no,#ffffff,no,yes,768,legacy,39,79,C:/Users/mmcel/OneDrive/GRAD SCHOOL/fall 2021/Advanced Quant/MM-Subject-1.csv,legacy,Lentiform Loewenfeld,3.3.9,0,s,NA,h,h,NA,s,423,NA,11609,20837,NA,423,NA,NA,2,legacy,1024,2,48000,-16,experiment,SSSSS,1,odd,15659,178213,NA,249014,247912,4050,157375,NA,249011,249119,NA,244093,4047,NA,NA,249119,249543,NA,Lab 2.1 Test Flanker Task,96,49053,120,yes,1024
80.16528926,80.16528926,409.1900826,409.1900826,#000000,legacy,legacy,legacy,0,congruent,uniform,1,undefined,1,h,0,0,0,120,120,0,0,0,120,120,0,120,0,120,NA,120,120,NA,9/25/2021 17:51,600,The main experiment item,yes,Lab21TestFlankerTask.osexp,C:\Users\mmcel\OneDrive\GRAD SCHOOL\fall 2021\Advanced Quant,no,mono,no,18,no,#ffffff,no,yes,768,legacy,40,79,C:/Users/mmcel/OneDrive/GRAD SCHOOL/fall 2021/Advanced Quant/MM-Subject-1.csv,legacy,Lentiform Loewenfeld,3.3.9,0,h,NA,h,h,NA,h,459,NA,11609,20837,NA,459,NA,NA,2,legacy,1024,2,48000,-16,experiment,HHHHH,1,odd,15659,178213,NA,250717,249604,4050,157375,NA,250715,250823,NA,244093,4047,NA,NA,250824,251286,NA,Lab 2.1 Test Flanker Task,97,49512,121,yes,1024
80.32786885,80.32786885,409.4180328,409.4180328,#000000,legacy,legacy,legacy,0,incongruent,uniform,1,undefined,1,h,0,0,0,121,121,0,0,0,121,121,0,121,0,121,NA,121,121,NA,9/25/2021 17:51,600,The main experiment item,yes,Lab21TestFlankerTask.osexp,C:\Users\mmcel\OneDrive\GRAD SCHOOL\fall 2021\Advanced Quant,no,mono,no,18,no,#ffffff,no,yes,768,legacy,41,79,C:/Users/mmcel/OneDrive/GRAD SCHOOL/fall 2021/Advanced Quant/MM-Subject-1.csv,legacy,Lentiform Loewenfeld,3.3.9,0,h,NA,h,h,NA,h,437,NA,11609,20837,NA,437,NA,NA,2,legacy,1024,2,48000,-16,experiment,SSHSS,1,odd,15659,178213,NA,252459,251349,4050,157375,NA,252456,252566,NA,244093,4047,NA,NA,252566,253004,NA,Lab 2.1 Test Flanker Task,98,49949,122,yes,1024
80.48780488,80.48780488,409.2764228,409.2764228,#000000,legacy,legacy,legacy,0,incongruent,uniform,1,undefined,1,s,0,0,0,122,122,0,0,0,122,122,0,122,0,122,NA,122,122,NA,9/25/2021 17:51,600,The main experiment item,yes,Lab21TestFlankerTask.osexp,C:\Users\mmcel\OneDrive\GRAD SCHOOL\fall 2021\Advanced Quant,no,mono,no,18,no,#ffffff,no,yes,768,legacy,42,79,C:/Users/mmcel/OneDrive/GRAD SCHOOL/fall 2021/Advanced Quant/MM-Subject-1.csv,legacy,Lentiform Loewenfeld,3.3.9,0,s,NA,h,h,NA,s,392,NA,11609,20837,NA,392,NA,NA,2,legacy,1024,2,48000,-16,experiment,HHSHH,1,odd,15659,178213,NA,254194,253071,4050,157375,NA,254192,254299,NA,244093,4047,NA,NA,254299,254692,NA,Lab 2.1 Test Flanker Task,99,50341,123,yes,1024
80.64516129,80.64516129,408.9919355,408.9919355,#000000,legacy,legacy,legacy,0,congruent,uniform,1,undefined,1,h,0,0,0,123,123,0,0,0,123,123,0,123,0,123,NA,123,123,NA,9/25/2021 17:51,600,The main experiment item,yes,Lab21TestFlankerTask.osexp,C:\Users\mmcel\OneDrive\GRAD SCHOOL\fall 2021\Advanced Quant,no,mono,no,18,no,#ffffff,no,yes,768,legacy,43,79,C:/Users/mmcel/OneDrive/GRAD SCHOOL/fall 2021/Advanced Quant/MM-Subject-1.csv,legacy,Lentiform Loewenfeld,3.3.9,0,h,NA,h,h,NA,h,374,NA,11609,20837,NA,374,NA,NA,2,legacy,1024,2,48000,-16,experiment,HHHHH,1,odd,15659,178213,NA,255872,254748,4050,157375,NA,255870,255977,NA,244093,4047,NA,NA,255977,256352,NA,Lab 2.1 Test Flanker Task,100,50715,124,yes,1024
80,80,409.112,409.112,#000000,legacy,legacy,legacy,0,incongruent,uniform,0,undefined,0,h,0,0,0,124,124,0,0,0,124,124,0,124,0,124,NA,124,124,NA,9/25/2021 17:51,600,The main experiment item,yes,Lab21TestFlankerTask.osexp,C:\Users\mmcel\OneDrive\GRAD SCHOOL\fall 2021\Advanced Quant,no,mono,no,18,no,#ffffff,no,yes,768,legacy,44,79,C:/Users/mmcel/OneDrive/GRAD SCHOOL/fall 2021/Advanced Quant/MM-Subject-1.csv,legacy,Lentiform Loewenfeld,3.3.9,0,s,NA,h,h,NA,s,424,NA,11609,20837,NA,424,NA,NA,2,legacy,1024,2,48000,-16,experiment,SSHSS,1,odd,15659,178213,NA,257527,256416,4050,157375,NA,257525,257633,NA,244093,4047,NA,NA,257633,258060,NA,Lab 2.1 Test Flanker Task,100,51139,125,yes,1024
80.15873016,80.15873016,409.6984127,409.6984127,#000000,legacy,legacy,legacy,0,incongruent,uniform,1,undefined,1,s,0,0,0,125,125,0,0,0,125,125,0,125,0,125,NA,125,125,NA,9/25/2021 17:51,600,The main experiment item,yes,Lab21TestFlankerTask.osexp,C:\Users\mmcel\OneDrive\GRAD SCHOOL\fall 2021\Advanced Quant,no,mono,no,18,no,#ffffff,no,yes,768,legacy,45,79,C:/Users/mmcel/OneDrive/GRAD SCHOOL/fall 2021/Advanced Quant/MM-Subject-1.csv,legacy,Lentiform Loewenfeld,3.3.9,0,s,NA,h,h,NA,s,483,NA,11609,20837,NA,483,NA,NA,2,legacy,1024,2,48000,-16,experiment,HHSHH,1,odd,15659,178213,NA,259752,258632,4050,157375,NA,259750,259857,NA,258127,4047,NA,NA,259857,260341,NA,Lab 2.1 Test Flanker Task,101,51622,126,yes,1024
80.31496063,80.31496063,409.4566929,409.4566929,#000000,legacy,legacy,legacy,0,congruent,uniform,1,undefined,1,h,0,0,0,126,126,0,0,0,126,126,0,126,0,126,NA,126,126,NA,9/25/2021 17:51,600,The main experiment item,yes,Lab21TestFlankerTask.osexp,C:\Users\mmcel\OneDrive\GRAD SCHOOL\fall 2021\Advanced Quant,no,mono,no,18,no,#ffffff,no,yes,768,legacy,46,79,C:/Users/mmcel/OneDrive/GRAD SCHOOL/fall 2021/Advanced Quant/MM-Subject-1.csv,legacy,Lentiform Loewenfeld,3.3.9,0,h,NA,h,h,NA,h,379,NA,11609,20837,NA,379,NA,NA,2,legacy,1024,2,48000,-16,experiment,HHHHH,1,odd,15659,178213,NA,261517,260405,4050,157375,NA,261515,261622,NA,258127,4047,NA,NA,261622,262003,NA,Lab 2.1 Test Flanker Task,102,52001,127,yes,1024
79.6875,79.6875,409.1640625,409.1640625,#000000,legacy,legacy,legacy,0,incongruent,uniform,0,undefined,0,s,0,0,0,127,127,0,0,0,127,127,0,127,0,127,NA,127,127,NA,9/25/2021 17:51,600,The main experiment item,yes,Lab21TestFlankerTask.osexp,C:\Users\mmcel\OneDrive\GRAD SCHOOL\fall 2021\Advanced Quant,no,mono,no,18,no,#ffffff,no,yes,768,legacy,47,79,C:/Users/mmcel/OneDrive/GRAD SCHOOL/fall 2021/Advanced Quant/MM-Subject-1.csv,legacy,Lentiform Loewenfeld,3.3.9,0,h,NA,h,h,NA,h,372,NA,11609,20837,NA,372,NA,NA,2,legacy,1024,2,48000,-16,experiment,HHSHH,1,odd,15659,178213,NA,263168,262060,4050,157375,NA,263166,263273,NA,258127,4047,NA,NA,263273,263647,NA,Lab 2.1 Test Flanker Task,102,52373,128,yes,1024
79.84496124,79.84496124,410.0542636,410.0542636,#000000,legacy,legacy,legacy,0,congruent,uniform,1,undefined,1,s,0,0,0,128,128,0,0,0,128,128,0,128,0,128,NA,128,128,NA,9/25/2021 17:51,600,The main experiment item,yes,Lab21TestFlankerTask.osexp,C:\Users\mmcel\OneDrive\GRAD SCHOOL\fall 2021\Advanced Quant,no,mono,no,18,no,#ffffff,no,yes,768,legacy,48,79,C:/Users/mmcel/OneDrive/GRAD SCHOOL/fall 2021/Advanced Quant/MM-Subject-1.csv,legacy,Lentiform Loewenfeld,3.3.9,0,s,NA,h,h,NA,s,524,NA,11609,20837,NA,524,NA,NA,2,legacy,1024,2,48000,-16,experiment,SSSSS,1,odd,15659,178213,NA,265298,264186,4050,157375,NA,265295,265404,NA,263681,4047,NA,NA,265404,265929,NA,Lab 2.1 Test Flanker Task,103,52897,129,yes,1024
80,80,410.3846154,410.3846154,#000000,legacy,legacy,legacy,0,incongruent,uniform,1,undefined,1,h,0,0,0,129,129,0,0,0,129,129,0,129,0,129,NA,129,129,NA,9/25/2021 17:51,600,The main experiment item,yes,Lab21TestFlankerTask.osexp,C:\Users\mmcel\OneDrive\GRAD SCHOOL\fall 2021\Advanced Quant,no,mono,no,18,no,#ffffff,no,yes,768,legacy,49,79,C:/Users/mmcel/OneDrive/GRAD SCHOOL/fall 2021/Advanced Quant/MM-Subject-1.csv,legacy,Lentiform Loewenfeld,3.3.9,0,h,NA,h,h,NA,h,453,NA,11609,20837,NA,453,NA,NA,2,legacy,1024,2,48000,-16,experiment,SSHSS,1,odd,15659,178213,NA,267068,265957,4050,157375,NA,267065,267174,NA,263681,4047,NA,NA,267174,267628,NA,Lab 2.1 Test Flanker Task,104,53350,130,yes,1024
80.15267176,80.15267176,409.9923664,409.9923664,#000000,legacy,legacy,legacy,0,congruent,uniform,1,undefined,1,h,0,0,0,130,130,0,0,0,130,130,0,130,0,130,NA,130,130,NA,9/25/2021 17:51,600,The main experiment item,yes,Lab21TestFlankerTask.osexp,C:\Users\mmcel\OneDrive\GRAD SCHOOL\fall 2021\Advanced Quant,no,mono,no,18,no,#ffffff,no,yes,768,legacy,50,79,C:/Users/mmcel/OneDrive/GRAD SCHOOL/fall 2021/Advanced Quant/MM-Subject-1.csv,legacy,Lentiform Loewenfeld,3.3.9,0,h,NA,h,h,NA,h,359,NA,11609,20837,NA,359,NA,NA,2,legacy,1024,2,48000,-16,experiment,HHHHH,1,odd,15659,178213,NA,268806,267682,4050,157375,NA,268803,268911,NA,263681,4047,NA,NA,268911,269272,NA,Lab 2.1 Test Flanker Task,105,53709,131,yes,1024
80.3030303,80.3030303,410.75,410.75,#000000,legacy,legacy,legacy,0,incongruent,uniform,1,undefined,1,h,0,0,0,131,131,0,0,0,131,131,0,131,0,131,NA,131,131,NA,9/25/2021 17:51,600,The main experiment item,yes,Lab21TestFlankerTask.osexp,C:\Users\mmcel\OneDrive\GRAD SCHOOL\fall 2021\Advanced Quant,no,mono,no,18,no,#ffffff,no,yes,768,legacy,51,79,C:/Users/mmcel/OneDrive/GRAD SCHOOL/fall 2021/Advanced Quant/MM-Subject-1.csv,legacy,Lentiform Loewenfeld,3.3.9,0,h,NA,h,h,NA,h,510,NA,11609,20837,NA,510,NA,NA,2,legacy,1024,2,48000,-16,experiment,SSHSS,1,odd,15659,178213,NA,270431,269325,4050,157375,NA,270429,270536,NA,263681,4047,NA,NA,270536,271047,NA,Lab 2.1 Test Flanker Task,106,54219,132,yes,1024
80.45112782,80.45112782,411.1503759,411.1503759,#000000,legacy,legacy,legacy,0,incongruent,uniform,1,undefined,1,h,0,0,0,132,132,0,0,0,132,132,0,132,0,132,NA,132,132,NA,9/25/2021 17:51,600,The main experiment item,yes,Lab21TestFlankerTask.osexp,C:\Users\mmcel\OneDrive\GRAD SCHOOL\fall 2021\Advanced Quant,no,mono,no,18,no,#ffffff,no,yes,768,legacy,52,79,C:/Users/mmcel/OneDrive/GRAD SCHOOL/fall 2021/Advanced Quant/MM-Subject-1.csv,legacy,Lentiform Loewenfeld,3.3.9,0,h,NA,h,h,NA,h,464,NA,11609,20837,NA,464,NA,NA,2,legacy,1024,2,48000,-16,experiment,SSHSS,1,odd,15659,178213,NA,272255,271138,4050,157375,NA,272253,272360,NA,263681,4047,NA,NA,272360,272825,NA,Lab 2.1 Test Flanker Task,107,54683,133,yes,1024
80.59701493,80.59701493,411.8880597,411.8880597,#000000,legacy,legacy,legacy,0,congruent,uniform,1,undefined,1,s,0,0,0,133,133,0,0,0,133,133,0,133,0,133,NA,133,133,NA,9/25/2021 17:51,600,The main experiment item,yes,Lab21TestFlankerTask.osexp,C:\Users\mmcel\OneDrive\GRAD SCHOOL\fall 2021\Advanced Quant,no,mono,no,18,no,#ffffff,no,yes,768,legacy,53,79,C:/Users/mmcel/OneDrive/GRAD SCHOOL/fall 2021/Advanced Quant/MM-Subject-1.csv,legacy,Lentiform Loewenfeld,3.3.9,0,s,NA,h,h,NA,s,510,NA,11609,20837,NA,510,NA,NA,2,legacy,1024,2,48000,-16,experiment,SSSSS,1,odd,15659,178213,NA,273996,272883,4050,157375,NA,273994,274101,NA,263681,4047,NA,NA,274101,274612,NA,Lab 2.1 Test Flanker Task,108,55193,134,yes,1024
80.74074074,80.74074074,412.7407407,412.7407407,#000000,legacy,legacy,legacy,0,congruent,uniform,1,undefined,1,h,0,0,0,134,134,0,0,0,134,134,0,134,0,134,NA,134,134,NA,9/25/2021 17:51,600,The main experiment item,yes,Lab21TestFlankerTask.osexp,C:\Users\mmcel\OneDrive\GRAD SCHOOL\fall 2021\Advanced Quant,no,mono,no,18,no,#ffffff,no,yes,768,legacy,54,79,C:/Users/mmcel/OneDrive/GRAD SCHOOL/fall 2021/Advanced Quant/MM-Subject-1.csv,legacy,Lentiform Loewenfeld,3.3.9,0,h,NA,h,h,NA,h,527,NA,11609,20837,NA,527,NA,NA,2,legacy,1024,2,48000,-16,experiment,HHHHH,1,odd,15659,178213,NA,275795,274670,4050,157375,NA,275793,275900,NA,263681,4047,NA,NA,275900,276428,NA,Lab 2.1 Test Flanker Task,109,55720,135,yes,1024
80.88235294,80.88235294,412.4191176,412.4191176,#000000,legacy,legacy,legacy,0,congruent,uniform,1,undefined,1,s,0,0,0,135,135,0,0,0,135,135,0,135,0,135,NA,135,135,NA,9/25/2021 17:51,600,The main experiment item,yes,Lab21TestFlankerTask.osexp,C:\Users\mmcel\OneDrive\GRAD SCHOOL\fall 2021\Advanced Quant,no,mono,no,18,no,#ffffff,no,yes,768,legacy,55,79,C:/Users/mmcel/OneDrive/GRAD SCHOOL/fall 2021/Advanced Quant/MM-Subject-1.csv,legacy,Lentiform Loewenfeld,3.3.9,0,s,NA,h,h,NA,s,369,NA,11609,20837,NA,369,NA,NA,2,legacy,1024,2,48000,-16,experiment,SSSSS,1,odd,15659,178213,NA,277596,276483,4050,157375,NA,277594,277701,NA,263681,4047,NA,NA,277702,278073,NA,Lab 2.1 Test Flanker Task,110,56089,136,yes,1024
81.02189781,81.02189781,412.4744526,412.4744526,#000000,legacy,legacy,legacy,0,congruent,uniform,1,undefined,1,s,0,0,0,136,136,0,0,0,136,136,0,136,0,136,NA,136,136,NA,9/25/2021 17:51,600,The main experiment item,yes,Lab21TestFlankerTask.osexp,C:\Users\mmcel\OneDrive\GRAD SCHOOL\fall 2021\Advanced Quant,no,mono,no,18,no,#ffffff,no,yes,768,legacy,56,79,C:/Users/mmcel/OneDrive/GRAD SCHOOL/fall 2021/Advanced Quant/MM-Subject-1.csv,legacy,Lentiform Loewenfeld,3.3.9,0,s,NA,h,h,NA,s,420,NA,11609,20837,NA,420,NA,NA,2,legacy,1024,2,48000,-16,experiment,SSSSS,1,odd,15659,178213,NA,279249,278139,4050,157375,NA,279247,279354,NA,263681,4047,NA,NA,279354,279775,NA,Lab 2.1 Test Flanker Task,111,56509,137,yes,1024
81.15942029,81.15942029,412.2391304,412.2391304,#000000,legacy,legacy,legacy,0,congruent,uniform,1,undefined,1,h,0,0,0,137,137,0,0,0,137,137,0,137,0,137,NA,137,137,NA,9/25/2021 17:51,600,The main experiment item,yes,Lab21TestFlankerTask.osexp,C:\Users\mmcel\OneDrive\GRAD SCHOOL\fall 2021\Advanced Quant,no,mono,no,18,no,#ffffff,no,yes,768,legacy,57,79,C:/Users/mmcel/OneDrive/GRAD SCHOOL/fall 2021/Advanced Quant/MM-Subject-1.csv,legacy,Lentiform Loewenfeld,3.3.9,0,h,NA,h,h,NA,h,380,NA,11609,20837,NA,380,NA,NA,2,legacy,1024,2,48000,-16,experiment,HHHHH,1,odd,15659,178213,NA,280956,279838,4050,157375,NA,280953,281061,NA,263681,4047,NA,NA,281061,281446,NA,Lab 2.1 Test Flanker Task,112,56889,138,yes,1024
80.57553957,80.57553957,412.0719424,412.0719424,#000000,legacy,legacy,legacy,0,incongruent,uniform,0,undefined,0,s,0,0,0,138,138,0,0,0,138,138,0,138,0,138,NA,138,138,NA,9/25/2021 17:51,600,The main experiment item,yes,Lab21TestFlankerTask.osexp,C:\Users\mmcel\OneDrive\GRAD SCHOOL\fall 2021\Advanced Quant,no,mono,no,18,no,#ffffff,no,yes,768,legacy,58,79,C:/Users/mmcel/OneDrive/GRAD SCHOOL/fall 2021/Advanced Quant/MM-Subject-1.csv,legacy,Lentiform Loewenfeld,3.3.9,0,h,NA,h,h,NA,h,389,NA,11609,20837,NA,389,NA,NA,2,legacy,1024,2,48000,-16,experiment,HHSHH,1,odd,15659,178213,NA,282632,281507,4050,157375,NA,282630,282737,NA,263681,4047,NA,NA,282737,283127,NA,Lab 2.1 Test Flanker Task,112,57278,139,yes,1024
80.71428571,80.71428571,412.2928571,412.2928571,#000000,legacy,legacy,legacy,0,congruent,uniform,1,undefined,1,h,0,0,0,139,139,0,0,0,139,139,0,139,0,139,NA,139,139,NA,9/25/2021 17:51,600,The main experiment item,yes,Lab21TestFlankerTask.osexp,C:\Users\mmcel\OneDrive\GRAD SCHOOL\fall 2021\Advanced Quant,no,mono,no,18,no,#ffffff,no,yes,768,legacy,59,79,C:/Users/mmcel/OneDrive/GRAD SCHOOL/fall 2021/Advanced Quant/MM-Subject-1.csv,legacy,Lentiform Loewenfeld,3.3.9,0,h,NA,h,h,NA,h,443,NA,11609,20837,NA,443,NA,NA,2,legacy,1024,2,48000,-16,experiment,HHHHH,1,odd,15659,178213,NA,284801,283686,4050,157375,NA,284798,284906,NA,283180,4047,NA,NA,284906,285350,NA,Lab 2.1 Test Flanker Task,113,57721,140,yes,1024
80.85106383,80.85106383,411.8510638,411.8510638,#000000,legacy,legacy,legacy,0,congruent,uniform,1,undefined,1,h,0,0,0,140,140,0,0,0,140,140,0,140,0,140,NA,140,140,NA,9/25/2021 17:51,600,The main experiment item,yes,Lab21TestFlankerTask.osexp,C:\Users\mmcel\OneDrive\GRAD SCHOOL\fall 2021\Advanced Quant,no,mono,no,18,no,#ffffff,no,yes,768,legacy,60,79,C:/Users/mmcel/OneDrive/GRAD SCHOOL/fall 2021/Advanced Quant/MM-Subject-1.csv,legacy,Lentiform Loewenfeld,3.3.9,0,h,NA,h,h,NA,h,350,NA,11609,20837,NA,350,NA,NA,2,legacy,1024,2,48000,-16,experiment,HHHHH,1,odd,15659,178213,NA,286512,285405,4050,157375,NA,286509,286617,NA,283180,4047,NA,NA,286617,286968,NA,Lab 2.1 Test Flanker Task,114,58071,141,yes,1024
80.98591549,80.98591549,412.028169,412.028169,#000000,legacy,legacy,legacy,0,congruent,uniform,1,undefined,1,h,0,0,0,141,141,0,0,0,141,141,0,141,0,141,NA,141,141,NA,9/25/2021 17:51,600,The main experiment item,yes,Lab21TestFlankerTask.osexp,C:\Users\mmcel\OneDrive\GRAD SCHOOL\fall 2021\Advanced Quant,no,mono,no,18,no,#ffffff,no,yes,768,legacy,61,79,C:/Users/mmcel/OneDrive/GRAD SCHOOL/fall 2021/Advanced Quant/MM-Subject-1.csv,legacy,Lentiform Loewenfeld,3.3.9,0,h,NA,h,h,NA,h,437,NA,11609,20837,NA,437,NA,NA,2,legacy,1024,2,48000,-16,experiment,HHHHH,1,odd,15659,178213,NA,288153,287028,4050,157375,NA,288150,288258,NA,283180,4047,NA,NA,288258,288696,NA,Lab 2.1 Test Flanker Task,115,58508,142,yes,1024
