"acc","accuracy","average_response_time","avg_rt","background","canvas_backend","clock_backend","color_backend","compensation","condition","coordinates","correct","correct_Instructions","correct_keyboard_response","correct_response","count_Block1","count_Block2","count_Block3","count_Finish","count_Fixation","count_ISI","count_Instructions","count_Instructions2","count_Instructions3","count_Sequence","count_Stimulus","count_errorFeedback","count_experiment","count_faster","count_keyboard_response","count_logger","datetime","deadline","description","disable_garbage_collection","experiment_file","experiment_path","font_bold","font_family","font_italic","font_size","font_underline","foreground","form_clicks","fullscreen","height","keyboard_backend","live_row","live_row_Block1","logfile","mouse_backend","opensesame_codename","opensesame_version","repeat_cycle","response","response_Finish","response_Instructions","response_Instructions2","response_Instructions3","response_keyboard_response","response_time","response_time_Finish","response_time_Instructions","response_time_Instructions2","response_time_Instructions3","response_time_keyboard_response","round_decimals","sampler_backend","sound_buf_size","sound_channels","sound_freq","sound_sample_size","start","stimulus","subject_nr","subject_parity","time_Block1","time_Block2","time_Block3","time_Finish","time_Fixation","time_ISI","time_Instructions","time_Instructions2","time_Instructions3","time_Sequence","time_Stimulus","time_errorFeedback","time_experiment","time_faster","time_keyboard_response","time_logger","title","total_correct","total_response_time","total_responses","uniform_coordinates","width"
"100","100","634","634","black","legacy","legacy","legacy","0","congruent","uniform","1","undefined","1","s","0","0","0","0","0","0","0","0","0","0","0","0","0","0","0","0","09/25/21 23:22:46","1500","The main experiment item","yes","FlankerTask.osexp","C:\Users\Brian\Desktop\College - Graduate\Graduate Work\Advanced Quant","no","mono","no","18","no","white","no","yes","768","legacy","0","0","C:/Users/Brian/Desktop/College - Graduate/Graduate Work/Advanced Quant/BK-subject-4.csv","legacy","Kafkaesque Koffka","3.2.8","0","s","NA","h","NA","NA","s","634","NA","3820","NA","NA","634","2","legacy","1024","2","48000","-16","experiment","sssss","4","even","5783","NA","NA","NA","5872","NA","1962","NA","NA","5870","5975","NA","1954","NA","5975","6610","Flanker Task","1","634","1","yes","1024"
"100","100","616.5","616.5","black","legacy","legacy","legacy","0","incongruent","uniform","1","undefined","1","h","0","0","0","0","1","1","0","0","0","1","1","1","0","1","1","1","09/25/21 23:22:46","1500","The main experiment item","yes","FlankerTask.osexp","C:\Users\Brian\Desktop\College - Graduate\Graduate Work\Advanced Quant","no","mono","no","18","no","white","no","yes","768","legacy","1","1","C:/Users/Brian/Desktop/College - Graduate/Graduate Work/Advanced Quant/BK-subject-4.csv","legacy","Kafkaesque Koffka","3.2.8","0","h","NA","h","NA","NA","h","599","NA","3820","NA","NA","599","2","legacy","1024","2","48000","-16","experiment","sshss","4","even","5783","NA","NA","NA","7711","6623","1962","NA","NA","7709","7814","NA","1954","NA","7814","8413","Flanker Task","2","1233","2","yes","1024"
"100","100","592.666666667","592.666666667","black","legacy","legacy","legacy","0","incongruent","uniform","1","undefined","1","s","0","0","0","0","2","2","0","0","0","2","2","2","0","2","2","2","09/25/21 23:22:46","1500","The main experiment item","yes","FlankerTask.osexp","C:\Users\Brian\Desktop\College - Graduate\Graduate Work\Advanced Quant","no","mono","no","18","no","white","no","yes","768","legacy","2","2","C:/Users/Brian/Desktop/College - Graduate/Graduate Work/Advanced Quant/BK-subject-4.csv","legacy","Kafkaesque Koffka","3.2.8","0","s","NA","h","NA","NA","s","545","NA","3820","NA","NA","545","2","legacy","1024","2","48000","-16","experiment","hhshh","4","even","5783","NA","NA","NA","9495","8423","1962","NA","NA","9493","9598","NA","1954","NA","9598","10143","Flanker Task","3","1778","3","yes","1024"
"100","100","589.5","589.5","black","legacy","legacy","legacy","0","incongruent","uniform","1","undefined","1","h","0","0","0","0","3","3","0","0","0","3","3","3","0","3","3","3","09/25/21 23:22:46","1500","The main experiment item","yes","FlankerTask.osexp","C:\Users\Brian\Desktop\College - Graduate\Graduate Work\Advanced Quant","no","mono","no","18","no","white","no","yes","768","legacy","3","3","C:/Users/Brian/Desktop/College - Graduate/Graduate Work/Advanced Quant/BK-subject-4.csv","legacy","Kafkaesque Koffka","3.2.8","0","h","NA","h","NA","NA","h","580","NA","3820","NA","NA","580","2","legacy","1024","2","48000","-16","experiment","sshss","4","even","5783","NA","NA","NA","11228","10152","1962","NA","NA","11226","11331","NA","1954","NA","11331","11912","Flanker Task","4","2358","4","yes","1024"
"100","100","557.4","557.4","black","legacy","legacy","legacy","0","congruent","uniform","1","undefined","1","s","0","0","0","0","4","4","0","0","0","4","4","4","0","4","4","4","09/25/21 23:22:46","1500","The main experiment item","yes","FlankerTask.osexp","C:\Users\Brian\Desktop\College - Graduate\Graduate Work\Advanced Quant","no","mono","no","18","no","white","no","yes","768","legacy","4","4","C:/Users/Brian/Desktop/College - Graduate/Graduate Work/Advanced Quant/BK-subject-4.csv","legacy","Kafkaesque Koffka","3.2.8","0","s","NA","h","NA","NA","s","429","NA","3820","NA","NA","429","2","legacy","1024","2","48000","-16","experiment","sssss","4","even","5783","NA","NA","NA","12994","11920","1962","NA","NA","12992","13097","NA","1954","NA","13097","13527","Flanker Task","5","2787","5","yes","1024"
"100","100","554.5","554.5","black","legacy","legacy","legacy","0","incongruent","uniform","1","undefined","1","h","0","0","0","0","5","5","0","0","0","5","5","5","0","5","5","5","09/25/21 23:22:46","1500","The main experiment item","yes","FlankerTask.osexp","C:\Users\Brian\Desktop\College - Graduate\Graduate Work\Advanced Quant","no","mono","no","18","no","white","no","yes","768","legacy","5","5","C:/Users/Brian/Desktop/College - Graduate/Graduate Work/Advanced Quant/BK-subject-4.csv","legacy","Kafkaesque Koffka","3.2.8","0","h","NA","h","NA","NA","h","540","NA","3820","NA","NA","540","2","legacy","1024","2","48000","-16","experiment","sshss","4","even","5783","NA","NA","NA","14611","13535","1962","NA","NA","14609","14714","NA","1954","NA","14714","15255","Flanker Task","6","3327","6","yes","1024"
"100","100","549.285714286","549.285714286","black","legacy","legacy","legacy","0","incongruent","uniform","1","undefined","1","s","0","0","0","0","6","6","0","0","0","6","6","6","0","6","6","6","09/25/21 23:22:46","1500","The main experiment item","yes","FlankerTask.osexp","C:\Users\Brian\Desktop\College - Graduate\Graduate Work\Advanced Quant","no","mono","no","18","no","white","no","yes","768","legacy","6","6","C:/Users/Brian/Desktop/College - Graduate/Graduate Work/Advanced Quant/BK-subject-4.csv","legacy","Kafkaesque Koffka","3.2.8","0","s","NA","h","NA","NA","s","518","NA","3820","NA","NA","518","2","legacy","1024","2","48000","-16","experiment","hhshh","4","even","5783","NA","NA","NA","16338","15264","1962","NA","NA","16336","16441","NA","1954","NA","16441","16959","Flanker Task","7","3845","7","yes","1024"
"100","100","545.375","545.375","black","legacy","legacy","legacy","0","incongruent","uniform","1","undefined","1","s","0","0","0","0","7","7","0","0","0","7","7","7","0","7","7","7","09/25/21 23:22:46","1500","The main experiment item","yes","FlankerTask.osexp","C:\Users\Brian\Desktop\College - Graduate\Graduate Work\Advanced Quant","no","mono","no","18","no","white","no","yes","768","legacy","7","7","C:/Users/Brian/Desktop/College - Graduate/Graduate Work/Advanced Quant/BK-subject-4.csv","legacy","Kafkaesque Koffka","3.2.8","0","s","NA","h","NA","NA","s","518","NA","3820","NA","NA","518","2","legacy","1024","2","48000","-16","experiment","hhshh","4","even","5783","NA","NA","NA","18041","16968","1962","NA","NA","18039","18144","NA","1954","NA","18144","18663","Flanker Task","8","4363","8","yes","1024"
"100","100","541.666666667","541.666666667","black","legacy","legacy","legacy","0","congruent","uniform","1","undefined","1","s","0","0","0","0","8","8","0","0","0","8","8","8","0","8","8","8","09/25/21 23:22:46","1500","The main experiment item","yes","FlankerTask.osexp","C:\Users\Brian\Desktop\College - Graduate\Graduate Work\Advanced Quant","no","mono","no","18","no","white","no","yes","768","legacy","8","8","C:/Users/Brian/Desktop/College - Graduate/Graduate Work/Advanced Quant/BK-subject-4.csv","legacy","Kafkaesque Koffka","3.2.8","0","s","NA","h","NA","NA","s","512","NA","3820","NA","NA","512","2","legacy","1024","2","48000","-16","experiment","sssss","4","even","5783","NA","NA","NA","19749","18672","1962","NA","NA","19747","19850","NA","1954","NA","19850","20363","Flanker Task","9","4875","9","yes","1024"
"100","100","539.1","539.1","black","legacy","legacy","legacy","0","incongruent","uniform","1","undefined","1","s","0","0","0","0","9","9","0","0","0","9","9","9","0","9","9","9","09/25/21 23:22:46","1500","The main experiment item","yes","FlankerTask.osexp","C:\Users\Brian\Desktop\College - Graduate\Graduate Work\Advanced Quant","no","mono","no","18","no","white","no","yes","768","legacy","9","9","C:/Users/Brian/Desktop/College - Graduate/Graduate Work/Advanced Quant/BK-subject-4.csv","legacy","Kafkaesque Koffka","3.2.8","0","s","NA","h","NA","NA","s","516","NA","3820","NA","NA","516","2","legacy","1024","2","48000","-16","experiment","hhshh","4","even","5783","NA","NA","NA","21452","20372","1962","NA","NA","21449","21555","NA","1954","NA","21555","22072","Flanker Task","10","5391","10","yes","1024"
"100","100","538.727272727","538.727272727","black","legacy","legacy","legacy","0","incongruent","uniform","1","undefined","1","h","0","0","0","0","10","10","0","0","0","10","10","10","0","10","10","10","09/25/21 23:22:46","1500","The main experiment item","yes","FlankerTask.osexp","C:\Users\Brian\Desktop\College - Graduate\Graduate Work\Advanced Quant","no","mono","no","18","no","white","no","yes","768","legacy","10","10","C:/Users/Brian/Desktop/College - Graduate/Graduate Work/Advanced Quant/BK-subject-4.csv","legacy","Kafkaesque Koffka","3.2.8","0","h","NA","h","NA","NA","h","535","NA","3820","NA","NA","535","2","legacy","1024","2","48000","-16","experiment","sshss","4","even","5783","NA","NA","NA","23157","22082","1962","NA","NA","23155","23260","NA","1954","NA","23260","23796","Flanker Task","11","5926","11","yes","1024"
"100","100","541.833333333","541.833333333","black","legacy","legacy","legacy","0","incongruent","uniform","1","undefined","1","h","0","0","0","0","11","11","0","0","0","11","11","11","0","11","11","11","09/25/21 23:22:46","1500","The main experiment item","yes","FlankerTask.osexp","C:\Users\Brian\Desktop\College - Graduate\Graduate Work\Advanced Quant","no","mono","no","18","no","white","no","yes","768","legacy","11","11","C:/Users/Brian/Desktop/College - Graduate/Graduate Work/Advanced Quant/BK-subject-4.csv","legacy","Kafkaesque Koffka","3.2.8","0","h","NA","h","NA","NA","h","576","NA","3820","NA","NA","576","2","legacy","1024","2","48000","-16","experiment","sshss","4","even","5783","NA","NA","NA","24880","23805","1962","NA","NA","24878","24983","NA","1954","NA","24983","25560","Flanker Task","12","6502","12","yes","1024"
"100","100","535.615384615","535.615384615","black","legacy","legacy","legacy","0","congruent","uniform","1","undefined","1","s","0","0","0","0","12","12","0","0","0","12","12","12","0","12","12","12","09/25/21 23:22:46","1500","The main experiment item","yes","FlankerTask.osexp","C:\Users\Brian\Desktop\College - Graduate\Graduate Work\Advanced Quant","no","mono","no","18","no","white","no","yes","768","legacy","12","12","C:/Users/Brian/Desktop/College - Graduate/Graduate Work/Advanced Quant/BK-subject-4.csv","legacy","Kafkaesque Koffka","3.2.8","0","s","NA","h","NA","NA","s","461","NA","3820","NA","NA","461","2","legacy","1024","2","48000","-16","experiment","sssss","4","even","5783","NA","NA","NA","26645","25569","1962","NA","NA","26643","26748","NA","1954","NA","26748","27209","Flanker Task","13","6963","13","yes","1024"
"100","100","534.5","534.5","black","legacy","legacy","legacy","0","congruent","uniform","1","undefined","1","h","0","0","0","0","13","13","0","0","0","13","13","13","0","13","13","13","09/25/21 23:22:46","1500","The main experiment item","yes","FlankerTask.osexp","C:\Users\Brian\Desktop\College - Graduate\Graduate Work\Advanced Quant","no","mono","no","18","no","white","no","yes","768","legacy","13","13","C:/Users/Brian/Desktop/College - Graduate/Graduate Work/Advanced Quant/BK-subject-4.csv","legacy","Kafkaesque Koffka","3.2.8","0","h","NA","h","NA","NA","h","520","NA","3820","NA","NA","520","2","legacy","1024","2","48000","-16","experiment","hhhhh","4","even","5783","NA","NA","NA","28290","27219","1962","NA","NA","28288","28393","NA","1954","NA","28393","28913","Flanker Task","14","7483","14","yes","1024"
"100","100","535.2","535.2","black","legacy","legacy","legacy","0","congruent","uniform","1","undefined","1","h","0","0","0","0","14","14","0","0","0","14","14","14","0","14","14","14","09/25/21 23:22:46","1500","The main experiment item","yes","FlankerTask.osexp","C:\Users\Brian\Desktop\College - Graduate\Graduate Work\Advanced Quant","no","mono","no","18","no","white","no","yes","768","legacy","14","14","C:/Users/Brian/Desktop/College - Graduate/Graduate Work/Advanced Quant/BK-subject-4.csv","legacy","Kafkaesque Koffka","3.2.8","0","h","NA","h","NA","NA","h","545","NA","3820","NA","NA","545","2","legacy","1024","2","48000","-16","experiment","hhhhh","4","even","5783","NA","NA","NA","29994","28918","1962","NA","NA","29992","30097","NA","1954","NA","30097","30642","Flanker Task","15","8028","15","yes","1024"
"100","100","526.4375","526.4375","black","legacy","legacy","legacy","0","incongruent","uniform","1","undefined","1","s","0","0","0","0","15","15","0","0","0","15","15","15","0","15","15","15","09/25/21 23:22:46","1500","The main experiment item","yes","FlankerTask.osexp","C:\Users\Brian\Desktop\College - Graduate\Graduate Work\Advanced Quant","no","mono","no","18","no","white","no","yes","768","legacy","15","15","C:/Users/Brian/Desktop/College - Graduate/Graduate Work/Advanced Quant/BK-subject-4.csv","legacy","Kafkaesque Koffka","3.2.8","0","s","NA","h","NA","NA","s","395","NA","3820","NA","NA","395","2","legacy","1024","2","48000","-16","experiment","hhshh","4","even","5783","NA","NA","NA","31723","30651","1962","NA","NA","31721","31826","NA","1954","NA","31826","32222","Flanker Task","16","8423","16","yes","1024"
"100","100","526.352941176","526.352941176","black","legacy","legacy","legacy","0","incongruent","uniform","1","undefined","1","h","0","0","0","0","16","16","0","0","0","16","16","16","0","16","16","16","09/25/21 23:22:46","1500","The main experiment item","yes","FlankerTask.osexp","C:\Users\Brian\Desktop\College - Graduate\Graduate Work\Advanced Quant","no","mono","no","18","no","white","no","yes","768","legacy","16","16","C:/Users/Brian/Desktop/College - Graduate/Graduate Work/Advanced Quant/BK-subject-4.csv","legacy","Kafkaesque Koffka","3.2.8","0","h","NA","h","NA","NA","h","525","NA","3820","NA","NA","525","2","legacy","1024","2","48000","-16","experiment","sshss","4","even","5783","NA","NA","NA","33309","32231","1962","NA","NA","33307","33410","NA","1954","NA","33410","33936","Flanker Task","17","8948","17","yes","1024"
"100","100","530.333333333","530.333333333","black","legacy","legacy","legacy","0","congruent","uniform","1","undefined","1","h","0","0","0","0","17","17","0","0","0","17","17","17","0","17","17","17","09/25/21 23:22:46","1500","The main experiment item","yes","FlankerTask.osexp","C:\Users\Brian\Desktop\College - Graduate\Graduate Work\Advanced Quant","no","mono","no","18","no","white","no","yes","768","legacy","17","17","C:/Users/Brian/Desktop/College - Graduate/Graduate Work/Advanced Quant/BK-subject-4.csv","legacy","Kafkaesque Koffka","3.2.8","0","h","NA","h","NA","NA","h","598","NA","3820","NA","NA","598","2","legacy","1024","2","48000","-16","experiment","hhhhh","4","even","5783","NA","NA","NA","35021","33945","1962","NA","NA","35019","35122","NA","1954","NA","35122","35720","Flanker Task","18","9546","18","yes","1024"
"100","100","526.578947368","526.578947368","black","legacy","legacy","legacy","0","congruent","uniform","1","undefined","1","h","0","0","0","0","18","18","0","0","0","18","18","18","0","18","18","18","09/25/21 23:22:46","1500","The main experiment item","yes","FlankerTask.osexp","C:\Users\Brian\Desktop\College - Graduate\Graduate Work\Advanced Quant","no","mono","no","18","no","white","no","yes","768","legacy","18","18","C:/Users/Brian/Desktop/College - Graduate/Graduate Work/Advanced Quant/BK-subject-4.csv","legacy","Kafkaesque Koffka","3.2.8","0","h","NA","h","NA","NA","h","459","NA","3820","NA","NA","459","2","legacy","1024","2","48000","-16","experiment","hhhhh","4","even","5783","NA","NA","NA","36807","35729","1962","NA","NA","36805","36910","NA","1954","NA","36910","37369","Flanker Task","19","10005","19","yes","1024"
"100","100","521.45","521.45","black","legacy","legacy","legacy","0","congruent","uniform","1","undefined","1","s","0","0","0","0","19","19","0","0","0","19","19","19","0","19","19","19","09/25/21 23:22:46","1500","The main experiment item","yes","FlankerTask.osexp","C:\Users\Brian\Desktop\College - Graduate\Graduate Work\Advanced Quant","no","mono","no","18","no","white","no","yes","768","legacy","19","19","C:/Users/Brian/Desktop/College - Graduate/Graduate Work/Advanced Quant/BK-subject-4.csv","legacy","Kafkaesque Koffka","3.2.8","0","s","NA","h","NA","NA","s","424","NA","3820","NA","NA","424","2","legacy","1024","2","48000","-16","experiment","sssss","4","even","5783","NA","NA","NA","38461","37379","1962","NA","NA","38459","38564","NA","1954","NA","38564","38989","Flanker Task","20","10429","20","yes","1024"
"100","100","516.857142857","516.857142857","black","legacy","legacy","legacy","0","congruent","uniform","1","undefined","1","s","0","0","0","0","20","20","0","0","0","20","20","20","0","20","20","20","09/25/21 23:22:46","1500","The main experiment item","yes","FlankerTask.osexp","C:\Users\Brian\Desktop\College - Graduate\Graduate Work\Advanced Quant","no","mono","no","18","no","white","no","yes","768","legacy","20","20","C:/Users/Brian/Desktop/College - Graduate/Graduate Work/Advanced Quant/BK-subject-4.csv","legacy","Kafkaesque Koffka","3.2.8","0","s","NA","h","NA","NA","s","425","NA","3820","NA","NA","425","2","legacy","1024","2","48000","-16","experiment","sssss","4","even","5783","NA","NA","NA","40064","38993","1962","NA","NA","40062","40167","NA","1954","NA","40167","40593","Flanker Task","21","10854","21","yes","1024"
"95.4545454545","95.4545454545","511.636363636","511.636363636","black","legacy","legacy","legacy","0","incongruent","uniform","0","undefined","0","h","0","0","0","0","21","21","0","0","0","21","21","21","0","21","21","21","09/25/21 23:22:46","1500","The main experiment item","yes","FlankerTask.osexp","C:\Users\Brian\Desktop\College - Graduate\Graduate Work\Advanced Quant","no","mono","no","18","no","white","no","yes","768","legacy","21","21","C:/Users/Brian/Desktop/College - Graduate/Graduate Work/Advanced Quant/BK-subject-4.csv","legacy","Kafkaesque Koffka","3.2.8","0","s","NA","h","NA","NA","s","402","NA","3820","NA","NA","402","2","legacy","1024","2","48000","-16","experiment","sshss","4","even","5783","NA","NA","NA","41677","40601","1962","NA","NA","41675","41780","NA","1954","NA","41780","42183","Flanker Task","21","11256","22","yes","1024"
"95.652173913","95.652173913","510.47826087","510.47826087","black","legacy","legacy","legacy","0","incongruent","uniform","1","undefined","1","h","0","0","0","0","22","22","0","0","0","22","22","22","0","22","22","22","09/25/21 23:22:46","1500","The main experiment item","yes","FlankerTask.osexp","C:\Users\Brian\Desktop\College - Graduate\Graduate Work\Advanced Quant","no","mono","no","18","no","white","no","yes","768","legacy","22","22","C:/Users/Brian/Desktop/College - Graduate/Graduate Work/Advanced Quant/BK-subject-4.csv","legacy","Kafkaesque Koffka","3.2.8","0","h","NA","h","NA","NA","h","485","NA","3820","NA","NA","485","2","legacy","1024","2","48000","-16","experiment","sshss","4","even","5783","NA","NA","NA","43766","42695","1962","NA","NA","43763","43869","42192","1954","NA","43869","44355","Flanker Task","22","11741","23","yes","1024"
"95.8333333333","95.8333333333","508.875","508.875","black","legacy","legacy","legacy","0","congruent","uniform","1","undefined","1","s","0","0","0","0","23","23","0","0","0","23","23","23","0","23","23","23","09/25/21 23:22:46","1500","The main experiment item","yes","FlankerTask.osexp","C:\Users\Brian\Desktop\College - Graduate\Graduate Work\Advanced Quant","no","mono","no","18","no","white","no","yes","768","legacy","23","23","C:/Users/Brian/Desktop/College - Graduate/Graduate Work/Advanced Quant/BK-subject-4.csv","legacy","Kafkaesque Koffka","3.2.8","0","s","NA","h","NA","NA","s","472","NA","3820","NA","NA","472","2","legacy","1024","2","48000","-16","experiment","sssss","4","even","5783","NA","NA","NA","45435","44363","1962","NA","NA","45433","45538","42192","1954","NA","45538","46010","Flanker Task","23","12213","24","yes","1024"
"96","96","515.68","515.68","black","legacy","legacy","legacy","0","congruent","uniform","1","undefined","1","s","0","0","0","0","24","24","0","0","0","24","24","24","0","24","24","24","09/25/21 23:22:46","1500","The main experiment item","yes","FlankerTask.osexp","C:\Users\Brian\Desktop\College - Graduate\Graduate Work\Advanced Quant","no","mono","no","18","no","white","no","yes","768","legacy","24","24","C:/Users/Brian/Desktop/College - Graduate/Graduate Work/Advanced Quant/BK-subject-4.csv","legacy","Kafkaesque Koffka","3.2.8","0","s","NA","h","NA","NA","s","679","NA","3820","NA","NA","679","2","legacy","1024","2","48000","-16","experiment","sssss","4","even","5783","NA","NA","NA","47085","46015","1962","NA","NA","47083","47188","42192","1954","NA","47188","47868","Flanker Task","24","12892","25","yes","1024"
"96.1538461538","96.1538461538","515.038461538","515.038461538","black","legacy","legacy","legacy","0","incongruent","uniform","1","undefined","1","h","0","0","0","0","25","25","0","0","0","25","25","25","0","25","25","25","09/25/21 23:22:46","1500","The main experiment item","yes","FlankerTask.osexp","C:\Users\Brian\Desktop\College - Graduate\Graduate Work\Advanced Quant","no","mono","no","18","no","white","no","yes","768","legacy","25","25","C:/Users/Brian/Desktop/College - Graduate/Graduate Work/Advanced Quant/BK-subject-4.csv","legacy","Kafkaesque Koffka","3.2.8","0","h","NA","h","NA","NA","h","499","NA","3820","NA","NA","499","2","legacy","1024","2","48000","-16","experiment","sshss","4","even","5783","NA","NA","NA","48944","47873","1962","NA","NA","48941","49047","42192","1954","NA","49047","49547","Flanker Task","25","13391","26","yes","1024"
"96.2962962963","96.2962962963","511.259259259","511.259259259","black","legacy","legacy","legacy","0","congruent","uniform","1","undefined","1","s","0","0","0","0","26","26","0","0","0","26","26","26","0","26","26","26","09/25/21 23:22:46","1500","The main experiment item","yes","FlankerTask.osexp","C:\Users\Brian\Desktop\College - Graduate\Graduate Work\Advanced Quant","no","mono","no","18","no","white","no","yes","768","legacy","26","26","C:/Users/Brian/Desktop/College - Graduate/Graduate Work/Advanced Quant/BK-subject-4.csv","legacy","Kafkaesque Koffka","3.2.8","0","s","NA","h","NA","NA","s","413","NA","3820","NA","NA","413","2","legacy","1024","2","48000","-16","experiment","sssss","4","even","5783","NA","NA","NA","50629","49555","1962","NA","NA","50627","50732","42192","1954","NA","50732","51146","Flanker Task","26","13804","27","yes","1024"
"96.4285714286","96.4285714286","510.321428571","510.321428571","black","legacy","legacy","legacy","0","incongruent","uniform","1","undefined","1","h","0","0","0","0","27","27","0","0","0","27","27","27","0","27","27","27","09/25/21 23:22:46","1500","The main experiment item","yes","FlankerTask.osexp","C:\Users\Brian\Desktop\College - Graduate\Graduate Work\Advanced Quant","no","mono","no","18","no","white","no","yes","768","legacy","27","27","C:/Users/Brian/Desktop/College - Graduate/Graduate Work/Advanced Quant/BK-subject-4.csv","legacy","Kafkaesque Koffka","3.2.8","0","h","NA","h","NA","NA","h","485","NA","3820","NA","NA","485","2","legacy","1024","2","48000","-16","experiment","sshss","4","even","5783","NA","NA","NA","52227","51155","1962","NA","NA","52225","52330","42192","1954","NA","52330","52816","Flanker Task","27","14289","28","yes","1024"
"96.5517241379","96.5517241379","508.551724138","508.551724138","black","legacy","legacy","legacy","0","congruent","uniform","1","undefined","1","s","0","0","0","0","28","28","0","0","0","28","28","28","0","28","28","28","09/25/21 23:22:46","1500","The main experiment item","yes","FlankerTask.osexp","C:\Users\Brian\Desktop\College - Graduate\Graduate Work\Advanced Quant","no","mono","no","18","no","white","no","yes","768","legacy","28","28","C:/Users/Brian/Desktop/College - Graduate/Graduate Work/Advanced Quant/BK-subject-4.csv","legacy","Kafkaesque Koffka","3.2.8","0","s","NA","h","NA","NA","s","459","NA","3820","NA","NA","459","2","legacy","1024","2","48000","-16","experiment","sssss","4","even","5783","NA","NA","NA","53897","52824","1962","NA","NA","53895","54000","42192","1954","NA","54000","54460","Flanker Task","28","14748","29","yes","1024"
"96.6666666667","96.6666666667","505.166666667","505.166666667","black","legacy","legacy","legacy","0","congruent","uniform","1","undefined","1","s","0","0","0","0","29","29","0","0","0","29","29","29","0","29","29","29","09/25/21 23:22:46","1500","The main experiment item","yes","FlankerTask.osexp","C:\Users\Brian\Desktop\College - Graduate\Graduate Work\Advanced Quant","no","mono","no","18","no","white","no","yes","768","legacy","29","29","C:/Users/Brian/Desktop/College - Graduate/Graduate Work/Advanced Quant/BK-subject-4.csv","legacy","Kafkaesque Koffka","3.2.8","0","s","NA","h","NA","NA","s","407","NA","3820","NA","NA","407","2","legacy","1024","2","48000","-16","experiment","sssss","4","even","5783","NA","NA","NA","55544","54469","1962","NA","NA","55542","55647","42192","1954","NA","55647","56055","Flanker Task","29","15155","30","yes","1024"
"96.7741935484","96.7741935484","505.483870968","505.483870968","black","legacy","legacy","legacy","0","congruent","uniform","1","undefined","1","h","0","0","0","0","30","30","0","0","0","30","30","30","0","30","30","30","09/25/21 23:22:46","1500","The main experiment item","yes","FlankerTask.osexp","C:\Users\Brian\Desktop\College - Graduate\Graduate Work\Advanced Quant","no","mono","no","18","no","white","no","yes","768","legacy","30","30","C:/Users/Brian/Desktop/College - Graduate/Graduate Work/Advanced Quant/BK-subject-4.csv","legacy","Kafkaesque Koffka","3.2.8","0","h","NA","h","NA","NA","h","515","NA","3820","NA","NA","515","2","legacy","1024","2","48000","-16","experiment","hhhhh","4","even","5783","NA","NA","NA","57135","56064","1962","NA","NA","57133","57238","42192","1954","NA","57238","57753","Flanker Task","30","15670","31","yes","1024"
"93.75","93.75","506.28125","506.28125","black","legacy","legacy","legacy","0","incongruent","uniform","0","undefined","0","s","0","0","0","0","31","31","0","0","0","31","31","31","0","31","31","31","09/25/21 23:22:46","1500","The main experiment item","yes","FlankerTask.osexp","C:\Users\Brian\Desktop\College - Graduate\Graduate Work\Advanced Quant","no","mono","no","18","no","white","no","yes","768","legacy","31","31","C:/Users/Brian/Desktop/College - Graduate/Graduate Work/Advanced Quant/BK-subject-4.csv","legacy","Kafkaesque Koffka","3.2.8","0","h","NA","h","NA","NA","h","531","NA","3820","NA","NA","531","2","legacy","1024","2","48000","-16","experiment","hhshh","4","even","5783","NA","NA","NA","58839","57761","1962","NA","NA","58837","58941","42192","1954","NA","58941","59473","Flanker Task","30","16201","32","yes","1024"
"93.9393939394","93.9393939394","503.939393939","503.939393939","black","legacy","legacy","legacy","0","incongruent","uniform","1","undefined","1","s","0","0","0","0","32","32","0","0","0","32","32","32","0","32","32","32","09/25/21 23:22:46","1500","The main experiment item","yes","FlankerTask.osexp","C:\Users\Brian\Desktop\College - Graduate\Graduate Work\Advanced Quant","no","mono","no","18","no","white","no","yes","768","legacy","32","32","C:/Users/Brian/Desktop/College - Graduate/Graduate Work/Advanced Quant/BK-subject-4.csv","legacy","Kafkaesque Koffka","3.2.8","0","s","NA","h","NA","NA","s","429","NA","3820","NA","NA","429","2","legacy","1024","2","48000","-16","experiment","hhshh","4","even","5783","NA","NA","NA","61057","59985","1962","NA","NA","61055","61160","59482","1954","NA","61160","61590","Flanker Task","31","16630","33","yes","1024"
"94.1176470588","94.1176470588","502.470588235","502.470588235","black","legacy","legacy","legacy","0","congruent","uniform","1","undefined","1","s","0","0","0","0","33","33","0","0","0","33","33","33","0","33","33","33","09/25/21 23:22:46","1500","The main experiment item","yes","FlankerTask.osexp","C:\Users\Brian\Desktop\College - Graduate\Graduate Work\Advanced Quant","no","mono","no","18","no","white","no","yes","768","legacy","33","33","C:/Users/Brian/Desktop/College - Graduate/Graduate Work/Advanced Quant/BK-subject-4.csv","legacy","Kafkaesque Koffka","3.2.8","0","s","NA","h","NA","NA","s","454","NA","3820","NA","NA","454","2","legacy","1024","2","48000","-16","experiment","sssss","4","even","5783","NA","NA","NA","62676","61599","1962","NA","NA","62673","62779","59482","1954","NA","62779","63234","Flanker Task","32","17084","34","yes","1024"
"94.2857142857","94.2857142857","499.314285714","499.314285714","black","legacy","legacy","legacy","0","incongruent","uniform","1","undefined","1","s","0","0","0","0","34","34","0","0","0","34","34","34","0","34","34","34","09/25/21 23:22:46","1500","The main experiment item","yes","FlankerTask.osexp","C:\Users\Brian\Desktop\College - Graduate\Graduate Work\Advanced Quant","no","mono","no","18","no","white","no","yes","768","legacy","34","34","C:/Users/Brian/Desktop/College - Graduate/Graduate Work/Advanced Quant/BK-subject-4.csv","legacy","Kafkaesque Koffka","3.2.8","0","s","NA","h","NA","NA","s","392","NA","3820","NA","NA","392","2","legacy","1024","2","48000","-16","experiment","hhshh","4","even","5783","NA","NA","NA","64314","63238","1962","NA","NA","64312","64416","59482","1954","NA","64416","64809","Flanker Task","33","17476","35","yes","1024"
"94.4444444444","94.4444444444","497.083333333","497.083333333","black","legacy","legacy","legacy","0","congruent","uniform","1","undefined","1","h","0","0","0","0","35","35","0","0","0","35","35","35","0","35","35","35","09/25/21 23:22:46","1500","The main experiment item","yes","FlankerTask.osexp","C:\Users\Brian\Desktop\College - Graduate\Graduate Work\Advanced Quant","no","mono","no","18","no","white","no","yes","768","legacy","35","35","C:/Users/Brian/Desktop/College - Graduate/Graduate Work/Advanced Quant/BK-subject-4.csv","legacy","Kafkaesque Koffka","3.2.8","0","h","NA","h","NA","NA","h","419","NA","3820","NA","NA","419","2","legacy","1024","2","48000","-16","experiment","hhhhh","4","even","5783","NA","NA","NA","65895","64818","1962","NA","NA","65893","65998","59482","1954","NA","65998","66418","Flanker Task","34","17895","36","yes","1024"
"94.5945945946","94.5945945946","495.324324324","495.324324324","black","legacy","legacy","legacy","0","incongruent","uniform","1","undefined","1","h","0","0","0","0","36","36","0","0","0","36","36","36","0","36","36","36","09/25/21 23:22:46","1500","The main experiment item","yes","FlankerTask.osexp","C:\Users\Brian\Desktop\College - Graduate\Graduate Work\Advanced Quant","no","mono","no","18","no","white","no","yes","768","legacy","36","36","C:/Users/Brian/Desktop/College - Graduate/Graduate Work/Advanced Quant/BK-subject-4.csv","legacy","Kafkaesque Koffka","3.2.8","0","h","NA","h","NA","NA","h","432","NA","3820","NA","NA","432","2","legacy","1024","2","48000","-16","experiment","sshss","4","even","5783","NA","NA","NA","67502","66427","1962","NA","NA","67500","67605","59482","1954","NA","67605","68038","Flanker Task","35","18327","37","yes","1024"
"94.7368421053","94.7368421053","494.289473684","494.289473684","black","legacy","legacy","legacy","0","incongruent","uniform","1","undefined","1","s","0","0","0","0","37","37","0","0","0","37","37","37","0","37","37","37","09/25/21 23:22:46","1500","The main experiment item","yes","FlankerTask.osexp","C:\Users\Brian\Desktop\College - Graduate\Graduate Work\Advanced Quant","no","mono","no","18","no","white","no","yes","768","legacy","37","37","C:/Users/Brian/Desktop/College - Graduate/Graduate Work/Advanced Quant/BK-subject-4.csv","legacy","Kafkaesque Koffka","3.2.8","0","s","NA","h","NA","NA","s","456","NA","3820","NA","NA","456","2","legacy","1024","2","48000","-16","experiment","hhshh","4","even","5783","NA","NA","NA","69117","68047","1962","NA","NA","69115","69220","59482","1954","NA","69220","69677","Flanker Task","36","18783","38","yes","1024"
"94.8717948718","94.8717948718","493.051282051","493.051282051","black","legacy","legacy","legacy","0","congruent","uniform","1","undefined","1","s","0","0","0","0","38","38","0","0","0","38","38","38","0","38","38","38","09/25/21 23:22:46","1500","The main experiment item","yes","FlankerTask.osexp","C:\Users\Brian\Desktop\College - Graduate\Graduate Work\Advanced Quant","no","mono","no","18","no","white","no","yes","768","legacy","38","38","C:/Users/Brian/Desktop/College - Graduate/Graduate Work/Advanced Quant/BK-subject-4.csv","legacy","Kafkaesque Koffka","3.2.8","0","s","NA","h","NA","NA","s","446","NA","3820","NA","NA","446","2","legacy","1024","2","48000","-16","experiment","sssss","4","even","5783","NA","NA","NA","70762","69686","1962","NA","NA","70760","70865","59482","1954","NA","70865","71312","Flanker Task","37","19229","39","yes","1024"
"95","95","493.925","493.925","black","legacy","legacy","legacy","0","incongruent","uniform","1","undefined","1","h","0","0","0","0","39","39","0","0","0","39","39","39","0","39","39","39","09/25/21 23:22:46","1500","The main experiment item","yes","FlankerTask.osexp","C:\Users\Brian\Desktop\College - Graduate\Graduate Work\Advanced Quant","no","mono","no","18","no","white","no","yes","768","legacy","39","39","C:/Users/Brian/Desktop/College - Graduate/Graduate Work/Advanced Quant/BK-subject-4.csv","legacy","Kafkaesque Koffka","3.2.8","0","h","NA","h","NA","NA","h","528","NA","3820","NA","NA","528","2","legacy","1024","2","48000","-16","experiment","sshss","4","even","5783","NA","NA","NA","72399","71320","1962","NA","NA","72397","72501","59482","1954","NA","72501","73030","Flanker Task","38","19757","40","yes","1024"
"95.1219512195","95.1219512195","493.682926829","493.682926829","black","legacy","legacy","legacy","0","congruent","uniform","1","undefined","1","h","0","0","0","0","40","40","0","0","0","40","40","40","0","40","40","40","09/25/21 23:22:46","1500","The main experiment item","yes","FlankerTask.osexp","C:\Users\Brian\Desktop\College - Graduate\Graduate Work\Advanced Quant","no","mono","no","18","no","white","no","yes","768","legacy","40","40","C:/Users/Brian/Desktop/College - Graduate/Graduate Work/Advanced Quant/BK-subject-4.csv","legacy","Kafkaesque Koffka","3.2.8","0","h","NA","h","NA","NA","h","484","NA","3820","NA","NA","484","2","legacy","1024","2","48000","-16","experiment","hhhhh","4","even","5783","NA","NA","NA","74111","73039","1962","NA","NA","74108","74214","59482","1954","NA","74214","74700","Flanker Task","39","20241","41","yes","1024"
"95.2380952381","95.2380952381","491.119047619","491.119047619","black","legacy","legacy","legacy","0","congruent","uniform","1","undefined","1","s","0","0","0","0","41","41","0","0","0","41","41","41","0","41","41","41","09/25/21 23:22:46","1500","The main experiment item","yes","FlankerTask.osexp","C:\Users\Brian\Desktop\College - Graduate\Graduate Work\Advanced Quant","no","mono","no","18","no","white","no","yes","768","legacy","41","41","C:/Users/Brian/Desktop/College - Graduate/Graduate Work/Advanced Quant/BK-subject-4.csv","legacy","Kafkaesque Koffka","3.2.8","0","s","NA","h","NA","NA","s","386","NA","3820","NA","NA","386","2","legacy","1024","2","48000","-16","experiment","sssss","4","even","5783","NA","NA","NA","75778","74708","1962","NA","NA","75776","75881","59482","1954","NA","75881","76268","Flanker Task","40","20627","42","yes","1024"
"93.023255814","93.023255814","491.186046512","491.186046512","black","legacy","legacy","legacy","0","congruent","uniform","0","undefined","0","h","0","0","0","0","42","42","0","0","0","42","42","42","0","42","42","42","09/25/21 23:22:46","1500","The main experiment item","yes","FlankerTask.osexp","C:\Users\Brian\Desktop\College - Graduate\Graduate Work\Advanced Quant","no","mono","no","18","no","white","no","yes","768","legacy","42","42","C:/Users/Brian/Desktop/College - Graduate/Graduate Work/Advanced Quant/BK-subject-4.csv","legacy","Kafkaesque Koffka","3.2.8","0","s","NA","h","NA","NA","s","494","NA","3820","NA","NA","494","2","legacy","1024","2","48000","-16","experiment","hhhhh","4","even","5783","NA","NA","NA","77351","76278","1962","NA","NA","77349","77454","59482","1954","NA","77454","77949","Flanker Task","40","21121","43","yes","1024"
"93.1818181818","93.1818181818","492.25","492.25","black","legacy","legacy","legacy","0","congruent","uniform","1","undefined","1","h","0","0","0","0","43","43","0","0","0","43","43","43","0","43","43","43","09/25/21 23:22:46","1500","The main experiment item","yes","FlankerTask.osexp","C:\Users\Brian\Desktop\College - Graduate\Graduate Work\Advanced Quant","no","mono","no","18","no","white","no","yes","768","legacy","43","43","C:/Users/Brian/Desktop/College - Graduate/Graduate Work/Advanced Quant/BK-subject-4.csv","legacy","Kafkaesque Koffka","3.2.8","0","h","NA","h","NA","NA","h","538","NA","3820","NA","NA","538","2","legacy","1024","2","48000","-16","experiment","hhhhh","4","even","5783","NA","NA","NA","79527","78456","1962","NA","NA","79524","79631","77954","1954","NA","79631","80170","Flanker Task","41","21659","44","yes","1024"
"93.3333333333","93.3333333333","491.177777778","491.177777778","black","legacy","legacy","legacy","0","incongruent","uniform","1","undefined","1","h","0","0","0","0","44","44","0","0","0","44","44","44","0","44","44","44","09/25/21 23:22:46","1500","The main experiment item","yes","FlankerTask.osexp","C:\Users\Brian\Desktop\College - Graduate\Graduate Work\Advanced Quant","no","mono","no","18","no","white","no","yes","768","legacy","44","44","C:/Users/Brian/Desktop/College - Graduate/Graduate Work/Advanced Quant/BK-subject-4.csv","legacy","Kafkaesque Koffka","3.2.8","0","h","NA","h","NA","NA","h","444","NA","3820","NA","NA","444","2","legacy","1024","2","48000","-16","experiment","sshss","4","even","5783","NA","NA","NA","81256","80178","1962","NA","NA","81254","81359","77954","1954","NA","81359","81804","Flanker Task","42","22103","45","yes","1024"
"93.4782608696","93.4782608696","489.760869565","489.760869565","black","legacy","legacy","legacy","0","congruent","uniform","1","undefined","1","h","0","0","0","0","45","45","0","0","0","45","45","45","0","45","45","45","09/25/21 23:22:46","1500","The main experiment item","yes","FlankerTask.osexp","C:\Users\Brian\Desktop\College - Graduate\Graduate Work\Advanced Quant","no","mono","no","18","no","white","no","yes","768","legacy","45","45","C:/Users/Brian/Desktop/College - Graduate/Graduate Work/Advanced Quant/BK-subject-4.csv","legacy","Kafkaesque Koffka","3.2.8","0","h","NA","h","NA","NA","h","426","NA","3820","NA","NA","426","2","legacy","1024","2","48000","-16","experiment","hhhhh","4","even","5783","NA","NA","NA","82888","81809","1962","NA","NA","82886","82991","77954","1954","NA","82991","83418","Flanker Task","43","22529","46","yes","1024"
"93.6170212766","93.6170212766","488.127659574","488.127659574","black","legacy","legacy","legacy","0","incongruent","uniform","1","undefined","1","s","0","0","0","0","46","46","0","0","0","46","46","46","0","46","46","46","09/25/21 23:22:46","1500","The main experiment item","yes","FlankerTask.osexp","C:\Users\Brian\Desktop\College - Graduate\Graduate Work\Advanced Quant","no","mono","no","18","no","white","no","yes","768","legacy","46","46","C:/Users/Brian/Desktop/College - Graduate/Graduate Work/Advanced Quant/BK-subject-4.csv","legacy","Kafkaesque Koffka","3.2.8","0","s","NA","h","NA","NA","s","413","NA","3820","NA","NA","413","2","legacy","1024","2","48000","-16","experiment","hhshh","4","even","5783","NA","NA","NA","84495","83423","1962","NA","NA","84493","84598","77954","1954","NA","84598","85012","Flanker Task","44","22942","47","yes","1024"
"93.75","93.75","486.125","486.125","black","legacy","legacy","legacy","0","congruent","uniform","1","undefined","1","s","0","0","0","0","47","47","0","0","0","47","47","47","0","47","47","47","09/25/21 23:22:46","1500","The main experiment item","yes","FlankerTask.osexp","C:\Users\Brian\Desktop\College - Graduate\Graduate Work\Advanced Quant","no","mono","no","18","no","white","no","yes","768","legacy","47","47","C:/Users/Brian/Desktop/College - Graduate/Graduate Work/Advanced Quant/BK-subject-4.csv","legacy","Kafkaesque Koffka","3.2.8","0","s","NA","h","NA","NA","s","392","NA","3820","NA","NA","392","2","legacy","1024","2","48000","-16","experiment","sssss","4","even","5783","NA","NA","NA","86096","85021","1962","NA","NA","86093","86199","77954","1954","NA","86199","86592","Flanker Task","45","23334","48","yes","1024"
"91.8367346939","91.8367346939","485.020408163","485.020408163","black","legacy","legacy","legacy","0","incongruent","uniform","0","undefined","0","s","0","0","0","0","48","48","0","0","0","48","48","48","0","48","48","48","09/25/21 23:22:46","1500","The main experiment item","yes","FlankerTask.osexp","C:\Users\Brian\Desktop\College - Graduate\Graduate Work\Advanced Quant","no","mono","no","18","no","white","no","yes","768","legacy","48","48","C:/Users/Brian/Desktop/College - Graduate/Graduate Work/Advanced Quant/BK-subject-4.csv","legacy","Kafkaesque Koffka","3.2.8","0","h","NA","h","NA","NA","h","432","NA","3820","NA","NA","432","2","legacy","1024","2","48000","-16","experiment","hhshh","4","even","5783","NA","NA","NA","87675","86601","1962","NA","NA","87673","87778","77954","1954","NA","87778","88212","Flanker Task","45","23766","49","yes","1024"
"92","92","483.58","483.58","black","legacy","legacy","legacy","0","congruent","uniform","1","undefined","1","h","0","0","0","0","49","49","0","0","0","49","49","49","0","49","49","49","09/25/21 23:22:46","1500","The main experiment item","yes","FlankerTask.osexp","C:\Users\Brian\Desktop\College - Graduate\Graduate Work\Advanced Quant","no","mono","no","18","no","white","no","yes","768","legacy","49","49","C:/Users/Brian/Desktop/College - Graduate/Graduate Work/Advanced Quant/BK-subject-4.csv","legacy","Kafkaesque Koffka","3.2.8","0","h","NA","h","NA","NA","h","413","NA","3820","NA","NA","413","2","legacy","1024","2","48000","-16","experiment","hhhhh","4","even","5783","NA","NA","NA","89797","88724","1962","NA","NA","89795","89900","88221","1954","NA","89900","90314","Flanker Task","46","24179","50","yes","1024"
"90.1960784314","90.1960784314","482.058823529","482.058823529","black","legacy","legacy","legacy","0","incongruent","uniform","0","undefined","0","h","0","0","0","0","50","50","0","0","0","50","50","50","0","50","50","50","09/25/21 23:22:46","1500","The main experiment item","yes","FlankerTask.osexp","C:\Users\Brian\Desktop\College - Graduate\Graduate Work\Advanced Quant","no","mono","no","18","no","white","no","yes","768","legacy","50","50","C:/Users/Brian/Desktop/College - Graduate/Graduate Work/Advanced Quant/BK-subject-4.csv","legacy","Kafkaesque Koffka","3.2.8","0","s","NA","h","NA","NA","s","406","NA","3820","NA","NA","406","2","legacy","1024","2","48000","-16","experiment","sshss","4","even","5783","NA","NA","NA","91394","90322","1962","NA","NA","91392","91497","88221","1954","NA","91497","91904","Flanker Task","46","24585","51","yes","1024"
"90.3846153846","90.3846153846","482.576923077","482.576923077","black","legacy","legacy","legacy","0","incongruent","uniform","1","undefined","1","s","0","0","0","0","51","51","0","0","0","51","51","51","0","51","51","51","09/25/21 23:22:46","1500","The main experiment item","yes","FlankerTask.osexp","C:\Users\Brian\Desktop\College - Graduate\Graduate Work\Advanced Quant","no","mono","no","18","no","white","no","yes","768","legacy","51","51","C:/Users/Brian/Desktop/College - Graduate/Graduate Work/Advanced Quant/BK-subject-4.csv","legacy","Kafkaesque Koffka","3.2.8","0","s","NA","h","NA","NA","s","509","NA","3820","NA","NA","509","2","legacy","1024","2","48000","-16","experiment","hhshh","4","even","5783","NA","NA","NA","93488","92416","1962","NA","NA","93485","93590","91913","1954","NA","93590","94101","Flanker Task","47","25094","52","yes","1024"
"90.5660377358","90.5660377358","482.094339623","482.094339623","black","legacy","legacy","legacy","0","incongruent","uniform","1","undefined","1","s","0","0","0","0","52","52","0","0","0","52","52","52","0","52","52","52","09/25/21 23:22:46","1500","The main experiment item","yes","FlankerTask.osexp","C:\Users\Brian\Desktop\College - Graduate\Graduate Work\Advanced Quant","no","mono","no","18","no","white","no","yes","768","legacy","52","52","C:/Users/Brian/Desktop/College - Graduate/Graduate Work/Advanced Quant/BK-subject-4.csv","legacy","Kafkaesque Koffka","3.2.8","0","s","NA","h","NA","NA","s","457","NA","3820","NA","NA","457","2","legacy","1024","2","48000","-16","experiment","hhshh","4","even","5783","NA","NA","NA","95185","94110","1962","NA","NA","95182","95286","91913","1954","NA","95286","95745","Flanker Task","48","25551","53","yes","1024"
"90.7407407407","90.7407407407","484.907407407","484.907407407","black","legacy","legacy","legacy","0","incongruent","uniform","1","undefined","1","h","0","0","0","0","53","53","0","0","0","53","53","53","0","53","53","53","09/25/21 23:22:46","1500","The main experiment item","yes","FlankerTask.osexp","C:\Users\Brian\Desktop\College - Graduate\Graduate Work\Advanced Quant","no","mono","no","18","no","white","no","yes","768","legacy","53","53","C:/Users/Brian/Desktop/College - Graduate/Graduate Work/Advanced Quant/BK-subject-4.csv","legacy","Kafkaesque Koffka","3.2.8","0","h","NA","h","NA","NA","h","634","NA","3820","NA","NA","634","2","legacy","1024","2","48000","-16","experiment","sshss","4","even","5783","NA","NA","NA","96824","95753","1962","NA","NA","96822","96927","91913","1954","NA","96927","97562","Flanker Task","49","26185","54","yes","1024"
"90.9090909091","90.9090909091","485.290909091","485.290909091","black","legacy","legacy","legacy","0","incongruent","uniform","1","undefined","1","s","0","0","0","0","54","54","0","0","0","54","54","54","0","54","54","54","09/25/21 23:22:46","1500","The main experiment item","yes","FlankerTask.osexp","C:\Users\Brian\Desktop\College - Graduate\Graduate Work\Advanced Quant","no","mono","no","18","no","white","no","yes","768","legacy","54","54","C:/Users/Brian/Desktop/College - Graduate/Graduate Work/Advanced Quant/BK-subject-4.csv","legacy","Kafkaesque Koffka","3.2.8","0","s","NA","h","NA","NA","s","506","NA","3820","NA","NA","506","2","legacy","1024","2","48000","-16","experiment","hhshh","4","even","5783","NA","NA","NA","98651","97571","1962","NA","NA","98648","98754","91913","1954","NA","98754","99262","Flanker Task","50","26691","55","yes","1024"
"91.0714285714","91.0714285714","485.857142857","485.857142857","black","legacy","legacy","legacy","0","incongruent","uniform","1","undefined","1","s","0","0","0","0","55","55","0","0","0","55","55","55","0","55","55","55","09/25/21 23:22:46","1500","The main experiment item","yes","FlankerTask.osexp","C:\Users\Brian\Desktop\College - Graduate\Graduate Work\Advanced Quant","no","mono","no","18","no","white","no","yes","768","legacy","55","55","C:/Users/Brian/Desktop/College - Graduate/Graduate Work/Advanced Quant/BK-subject-4.csv","legacy","Kafkaesque Koffka","3.2.8","0","s","NA","h","NA","NA","s","517","NA","3820","NA","NA","517","2","legacy","1024","2","48000","-16","experiment","hhshh","4","even","5783","NA","NA","NA","100349","99266","1962","NA","NA","100346","100452","91913","1954","NA","100452","100971","Flanker Task","51","27208","56","yes","1024"
"91.2280701754","91.2280701754","487.49122807","487.49122807","black","legacy","legacy","legacy","0","congruent","uniform","1","undefined","1","h","0","0","0","0","56","56","0","0","0","56","56","56","0","56","56","56","09/25/21 23:22:46","1500","The main experiment item","yes","FlankerTask.osexp","C:\Users\Brian\Desktop\College - Graduate\Graduate Work\Advanced Quant","no","mono","no","18","no","white","no","yes","768","legacy","56","56","C:/Users/Brian/Desktop/College - Graduate/Graduate Work/Advanced Quant/BK-subject-4.csv","legacy","Kafkaesque Koffka","3.2.8","0","h","NA","h","NA","NA","h","579","NA","3820","NA","NA","579","2","legacy","1024","2","48000","-16","experiment","hhhhh","4","even","5783","NA","NA","NA","102053","100980","1962","NA","NA","102051","102154","91913","1954","NA","102154","102734","Flanker Task","52","27787","57","yes","1024"
"89.6551724138","89.6551724138","485.379310345","485.379310345","black","legacy","legacy","legacy","0","congruent","uniform","0","undefined","0","h","0","0","0","0","57","57","0","0","0","57","57","57","0","57","57","57","09/25/21 23:22:46","1500","The main experiment item","yes","FlankerTask.osexp","C:\Users\Brian\Desktop\College - Graduate\Graduate Work\Advanced Quant","no","mono","no","18","no","white","no","yes","768","legacy","57","57","C:/Users/Brian/Desktop/College - Graduate/Graduate Work/Advanced Quant/BK-subject-4.csv","legacy","Kafkaesque Koffka","3.2.8","0","s","NA","h","NA","NA","s","365","NA","3820","NA","NA","365","2","legacy","1024","2","48000","-16","experiment","hhhhh","4","even","5783","NA","NA","NA","103813","102743","1962","NA","NA","103811","103917","91913","1954","NA","103917","104283","Flanker Task","52","28152","58","yes","1024"
"89.8305084746","89.8305084746","491.593220339","491.593220339","black","legacy","legacy","legacy","0","incongruent","uniform","1","undefined","1","h","0","0","0","0","58","58","0","0","0","58","58","58","0","58","58","58","09/25/21 23:22:46","1500","The main experiment item","yes","FlankerTask.osexp","C:\Users\Brian\Desktop\College - Graduate\Graduate Work\Advanced Quant","no","mono","no","18","no","white","no","yes","768","legacy","58","58","C:/Users/Brian/Desktop/College - Graduate/Graduate Work/Advanced Quant/BK-subject-4.csv","legacy","Kafkaesque Koffka","3.2.8","0","h","NA","h","NA","NA","h","852","NA","3820","NA","NA","852","2","legacy","1024","2","48000","-16","experiment","sshss","4","even","5783","NA","NA","NA","105869","104795","1962","NA","NA","105867","105972","104292","1954","NA","105972","106825","Flanker Task","53","29004","59","yes","1024"
"90","90","491.75","491.75","black","legacy","legacy","legacy","0","congruent","uniform","1","undefined","1","h","0","0","0","0","59","59","0","0","0","59","59","59","0","59","59","59","09/25/21 23:22:46","1500","The main experiment item","yes","FlankerTask.osexp","C:\Users\Brian\Desktop\College - Graduate\Graduate Work\Advanced Quant","no","mono","no","18","no","white","no","yes","768","legacy","59","59","C:/Users/Brian/Desktop/College - Graduate/Graduate Work/Advanced Quant/BK-subject-4.csv","legacy","Kafkaesque Koffka","3.2.8","0","h","NA","h","NA","NA","h","501","NA","3820","NA","NA","501","2","legacy","1024","2","48000","-16","experiment","hhhhh","4","even","5783","NA","NA","NA","107908","106834","1962","NA","NA","107906","108011","104292","1954","NA","108011","108513","Flanker Task","54","29505","60","yes","1024"
"90.1639344262","90.1639344262","490.967213115","490.967213115","black","legacy","legacy","legacy","0","congruent","uniform","1","undefined","1","s","0","0","0","0","60","60","0","0","0","60","60","60","0","60","60","60","09/25/21 23:22:46","1500","The main experiment item","yes","FlankerTask.osexp","C:\Users\Brian\Desktop\College - Graduate\Graduate Work\Advanced Quant","no","mono","no","18","no","white","no","yes","768","legacy","60","60","C:/Users/Brian/Desktop/College - Graduate/Graduate Work/Advanced Quant/BK-subject-4.csv","legacy","Kafkaesque Koffka","3.2.8","0","s","NA","h","NA","NA","s","444","NA","3820","NA","NA","444","2","legacy","1024","2","48000","-16","experiment","sssss","4","even","5783","NA","NA","NA","109589","108516","1962","NA","NA","109586","109692","104292","1954","NA","109692","110137","Flanker Task","55","29949","61","yes","1024"
"90.3225806452","90.3225806452","491.35483871","491.35483871","black","legacy","legacy","legacy","0","incongruent","uniform","1","undefined","1","s","0","0","0","0","61","61","0","0","0","61","61","61","0","61","61","61","09/25/21 23:22:46","1500","The main experiment item","yes","FlankerTask.osexp","C:\Users\Brian\Desktop\College - Graduate\Graduate Work\Advanced Quant","no","mono","no","18","no","white","no","yes","768","legacy","61","61","C:/Users/Brian/Desktop/College - Graduate/Graduate Work/Advanced Quant/BK-subject-4.csv","legacy","Kafkaesque Koffka","3.2.8","0","s","NA","h","NA","NA","s","515","NA","3820","NA","NA","515","2","legacy","1024","2","48000","-16","experiment","hhshh","4","even","5783","NA","NA","NA","111222","110145","1962","NA","NA","111220","111325","104292","1954","NA","111325","111842","Flanker Task","56","30464","62","yes","1024"
"90.4761904762","90.4761904762","490.111111111","490.111111111","black","legacy","legacy","legacy","0","incongruent","uniform","1","undefined","1","s","0","0","0","0","62","62","0","0","0","62","62","62","0","62","62","62","09/25/21 23:22:46","1500","The main experiment item","yes","FlankerTask.osexp","C:\Users\Brian\Desktop\College - Graduate\Graduate Work\Advanced Quant","no","mono","no","18","no","white","no","yes","768","legacy","62","62","C:/Users/Brian/Desktop/College - Graduate/Graduate Work/Advanced Quant/BK-subject-4.csv","legacy","Kafkaesque Koffka","3.2.8","0","s","NA","h","NA","NA","s","413","NA","3820","NA","NA","413","2","legacy","1024","2","48000","-16","experiment","hhshh","4","even","5783","NA","NA","NA","112922","111847","1962","NA","NA","112920","113025","104292","1954","NA","113025","113440","Flanker Task","57","30877","63","yes","1024"
"90.625","90.625","491.375","491.375","black","legacy","legacy","legacy","0","incongruent","uniform","1","undefined","1","s","0","0","0","0","63","63","0","0","0","63","63","63","0","63","63","63","09/25/21 23:22:46","1500","The main experiment item","yes","FlankerTask.osexp","C:\Users\Brian\Desktop\College - Graduate\Graduate Work\Advanced Quant","no","mono","no","18","no","white","no","yes","768","legacy","63","63","C:/Users/Brian/Desktop/College - Graduate/Graduate Work/Advanced Quant/BK-subject-4.csv","legacy","Kafkaesque Koffka","3.2.8","0","s","NA","h","NA","NA","s","571","NA","3820","NA","NA","571","2","legacy","1024","2","48000","-16","experiment","hhshh","4","even","5783","NA","NA","NA","114520","113444","1962","NA","NA","114518","114622","104292","1954","NA","114622","115195","Flanker Task","58","31448","64","yes","1024"
"90.7692307692","90.7692307692","491.676923077","491.676923077","black","legacy","legacy","legacy","0","congruent","uniform","1","undefined","1","h","0","0","0","0","64","64","0","0","0","64","64","64","0","64","64","64","09/25/21 23:22:46","1500","The main experiment item","yes","FlankerTask.osexp","C:\Users\Brian\Desktop\College - Graduate\Graduate Work\Advanced Quant","no","mono","no","18","no","white","no","yes","768","legacy","64","64","C:/Users/Brian/Desktop/College - Graduate/Graduate Work/Advanced Quant/BK-subject-4.csv","legacy","Kafkaesque Koffka","3.2.8","0","h","NA","h","NA","NA","h","511","NA","3820","NA","NA","511","2","legacy","1024","2","48000","-16","experiment","hhhhh","4","even","5783","NA","NA","NA","116277","115204","1962","NA","NA","116275","116380","104292","1954","NA","116380","116892","Flanker Task","59","31959","65","yes","1024"
"90.9090909091","90.9090909091","491.46969697","491.46969697","black","legacy","legacy","legacy","0","congruent","uniform","1","undefined","1","h","0","0","0","0","65","65","0","0","0","65","65","65","0","65","65","65","09/25/21 23:22:46","1500","The main experiment item","yes","FlankerTask.osexp","C:\Users\Brian\Desktop\College - Graduate\Graduate Work\Advanced Quant","no","mono","no","18","no","white","no","yes","768","legacy","65","65","C:/Users/Brian/Desktop/College - Graduate/Graduate Work/Advanced Quant/BK-subject-4.csv","legacy","Kafkaesque Koffka","3.2.8","0","h","NA","h","NA","NA","h","478","NA","3820","NA","NA","478","2","legacy","1024","2","48000","-16","experiment","hhhhh","4","even","5783","NA","NA","NA","117974","116901","1962","NA","NA","117972","118077","104292","1954","NA","118077","118556","Flanker Task","60","32437","66","yes","1024"
"91.0447761194","91.0447761194","491.582089552","491.582089552","black","legacy","legacy","legacy","0","congruent","uniform","1","undefined","1","h","0","0","0","0","66","66","0","0","0","66","66","66","0","66","66","66","09/25/21 23:22:46","1500","The main experiment item","yes","FlankerTask.osexp","C:\Users\Brian\Desktop\College - Graduate\Graduate Work\Advanced Quant","no","mono","no","18","no","white","no","yes","768","legacy","66","66","C:/Users/Brian/Desktop/College - Graduate/Graduate Work/Advanced Quant/BK-subject-4.csv","legacy","Kafkaesque Koffka","3.2.8","0","h","NA","h","NA","NA","h","499","NA","3820","NA","NA","499","2","legacy","1024","2","48000","-16","experiment","hhhhh","4","even","5783","NA","NA","NA","119634","118561","1962","NA","NA","119632","119736","104292","1954","NA","119736","120236","Flanker Task","61","32936","67","yes","1024"
"91.1764705882","91.1764705882","492.558823529","492.558823529","black","legacy","legacy","legacy","0","incongruent","uniform","1","undefined","1","s","0","0","0","0","67","67","0","0","0","67","67","67","0","67","67","67","09/25/21 23:22:46","1500","The main experiment item","yes","FlankerTask.osexp","C:\Users\Brian\Desktop\College - Graduate\Graduate Work\Advanced Quant","no","mono","no","18","no","white","no","yes","768","legacy","67","67","C:/Users/Brian/Desktop/College - Graduate/Graduate Work/Advanced Quant/BK-subject-4.csv","legacy","Kafkaesque Koffka","3.2.8","0","s","NA","h","NA","NA","s","558","NA","3820","NA","NA","558","2","legacy","1024","2","48000","-16","experiment","hhshh","4","even","5783","NA","NA","NA","121316","120245","1962","NA","NA","121314","121419","104292","1954","NA","121419","121979","Flanker Task","62","33494","68","yes","1024"
"91.3043478261","91.3043478261","491.565217391","491.565217391","black","legacy","legacy","legacy","0","congruent","uniform","1","undefined","1","s","0","0","0","0","68","68","0","0","0","68","68","68","0","68","68","68","09/25/21 23:22:46","1500","The main experiment item","yes","FlankerTask.osexp","C:\Users\Brian\Desktop\College - Graduate\Graduate Work\Advanced Quant","no","mono","no","18","no","white","no","yes","768","legacy","68","68","C:/Users/Brian/Desktop/College - Graduate/Graduate Work/Advanced Quant/BK-subject-4.csv","legacy","Kafkaesque Koffka","3.2.8","0","s","NA","h","NA","NA","s","424","NA","3820","NA","NA","424","2","legacy","1024","2","48000","-16","experiment","sssss","4","even","5783","NA","NA","NA","123059","121987","1962","NA","NA","123057","123162","104292","1954","NA","123162","123588","Flanker Task","63","33918","69","yes","1024"
"91.4285714286","91.4285714286","492.585714286","492.585714286","black","legacy","legacy","legacy","0","incongruent","uniform","1","undefined","1","h","0","0","0","0","69","69","0","0","0","69","69","69","0","69","69","69","09/25/21 23:22:46","1500","The main experiment item","yes","FlankerTask.osexp","C:\Users\Brian\Desktop\College - Graduate\Graduate Work\Advanced Quant","no","mono","no","18","no","white","no","yes","768","legacy","69","69","C:/Users/Brian/Desktop/College - Graduate/Graduate Work/Advanced Quant/BK-subject-4.csv","legacy","Kafkaesque Koffka","3.2.8","0","h","NA","h","NA","NA","h","563","NA","3820","NA","NA","563","2","legacy","1024","2","48000","-16","experiment","sshss","4","even","5783","NA","NA","NA","124664","123593","1962","NA","NA","124662","124767","104292","1954","NA","124767","125331","Flanker Task","64","34481","70","yes","1024"
"91.5492957746","91.5492957746","492.464788732","492.464788732","black","legacy","legacy","legacy","0","congruent","uniform","1","undefined","1","h","0","0","0","0","70","70","0","0","0","70","70","70","0","70","70","70","09/25/21 23:22:46","1500","The main experiment item","yes","FlankerTask.osexp","C:\Users\Brian\Desktop\College - Graduate\Graduate Work\Advanced Quant","no","mono","no","18","no","white","no","yes","768","legacy","70","70","C:/Users/Brian/Desktop/College - Graduate/Graduate Work/Advanced Quant/BK-subject-4.csv","legacy","Kafkaesque Koffka","3.2.8","0","h","NA","h","NA","NA","h","484","NA","3820","NA","NA","484","2","legacy","1024","2","48000","-16","experiment","hhhhh","4","even","5783","NA","NA","NA","126407","125335","1962","NA","NA","126405","126510","104292","1954","NA","126510","126996","Flanker Task","65","34965","71","yes","1024"
"91.6666666667","91.6666666667","492.958333333","492.958333333","black","legacy","legacy","legacy","0","congruent","uniform","1","undefined","1","h","0","0","0","0","71","71","0","0","0","71","71","71","0","71","71","71","09/25/21 23:22:46","1500","The main experiment item","yes","FlankerTask.osexp","C:\Users\Brian\Desktop\College - Graduate\Graduate Work\Advanced Quant","no","mono","no","18","no","white","no","yes","768","legacy","71","71","C:/Users/Brian/Desktop/College - Graduate/Graduate Work/Advanced Quant/BK-subject-4.csv","legacy","Kafkaesque Koffka","3.2.8","0","h","NA","h","NA","NA","h","528","NA","3820","NA","NA","528","2","legacy","1024","2","48000","-16","experiment","hhhhh","4","even","5783","NA","NA","NA","128078","127005","1962","NA","NA","128076","128181","104292","1954","NA","128181","128710","Flanker Task","66","35493","72","yes","1024"
"91.7808219178","91.7808219178","492.657534247","492.657534247","black","legacy","legacy","legacy","0","incongruent","uniform","1","undefined","1","h","0","0","0","0","72","72","0","0","0","72","72","72","0","72","72","72","09/25/21 23:22:46","1500","The main experiment item","yes","FlankerTask.osexp","C:\Users\Brian\Desktop\College - Graduate\Graduate Work\Advanced Quant","no","mono","no","18","no","white","no","yes","768","legacy","72","72","C:/Users/Brian/Desktop/College - Graduate/Graduate Work/Advanced Quant/BK-subject-4.csv","legacy","Kafkaesque Koffka","3.2.8","0","h","NA","h","NA","NA","h","471","NA","3820","NA","NA","471","2","legacy","1024","2","48000","-16","experiment","sshss","4","even","5783","NA","NA","NA","129789","128718","1962","NA","NA","129787","129890","104292","1954","NA","129890","130363","Flanker Task","67","35964","73","yes","1024"
"91.8918918919","91.8918918919","491.891891892","491.891891892","black","legacy","legacy","legacy","0","congruent","uniform","1","undefined","1","s","0","0","0","0","73","73","0","0","0","73","73","73","0","73","73","73","09/25/21 23:22:46","1500","The main experiment item","yes","FlankerTask.osexp","C:\Users\Brian\Desktop\College - Graduate\Graduate Work\Advanced Quant","no","mono","no","18","no","white","no","yes","768","legacy","73","73","C:/Users/Brian/Desktop/College - Graduate/Graduate Work/Advanced Quant/BK-subject-4.csv","legacy","Kafkaesque Koffka","3.2.8","0","s","NA","h","NA","NA","s","436","NA","3820","NA","NA","436","2","legacy","1024","2","48000","-16","experiment","sssss","4","even","5783","NA","NA","NA","131446","130367","1962","NA","NA","131444","131549","104292","1954","NA","131549","131987","Flanker Task","68","36400","74","yes","1024"
"92","92","491.266666667","491.266666667","black","legacy","legacy","legacy","0","congruent","uniform","1","undefined","1","s","0","0","0","0","74","74","0","0","0","74","74","74","0","74","74","74","09/25/21 23:22:46","1500","The main experiment item","yes","FlankerTask.osexp","C:\Users\Brian\Desktop\College - Graduate\Graduate Work\Advanced Quant","no","mono","no","18","no","white","no","yes","768","legacy","74","74","C:/Users/Brian/Desktop/College - Graduate/Graduate Work/Advanced Quant/BK-subject-4.csv","legacy","Kafkaesque Koffka","3.2.8","0","s","NA","h","NA","NA","s","445","NA","3820","NA","NA","445","2","legacy","1024","2","48000","-16","experiment","sssss","4","even","5783","NA","NA","NA","133066","131996","1962","NA","NA","133064","133169","104292","1954","NA","133169","133616","Flanker Task","69","36845","75","yes","1024"
"92.1052631579","92.1052631579","492.078947368","492.078947368","black","legacy","legacy","legacy","0","incongruent","uniform","1","undefined","1","h","0","0","0","0","75","75","0","0","0","75","75","75","0","75","75","75","09/25/21 23:22:46","1500","The main experiment item","yes","FlankerTask.osexp","C:\Users\Brian\Desktop\College - Graduate\Graduate Work\Advanced Quant","no","mono","no","18","no","white","no","yes","768","legacy","75","75","C:/Users/Brian/Desktop/College - Graduate/Graduate Work/Advanced Quant/BK-subject-4.csv","legacy","Kafkaesque Koffka","3.2.8","0","h","NA","h","NA","NA","h","553","NA","3820","NA","NA","553","2","legacy","1024","2","48000","-16","experiment","sshss","4","even","5783","NA","NA","NA","134694","133620","1962","NA","NA","134692","134796","104292","1954","NA","134796","135350","Flanker Task","70","37398","76","yes","1024"
"92.2077922078","92.2077922078","492.376623377","492.376623377","black","legacy","legacy","legacy","0","incongruent","uniform","1","undefined","1","s","0","0","0","0","76","76","0","0","0","76","76","76","0","76","76","76","09/25/21 23:22:46","1500","The main experiment item","yes","FlankerTask.osexp","C:\Users\Brian\Desktop\College - Graduate\Graduate Work\Advanced Quant","no","mono","no","18","no","white","no","yes","768","legacy","76","76","C:/Users/Brian/Desktop/College - Graduate/Graduate Work/Advanced Quant/BK-subject-4.csv","legacy","Kafkaesque Koffka","3.2.8","0","s","NA","h","NA","NA","s","515","NA","3820","NA","NA","515","2","legacy","1024","2","48000","-16","experiment","hhshh","4","even","5783","NA","NA","NA","136439","135358","1962","NA","NA","136437","136542","104292","1954","NA","136542","137058","Flanker Task","71","37913","77","yes","1024"
"91.0256410256","91.0256410256","491.807692308","491.807692308","black","legacy","legacy","legacy","0","incongruent","uniform","0","undefined","0","h","0","0","0","0","77","77","0","0","0","77","77","77","0","77","77","77","09/25/21 23:22:46","1500","The main experiment item","yes","FlankerTask.osexp","C:\Users\Brian\Desktop\College - Graduate\Graduate Work\Advanced Quant","no","mono","no","18","no","white","no","yes","768","legacy","77","77","C:/Users/Brian/Desktop/College - Graduate/Graduate Work/Advanced Quant/BK-subject-4.csv","legacy","Kafkaesque Koffka","3.2.8","0","s","NA","h","NA","NA","s","448","NA","3820","NA","NA","448","2","legacy","1024","2","48000","-16","experiment","sshss","4","even","5783","NA","NA","NA","138141","137068","1962","NA","NA","138139","138244","104292","1954","NA","138244","138695","Flanker Task","71","38361","78","yes","1024"
"91.1392405063","91.1392405063","490.797468354","490.797468354","black","legacy","legacy","legacy","0","congruent","uniform","1","undefined","1","s","0","0","0","0","78","78","0","0","0","78","78","78","0","78","78","78","09/25/21 23:22:46","1500","The main experiment item","yes","FlankerTask.osexp","C:\Users\Brian\Desktop\College - Graduate\Graduate Work\Advanced Quant","no","mono","no","18","no","white","no","yes","768","legacy","78","78","C:/Users/Brian/Desktop/College - Graduate/Graduate Work/Advanced Quant/BK-subject-4.csv","legacy","Kafkaesque Koffka","3.2.8","0","s","NA","h","NA","NA","s","412","NA","3820","NA","NA","412","2","legacy","1024","2","48000","-16","experiment","sssss","4","even","5783","NA","NA","NA","140279","139206","1962","NA","NA","140277","140382","138703","1954","NA","140382","140795","Flanker Task","72","38773","79","yes","1024"
"91.25","91.25","490.625","490.625","black","legacy","legacy","legacy","0","congruent","uniform","1","undefined","1","h","0","0","0","0","79","79","0","0","0","79","79","79","0","79","79","79","09/25/21 23:22:46","1500","The main experiment item","yes","FlankerTask.osexp","C:\Users\Brian\Desktop\College - Graduate\Graduate Work\Advanced Quant","no","mono","no","18","no","white","no","yes","768","legacy","79","79","C:/Users/Brian/Desktop/College - Graduate/Graduate Work/Advanced Quant/BK-subject-4.csv","legacy","Kafkaesque Koffka","3.2.8","0","h","NA","h","NA","NA","h","477","NA","3820","NA","NA","477","2","legacy","1024","2","48000","-16","experiment","hhhhh","4","even","5783","NA","NA","NA","141882","140803","1962","NA","NA","141880","141985","138703","1954","NA","141985","142463","Flanker Task","73","39250","80","yes","1024"
"91.3580246914","91.3580246914","490","490","black","legacy","legacy","legacy","0","incongruent","uniform","1","undefined","1","h","0","0","0","0","80","80","0","0","0","80","80","80","0","80","80","80","09/25/21 23:22:46","600","The main experiment item","yes","FlankerTask.osexp","C:\Users\Brian\Desktop\College - Graduate\Graduate Work\Advanced Quant","no","mono","no","18","no","white","no","yes","768","legacy","0","79","C:/Users/Brian/Desktop/College - Graduate/Graduate Work/Advanced Quant/BK-subject-4.csv","legacy","Kafkaesque Koffka","3.2.8","0","h","NA","h","h","NA","h","440","NA","3820","5513","NA","440","2","legacy","1024","2","48000","-16","experiment","sshss","4","even","5783","149005","NA","NA","149079","142471","1962","143491","NA","149077","149181","138703","1954","NA","149181","149623","Flanker Task","74","39690","81","yes","1024"
"91.4634146341","91.4634146341","489.268292683","489.268292683","black","legacy","legacy","legacy","0","congruent","uniform","1","undefined","1","h","0","0","0","0","81","81","0","0","0","81","81","81","0","81","81","81","09/25/21 23:22:46","600","The main experiment item","yes","FlankerTask.osexp","C:\Users\Brian\Desktop\College - Graduate\Graduate Work\Advanced Quant","no","mono","no","18","no","white","no","yes","768","legacy","1","79","C:/Users/Brian/Desktop/College - Graduate/Graduate Work/Advanced Quant/BK-subject-4.csv","legacy","Kafkaesque Koffka","3.2.8","0","h","NA","h","h","NA","h","430","NA","3820","5513","NA","430","2","legacy","1024","2","48000","-16","experiment","hhhhh","4","even","5783","149005","NA","NA","150706","149632","1962","143491","NA","150704","150810","138703","1954","NA","150810","151241","Flanker Task","75","40120","82","yes","1024"
"91.5662650602","91.5662650602","488.144578313","488.144578313","black","legacy","legacy","legacy","0","congruent","uniform","1","undefined","1","s","0","0","0","0","82","82","0","0","0","82","82","82","0","82","82","82","09/25/21 23:22:46","600","The main experiment item","yes","FlankerTask.osexp","C:\Users\Brian\Desktop\College - Graduate\Graduate Work\Advanced Quant","no","mono","no","18","no","white","no","yes","768","legacy","2","79","C:/Users/Brian/Desktop/College - Graduate/Graduate Work/Advanced Quant/BK-subject-4.csv","legacy","Kafkaesque Koffka","3.2.8","0","s","NA","h","h","NA","s","396","NA","3820","5513","NA","396","2","legacy","1024","2","48000","-16","experiment","sssss","4","even","5783","149005","NA","NA","152325","151249","1962","143491","NA","152323","152428","138703","1954","NA","152428","152826","Flanker Task","76","40516","83","yes","1024"
"90.4761904762","90.4761904762","486.630952381","486.630952381","black","legacy","legacy","legacy","0","incongruent","uniform","0","undefined","0","h","0","0","0","0","83","83","0","0","0","83","83","83","0","83","83","83","09/25/21 23:22:46","600","The main experiment item","yes","FlankerTask.osexp","C:\Users\Brian\Desktop\College - Graduate\Graduate Work\Advanced Quant","no","mono","no","18","no","white","no","yes","768","legacy","3","79","C:/Users/Brian/Desktop/College - Graduate/Graduate Work/Advanced Quant/BK-subject-4.csv","legacy","Kafkaesque Koffka","3.2.8","0","s","NA","h","h","NA","s","361","NA","3820","5513","NA","361","2","legacy","1024","2","48000","-16","experiment","sshss","4","even","5783","149005","NA","NA","153915","152834","1962","143491","NA","153913","154018","138703","1954","NA","154018","154380","Flanker Task","76","40877","84","yes","1024"
"90.5882352941","90.5882352941","485.505882353","485.505882353","black","legacy","legacy","legacy","0","congruent","uniform","1","undefined","1","h","0","0","0","0","84","84","0","0","0","84","84","84","0","84","84","84","09/25/21 23:22:46","600","The main experiment item","yes","FlankerTask.osexp","C:\Users\Brian\Desktop\College - Graduate\Graduate Work\Advanced Quant","no","mono","no","18","no","white","no","yes","768","legacy","4","79","C:/Users/Brian/Desktop/College - Graduate/Graduate Work/Advanced Quant/BK-subject-4.csv","legacy","Kafkaesque Koffka","3.2.8","0","h","NA","h","h","NA","h","391","NA","3820","5513","NA","391","2","legacy","1024","2","48000","-16","experiment","hhhhh","4","even","5783","149005","NA","NA","155962","154891","1962","143491","NA","155960","156064","154389","1954","NA","156065","156457","Flanker Task","77","41268","85","yes","1024"
"90.6976744186","90.6976744186","484.325581395","484.325581395","black","legacy","legacy","legacy","0","congruent","uniform","1","undefined","1","s","0","0","0","0","85","85","0","0","0","85","85","85","0","85","85","85","09/25/21 23:22:46","600","The main experiment item","yes","FlankerTask.osexp","C:\Users\Brian\Desktop\College - Graduate\Graduate Work\Advanced Quant","no","mono","no","18","no","white","no","yes","768","legacy","5","79","C:/Users/Brian/Desktop/College - Graduate/Graduate Work/Advanced Quant/BK-subject-4.csv","legacy","Kafkaesque Koffka","3.2.8","0","s","NA","h","h","NA","s","384","NA","3820","5513","NA","384","2","legacy","1024","2","48000","-16","experiment","sssss","4","even","5783","149005","NA","NA","157538","156465","1962","143491","NA","157536","157640","154389","1954","NA","157640","158026","Flanker Task","78","41652","86","yes","1024"
"90.8045977011","90.8045977011","483.655172414","483.655172414","black","legacy","legacy","legacy","0","congruent","uniform","1","undefined","1","h","0","0","0","0","86","86","0","0","0","86","86","86","0","86","86","86","09/25/21 23:22:46","600","The main experiment item","yes","FlankerTask.osexp","C:\Users\Brian\Desktop\College - Graduate\Graduate Work\Advanced Quant","no","mono","no","18","no","white","no","yes","768","legacy","6","79","C:/Users/Brian/Desktop/College - Graduate/Graduate Work/Advanced Quant/BK-subject-4.csv","legacy","Kafkaesque Koffka","3.2.8","0","h","NA","h","h","NA","h","426","NA","3820","5513","NA","426","2","legacy","1024","2","48000","-16","experiment","hhhhh","4","even","5783","149005","NA","NA","159105","158035","1962","143491","NA","159103","159209","154389","1954","NA","159209","159637","Flanker Task","79","42078","87","yes","1024"
"90.9090909091","90.9090909091","482.397727273","482.397727273","black","legacy","legacy","legacy","0","congruent","uniform","1","undefined","1","s","0","0","0","0","87","87","0","0","0","87","87","87","0","87","87","87","09/25/21 23:22:46","600","The main experiment item","yes","FlankerTask.osexp","C:\Users\Brian\Desktop\College - Graduate\Graduate Work\Advanced Quant","no","mono","no","18","no","white","no","yes","768","legacy","7","79","C:/Users/Brian/Desktop/College - Graduate/Graduate Work/Advanced Quant/BK-subject-4.csv","legacy","Kafkaesque Koffka","3.2.8","0","s","NA","h","h","NA","s","373","NA","3820","5513","NA","373","2","legacy","1024","2","48000","-16","experiment","sssss","4","even","5783","149005","NA","NA","160722","159646","1962","143491","NA","160719","160825","154389","1954","NA","160825","161200","Flanker Task","80","42451","88","yes","1024"
"91.0112359551","91.0112359551","481.707865169","481.707865169","black","legacy","legacy","legacy","0","incongruent","uniform","1","undefined","1","s","0","0","0","0","88","88","0","0","0","88","88","88","0","88","88","88","09/25/21 23:22:46","600","The main experiment item","yes","FlankerTask.osexp","C:\Users\Brian\Desktop\College - Graduate\Graduate Work\Advanced Quant","no","mono","no","18","no","white","no","yes","768","legacy","8","79","C:/Users/Brian/Desktop/College - Graduate/Graduate Work/Advanced Quant/BK-subject-4.csv","legacy","Kafkaesque Koffka","3.2.8","0","s","NA","h","h","NA","s","421","NA","3820","5513","NA","421","2","legacy","1024","2","48000","-16","experiment","hhshh","4","even","5783","149005","NA","NA","162279","161204","1962","143491","NA","162277","162381","154389","1954","NA","162381","162803","Flanker Task","81","42872","89","yes","1024"
"90","90","480.811111111","480.811111111","black","legacy","legacy","legacy","0","congruent","uniform","0","undefined","0","h","0","0","0","0","89","89","0","0","0","89","89","89","0","89","89","89","09/25/21 23:22:46","600","The main experiment item","yes","FlankerTask.osexp","C:\Users\Brian\Desktop\College - Graduate\Graduate Work\Advanced Quant","no","mono","no","18","no","white","no","yes","768","legacy","9","79","C:/Users/Brian/Desktop/College - Graduate/Graduate Work/Advanced Quant/BK-subject-4.csv","legacy","Kafkaesque Koffka","3.2.8","0","s","NA","h","h","NA","s","401","NA","3820","5513","NA","401","2","legacy","1024","2","48000","-16","experiment","hhhhh","4","even","5783","149005","NA","NA","163892","162812","1962","143491","NA","163890","163995","154389","1954","NA","163995","164398","Flanker Task","81","43273","90","yes","1024"
"89.010989011","89.010989011","480.571428571","480.571428571","black","legacy","legacy","legacy","0","incongruent","uniform","0","undefined","0","h","0","0","0","0","90","90","0","0","0","90","90","90","0","90","90","90","09/25/21 23:22:46","600","The main experiment item","yes","FlankerTask.osexp","C:\Users\Brian\Desktop\College - Graduate\Graduate Work\Advanced Quant","no","mono","no","18","no","white","no","yes","768","legacy","10","79","C:/Users/Brian/Desktop/College - Graduate/Graduate Work/Advanced Quant/BK-subject-4.csv","legacy","Kafkaesque Koffka","3.2.8","0","s","NA","h","h","NA","s","459","NA","3820","5513","NA","459","2","legacy","1024","2","48000","-16","experiment","sshss","4","even","5783","149005","NA","NA","165983","164909","1962","143491","NA","165980","166084","164406","1954","NA","166084","166545","Flanker Task","81","43732","91","yes","1024"
"89.1304347826","89.1304347826","480.065217391","480.065217391","black","legacy","legacy","legacy","0","incongruent","uniform","1","undefined","1","s","0","0","0","0","91","91","0","0","0","91","91","91","0","91","91","91","09/25/21 23:22:46","600","The main experiment item","yes","FlankerTask.osexp","C:\Users\Brian\Desktop\College - Graduate\Graduate Work\Advanced Quant","no","mono","no","18","no","white","no","yes","768","legacy","11","79","C:/Users/Brian/Desktop/College - Graduate/Graduate Work/Advanced Quant/BK-subject-4.csv","legacy","Kafkaesque Koffka","3.2.8","0","s","NA","h","h","NA","s","434","NA","3820","5513","NA","434","2","legacy","1024","2","48000","-16","experiment","hhshh","4","even","5783","149005","NA","NA","168128","167056","1962","143491","NA","168126","168231","166553","1954","NA","168231","168668","Flanker Task","82","44166","92","yes","1024"
"89.247311828","89.247311828","479.47311828","479.47311828","black","legacy","legacy","legacy","0","congruent","uniform","1","undefined","1","s","0","0","0","0","92","92","0","0","0","92","92","92","0","92","92","92","09/25/21 23:22:46","600","The main experiment item","yes","FlankerTask.osexp","C:\Users\Brian\Desktop\College - Graduate\Graduate Work\Advanced Quant","no","mono","no","18","no","white","no","yes","768","legacy","12","79","C:/Users/Brian/Desktop/College - Graduate/Graduate Work/Advanced Quant/BK-subject-4.csv","legacy","Kafkaesque Koffka","3.2.8","0","s","NA","h","h","NA","s","425","NA","3820","5513","NA","425","2","legacy","1024","2","48000","-16","experiment","sssss","4","even","5783","149005","NA","NA","169747","168672","1962","143491","NA","169745","169849","166553","1954","NA","169849","170276","Flanker Task","83","44591","93","yes","1024"
"89.3617021277","89.3617021277","479.563829787","479.563829787","black","legacy","legacy","legacy","0","incongruent","uniform","1","undefined","1","h","0","0","0","0","93","93","0","0","0","93","93","93","0","93","93","93","09/25/21 23:22:46","600","The main experiment item","yes","FlankerTask.osexp","C:\Users\Brian\Desktop\College - Graduate\Graduate Work\Advanced Quant","no","mono","no","18","no","white","no","yes","768","legacy","13","79","C:/Users/Brian/Desktop/College - Graduate/Graduate Work/Advanced Quant/BK-subject-4.csv","legacy","Kafkaesque Koffka","3.2.8","0","h","NA","h","h","NA","h","488","NA","3820","5513","NA","488","2","legacy","1024","2","48000","-16","experiment","sshss","4","even","5783","149005","NA","NA","171357","170286","1962","143491","NA","171355","171460","166553","1954","NA","171460","171949","Flanker Task","84","45079","94","yes","1024"
"89.4736842105","89.4736842105","479.778947368","479.778947368","black","legacy","legacy","legacy","0","incongruent","uniform","1","undefined","1","s","0","0","0","0","94","94","0","0","0","94","94","94","0","94","94","94","09/25/21 23:22:46","600","The main experiment item","yes","FlankerTask.osexp","C:\Users\Brian\Desktop\College - Graduate\Graduate Work\Advanced Quant","no","mono","no","18","no","white","no","yes","768","legacy","14","79","C:/Users/Brian/Desktop/College - Graduate/Graduate Work/Advanced Quant/BK-subject-4.csv","legacy","Kafkaesque Koffka","3.2.8","0","s","NA","h","h","NA","s","500","NA","3820","5513","NA","500","2","legacy","1024","2","48000","-16","experiment","hhshh","4","even","5783","149005","NA","NA","173036","171958","1962","143491","NA","173034","173137","166553","1954","NA","173137","173638","Flanker Task","85","45579","95","yes","1024"
"89.5833333333","89.5833333333","479.40625","479.40625","black","legacy","legacy","legacy","0","congruent","uniform","1","undefined","1","s","0","0","0","0","95","95","0","0","0","95","95","95","0","95","95","95","09/25/21 23:22:46","600","The main experiment item","yes","FlankerTask.osexp","C:\Users\Brian\Desktop\College - Graduate\Graduate Work\Advanced Quant","no","mono","no","18","no","white","no","yes","768","legacy","15","79","C:/Users/Brian/Desktop/College - Graduate/Graduate Work/Advanced Quant/BK-subject-4.csv","legacy","Kafkaesque Koffka","3.2.8","0","s","NA","h","h","NA","s","444","NA","3820","5513","NA","444","2","legacy","1024","2","48000","-16","experiment","sssss","4","even","5783","149005","NA","NA","174719","173641","1962","143491","NA","174716","174822","166553","1954","NA","174822","175267","Flanker Task","86","46023","96","yes","1024"
"89.6907216495","89.6907216495","478.278350515","478.278350515","black","legacy","legacy","legacy","0","incongruent","uniform","1","undefined","1","s","0","0","0","0","96","96","0","0","0","96","96","96","0","96","96","96","09/25/21 23:22:46","600","The main experiment item","yes","FlankerTask.osexp","C:\Users\Brian\Desktop\College - Graduate\Graduate Work\Advanced Quant","no","mono","no","18","no","white","no","yes","768","legacy","16","79","C:/Users/Brian/Desktop/College - Graduate/Graduate Work/Advanced Quant/BK-subject-4.csv","legacy","Kafkaesque Koffka","3.2.8","0","s","NA","h","h","NA","s","370","NA","3820","5513","NA","370","2","legacy","1024","2","48000","-16","experiment","hhshh","4","even","5783","149005","NA","NA","176353","175276","1962","143491","NA","176351","176456","166553","1954","NA","176456","176827","Flanker Task","87","46393","97","yes","1024"
"89.7959183673","89.7959183673","476.642857143","476.642857143","black","legacy","legacy","legacy","0","congruent","uniform","1","undefined","1","h","0","0","0","0","97","97","0","0","0","97","97","97","0","97","97","97","09/25/21 23:22:46","600","The main experiment item","yes","FlankerTask.osexp","C:\Users\Brian\Desktop\College - Graduate\Graduate Work\Advanced Quant","no","mono","no","18","no","white","no","yes","768","legacy","17","79","C:/Users/Brian/Desktop/College - Graduate/Graduate Work/Advanced Quant/BK-subject-4.csv","legacy","Kafkaesque Koffka","3.2.8","0","h","NA","h","h","NA","h","318","NA","3820","5513","NA","318","2","legacy","1024","2","48000","-16","experiment","hhhhh","4","even","5783","149005","NA","NA","177913","176835","1962","143491","NA","177911","178016","166553","1954","NA","178016","178335","Flanker Task","88","46711","98","yes","1024"
"88.8888888889","88.8888888889","476.363636364","476.363636364","black","legacy","legacy","legacy","0","incongruent","uniform","0","undefined","0","h","0","0","0","0","98","98","0","0","0","98","98","98","0","98","98","98","09/25/21 23:22:46","600","The main experiment item","yes","FlankerTask.osexp","C:\Users\Brian\Desktop\College - Graduate\Graduate Work\Advanced Quant","no","mono","no","18","no","white","no","yes","768","legacy","18","79","C:/Users/Brian/Desktop/College - Graduate/Graduate Work/Advanced Quant/BK-subject-4.csv","legacy","Kafkaesque Koffka","3.2.8","0","s","NA","h","h","NA","s","449","NA","3820","5513","NA","449","2","legacy","1024","2","48000","-16","experiment","sshss","4","even","5783","149005","NA","NA","179416","178344","1962","143491","NA","179414","179519","166553","1954","NA","179519","179969","Flanker Task","88","47160","99","yes","1024"
"88","88","475.74","475.74","black","legacy","legacy","legacy","0","incongruent","uniform","0","undefined","0","h","0","0","0","0","99","99","0","0","0","99","99","99","0","99","99","99","09/25/21 23:22:46","600","The main experiment item","yes","FlankerTask.osexp","C:\Users\Brian\Desktop\College - Graduate\Graduate Work\Advanced Quant","no","mono","no","18","no","white","no","yes","768","legacy","19","79","C:/Users/Brian/Desktop/College - Graduate/Graduate Work/Advanced Quant/BK-subject-4.csv","legacy","Kafkaesque Koffka","3.2.8","0","s","NA","h","h","NA","s","414","NA","3820","5513","NA","414","2","legacy","1024","2","48000","-16","experiment","sshss","4","even","5783","149005","NA","NA","181553","180481","1962","143491","NA","181551","181656","179978","1954","NA","181656","182071","Flanker Task","88","47574","100","yes","1024"
"88.1188118812","88.1188118812","475.148514851","475.148514851","black","legacy","legacy","legacy","0","congruent","uniform","1","undefined","1","s","0","0","0","0","100","100","0","0","0","100","100","100","0","100","100","100","09/25/21 23:22:46","600","The main experiment item","yes","FlankerTask.osexp","C:\Users\Brian\Desktop\College - Graduate\Graduate Work\Advanced Quant","no","mono","no","18","no","white","no","yes","768","legacy","20","79","C:/Users/Brian/Desktop/College - Graduate/Graduate Work/Advanced Quant/BK-subject-4.csv","legacy","Kafkaesque Koffka","3.2.8","0","s","NA","h","h","NA","s","416","NA","3820","5513","NA","416","2","legacy","1024","2","48000","-16","experiment","sssss","4","even","5783","149005","NA","NA","183654","182583","1962","143491","NA","183652","183756","182080","1954","NA","183756","184174","Flanker Task","89","47990","101","yes","1024"
"88.2352941176","88.2352941176","475.343137255","475.343137255","black","legacy","legacy","legacy","0","incongruent","uniform","1","undefined","1","h","0","0","0","0","101","101","0","0","0","101","101","101","0","101","101","101","09/25/21 23:22:46","600","The main experiment item","yes","FlankerTask.osexp","C:\Users\Brian\Desktop\College - Graduate\Graduate Work\Advanced Quant","no","mono","no","18","no","white","no","yes","768","legacy","21","79","C:/Users/Brian/Desktop/College - Graduate/Graduate Work/Advanced Quant/BK-subject-4.csv","legacy","Kafkaesque Koffka","3.2.8","0","h","NA","h","h","NA","h","495","NA","3820","5513","NA","495","2","legacy","1024","2","48000","-16","experiment","sshss","4","even","5783","149005","NA","NA","185259","184183","1962","143491","NA","185257","185360","182080","1954","NA","185360","185857","Flanker Task","90","48485","102","yes","1024"
"88.3495145631","88.3495145631","474.747572816","474.747572816","black","legacy","legacy","legacy","0","congruent","uniform","1","undefined","1","h","0","0","0","0","102","102","0","0","0","102","102","102","0","102","102","102","09/25/21 23:22:46","600","The main experiment item","yes","FlankerTask.osexp","C:\Users\Brian\Desktop\College - Graduate\Graduate Work\Advanced Quant","no","mono","no","18","no","white","no","yes","768","legacy","22","79","C:/Users/Brian/Desktop/College - Graduate/Graduate Work/Advanced Quant/BK-subject-4.csv","legacy","Kafkaesque Koffka","3.2.8","0","h","NA","h","h","NA","h","414","NA","3820","5513","NA","414","2","legacy","1024","2","48000","-16","experiment","hhhhh","4","even","5783","149005","NA","NA","186942","185866","1962","143491","NA","186939","187045","182080","1954","NA","187045","187462","Flanker Task","91","48899","103","yes","1024"
"88.4615384615","88.4615384615","473.788461538","473.788461538","black","legacy","legacy","legacy","0","congruent","uniform","1","undefined","1","s","0","0","0","0","103","103","0","0","0","103","103","103","0","103","103","103","09/25/21 23:22:46","600","The main experiment item","yes","FlankerTask.osexp","C:\Users\Brian\Desktop\College - Graduate\Graduate Work\Advanced Quant","no","mono","no","18","no","white","no","yes","768","legacy","23","79","C:/Users/Brian/Desktop/College - Graduate/Graduate Work/Advanced Quant/BK-subject-4.csv","legacy","Kafkaesque Koffka","3.2.8","0","s","NA","h","h","NA","s","375","NA","3820","5513","NA","375","2","legacy","1024","2","48000","-16","experiment","sssss","4","even","5783","149005","NA","NA","188550","187470","1962","143491","NA","188548","188653","182080","1954","NA","188653","189030","Flanker Task","92","49274","104","yes","1024"
"88.5714285714","88.5714285714","473.847619048","473.847619048","black","legacy","legacy","legacy","0","congruent","uniform","1","undefined","1","s","0","0","0","0","104","104","0","0","0","104","104","104","0","104","104","104","09/25/21 23:22:46","600","The main experiment item","yes","FlankerTask.osexp","C:\Users\Brian\Desktop\College - Graduate\Graduate Work\Advanced Quant","no","mono","no","18","no","white","no","yes","768","legacy","24","79","C:/Users/Brian/Desktop/College - Graduate/Graduate Work/Advanced Quant/BK-subject-4.csv","legacy","Kafkaesque Koffka","3.2.8","0","s","NA","h","h","NA","s","480","NA","3820","5513","NA","480","2","legacy","1024","2","48000","-16","experiment","sssss","4","even","5783","149005","NA","NA","190109","189039","1962","143491","NA","190107","190212","182080","1954","NA","190212","190694","Flanker Task","93","49754","105","yes","1024"
"88.679245283","88.679245283","473.273584906","473.273584906","black","legacy","legacy","legacy","0","congruent","uniform","1","undefined","1","h","0","0","0","0","105","105","0","0","0","105","105","105","0","105","105","105","09/25/21 23:22:46","600","The main experiment item","yes","FlankerTask.osexp","C:\Users\Brian\Desktop\College - Graduate\Graduate Work\Advanced Quant","no","mono","no","18","no","white","no","yes","768","legacy","25","79","C:/Users/Brian/Desktop/College - Graduate/Graduate Work/Advanced Quant/BK-subject-4.csv","legacy","Kafkaesque Koffka","3.2.8","0","h","NA","h","h","NA","h","413","NA","3820","5513","NA","413","2","legacy","1024","2","48000","-16","experiment","hhhhh","4","even","5783","149005","NA","NA","191775","190702","1962","143491","NA","191773","191878","182080","1954","NA","191878","192293","Flanker Task","94","50167","106","yes","1024"
"88.785046729","88.785046729","473","473","black","legacy","legacy","legacy","0","incongruent","uniform","1","undefined","1","h","0","0","0","0","106","106","0","0","0","106","106","106","0","106","106","106","09/25/21 23:22:46","600","The main experiment item","yes","FlankerTask.osexp","C:\Users\Brian\Desktop\College - Graduate\Graduate Work\Advanced Quant","no","mono","no","18","no","white","no","yes","768","legacy","26","79","C:/Users/Brian/Desktop/College - Graduate/Graduate Work/Advanced Quant/BK-subject-4.csv","legacy","Kafkaesque Koffka","3.2.8","0","h","NA","h","h","NA","h","444","NA","3820","5513","NA","444","2","legacy","1024","2","48000","-16","experiment","sshss","4","even","5783","149005","NA","NA","193377","192301","1962","143491","NA","193375","193481","182080","1954","NA","193481","193927","Flanker Task","95","50611","107","yes","1024"
"87.962962963","87.962962963","472.268518519","472.268518519","black","legacy","legacy","legacy","0","incongruent","uniform","0","undefined","0","s","0","0","0","0","107","107","0","0","0","107","107","107","0","107","107","107","09/25/21 23:22:46","600","The main experiment item","yes","FlankerTask.osexp","C:\Users\Brian\Desktop\College - Graduate\Graduate Work\Advanced Quant","no","mono","no","18","no","white","no","yes","768","legacy","27","79","C:/Users/Brian/Desktop/College - Graduate/Graduate Work/Advanced Quant/BK-subject-4.csv","legacy","Kafkaesque Koffka","3.2.8","0","h","NA","h","h","NA","h","394","NA","3820","5513","NA","394","2","legacy","1024","2","48000","-16","experiment","hhshh","4","even","5783","149005","NA","NA","195008","193935","1962","143491","NA","195006","195110","182080","1954","NA","195111","195507","Flanker Task","95","51005","108","yes","1024"
"88.0733944954","88.0733944954","472.165137615","472.165137615","black","legacy","legacy","legacy","0","incongruent","uniform","1","undefined","1","h","0","0","0","0","108","108","0","0","0","108","108","108","0","108","108","108","09/25/21 23:22:46","600","The main experiment item","yes","FlankerTask.osexp","C:\Users\Brian\Desktop\College - Graduate\Graduate Work\Advanced Quant","no","mono","no","18","no","white","no","yes","768","legacy","28","79","C:/Users/Brian/Desktop/College - Graduate/Graduate Work/Advanced Quant/BK-subject-4.csv","legacy","Kafkaesque Koffka","3.2.8","0","h","NA","h","h","NA","h","461","NA","3820","5513","NA","461","2","legacy","1024","2","48000","-16","experiment","sshss","4","even","5783","149005","NA","NA","197092","196019","1962","143491","NA","197090","197195","195516","1954","NA","197195","197658","Flanker Task","96","51466","109","yes","1024"
"87.2727272727","87.2727272727","471.809090909","471.809090909","black","legacy","legacy","legacy","0","incongruent","uniform","0","undefined","0","s","0","0","0","0","109","109","0","0","0","109","109","109","0","109","109","109","09/25/21 23:22:46","600","The main experiment item","yes","FlankerTask.osexp","C:\Users\Brian\Desktop\College - Graduate\Graduate Work\Advanced Quant","no","mono","no","18","no","white","no","yes","768","legacy","29","79","C:/Users/Brian/Desktop/College - Graduate/Graduate Work/Advanced Quant/BK-subject-4.csv","legacy","Kafkaesque Koffka","3.2.8","0","h","NA","h","h","NA","h","433","NA","3820","5513","NA","433","2","legacy","1024","2","48000","-16","experiment","hhshh","4","even","5783","149005","NA","NA","198744","197667","1962","143491","NA","198742","198846","195516","1954","NA","198846","199281","Flanker Task","96","51899","110","yes","1024"
"87.3873873874","87.3873873874","472.063063063","472.063063063","black","legacy","legacy","legacy","0","congruent","uniform","1","undefined","1","h","0","0","0","0","110","110","0","0","0","110","110","110","0","110","110","110","09/25/21 23:22:46","600","The main experiment item","yes","FlankerTask.osexp","C:\Users\Brian\Desktop\College - Graduate\Graduate Work\Advanced Quant","no","mono","no","18","no","white","no","yes","768","legacy","30","79","C:/Users/Brian/Desktop/College - Graduate/Graduate Work/Advanced Quant/BK-subject-4.csv","legacy","Kafkaesque Koffka","3.2.8","0","h","NA","h","h","NA","h","500","NA","3820","5513","NA","500","2","legacy","1024","2","48000","-16","experiment","hhhhh","4","even","5783","149005","NA","NA","200866","199791","1962","143491","NA","200863","200967","199289","1954","NA","200967","201468","Flanker Task","97","52399","111","yes","1024"
"87.5","87.5","472.571428571","472.571428571","black","legacy","legacy","legacy","0","congruent","uniform","1","undefined","1","h","0","0","0","0","111","111","0","0","0","111","111","111","0","111","111","111","09/25/21 23:22:46","600","The main experiment item","yes","FlankerTask.osexp","C:\Users\Brian\Desktop\College - Graduate\Graduate Work\Advanced Quant","no","mono","no","18","no","white","no","yes","768","legacy","31","79","C:/Users/Brian/Desktop/College - Graduate/Graduate Work/Advanced Quant/BK-subject-4.csv","legacy","Kafkaesque Koffka","3.2.8","0","h","NA","h","h","NA","h","529","NA","3820","5513","NA","529","2","legacy","1024","2","48000","-16","experiment","hhhhh","4","even","5783","149005","NA","NA","202554","201477","1962","143491","NA","202551","202656","199289","1954","NA","202656","203187","Flanker Task","98","52928","112","yes","1024"
"87.610619469","87.610619469","471.460176991","471.460176991","black","legacy","legacy","legacy","0","incongruent","uniform","1","undefined","1","s","0","0","0","0","112","112","0","0","0","112","112","112","0","112","112","112","09/25/21 23:22:46","600","The main experiment item","yes","FlankerTask.osexp","C:\Users\Brian\Desktop\College - Graduate\Graduate Work\Advanced Quant","no","mono","no","18","no","white","no","yes","768","legacy","32","79","C:/Users/Brian/Desktop/College - Graduate/Graduate Work/Advanced Quant/BK-subject-4.csv","legacy","Kafkaesque Koffka","3.2.8","0","s","NA","h","h","NA","s","347","NA","3820","5513","NA","347","2","legacy","1024","2","48000","-16","experiment","hhshh","4","even","5783","149005","NA","NA","204270","203195","1962","143491","NA","204268","204373","199289","1954","NA","204373","204722","Flanker Task","99","53275","113","yes","1024"
"87.7192982456","87.7192982456","471.421052632","471.421052632","black","legacy","legacy","legacy","0","congruent","uniform","1","undefined","1","s","0","0","0","0","113","113","0","0","0","113","113","113","0","113","113","113","09/25/21 23:22:46","600","The main experiment item","yes","FlankerTask.osexp","C:\Users\Brian\Desktop\College - Graduate\Graduate Work\Advanced Quant","no","mono","no","18","no","white","no","yes","768","legacy","33","79","C:/Users/Brian/Desktop/College - Graduate/Graduate Work/Advanced Quant/BK-subject-4.csv","legacy","Kafkaesque Koffka","3.2.8","0","s","NA","h","h","NA","s","467","NA","3820","5513","NA","467","2","legacy","1024","2","48000","-16","experiment","sssss","4","even","5783","149005","NA","NA","205807","204731","1962","143491","NA","205804","205910","199289","1954","NA","205910","206379","Flanker Task","100","53742","114","yes","1024"
