Stimulus,acc,accuracy,average_response_time,avg_rt,background,canvas_backend,clock_backend,color_backend,compensation,condition,coordinates,correct,correct_instructions1,correct_keyboard_response,correct_response,count_Block1,count_Block2,count_Block3,count_ISI,count_errorFeedback,count_experiment,count_faster,count_finish,count_fixation,count_instructions1,count_instructions2,count_instructions3,count_keyboard_response,count_logger,count_sequence,count_stimulus,datetime,deadline,description,disable_garbage_collection,experiment_file,experiment_path,font_bold,font_family,font_italic,font_size,font_underline,foreground,form_clicks,fullscreen,height,keyboard_backend,live_row,live_row_Block1,logfile,mouse_backend,new_column_1,opensesame_codename,opensesame_version,repeat_cycle,response,response_finish,response_instructions1,response_instructions2,response_instructions3,response_keyboard_response,response_time,response_time_finish,response_time_instructions1,response_time_instructions2,response_time_instructions3,response_time_keyboard_response,round_decimals,sampler_backend,sound_buf_size,sound_channels,sound_freq,sound_sample_size,start,stimulus,subject_nr,subject_parity,time_Block1,time_Block2,time_Block3,time_ISI,time_errorFeedback,time_experiment,time_faster,time_finish,time_fixation,time_instructions1,time_instructions2,time_instructions3,time_keyboard_response,time_logger,time_sequence,time_stimulus,title,total_correct,total_response_time,total_responses,uniform_coordinates,width
NA,100,100,1141,1141,black,legacy,legacy,legacy,0,incongruent,uniform,1,undefined,1,s,0,0,0,0,0,0,0,0,0,0,0,0,0,0,0,0,Fri Sep 17 17:02:01 2021,1500,Flanker Task,yes,Flanker Task.osexp,C:/Users/rayra/Documents,no,mono,no,18,no,white,no,yes,768,legacy,0,0,C:/Users/rayra/Documents/rc-subject-0.csv,legacy,NA,Lentiform Loewenfeld,3.3.9,0,s,NA,h,NA,NA,s,1141,NA,36919,NA,NA,1141,2,legacy,1024,2,48000,-16,experiment,HHSHH,0,even,39174,NA,NA,NA,NA,2250,NA,NA,39256,2254,NA,NA,39358,40500,39254,39358,Flan ,1,1141,1,yes,1024
NA,100,100,923.5,923.5,black,legacy,legacy,legacy,0,congruent,uniform,1,undefined,1,s,0,0,0,1,1,0,1,0,1,0,0,0,1,1,1,1,Fri Sep 17 17:02:01 2021,1500,Flanker Task,yes,Flanker Task.osexp,C:/Users/rayra/Documents,no,mono,no,18,no,white,no,yes,768,legacy,1,1,C:/Users/rayra/Documents/rc-subject-0.csv,legacy,NA,Lentiform Loewenfeld,3.3.9,0,s,NA,h,NA,NA,s,706,NA,36919,NA,NA,706,2,legacy,1024,2,48000,-16,experiment,SSSSS,0,even,39174,NA,NA,40510,NA,2250,NA,NA,41611,2254,NA,NA,41713,42420,41608,41713,Flan ,2,1847,2,yes,1024
NA,100,100,810,810,black,legacy,legacy,legacy,0,congruent,uniform,1,undefined,1,h,0,0,0,2,2,0,2,0,2,0,0,0,2,2,2,2,Fri Sep 17 17:02:01 2021,1500,Flanker Task,yes,Flanker Task.osexp,C:/Users/rayra/Documents,no,mono,no,18,no,white,no,yes,768,legacy,2,2,C:/Users/rayra/Documents/rc-subject-0.csv,legacy,NA,Lentiform Loewenfeld,3.3.9,0,h,NA,h,NA,NA,h,583,NA,36919,NA,NA,583,2,legacy,1024,2,48000,-16,experiment,HHHHH,0,even,39174,NA,NA,42426,NA,2250,NA,NA,43535,2254,NA,NA,43639,44222,43532,43638,Flan ,3,2430,3,yes,1024
NA,100,100,754.5,754.5,black,legacy,legacy,legacy,0,congruent,uniform,1,undefined,1,h,0,0,0,3,3,0,3,0,3,0,0,0,3,3,3,3,Fri Sep 17 17:02:01 2021,1500,Flanker Task,yes,Flanker Task.osexp,C:/Users/rayra/Documents,no,mono,no,18,no,white,no,yes,768,legacy,3,3,C:/Users/rayra/Documents/rc-subject-0.csv,legacy,NA,Lentiform Loewenfeld,3.3.9,0,h,NA,h,NA,NA,h,588,NA,36919,NA,NA,588,2,legacy,1024,2,48000,-16,experiment,HHHHH,0,even,39174,NA,NA,44229,NA,2250,NA,NA,45331,2254,NA,NA,45433,46021,45328,45433,Flan ,4,3018,4,yes,1024
NA,100,100,714,714,black,legacy,legacy,legacy,0,congruent,uniform,1,undefined,1,h,0,0,0,4,4,0,4,0,4,0,0,0,4,4,4,4,Fri Sep 17 17:02:01 2021,1500,Flanker Task,yes,Flanker Task.osexp,C:/Users/rayra/Documents,no,mono,no,18,no,white,no,yes,768,legacy,4,4,C:/Users/rayra/Documents/rc-subject-0.csv,legacy,NA,Lentiform Loewenfeld,3.3.9,0,h,NA,h,NA,NA,h,552,NA,36919,NA,NA,552,2,legacy,1024,2,48000,-16,experiment,HHHHH,0,even,39174,NA,NA,46027,NA,2250,NA,NA,47137,2254,NA,NA,47241,47794,47134,47241,Flan ,5,3570,5,yes,1024
NA,100,100,717.1666667,717.1666667,black,legacy,legacy,legacy,0,incongruent,uniform,1,undefined,1,h,0,0,0,5,5,0,5,0,5,0,0,0,5,5,5,5,Fri Sep 17 17:02:01 2021,1500,Flanker Task,yes,Flanker Task.osexp,C:/Users/rayra/Documents,no,mono,no,18,no,white,no,yes,768,legacy,5,5,C:/Users/rayra/Documents/rc-subject-0.csv,legacy,NA,Lentiform Loewenfeld,3.3.9,0,h,NA,h,NA,NA,h,733,NA,36919,NA,NA,733,2,legacy,1024,2,48000,-16,experiment,SSHSS,0,even,39174,NA,NA,47800,NA,2250,NA,NA,48920,2254,NA,NA,49022,49756,48918,49022,Flan ,6,4303,6,yes,1024
NA,100,100,705.7142857,705.7142857,black,legacy,legacy,legacy,0,incongruent,uniform,1,undefined,1,s,0,0,0,6,6,0,6,0,6,0,0,0,6,6,6,6,Fri Sep 17 17:02:01 2021,1500,Flanker Task,yes,Flanker Task.osexp,C:/Users/rayra/Documents,no,mono,no,18,no,white,no,yes,768,legacy,6,6,C:/Users/rayra/Documents/rc-subject-0.csv,legacy,NA,Lentiform Loewenfeld,3.3.9,0,s,NA,h,NA,NA,s,637,NA,36919,NA,NA,637,2,legacy,1024,2,48000,-16,experiment,HHSHH,0,even,39174,NA,NA,49761,NA,2250,NA,NA,50872,2254,NA,NA,50975,51613,50870,50975,Flan ,7,4940,7,yes,1024
NA,100,100,694.625,694.625,black,legacy,legacy,legacy,0,congruent,uniform,1,undefined,1,s,0,0,0,7,7,0,7,0,7,0,0,0,7,7,7,7,Fri Sep 17 17:02:01 2021,1500,Flanker Task,yes,Flanker Task.osexp,C:/Users/rayra/Documents,no,mono,no,18,no,white,no,yes,768,legacy,7,7,C:/Users/rayra/Documents/rc-subject-0.csv,legacy,NA,Lentiform Loewenfeld,3.3.9,0,s,NA,h,NA,NA,s,617,NA,36919,NA,NA,617,2,legacy,1024,2,48000,-16,experiment,SSSSS,0,even,39174,NA,NA,51619,NA,2250,NA,NA,52726,2254,NA,NA,52829,53446,52724,52829,Flan ,8,5557,8,yes,1024
NA,100,100,681.6666667,681.6666667,black,legacy,legacy,legacy,0,congruent,uniform,1,undefined,1,h,0,0,0,8,8,0,8,0,8,0,0,0,8,8,8,8,Fri Sep 17 17:02:01 2021,1500,Flanker Task,yes,Flanker Task.osexp,C:/Users/rayra/Documents,no,mono,no,18,no,white,no,yes,768,legacy,8,8,C:/Users/rayra/Documents/rc-subject-0.csv,legacy,NA,Lentiform Loewenfeld,3.3.9,0,h,NA,h,NA,NA,h,578,NA,36919,NA,NA,578,2,legacy,1024,2,48000,-16,experiment,HHHHH,0,even,39174,NA,NA,53452,NA,2250,NA,NA,54566,2254,NA,NA,54669,55247,54564,54669,Flan ,9,6135,9,yes,1024
NA,100,100,668.6,668.6,black,legacy,legacy,legacy,0,congruent,uniform,1,undefined,1,h,0,0,0,9,9,0,9,0,9,0,0,0,9,9,9,9,Fri Sep 17 17:02:01 2021,1500,Flanker Task,yes,Flanker Task.osexp,C:/Users/rayra/Documents,no,mono,no,18,no,white,no,yes,768,legacy,9,9,C:/Users/rayra/Documents/rc-subject-0.csv,legacy,NA,Lentiform Loewenfeld,3.3.9,0,h,NA,h,NA,NA,h,551,NA,36919,NA,NA,551,2,legacy,1024,2,48000,-16,experiment,HHHHH,0,even,39174,NA,NA,55253,NA,2250,NA,NA,56354,2254,NA,NA,56456,57007,56351,56456,Flan ,10,6686,10,yes,1024
NA,100,100,661.5454545,661.5454545,black,legacy,legacy,legacy,0,congruent,uniform,1,undefined,1,h,0,0,0,10,10,0,10,0,10,0,0,0,10,10,10,10,Fri Sep 17 17:02:01 2021,1500,Flanker Task,yes,Flanker Task.osexp,C:/Users/rayra/Documents,no,mono,no,18,no,white,no,yes,768,legacy,10,10,C:/Users/rayra/Documents/rc-subject-0.csv,legacy,NA,Lentiform Loewenfeld,3.3.9,0,h,NA,h,NA,NA,h,591,NA,36919,NA,NA,591,2,legacy,1024,2,48000,-16,experiment,HHHHH,0,even,39174,NA,NA,57013,NA,2250,NA,NA,58118,2254,NA,NA,58221,58813,58116,58221,Flan ,11,7277,11,yes,1024
NA,100,100,657.6666667,657.6666667,black,legacy,legacy,legacy,0,congruent,uniform,1,undefined,1,s,0,0,0,11,11,0,11,0,11,0,0,0,11,11,11,11,Fri Sep 17 17:02:01 2021,1500,Flanker Task,yes,Flanker Task.osexp,C:/Users/rayra/Documents,no,mono,no,18,no,white,no,yes,768,legacy,11,11,C:/Users/rayra/Documents/rc-subject-0.csv,legacy,NA,Lentiform Loewenfeld,3.3.9,0,s,NA,h,NA,NA,s,615,NA,36919,NA,NA,615,2,legacy,1024,2,48000,-16,experiment,SSSSS,0,even,39174,NA,NA,58818,NA,2250,NA,NA,59920,2254,NA,NA,60022,60637,59917,60022,Flan ,12,7892,12,yes,1024
NA,100,100,655.9230769,655.9230769,black,legacy,legacy,legacy,0,incongruent,uniform,1,undefined,1,s,0,0,0,12,12,0,12,0,12,0,0,0,12,12,12,12,Fri Sep 17 17:02:01 2021,1500,Flanker Task,yes,Flanker Task.osexp,C:/Users/rayra/Documents,no,mono,no,18,no,white,no,yes,768,legacy,12,12,C:/Users/rayra/Documents/rc-subject-0.csv,legacy,NA,Lentiform Loewenfeld,3.3.9,0,s,NA,h,NA,NA,s,635,NA,36919,NA,NA,635,2,legacy,1024,2,48000,-16,experiment,HHSHH,0,even,39174,NA,NA,60643,NA,2250,NA,NA,61748,2254,NA,NA,61850,62486,61746,61850,Flan ,13,8527,13,yes,1024
NA,100,100,655.3571429,655.3571429,black,legacy,legacy,legacy,0,incongruent,uniform,1,undefined,1,s,0,0,0,13,13,0,13,0,13,0,0,0,13,13,13,13,Fri Sep 17 17:02:01 2021,1500,Flanker Task,yes,Flanker Task.osexp,C:/Users/rayra/Documents,no,mono,no,18,no,white,no,yes,768,legacy,13,13,C:/Users/rayra/Documents/rc-subject-0.csv,legacy,NA,Lentiform Loewenfeld,3.3.9,0,s,NA,h,NA,NA,s,648,NA,36919,NA,NA,648,2,legacy,1024,2,48000,-16,experiment,HHSHH,0,even,39174,NA,NA,62492,NA,2250,NA,NA,63601,2254,NA,NA,63703,64352,63598,63703,Flan ,14,9175,14,yes,1024
NA,100,100,652.1333333,652.1333333,black,legacy,legacy,legacy,0,congruent,uniform,1,undefined,1,h,0,0,0,14,14,0,14,0,14,0,0,0,14,14,14,14,Fri Sep 17 17:02:01 2021,1500,Flanker Task,yes,Flanker Task.osexp,C:/Users/rayra/Documents,no,mono,no,18,no,white,no,yes,768,legacy,14,14,C:/Users/rayra/Documents/rc-subject-0.csv,legacy,NA,Lentiform Loewenfeld,3.3.9,0,h,NA,h,NA,NA,h,607,NA,36919,NA,NA,607,2,legacy,1024,2,48000,-16,experiment,HHHHH,0,even,39174,NA,NA,64358,NA,2250,NA,NA,65462,2254,NA,NA,65565,66173,65460,65565,Flan ,15,9782,15,yes,1024
NA,100,100,653.4375,653.4375,black,legacy,legacy,legacy,0,incongruent,uniform,1,undefined,1,h,0,0,0,15,15,0,15,0,15,0,0,0,15,15,15,15,Fri Sep 17 17:02:01 2021,1500,Flanker Task,yes,Flanker Task.osexp,C:/Users/rayra/Documents,no,mono,no,18,no,white,no,yes,768,legacy,15,15,C:/Users/rayra/Documents/rc-subject-0.csv,legacy,NA,Lentiform Loewenfeld,3.3.9,0,h,NA,h,NA,NA,h,673,NA,36919,NA,NA,673,2,legacy,1024,2,48000,-16,experiment,SSHSS,0,even,39174,NA,NA,66179,NA,2250,NA,NA,67285,2254,NA,NA,67389,68063,67282,67388,Flan ,16,10455,16,yes,1024
NA,100,100,655.7647059,655.7647059,black,legacy,legacy,legacy,0,incongruent,uniform,1,undefined,1,h,0,0,0,16,16,0,16,0,16,0,0,0,16,16,16,16,Fri Sep 17 17:02:01 2021,1500,Flanker Task,yes,Flanker Task.osexp,C:/Users/rayra/Documents,no,mono,no,18,no,white,no,yes,768,legacy,16,16,C:/Users/rayra/Documents/rc-subject-0.csv,legacy,NA,Lentiform Loewenfeld,3.3.9,0,h,NA,h,NA,NA,h,693,NA,36919,NA,NA,693,2,legacy,1024,2,48000,-16,experiment,SSHSS,0,even,39174,NA,NA,68068,NA,2250,NA,NA,69179,2254,NA,NA,69281,69975,69176,69281,Flan ,17,11148,17,yes,1024
NA,100,100,651.9444444,651.9444444,black,legacy,legacy,legacy,0,incongruent,uniform,1,undefined,1,h,0,0,0,17,17,0,17,0,17,0,0,0,17,17,17,17,Fri Sep 17 17:02:01 2021,1500,Flanker Task,yes,Flanker Task.osexp,C:/Users/rayra/Documents,no,mono,no,18,no,white,no,yes,768,legacy,17,17,C:/Users/rayra/Documents/rc-subject-0.csv,legacy,NA,Lentiform Loewenfeld,3.3.9,0,h,NA,h,NA,NA,h,587,NA,36919,NA,NA,587,2,legacy,1024,2,48000,-16,experiment,SSHSS,0,even,39174,NA,NA,69981,NA,2250,NA,NA,71088,2254,NA,NA,71190,71777,71085,71190,Flan ,18,11735,18,yes,1024
NA,100,100,652.4210526,652.4210526,black,legacy,legacy,legacy,0,incongruent,uniform,1,undefined,1,s,0,0,0,18,18,0,18,0,18,0,0,0,18,18,18,18,Fri Sep 17 17:02:01 2021,1500,Flanker Task,yes,Flanker Task.osexp,C:/Users/rayra/Documents,no,mono,no,18,no,white,no,yes,768,legacy,18,18,C:/Users/rayra/Documents/rc-subject-0.csv,legacy,NA,Lentiform Loewenfeld,3.3.9,0,s,NA,h,NA,NA,s,661,NA,36919,NA,NA,661,2,legacy,1024,2,48000,-16,experiment,HHSHH,0,even,39174,NA,NA,71790,NA,2250,NA,NA,72905,2254,NA,NA,73009,73671,72903,73009,Flan ,19,12396,19,yes,1024
NA,100,100,652.25,652.25,black,legacy,legacy,legacy,0,incongruent,uniform,1,undefined,1,s,0,0,0,19,19,0,19,0,19,0,0,0,19,19,19,19,Fri Sep 17 17:02:01 2021,1500,Flanker Task,yes,Flanker Task.osexp,C:/Users/rayra/Documents,no,mono,no,18,no,white,no,yes,768,legacy,19,19,C:/Users/rayra/Documents/rc-subject-0.csv,legacy,NA,Lentiform Loewenfeld,3.3.9,0,s,NA,h,NA,NA,s,649,NA,36919,NA,NA,649,2,legacy,1024,2,48000,-16,experiment,HHSHH,0,even,39174,NA,NA,73677,NA,2250,NA,NA,74779,2254,NA,NA,74883,75532,74776,74883,Flan ,20,13045,20,yes,1024
NA,100,100,650.3809524,650.3809524,black,legacy,legacy,legacy,0,congruent,uniform,1,undefined,1,h,0,0,0,20,20,0,20,0,20,0,0,0,20,20,20,20,Fri Sep 17 17:02:01 2021,1500,Flanker Task,yes,Flanker Task.osexp,C:/Users/rayra/Documents,no,mono,no,18,no,white,no,yes,768,legacy,20,20,C:/Users/rayra/Documents/rc-subject-0.csv,legacy,NA,Lentiform Loewenfeld,3.3.9,0,h,NA,h,NA,NA,h,613,NA,36919,NA,NA,613,2,legacy,1024,2,48000,-16,experiment,HHHHH,0,even,39174,NA,NA,75539,NA,2250,NA,NA,76653,2254,NA,NA,76756,77370,76651,76756,Flan ,21,13658,21,yes,1024
NA,100,100,650.8636364,650.8636364,black,legacy,legacy,legacy,0,incongruent,uniform,1,undefined,1,h,0,0,0,21,21,0,21,0,21,0,0,0,21,21,21,21,Fri Sep 17 17:02:01 2021,1500,Flanker Task,yes,Flanker Task.osexp,C:/Users/rayra/Documents,no,mono,no,18,no,white,no,yes,768,legacy,21,21,C:/Users/rayra/Documents/rc-subject-0.csv,legacy,NA,Lentiform Loewenfeld,3.3.9,0,h,NA,h,NA,NA,h,661,NA,36919,NA,NA,661,2,legacy,1024,2,48000,-16,experiment,SSHSS,0,even,39174,NA,NA,77376,NA,2250,NA,NA,78489,2254,NA,NA,78591,79252,78486,78591,Flan ,22,14319,22,yes,1024
NA,100,100,651.1304348,651.1304348,black,legacy,legacy,legacy,0,congruent,uniform,1,undefined,1,s,0,0,0,22,22,0,22,0,22,0,0,0,22,22,22,22,Fri Sep 17 17:02:01 2021,1500,Flanker Task,yes,Flanker Task.osexp,C:/Users/rayra/Documents,no,mono,no,18,no,white,no,yes,768,legacy,22,22,C:/Users/rayra/Documents/rc-subject-0.csv,legacy,NA,Lentiform Loewenfeld,3.3.9,0,s,NA,h,NA,NA,s,657,NA,36919,NA,NA,657,2,legacy,1024,2,48000,-16,experiment,SSSSS,0,even,39174,NA,NA,79259,NA,2250,NA,NA,80382,2254,NA,NA,80485,81143,80379,80485,Flan ,23,14976,23,yes,1024
NA,100,100,649.7083333,649.7083333,black,legacy,legacy,legacy,0,incongruent,uniform,1,undefined,1,s,0,0,0,23,23,0,23,0,23,0,0,0,23,23,23,23,Fri Sep 17 17:02:01 2021,1500,Flanker Task,yes,Flanker Task.osexp,C:/Users/rayra/Documents,no,mono,no,18,no,white,no,yes,768,legacy,23,23,C:/Users/rayra/Documents/rc-subject-0.csv,legacy,NA,Lentiform Loewenfeld,3.3.9,0,s,NA,h,NA,NA,s,617,NA,36919,NA,NA,617,2,legacy,1024,2,48000,-16,experiment,HHSHH,0,even,39174,NA,NA,81154,NA,2250,NA,NA,82259,2254,NA,NA,82362,82980,82256,82362,Flan ,24,15593,24,yes,1024
NA,100,100,646.32,646.32,black,legacy,legacy,legacy,0,congruent,uniform,1,undefined,1,h,0,0,0,24,24,0,24,0,24,0,0,0,24,24,24,24,Fri Sep 17 17:02:01 2021,1500,Flanker Task,yes,Flanker Task.osexp,C:/Users/rayra/Documents,no,mono,no,18,no,white,no,yes,768,legacy,24,24,C:/Users/rayra/Documents/rc-subject-0.csv,legacy,NA,Lentiform Loewenfeld,3.3.9,0,h,NA,h,NA,NA,h,565,NA,36919,NA,NA,565,2,legacy,1024,2,48000,-16,experiment,HHHHH,0,even,39174,NA,NA,82986,NA,2250,NA,NA,84092,2254,NA,NA,84197,84763,84090,84197,Flan ,25,16158,25,yes,1024
NA,100,100,644.5769231,644.5769231,black,legacy,legacy,legacy,0,congruent,uniform,1,undefined,1,s,0,0,0,25,25,0,25,0,25,0,0,0,25,25,25,25,Fri Sep 17 17:02:01 2021,1500,Flanker Task,yes,Flanker Task.osexp,C:/Users/rayra/Documents,no,mono,no,18,no,white,no,yes,768,legacy,25,25,C:/Users/rayra/Documents/rc-subject-0.csv,legacy,NA,Lentiform Loewenfeld,3.3.9,0,s,NA,h,NA,NA,s,601,NA,36919,NA,NA,601,2,legacy,1024,2,48000,-16,experiment,SSSSS,0,even,39174,NA,NA,84768,NA,2250,NA,NA,85867,2254,NA,NA,85969,86571,85864,85969,Flan ,26,16759,26,yes,1024
NA,100,100,645.4074074,645.4074074,black,legacy,legacy,legacy,0,incongruent,uniform,1,undefined,1,h,0,0,0,26,26,0,26,0,26,0,0,0,26,26,26,26,Fri Sep 17 17:02:01 2021,1500,Flanker Task,yes,Flanker Task.osexp,C:/Users/rayra/Documents,no,mono,no,18,no,white,no,yes,768,legacy,26,26,C:/Users/rayra/Documents/rc-subject-0.csv,legacy,NA,Lentiform Loewenfeld,3.3.9,0,h,NA,h,NA,NA,h,667,NA,36919,NA,NA,667,2,legacy,1024,2,48000,-16,experiment,SSHSS,0,even,39174,NA,NA,86577,NA,2250,NA,NA,87687,2254,NA,NA,87791,88458,87684,87791,Flan ,27,17426,27,yes,1024
NA,100,100,646.1071429,646.1071429,black,legacy,legacy,legacy,0,incongruent,uniform,1,undefined,1,h,0,0,0,27,27,0,27,0,27,0,0,0,27,27,27,27,Fri Sep 17 17:02:01 2021,1500,Flanker Task,yes,Flanker Task.osexp,C:/Users/rayra/Documents,no,mono,no,18,no,white,no,yes,768,legacy,27,27,C:/Users/rayra/Documents/rc-subject-0.csv,legacy,NA,Lentiform Loewenfeld,3.3.9,0,h,NA,h,NA,NA,h,665,NA,36919,NA,NA,665,2,legacy,1024,2,48000,-16,experiment,SSHSS,0,even,39174,NA,NA,88464,NA,2250,NA,NA,89568,2254,NA,NA,89673,90339,89565,89672,Flan ,28,18091,28,yes,1024
NA,100,100,645.0344828,645.0344828,black,legacy,legacy,legacy,0,congruent,uniform,1,undefined,1,h,0,0,0,28,28,0,28,0,28,0,0,0,28,28,28,28,Fri Sep 17 17:02:01 2021,1500,Flanker Task,yes,Flanker Task.osexp,C:/Users/rayra/Documents,no,mono,no,18,no,white,no,yes,768,legacy,28,28,C:/Users/rayra/Documents/rc-subject-0.csv,legacy,NA,Lentiform Loewenfeld,3.3.9,0,h,NA,h,NA,NA,h,615,NA,36919,NA,NA,615,2,legacy,1024,2,48000,-16,experiment,HHHHH,0,even,39174,NA,NA,90345,NA,2250,NA,NA,91459,2254,NA,NA,91561,92177,91456,91561,Flan ,29,18706,29,yes,1024
NA,100,100,643.9333333,643.9333333,black,legacy,legacy,legacy,0,congruent,uniform,1,undefined,1,s,0,0,0,29,29,0,29,0,29,0,0,0,29,29,29,29,Fri Sep 17 17:02:01 2021,1500,Flanker Task,yes,Flanker Task.osexp,C:/Users/rayra/Documents,no,mono,no,18,no,white,no,yes,768,legacy,29,29,C:/Users/rayra/Documents/rc-subject-0.csv,legacy,NA,Lentiform Loewenfeld,3.3.9,0,s,NA,h,NA,NA,s,612,NA,36919,NA,NA,612,2,legacy,1024,2,48000,-16,experiment,SSSSS,0,even,39174,NA,NA,92183,NA,2250,NA,NA,93273,2254,NA,NA,93375,93987,93270,93375,Flan ,30,19318,30,yes,1024
NA,100,100,642.1612903,642.1612903,black,legacy,legacy,legacy,0,incongruent,uniform,1,undefined,1,s,0,0,0,30,30,0,30,0,30,0,0,0,30,30,30,30,Fri Sep 17 17:02:01 2021,1500,Flanker Task,yes,Flanker Task.osexp,C:/Users/rayra/Documents,no,mono,no,18,no,white,no,yes,768,legacy,30,30,C:/Users/rayra/Documents/rc-subject-0.csv,legacy,NA,Lentiform Loewenfeld,3.3.9,0,s,NA,h,NA,NA,s,589,NA,36919,NA,NA,589,2,legacy,1024,2,48000,-16,experiment,HHSHH,0,even,39174,NA,NA,93993,NA,2250,NA,NA,95105,2254,NA,NA,95209,95799,95102,95209,Flan ,31,19907,31,yes,1024
NA,100,100,639.8125,639.8125,black,legacy,legacy,legacy,0,incongruent,uniform,1,undefined,1,h,0,0,0,31,31,0,31,0,31,0,0,0,31,31,31,31,Fri Sep 17 17:02:01 2021,1500,Flanker Task,yes,Flanker Task.osexp,C:/Users/rayra/Documents,no,mono,no,18,no,white,no,yes,768,legacy,31,31,C:/Users/rayra/Documents/rc-subject-0.csv,legacy,NA,Lentiform Loewenfeld,3.3.9,0,h,NA,h,NA,NA,h,567,NA,36919,NA,NA,567,2,legacy,1024,2,48000,-16,experiment,SSHSS,0,even,39174,NA,NA,95804,NA,2250,NA,NA,96914,2254,NA,NA,97016,97584,96912,97016,Flan ,32,20474,32,yes,1024
NA,100,100,638.4848485,638.4848485,black,legacy,legacy,legacy,0,incongruent,uniform,1,undefined,1,h,0,0,0,32,32,0,32,0,32,0,0,0,32,32,32,32,Fri Sep 17 17:02:01 2021,1500,Flanker Task,yes,Flanker Task.osexp,C:/Users/rayra/Documents,no,mono,no,18,no,white,no,yes,768,legacy,32,32,C:/Users/rayra/Documents/rc-subject-0.csv,legacy,NA,Lentiform Loewenfeld,3.3.9,0,h,NA,h,NA,NA,h,596,NA,36919,NA,NA,596,2,legacy,1024,2,48000,-16,experiment,SSHSS,0,even,39174,NA,NA,97590,NA,2250,NA,NA,98702,2254,NA,NA,98807,99404,98700,98807,Flan ,33,21070,33,yes,1024
NA,100,100,636.1176471,636.1176471,black,legacy,legacy,legacy,0,congruent,uniform,1,undefined,1,s,0,0,0,33,33,0,33,0,33,0,0,0,33,33,33,33,Fri Sep 17 17:02:01 2021,1500,Flanker Task,yes,Flanker Task.osexp,C:/Users/rayra/Documents,no,mono,no,18,no,white,no,yes,768,legacy,33,33,C:/Users/rayra/Documents/rc-subject-0.csv,legacy,NA,Lentiform Loewenfeld,3.3.9,0,s,NA,h,NA,NA,s,558,NA,36919,NA,NA,558,2,legacy,1024,2,48000,-16,experiment,SSSSS,0,even,39174,NA,NA,99409,NA,2250,NA,NA,100511,2254,NA,NA,100613,101171,100509,100613,Flan ,34,21628,34,yes,1024
NA,100,100,634.3142857,634.3142857,black,legacy,legacy,legacy,0,congruent,uniform,1,undefined,1,s,0,0,0,34,34,0,34,0,34,0,0,0,34,34,34,34,Fri Sep 17 17:02:01 2021,1500,Flanker Task,yes,Flanker Task.osexp,C:/Users/rayra/Documents,no,mono,no,18,no,white,no,yes,768,legacy,34,34,C:/Users/rayra/Documents/rc-subject-0.csv,legacy,NA,Lentiform Loewenfeld,3.3.9,0,s,NA,h,NA,NA,s,573,NA,36919,NA,NA,573,2,legacy,1024,2,48000,-16,experiment,SSSSS,0,even,39174,NA,NA,101178,NA,2250,NA,NA,102293,2254,NA,NA,102396,102970,102290,102396,Flan ,35,22201,35,yes,1024
NA,100,100,631.5833333,631.5833333,black,legacy,legacy,legacy,0,incongruent,uniform,1,undefined,1,h,0,0,0,35,35,0,35,0,35,0,0,0,35,35,35,35,Fri Sep 17 17:02:01 2021,1500,Flanker Task,yes,Flanker Task.osexp,C:/Users/rayra/Documents,no,mono,no,18,no,white,no,yes,768,legacy,35,35,C:/Users/rayra/Documents/rc-subject-0.csv,legacy,NA,Lentiform Loewenfeld,3.3.9,0,h,NA,h,NA,NA,h,536,NA,36919,NA,NA,536,2,legacy,1024,2,48000,-16,experiment,SSHSS,0,even,39174,NA,NA,102975,NA,2250,NA,NA,104079,2254,NA,NA,104183,104720,104077,104183,Flan ,36,22737,36,yes,1024
NA,100,100,631.2972973,631.2972973,black,legacy,legacy,legacy,0,congruent,uniform,1,undefined,1,s,0,0,0,36,36,0,36,0,36,0,0,0,36,36,36,36,Fri Sep 17 17:02:01 2021,1500,Flanker Task,yes,Flanker Task.osexp,C:/Users/rayra/Documents,no,mono,no,18,no,white,no,yes,768,legacy,36,36,C:/Users/rayra/Documents/rc-subject-0.csv,legacy,NA,Lentiform Loewenfeld,3.3.9,0,s,NA,h,NA,NA,s,621,NA,36919,NA,NA,621,2,legacy,1024,2,48000,-16,experiment,SSSSS,0,even,39174,NA,NA,104726,NA,2250,NA,NA,105818,2254,NA,NA,105921,106543,105816,105921,Flan ,37,23358,37,yes,1024
NA,100,100,631.7368421,631.7368421,black,legacy,legacy,legacy,0,incongruent,uniform,1,undefined,1,s,0,0,0,37,37,0,37,0,37,0,0,0,37,37,37,37,Fri Sep 17 17:02:01 2021,1500,Flanker Task,yes,Flanker Task.osexp,C:/Users/rayra/Documents,no,mono,no,18,no,white,no,yes,768,legacy,37,37,C:/Users/rayra/Documents/rc-subject-0.csv,legacy,NA,Lentiform Loewenfeld,3.3.9,0,s,NA,h,NA,NA,s,648,NA,36919,NA,NA,648,2,legacy,1024,2,48000,-16,experiment,HHSHH,0,even,39174,NA,NA,106548,NA,2250,NA,NA,107646,2254,NA,NA,107748,108396,107643,107748,Flan ,38,24006,38,yes,1024
NA,100,100,631.2820513,631.2820513,black,legacy,legacy,legacy,0,incongruent,uniform,1,undefined,1,h,0,0,0,38,38,0,38,0,38,0,0,0,38,38,38,38,Fri Sep 17 17:02:01 2021,1500,Flanker Task,yes,Flanker Task.osexp,C:/Users/rayra/Documents,no,mono,no,18,no,white,no,yes,768,legacy,38,38,C:/Users/rayra/Documents/rc-subject-0.csv,legacy,NA,Lentiform Loewenfeld,3.3.9,0,h,NA,h,NA,NA,h,614,NA,36919,NA,NA,614,2,legacy,1024,2,48000,-16,experiment,SSHSS,0,even,39174,NA,NA,108402,NA,2250,NA,NA,109504,2254,NA,NA,109608,110224,109501,109608,Flan ,39,24620,39,yes,1024
NA,100,100,630.525,630.525,black,legacy,legacy,legacy,0,incongruent,uniform,1,undefined,1,h,0,0,0,39,39,0,39,0,39,0,0,0,39,39,39,39,Fri Sep 17 17:02:01 2021,1500,Flanker Task,yes,Flanker Task.osexp,C:/Users/rayra/Documents,no,mono,no,18,no,white,no,yes,768,legacy,39,39,C:/Users/rayra/Documents/rc-subject-0.csv,legacy,NA,Lentiform Loewenfeld,3.3.9,0,h,NA,h,NA,NA,h,601,NA,36919,NA,NA,601,2,legacy,1024,2,48000,-16,experiment,SSHSS,0,even,39174,NA,NA,110229,NA,2250,NA,NA,111334,2254,NA,NA,111437,112039,111332,111437,Flan ,40,25221,40,yes,1024
NA,100,100,633.0487805,633.0487805,black,legacy,legacy,legacy,0,incongruent,uniform,1,undefined,1,s,0,0,0,40,40,0,40,0,40,0,0,0,40,40,40,40,Fri Sep 17 17:02:01 2021,1500,Flanker Task,yes,Flanker Task.osexp,C:/Users/rayra/Documents,no,mono,no,18,no,white,no,yes,768,legacy,40,40,C:/Users/rayra/Documents/rc-subject-0.csv,legacy,NA,Lentiform Loewenfeld,3.3.9,0,s,NA,h,NA,NA,s,734,NA,36919,NA,NA,734,2,legacy,1024,2,48000,-16,experiment,HHSHH,0,even,39174,NA,NA,112045,NA,2250,NA,NA,113157,2254,NA,NA,113261,113996,113154,113261,Flan ,41,25955,41,yes,1024
NA,100,100,631.6190476,631.6190476,black,legacy,legacy,legacy,0,congruent,uniform,1,undefined,1,h,0,0,0,41,41,0,41,0,41,0,0,0,41,41,41,41,Fri Sep 17 17:02:01 2021,1500,Flanker Task,yes,Flanker Task.osexp,C:/Users/rayra/Documents,no,mono,no,18,no,white,no,yes,768,legacy,41,41,C:/Users/rayra/Documents/rc-subject-0.csv,legacy,NA,Lentiform Loewenfeld,3.3.9,0,h,NA,h,NA,NA,h,573,NA,36919,NA,NA,573,2,legacy,1024,2,48000,-16,experiment,HHHHH,0,even,39174,NA,NA,114002,NA,2250,NA,NA,115118,2254,NA,NA,115222,115796,115115,115222,Flan ,42,26528,42,yes,1024
NA,100,100,631.6046512,631.6046512,black,legacy,legacy,legacy,0,congruent,uniform,1,undefined,1,s,0,0,0,42,42,0,42,0,42,0,0,0,42,42,42,42,Fri Sep 17 17:02:01 2021,1500,Flanker Task,yes,Flanker Task.osexp,C:/Users/rayra/Documents,no,mono,no,18,no,white,no,yes,768,legacy,42,42,C:/Users/rayra/Documents/rc-subject-0.csv,legacy,NA,Lentiform Loewenfeld,3.3.9,0,s,NA,h,NA,NA,s,631,NA,36919,NA,NA,631,2,legacy,1024,2,48000,-16,experiment,SSSSS,0,even,39174,NA,NA,115802,NA,2250,NA,NA,116929,2254,NA,NA,117032,117664,116926,117032,Flan ,43,27159,43,yes,1024
NA,100,100,631.3181818,631.3181818,black,legacy,legacy,legacy,0,congruent,uniform,1,undefined,1,s,0,0,0,43,43,0,43,0,43,0,0,0,43,43,43,43,Fri Sep 17 17:02:01 2021,1500,Flanker Task,yes,Flanker Task.osexp,C:/Users/rayra/Documents,no,mono,no,18,no,white,no,yes,768,legacy,43,43,C:/Users/rayra/Documents/rc-subject-0.csv,legacy,NA,Lentiform Loewenfeld,3.3.9,0,s,NA,h,NA,NA,s,619,NA,36919,NA,NA,619,2,legacy,1024,2,48000,-16,experiment,SSSSS,0,even,39174,NA,NA,117670,NA,2250,NA,NA,118761,2254,NA,NA,118864,119484,118758,118864,Flan ,44,27778,44,yes,1024
NA,100,100,633.4888889,633.4888889,black,legacy,legacy,legacy,0,incongruent,uniform,1,undefined,1,s,0,0,0,44,44,0,44,0,44,0,0,0,44,44,44,44,Fri Sep 17 17:02:01 2021,1500,Flanker Task,yes,Flanker Task.osexp,C:/Users/rayra/Documents,no,mono,no,18,no,white,no,yes,768,legacy,44,44,C:/Users/rayra/Documents/rc-subject-0.csv,legacy,NA,Lentiform Loewenfeld,3.3.9,0,s,NA,h,NA,NA,s,729,NA,36919,NA,NA,729,2,legacy,1024,2,48000,-16,experiment,HHSHH,0,even,39174,NA,NA,119492,NA,2250,NA,NA,120605,2254,NA,NA,120707,121436,120602,120707,Flan ,45,28507,45,yes,1024
NA,100,100,633.173913,633.173913,black,legacy,legacy,legacy,0,incongruent,uniform,1,undefined,1,s,0,0,0,45,45,0,45,0,45,0,0,0,45,45,45,45,Fri Sep 17 17:02:01 2021,1500,Flanker Task,yes,Flanker Task.osexp,C:/Users/rayra/Documents,no,mono,no,18,no,white,no,yes,768,legacy,45,45,C:/Users/rayra/Documents/rc-subject-0.csv,legacy,NA,Lentiform Loewenfeld,3.3.9,0,s,NA,h,NA,NA,s,619,NA,36919,NA,NA,619,2,legacy,1024,2,48000,-16,experiment,HHSHH,0,even,39174,NA,NA,121442,NA,2250,NA,NA,122546,2254,NA,NA,122648,123268,122543,122648,Flan ,46,29126,46,yes,1024
NA,100,100,633.2553191,633.2553191,black,legacy,legacy,legacy,0,incongruent,uniform,1,undefined,1,s,0,0,0,46,46,0,46,0,46,0,0,0,46,46,46,46,Fri Sep 17 17:02:01 2021,1500,Flanker Task,yes,Flanker Task.osexp,C:/Users/rayra/Documents,no,mono,no,18,no,white,no,yes,768,legacy,46,46,C:/Users/rayra/Documents/rc-subject-0.csv,legacy,NA,Lentiform Loewenfeld,3.3.9,0,s,NA,h,NA,NA,s,637,NA,36919,NA,NA,637,2,legacy,1024,2,48000,-16,experiment,HHSHH,0,even,39174,NA,NA,123274,NA,2250,NA,NA,124380,2254,NA,NA,124484,125122,124377,124483,Flan ,47,29763,47,yes,1024
NA,100,100,633.4375,633.4375,black,legacy,legacy,legacy,0,incongruent,uniform,1,undefined,1,h,0,0,0,47,47,0,47,0,47,0,0,0,47,47,47,47,Fri Sep 17 17:02:01 2021,1500,Flanker Task,yes,Flanker Task.osexp,C:/Users/rayra/Documents,no,mono,no,18,no,white,no,yes,768,legacy,47,47,C:/Users/rayra/Documents/rc-subject-0.csv,legacy,NA,Lentiform Loewenfeld,3.3.9,0,h,NA,h,NA,NA,h,642,NA,36919,NA,NA,642,2,legacy,1024,2,48000,-16,experiment,SSHSS,0,even,39174,NA,NA,125128,NA,2250,NA,NA,126241,2254,NA,NA,126344,126987,126239,126344,Flan ,48,30405,48,yes,1024
NA,100,100,632.1632653,632.1632653,black,legacy,legacy,legacy,0,congruent,uniform,1,undefined,1,s,0,0,0,48,48,0,48,0,48,0,0,0,48,48,48,48,Fri Sep 17 17:02:01 2021,1500,Flanker Task,yes,Flanker Task.osexp,C:/Users/rayra/Documents,no,mono,no,18,no,white,no,yes,768,legacy,48,48,C:/Users/rayra/Documents/rc-subject-0.csv,legacy,NA,Lentiform Loewenfeld,3.3.9,0,s,NA,h,NA,NA,s,571,NA,36919,NA,NA,571,2,legacy,1024,2,48000,-16,experiment,SSSSS,0,even,39174,NA,NA,126993,NA,2250,NA,NA,128105,2254,NA,NA,128209,128781,128102,128209,Flan ,49,30976,49,yes,1024
NA,100,100,632.18,632.18,black,legacy,legacy,legacy,0,congruent,uniform,1,undefined,1,h,0,0,0,49,49,0,49,0,49,0,0,0,49,49,49,49,Fri Sep 17 17:02:01 2021,1500,Flanker Task,yes,Flanker Task.osexp,C:/Users/rayra/Documents,no,mono,no,18,no,white,no,yes,768,legacy,49,49,C:/Users/rayra/Documents/rc-subject-0.csv,legacy,NA,Lentiform Loewenfeld,3.3.9,0,h,NA,h,NA,NA,h,633,NA,36919,NA,NA,633,2,legacy,1024,2,48000,-16,experiment,HHHHH,0,even,39174,NA,NA,128787,NA,2250,NA,NA,129896,2254,NA,NA,130000,130633,129894,130000,Flan ,50,31609,50,yes,1024
NA,100,100,631.6666667,631.6666667,black,legacy,legacy,legacy,0,incongruent,uniform,1,undefined,1,s,0,0,0,50,50,0,50,0,50,0,0,0,50,50,50,50,Fri Sep 17 17:02:01 2021,1500,Flanker Task,yes,Flanker Task.osexp,C:/Users/rayra/Documents,no,mono,no,18,no,white,no,yes,768,legacy,50,50,C:/Users/rayra/Documents/rc-subject-0.csv,legacy,NA,Lentiform Loewenfeld,3.3.9,0,s,NA,h,NA,NA,s,606,NA,36919,NA,NA,606,2,legacy,1024,2,48000,-16,experiment,HHSHH,0,even,39174,NA,NA,130639,NA,2250,NA,NA,131748,2254,NA,NA,131850,132457,131745,131850,Flan ,51,32215,51,yes,1024
NA,100,100,630.8269231,630.8269231,black,legacy,legacy,legacy,0,incongruent,uniform,1,undefined,1,s,0,0,0,51,51,0,51,0,51,0,0,0,51,51,51,51,Fri Sep 17 17:02:01 2021,1500,Flanker Task,yes,Flanker Task.osexp,C:/Users/rayra/Documents,no,mono,no,18,no,white,no,yes,768,legacy,51,51,C:/Users/rayra/Documents/rc-subject-0.csv,legacy,NA,Lentiform Loewenfeld,3.3.9,0,s,NA,h,NA,NA,s,588,NA,36919,NA,NA,588,2,legacy,1024,2,48000,-16,experiment,HHSHH,0,even,39174,NA,NA,132463,NA,2250,NA,NA,133561,2254,NA,NA,133665,134253,133558,133665,Flan ,52,32803,52,yes,1024
NA,100,100,629.7169811,629.7169811,black,legacy,legacy,legacy,0,congruent,uniform,1,undefined,1,s,0,0,0,52,52,0,52,0,52,0,0,0,52,52,52,52,Fri Sep 17 17:02:01 2021,1500,Flanker Task,yes,Flanker Task.osexp,C:/Users/rayra/Documents,no,mono,no,18,no,white,no,yes,768,legacy,52,52,C:/Users/rayra/Documents/rc-subject-0.csv,legacy,NA,Lentiform Loewenfeld,3.3.9,0,s,NA,h,NA,NA,s,572,NA,36919,NA,NA,572,2,legacy,1024,2,48000,-16,experiment,SSSSS,0,even,39174,NA,NA,134259,NA,2250,NA,NA,135360,2254,NA,NA,135464,136037,135358,135464,Flan ,53,33375,53,yes,1024
NA,100,100,630.1481481,630.1481481,black,legacy,legacy,legacy,0,incongruent,uniform,1,undefined,1,s,0,0,0,53,53,0,53,0,53,0,0,0,53,53,53,53,Fri Sep 17 17:02:01 2021,1500,Flanker Task,yes,Flanker Task.osexp,C:/Users/rayra/Documents,no,mono,no,18,no,white,no,yes,768,legacy,53,53,C:/Users/rayra/Documents/rc-subject-0.csv,legacy,NA,Lentiform Loewenfeld,3.3.9,0,s,NA,h,NA,NA,s,653,NA,36919,NA,NA,653,2,legacy,1024,2,48000,-16,experiment,HHSHH,0,even,39174,NA,NA,136043,NA,2250,NA,NA,137155,2254,NA,NA,137257,137911,137153,137257,Flan ,54,34028,54,yes,1024
NA,100,100,629.7454545,629.7454545,black,legacy,legacy,legacy,0,congruent,uniform,1,undefined,1,s,0,0,0,54,54,0,54,0,54,0,0,0,54,54,54,54,Fri Sep 17 17:02:01 2021,1500,Flanker Task,yes,Flanker Task.osexp,C:/Users/rayra/Documents,no,mono,no,18,no,white,no,yes,768,legacy,54,54,C:/Users/rayra/Documents/rc-subject-0.csv,legacy,NA,Lentiform Loewenfeld,3.3.9,0,s,NA,h,NA,NA,s,608,NA,36919,NA,NA,608,2,legacy,1024,2,48000,-16,experiment,SSSSS,0,even,39174,NA,NA,137917,NA,2250,NA,NA,139021,2254,NA,NA,139125,139734,139018,139125,Flan ,55,34636,55,yes,1024
NA,100,100,630.5178571,630.5178571,black,legacy,legacy,legacy,0,incongruent,uniform,1,undefined,1,h,0,0,0,55,55,0,55,0,55,0,0,0,55,55,55,55,Fri Sep 17 17:02:01 2021,1500,Flanker Task,yes,Flanker Task.osexp,C:/Users/rayra/Documents,no,mono,no,18,no,white,no,yes,768,legacy,55,55,C:/Users/rayra/Documents/rc-subject-0.csv,legacy,NA,Lentiform Loewenfeld,3.3.9,0,h,NA,h,NA,NA,h,673,NA,36919,NA,NA,673,2,legacy,1024,2,48000,-16,experiment,SSHSS,0,even,39174,NA,NA,139740,NA,2250,NA,NA,140862,2254,NA,NA,140965,141639,140860,140965,Flan ,56,35309,56,yes,1024
NA,100,100,631.5789474,631.5789474,black,legacy,legacy,legacy,0,incongruent,uniform,1,undefined,1,h,0,0,0,56,56,0,56,0,56,0,0,0,56,56,56,56,Fri Sep 17 17:02:01 2021,1500,Flanker Task,yes,Flanker Task.osexp,C:/Users/rayra/Documents,no,mono,no,18,no,white,no,yes,768,legacy,56,56,C:/Users/rayra/Documents/rc-subject-0.csv,legacy,NA,Lentiform Loewenfeld,3.3.9,0,h,NA,h,NA,NA,h,691,NA,36919,NA,NA,691,2,legacy,1024,2,48000,-16,experiment,SSHSS,0,even,39174,NA,NA,141645,NA,2250,NA,NA,142745,2254,NA,NA,142848,143540,142743,142848,Flan ,57,36000,57,yes,1024
NA,100,100,634.637931,634.637931,black,legacy,legacy,legacy,0,incongruent,uniform,1,undefined,1,s,0,0,0,57,57,0,57,0,57,0,0,0,57,57,57,57,Fri Sep 17 17:02:01 2021,1500,Flanker Task,yes,Flanker Task.osexp,C:/Users/rayra/Documents,no,mono,no,18,no,white,no,yes,768,legacy,57,57,C:/Users/rayra/Documents/rc-subject-0.csv,legacy,NA,Lentiform Loewenfeld,3.3.9,0,s,NA,h,NA,NA,s,809,NA,36919,NA,NA,809,2,legacy,1024,2,48000,-16,experiment,HHSHH,0,even,39174,NA,NA,143546,NA,2250,NA,NA,144658,2254,NA,NA,144762,145572,144656,144761,Flan ,58,36809,58,yes,1024
NA,100,100,636.1864407,636.1864407,black,legacy,legacy,legacy,0,incongruent,uniform,1,undefined,1,h,0,0,0,58,58,0,58,0,58,0,0,0,58,58,58,58,Fri Sep 17 17:02:01 2021,1500,Flanker Task,yes,Flanker Task.osexp,C:/Users/rayra/Documents,no,mono,no,18,no,white,no,yes,768,legacy,58,58,C:/Users/rayra/Documents/rc-subject-0.csv,legacy,NA,Lentiform Loewenfeld,3.3.9,0,h,NA,h,NA,NA,h,726,NA,36919,NA,NA,726,2,legacy,1024,2,48000,-16,experiment,SSHSS,0,even,39174,NA,NA,145578,NA,2250,NA,NA,146684,2254,NA,NA,146787,147514,146681,146787,Flan ,59,37535,59,yes,1024
NA,100,100,635.2666667,635.2666667,black,legacy,legacy,legacy,0,congruent,uniform,1,undefined,1,h,0,0,0,59,59,0,59,0,59,0,0,0,59,59,59,59,Fri Sep 17 17:02:01 2021,1500,Flanker Task,yes,Flanker Task.osexp,C:/Users/rayra/Documents,no,mono,no,18,no,white,no,yes,768,legacy,59,59,C:/Users/rayra/Documents/rc-subject-0.csv,legacy,NA,Lentiform Loewenfeld,3.3.9,0,h,NA,h,NA,NA,h,581,NA,36919,NA,NA,581,2,legacy,1024,2,48000,-16,experiment,HHHHH,0,even,39174,NA,NA,147520,NA,2250,NA,NA,148631,2254,NA,NA,148735,149317,148628,148735,Flan ,60,38116,60,yes,1024
NA,100,100,635.9344262,635.9344262,black,legacy,legacy,legacy,0,congruent,uniform,1,undefined,1,s,0,0,0,60,60,0,60,0,60,0,0,0,60,60,60,60,Fri Sep 17 17:02:01 2021,1500,Flanker Task,yes,Flanker Task.osexp,C:/Users/rayra/Documents,no,mono,no,18,no,white,no,yes,768,legacy,60,60,C:/Users/rayra/Documents/rc-subject-0.csv,legacy,NA,Lentiform Loewenfeld,3.3.9,0,s,NA,h,NA,NA,s,676,NA,36919,NA,NA,676,2,legacy,1024,2,48000,-16,experiment,SSSSS,0,even,39174,NA,NA,149323,NA,2250,NA,NA,150423,2254,NA,NA,150527,151204,150420,150526,Flan ,61,38792,61,yes,1024
NA,100,100,635.4193548,635.4193548,black,legacy,legacy,legacy,0,congruent,uniform,1,undefined,1,h,0,0,0,61,61,0,61,0,61,0,0,0,61,61,61,61,Fri Sep 17 17:02:01 2021,1500,Flanker Task,yes,Flanker Task.osexp,C:/Users/rayra/Documents,no,mono,no,18,no,white,no,yes,768,legacy,61,61,C:/Users/rayra/Documents/rc-subject-0.csv,legacy,NA,Lentiform Loewenfeld,3.3.9,0,h,NA,h,NA,NA,h,604,NA,36919,NA,NA,604,2,legacy,1024,2,48000,-16,experiment,HHHHH,0,even,39174,NA,NA,151210,NA,2250,NA,NA,152312,2254,NA,NA,152414,153019,152309,152414,Flan ,62,39396,62,yes,1024
NA,100,100,635.4920635,635.4920635,black,legacy,legacy,legacy,0,incongruent,uniform,1,undefined,1,s,0,0,0,62,62,0,62,0,62,0,0,0,62,62,62,62,Fri Sep 17 17:02:01 2021,1500,Flanker Task,yes,Flanker Task.osexp,C:/Users/rayra/Documents,no,mono,no,18,no,white,no,yes,768,legacy,62,62,C:/Users/rayra/Documents/rc-subject-0.csv,legacy,NA,Lentiform Loewenfeld,3.3.9,0,s,NA,h,NA,NA,s,640,NA,36919,NA,NA,640,2,legacy,1024,2,48000,-16,experiment,HHSHH,0,even,39174,NA,NA,153025,NA,2250,NA,NA,154141,2254,NA,NA,154245,154886,154138,154245,Flan ,63,40036,63,yes,1024
NA,100,100,635.25,635.25,black,legacy,legacy,legacy,0,incongruent,uniform,1,undefined,1,h,0,0,0,63,63,0,63,0,63,0,0,0,63,63,63,63,Fri Sep 17 17:02:01 2021,1500,Flanker Task,yes,Flanker Task.osexp,C:/Users/rayra/Documents,no,mono,no,18,no,white,no,yes,768,legacy,63,63,C:/Users/rayra/Documents/rc-subject-0.csv,legacy,NA,Lentiform Loewenfeld,3.3.9,0,h,NA,h,NA,NA,h,620,NA,36919,NA,NA,620,2,legacy,1024,2,48000,-16,experiment,SSHSS,0,even,39174,NA,NA,154890,NA,2250,NA,NA,155999,2254,NA,NA,156103,156723,155997,156102,Flan ,64,40656,64,yes,1024
NA,100,100,634.7384615,634.7384615,black,legacy,legacy,legacy,0,incongruent,uniform,1,undefined,1,s,0,0,0,64,64,0,64,0,64,0,0,0,64,64,64,64,Fri Sep 17 17:02:01 2021,1500,Flanker Task,yes,Flanker Task.osexp,C:/Users/rayra/Documents,no,mono,no,18,no,white,no,yes,768,legacy,64,64,C:/Users/rayra/Documents/rc-subject-0.csv,legacy,NA,Lentiform Loewenfeld,3.3.9,0,s,NA,h,NA,NA,s,602,NA,36919,NA,NA,602,2,legacy,1024,2,48000,-16,experiment,HHSHH,0,even,39174,NA,NA,156730,NA,2250,NA,NA,157839,2254,NA,NA,157942,158545,157837,157942,Flan ,65,41258,65,yes,1024
NA,100,100,633.7121212,633.7121212,black,legacy,legacy,legacy,0,congruent,uniform,1,undefined,1,h,0,0,0,65,65,0,65,0,65,0,0,0,65,65,65,65,Fri Sep 17 17:02:01 2021,1500,Flanker Task,yes,Flanker Task.osexp,C:/Users/rayra/Documents,no,mono,no,18,no,white,no,yes,768,legacy,65,65,C:/Users/rayra/Documents/rc-subject-0.csv,legacy,NA,Lentiform Loewenfeld,3.3.9,0,h,NA,h,NA,NA,h,567,NA,36919,NA,NA,567,2,legacy,1024,2,48000,-16,experiment,HHHHH,0,even,39174,NA,NA,158551,NA,2250,NA,NA,159662,2254,NA,NA,159766,160334,159659,159766,Flan ,66,41825,66,yes,1024
NA,100,100,633.6716418,633.6716418,black,legacy,legacy,legacy,0,congruent,uniform,1,undefined,1,h,0,0,0,66,66,0,66,0,66,0,0,0,66,66,66,66,Fri Sep 17 17:02:01 2021,1500,Flanker Task,yes,Flanker Task.osexp,C:/Users/rayra/Documents,no,mono,no,18,no,white,no,yes,768,legacy,66,66,C:/Users/rayra/Documents/rc-subject-0.csv,legacy,NA,Lentiform Loewenfeld,3.3.9,0,h,NA,h,NA,NA,h,631,NA,36919,NA,NA,631,2,legacy,1024,2,48000,-16,experiment,HHHHH,0,even,39174,NA,NA,160340,NA,2250,NA,NA,161457,2254,NA,NA,161559,162191,161454,161559,Flan ,67,42456,67,yes,1024
NA,100,100,633.5147059,633.5147059,black,legacy,legacy,legacy,0,congruent,uniform,1,undefined,1,h,0,0,0,67,67,0,67,0,67,0,0,0,67,67,67,67,Fri Sep 17 17:02:01 2021,1500,Flanker Task,yes,Flanker Task.osexp,C:/Users/rayra/Documents,no,mono,no,18,no,white,no,yes,768,legacy,67,67,C:/Users/rayra/Documents/rc-subject-0.csv,legacy,NA,Lentiform Loewenfeld,3.3.9,0,h,NA,h,NA,NA,h,623,NA,36919,NA,NA,623,2,legacy,1024,2,48000,-16,experiment,HHHHH,0,even,39174,NA,NA,162198,NA,2250,NA,NA,163299,2254,NA,NA,163403,164027,163297,163402,Flan ,68,43079,68,yes,1024
NA,100,100,634.6666667,634.6666667,black,legacy,legacy,legacy,0,incongruent,uniform,1,undefined,1,h,0,0,0,68,68,0,68,0,68,0,0,0,68,68,68,68,Fri Sep 17 17:02:01 2021,1500,Flanker Task,yes,Flanker Task.osexp,C:/Users/rayra/Documents,no,mono,no,18,no,white,no,yes,768,legacy,68,68,C:/Users/rayra/Documents/rc-subject-0.csv,legacy,NA,Lentiform Loewenfeld,3.3.9,0,h,NA,h,NA,NA,h,713,NA,36919,NA,NA,713,2,legacy,1024,2,48000,-16,experiment,SSHSS,0,even,39174,NA,NA,164033,NA,2250,NA,NA,165146,2254,NA,NA,165249,165963,165144,165249,Flan ,69,43792,69,yes,1024
NA,100,100,634.6714286,634.6714286,black,legacy,legacy,legacy,0,congruent,uniform,1,undefined,1,s,0,0,0,69,69,0,69,0,69,0,0,0,69,69,69,69,Fri Sep 17 17:02:01 2021,1500,Flanker Task,yes,Flanker Task.osexp,C:/Users/rayra/Documents,no,mono,no,18,no,white,no,yes,768,legacy,69,69,C:/Users/rayra/Documents/rc-subject-0.csv,legacy,NA,Lentiform Loewenfeld,3.3.9,0,s,NA,h,NA,NA,s,635,NA,36919,NA,NA,635,2,legacy,1024,2,48000,-16,experiment,SSSSS,0,even,39174,NA,NA,165969,NA,2250,NA,NA,167074,2254,NA,NA,167177,167813,167071,167177,Flan ,70,44427,70,yes,1024
NA,100,100,634.5070423,634.5070423,black,legacy,legacy,legacy,0,congruent,uniform,1,undefined,1,h,0,0,0,70,70,0,70,0,70,0,0,0,70,70,70,70,Fri Sep 17 17:02:01 2021,1500,Flanker Task,yes,Flanker Task.osexp,C:/Users/rayra/Documents,no,mono,no,18,no,white,no,yes,768,legacy,70,70,C:/Users/rayra/Documents/rc-subject-0.csv,legacy,NA,Lentiform Loewenfeld,3.3.9,0,h,NA,h,NA,NA,h,623,NA,36919,NA,NA,623,2,legacy,1024,2,48000,-16,experiment,HHHHH,0,even,39174,NA,NA,167819,NA,2250,NA,NA,168942,2254,NA,NA,169045,169669,168939,169045,Flan ,71,45050,71,yes,1024
NA,100,100,634.5,634.5,black,legacy,legacy,legacy,0,congruent,uniform,1,undefined,1,s,0,0,0,71,71,0,71,0,71,0,0,0,71,71,71,71,Fri Sep 17 17:02:01 2021,1500,Flanker Task,yes,Flanker Task.osexp,C:/Users/rayra/Documents,no,mono,no,18,no,white,no,yes,768,legacy,71,71,C:/Users/rayra/Documents/rc-subject-0.csv,legacy,NA,Lentiform Loewenfeld,3.3.9,0,s,NA,h,NA,NA,s,634,NA,36919,NA,NA,634,2,legacy,1024,2,48000,-16,experiment,SSSSS,0,even,39174,NA,NA,169675,NA,2250,NA,NA,170775,2254,NA,NA,170877,171512,170773,170877,Flan ,72,45684,72,yes,1024
NA,100,100,635.0547945,635.0547945,black,legacy,legacy,legacy,0,congruent,uniform,1,undefined,1,s,0,0,0,72,72,0,72,0,72,0,0,0,72,72,72,72,Fri Sep 17 17:02:01 2021,1500,Flanker Task,yes,Flanker Task.osexp,C:/Users/rayra/Documents,no,mono,no,18,no,white,no,yes,768,legacy,72,72,C:/Users/rayra/Documents/rc-subject-0.csv,legacy,NA,Lentiform Loewenfeld,3.3.9,0,s,NA,h,NA,NA,s,675,NA,36919,NA,NA,675,2,legacy,1024,2,48000,-16,experiment,SSSSS,0,even,39174,NA,NA,171518,NA,2250,NA,NA,172636,2254,NA,NA,172739,173415,172633,172739,Flan ,73,46359,73,yes,1024
NA,100,100,634.1216216,634.1216216,black,legacy,legacy,legacy,0,congruent,uniform,1,undefined,1,h,0,0,0,73,73,0,73,0,73,0,0,0,73,73,73,73,Fri Sep 17 17:02:01 2021,1500,Flanker Task,yes,Flanker Task.osexp,C:/Users/rayra/Documents,no,mono,no,18,no,white,no,yes,768,legacy,73,73,C:/Users/rayra/Documents/rc-subject-0.csv,legacy,NA,Lentiform Loewenfeld,3.3.9,0,h,NA,h,NA,NA,h,566,NA,36919,NA,NA,566,2,legacy,1024,2,48000,-16,experiment,HHHHH,0,even,39174,NA,NA,173421,NA,2250,NA,NA,174546,2254,NA,NA,174650,175217,174544,174650,Flan ,74,46925,74,yes,1024
NA,100,100,636.08,636.08,black,legacy,legacy,legacy,0,incongruent,uniform,1,undefined,1,h,0,0,0,74,74,0,74,0,74,0,0,0,74,74,74,74,Fri Sep 17 17:02:01 2021,1500,Flanker Task,yes,Flanker Task.osexp,C:/Users/rayra/Documents,no,mono,no,18,no,white,no,yes,768,legacy,74,74,C:/Users/rayra/Documents/rc-subject-0.csv,legacy,NA,Lentiform Loewenfeld,3.3.9,0,h,NA,h,NA,NA,h,781,NA,36919,NA,NA,781,2,legacy,1024,2,48000,-16,experiment,SSHSS,0,even,39174,NA,NA,175223,NA,2250,NA,NA,176319,2254,NA,NA,176423,177205,176316,176422,Flan ,75,47706,75,yes,1024
NA,100,100,635.4473684,635.4473684,black,legacy,legacy,legacy,0,congruent,uniform,1,undefined,1,s,0,0,0,75,75,0,75,0,75,0,0,0,75,75,75,75,Fri Sep 17 17:02:01 2021,1500,Flanker Task,yes,Flanker Task.osexp,C:/Users/rayra/Documents,no,mono,no,18,no,white,no,yes,768,legacy,75,75,C:/Users/rayra/Documents/rc-subject-0.csv,legacy,NA,Lentiform Loewenfeld,3.3.9,0,s,NA,h,NA,NA,s,588,NA,36919,NA,NA,588,2,legacy,1024,2,48000,-16,experiment,SSSSS,0,even,39174,NA,NA,177210,NA,2250,NA,NA,178318,2254,NA,NA,178422,179011,178315,178422,Flan ,76,48294,76,yes,1024
NA,100,100,634.5844156,634.5844156,black,legacy,legacy,legacy,0,congruent,uniform,1,undefined,1,s,0,0,0,76,76,0,76,0,76,0,0,0,76,76,76,76,Fri Sep 17 17:02:01 2021,1500,Flanker Task,yes,Flanker Task.osexp,C:/Users/rayra/Documents,no,mono,no,18,no,white,no,yes,768,legacy,76,76,C:/Users/rayra/Documents/rc-subject-0.csv,legacy,NA,Lentiform Loewenfeld,3.3.9,0,s,NA,h,NA,NA,s,569,NA,36919,NA,NA,569,2,legacy,1024,2,48000,-16,experiment,SSSSS,0,even,39174,NA,NA,179017,NA,2250,NA,NA,180124,2254,NA,NA,180226,180796,180122,180226,Flan ,77,48863,77,yes,1024
NA,100,100,633.8333333,633.8333333,black,legacy,legacy,legacy,0,incongruent,uniform,1,undefined,1,h,0,0,0,77,77,0,77,0,77,0,0,0,77,77,77,77,Fri Sep 17 17:02:01 2021,1500,Flanker Task,yes,Flanker Task.osexp,C:/Users/rayra/Documents,no,mono,no,18,no,white,no,yes,768,legacy,77,77,C:/Users/rayra/Documents/rc-subject-0.csv,legacy,NA,Lentiform Loewenfeld,3.3.9,0,h,NA,h,NA,NA,h,576,NA,36919,NA,NA,576,2,legacy,1024,2,48000,-16,experiment,SSHSS,0,even,39174,NA,NA,180803,NA,2250,NA,NA,181922,2254,NA,NA,182024,182601,181919,182024,Flan ,78,49439,78,yes,1024
NA,100,100,634.7594937,634.7594937,black,legacy,legacy,legacy,0,incongruent,uniform,1,undefined,1,s,0,0,0,78,78,0,78,0,78,0,0,0,78,78,78,78,Fri Sep 17 17:02:01 2021,1500,Flanker Task,yes,Flanker Task.osexp,C:/Users/rayra/Documents,no,mono,no,18,no,white,no,yes,768,legacy,78,78,C:/Users/rayra/Documents/rc-subject-0.csv,legacy,NA,Lentiform Loewenfeld,3.3.9,0,s,NA,h,NA,NA,s,707,NA,36919,NA,NA,707,2,legacy,1024,2,48000,-16,experiment,HHSHH,0,even,39174,NA,NA,182608,NA,2250,NA,NA,183764,2254,NA,NA,183866,184574,183761,183866,Flan ,79,50146,79,yes,1024
NA,100,100,633.9875,633.9875,black,legacy,legacy,legacy,0,congruent,uniform,1,undefined,1,h,0,0,0,79,79,0,79,0,79,0,0,0,79,79,79,79,Fri Sep 17 17:02:01 2021,1500,Flanker Task,yes,Flanker Task.osexp,C:/Users/rayra/Documents,no,mono,no,18,no,white,no,yes,768,legacy,79,79,C:/Users/rayra/Documents/rc-subject-0.csv,legacy,NA,Lentiform Loewenfeld,3.3.9,0,h,NA,h,NA,NA,h,573,NA,36919,NA,NA,573,2,legacy,1024,2,48000,-16,experiment,HHHHH,0,even,39174,NA,NA,184581,NA,2250,NA,NA,185684,2254,NA,NA,185787,186361,185682,185787,Flan ,80,50719,80,yes,1024
NA,100,100,637.0740741,637.0740741,black,legacy,legacy,legacy,0,incongruent,uniform,1,undefined,1,h,0,0,0,80,80,0,80,0,80,0,0,0,80,80,80,80,Fri Sep 17 17:02:01 2021,600,Flanker Task,yes,Flanker Task.osexp,C:/Users/rayra/Documents,no,mono,no,18,no,white,no,yes,768,legacy,0,79,C:/Users/rayra/Documents/rc-subject-0.csv,legacy,NA,Lentiform Loewenfeld,3.3.9,0,h,NA,h,s,NA,h,884,NA,36919,32629,NA,884,2,legacy,1024,2,48000,-16,experiment,SSHSS,0,even,39174,220038,NA,186367,NA,2250,NA,NA,220119,2254,187408,NA,220221,221106,220117,220221,Flan ,81,51603,81,yes,1024
NA,100,100,637.0487805,637.0487805,black,legacy,legacy,legacy,0,incongruent,uniform,1,undefined,1,h,0,0,0,81,81,0,81,0,81,0,0,0,81,81,81,81,Fri Sep 17 17:02:01 2021,600,Flanker Task,yes,Flanker Task.osexp,C:/Users/rayra/Documents,no,mono,no,18,no,white,no,yes,768,legacy,1,79,C:/Users/rayra/Documents/rc-subject-0.csv,legacy,NA,Lentiform Loewenfeld,3.3.9,0,h,NA,h,s,NA,h,635,NA,36919,32629,NA,635,2,legacy,1024,2,48000,-16,experiment,SSHSS,0,even,39174,220038,NA,221615,NA,2250,221112,NA,222717,2254,187408,NA,222819,223455,222714,222819,Flan ,82,52238,82,yes,1024
NA,100,100,637.0361446,637.0361446,black,legacy,legacy,legacy,0,incongruent,uniform,1,undefined,1,s,0,0,0,82,82,0,82,0,82,0,0,0,82,82,82,82,Fri Sep 17 17:02:01 2021,600,Flanker Task,yes,Flanker Task.osexp,C:/Users/rayra/Documents,no,mono,no,18,no,white,no,yes,768,legacy,2,79,C:/Users/rayra/Documents/rc-subject-0.csv,legacy,NA,Lentiform Loewenfeld,3.3.9,0,s,NA,h,s,NA,s,636,NA,36919,32629,NA,636,2,legacy,1024,2,48000,-16,experiment,HHSHH,0,even,39174,220038,NA,223964,NA,2250,223461,NA,225063,2254,187408,NA,225165,225802,225060,225165,Flan ,83,52874,83,yes,1024
NA,100,100,636.3214286,636.3214286,black,legacy,legacy,legacy,0,incongruent,uniform,1,undefined,1,h,0,0,0,83,83,0,83,0,83,0,0,0,83,83,83,83,Fri Sep 17 17:02:01 2021,600,Flanker Task,yes,Flanker Task.osexp,C:/Users/rayra/Documents,no,mono,no,18,no,white,no,yes,768,legacy,3,79,C:/Users/rayra/Documents/rc-subject-0.csv,legacy,NA,Lentiform Loewenfeld,3.3.9,0,h,NA,h,s,NA,h,577,NA,36919,32629,NA,577,2,legacy,1024,2,48000,-16,experiment,SSHSS,0,even,39174,220038,NA,226311,NA,2250,225807,NA,227401,2254,187408,NA,227502,228080,227400,227502,Flan ,84,53451,84,yes,1024
NA,100,100,635.2235294,635.2235294,black,legacy,legacy,legacy,0,congruent,uniform,1,undefined,1,h,0,0,0,84,84,0,84,0,84,0,0,0,84,84,84,84,Fri Sep 17 17:02:01 2021,600,Flanker Task,yes,Flanker Task.osexp,C:/Users/rayra/Documents,no,mono,no,18,no,white,no,yes,768,legacy,4,79,C:/Users/rayra/Documents/rc-subject-0.csv,legacy,NA,Lentiform Loewenfeld,3.3.9,0,h,NA,h,s,NA,h,543,NA,36919,32629,NA,543,2,legacy,1024,2,48000,-16,experiment,HHHHH,0,even,39174,220038,NA,228086,NA,2250,225807,NA,229197,2254,187408,NA,229299,229843,229195,229299,Flan ,85,53994,85,yes,1024
NA,100,100,634.7790698,634.7790698,black,legacy,legacy,legacy,0,incongruent,uniform,1,undefined,1,h,0,0,0,85,85,0,85,0,85,0,0,0,85,85,85,85,Fri Sep 17 17:02:01 2021,600,Flanker Task,yes,Flanker Task.osexp,C:/Users/rayra/Documents,no,mono,no,18,no,white,no,yes,768,legacy,5,79,C:/Users/rayra/Documents/rc-subject-0.csv,legacy,NA,Lentiform Loewenfeld,3.3.9,0,h,NA,h,s,NA,h,597,NA,36919,32629,NA,597,2,legacy,1024,2,48000,-16,experiment,SSHSS,0,even,39174,220038,NA,229849,NA,2250,225807,NA,230963,2254,187408,NA,231066,231664,230960,231066,Flan ,86,54591,86,yes,1024
NA,100,100,633.7931034,633.7931034,black,legacy,legacy,legacy,0,incongruent,uniform,1,undefined,1,s,0,0,0,86,86,0,86,0,86,0,0,0,86,86,86,86,Fri Sep 17 17:02:01 2021,600,Flanker Task,yes,Flanker Task.osexp,C:/Users/rayra/Documents,no,mono,no,18,no,white,no,yes,768,legacy,6,79,C:/Users/rayra/Documents/rc-subject-0.csv,legacy,NA,Lentiform Loewenfeld,3.3.9,0,s,NA,h,s,NA,s,549,NA,36919,32629,NA,549,2,legacy,1024,2,48000,-16,experiment,HHSHH,0,even,39174,220038,NA,231670,NA,2250,225807,NA,232778,2254,187408,NA,232882,233432,232775,232882,Flan ,87,55140,87,yes,1024
NA,100,100,632.5340909,632.5340909,black,legacy,legacy,legacy,0,incongruent,uniform,1,undefined,1,h,0,0,0,87,87,0,87,0,87,0,0,0,87,87,87,87,Fri Sep 17 17:02:01 2021,600,Flanker Task,yes,Flanker Task.osexp,C:/Users/rayra/Documents,no,mono,no,18,no,white,no,yes,768,legacy,7,79,C:/Users/rayra/Documents/rc-subject-0.csv,legacy,NA,Lentiform Loewenfeld,3.3.9,0,h,NA,h,s,NA,h,523,NA,36919,32629,NA,523,2,legacy,1024,2,48000,-16,experiment,SSHSS,0,even,39174,220038,NA,233439,NA,2250,225807,NA,234549,2254,187408,NA,234653,235178,234546,234652,Flan ,88,55663,88,yes,1024
NA,100,100,630.6067416,630.6067416,black,legacy,legacy,legacy,0,congruent,uniform,1,undefined,1,h,0,0,0,88,88,0,88,0,88,0,0,0,88,88,88,88,Fri Sep 17 17:02:01 2021,600,Flanker Task,yes,Flanker Task.osexp,C:/Users/rayra/Documents,no,mono,no,18,no,white,no,yes,768,legacy,8,79,C:/Users/rayra/Documents/rc-subject-0.csv,legacy,NA,Lentiform Loewenfeld,3.3.9,0,h,NA,h,s,NA,h,461,NA,36919,32629,NA,461,2,legacy,1024,2,48000,-16,experiment,HHHHH,0,even,39174,220038,NA,235183,NA,2250,225807,NA,236288,2254,187408,NA,236391,236853,236285,236391,Flan ,89,56124,89,yes,1024
NA,100,100,630.5777778,630.5777778,black,legacy,legacy,legacy,0,incongruent,uniform,1,undefined,1,s,0,0,0,89,89,0,89,0,89,0,0,0,89,89,89,89,Fri Sep 17 17:02:01 2021,600,Flanker Task,yes,Flanker Task.osexp,C:/Users/rayra/Documents,no,mono,no,18,no,white,no,yes,768,legacy,9,79,C:/Users/rayra/Documents/rc-subject-0.csv,legacy,NA,Lentiform Loewenfeld,3.3.9,0,s,NA,h,s,NA,s,628,NA,36919,32629,NA,628,2,legacy,1024,2,48000,-16,experiment,HHSHH,0,even,39174,220038,NA,236858,NA,2250,225807,NA,237970,2254,187408,NA,238072,238702,237967,238072,Flan ,90,56752,90,yes,1024
NA,100,100,629.3846154,629.3846154,black,legacy,legacy,legacy,0,incongruent,uniform,1,undefined,1,h,0,0,0,90,90,0,90,0,90,0,0,0,90,90,90,90,Fri Sep 17 17:02:01 2021,600,Flanker Task,yes,Flanker Task.osexp,C:/Users/rayra/Documents,no,mono,no,18,no,white,no,yes,768,legacy,10,79,C:/Users/rayra/Documents/rc-subject-0.csv,legacy,NA,Lentiform Loewenfeld,3.3.9,0,h,NA,h,s,NA,h,522,NA,36919,32629,NA,522,2,legacy,1024,2,48000,-16,experiment,SSHSS,0,even,39174,220038,NA,239212,NA,2250,238708,NA,240314,2254,187408,NA,240418,240941,240311,240417,Flan ,91,57274,91,yes,1024
NA,100,100,627.6413043,627.6413043,black,legacy,legacy,legacy,0,congruent,uniform,1,undefined,1,h,0,0,0,91,91,0,91,0,91,0,0,0,91,91,91,91,Fri Sep 17 17:02:01 2021,600,Flanker Task,yes,Flanker Task.osexp,C:/Users/rayra/Documents,no,mono,no,18,no,white,no,yes,768,legacy,11,79,C:/Users/rayra/Documents/rc-subject-0.csv,legacy,NA,Lentiform Loewenfeld,3.3.9,0,h,NA,h,s,NA,h,469,NA,36919,32629,NA,469,2,legacy,1024,2,48000,-16,experiment,HHHHH,0,even,39174,220038,NA,240947,NA,2250,238708,NA,242083,2254,187408,NA,242187,242657,242080,242187,Flan ,92,57743,92,yes,1024
NA,100,100,625.7526882,625.7526882,black,legacy,legacy,legacy,0,congruent,uniform,1,undefined,1,h,0,0,0,92,92,0,92,0,92,0,0,0,92,92,92,92,Fri Sep 17 17:02:01 2021,600,Flanker Task,yes,Flanker Task.osexp,C:/Users/rayra/Documents,no,mono,no,18,no,white,no,yes,768,legacy,12,79,C:/Users/rayra/Documents/rc-subject-0.csv,legacy,NA,Lentiform Loewenfeld,3.3.9,0,h,NA,h,s,NA,h,452,NA,36919,32629,NA,452,2,legacy,1024,2,48000,-16,experiment,HHHHH,0,even,39174,220038,NA,242662,NA,2250,238708,NA,243766,2254,187408,NA,243867,244320,243763,243867,Flan ,93,58195,93,yes,1024
NA,100,100,625.0851064,625.0851064,black,legacy,legacy,legacy,0,incongruent,uniform,1,undefined,1,h,0,0,0,93,93,0,93,0,93,0,0,0,93,93,93,93,Fri Sep 17 17:02:01 2021,600,Flanker Task,yes,Flanker Task.osexp,C:/Users/rayra/Documents,no,mono,no,18,no,white,no,yes,768,legacy,13,79,C:/Users/rayra/Documents/rc-subject-0.csv,legacy,NA,Lentiform Loewenfeld,3.3.9,0,h,NA,h,s,NA,h,563,NA,36919,32629,NA,563,2,legacy,1024,2,48000,-16,experiment,SSHSS,0,even,39174,220038,NA,244326,NA,2250,238708,NA,245438,2254,187408,NA,245540,246104,245436,245540,Flan ,94,58758,94,yes,1024
NA,100,100,623.6947368,623.6947368,black,legacy,legacy,legacy,0,congruent,uniform,1,undefined,1,h,0,0,0,94,94,0,94,0,94,0,0,0,94,94,94,94,Fri Sep 17 17:02:01 2021,600,Flanker Task,yes,Flanker Task.osexp,C:/Users/rayra/Documents,no,mono,no,18,no,white,no,yes,768,legacy,14,79,C:/Users/rayra/Documents/rc-subject-0.csv,legacy,NA,Lentiform Loewenfeld,3.3.9,0,h,NA,h,s,NA,h,493,NA,36919,32629,NA,493,2,legacy,1024,2,48000,-16,experiment,HHHHH,0,even,39174,220038,NA,246110,NA,2250,238708,NA,247225,2254,187408,NA,247329,247823,247222,247329,Flan ,95,59251,95,yes,1024
NA,100,100,622.1666667,622.1666667,black,legacy,legacy,legacy,0,congruent,uniform,1,undefined,1,s,0,0,0,95,95,0,95,0,95,0,0,0,95,95,95,95,Fri Sep 17 17:02:01 2021,600,Flanker Task,yes,Flanker Task.osexp,C:/Users/rayra/Documents,no,mono,no,18,no,white,no,yes,768,legacy,15,79,C:/Users/rayra/Documents/rc-subject-0.csv,legacy,NA,Lentiform Loewenfeld,3.3.9,0,s,NA,h,s,NA,s,477,NA,36919,32629,NA,477,2,legacy,1024,2,48000,-16,experiment,SSSSS,0,even,39174,220038,NA,247830,NA,2250,238708,NA,248938,2254,187408,NA,249041,249520,248935,249041,Flan ,96,59728,96,yes,1024
NA,100,100,620.4742268,620.4742268,black,legacy,legacy,legacy,0,congruent,uniform,1,undefined,1,h,0,0,0,96,96,0,96,0,96,0,0,0,96,96,96,96,Fri Sep 17 17:02:01 2021,600,Flanker Task,yes,Flanker Task.osexp,C:/Users/rayra/Documents,no,mono,no,18,no,white,no,yes,768,legacy,16,79,C:/Users/rayra/Documents/rc-subject-0.csv,legacy,NA,Lentiform Loewenfeld,3.3.9,0,h,NA,h,s,NA,h,458,NA,36919,32629,NA,458,2,legacy,1024,2,48000,-16,experiment,HHHHH,0,even,39174,220038,NA,249525,NA,2250,238708,NA,250634,2254,187408,NA,250736,251196,250631,250736,Flan ,97,60186,97,yes,1024
NA,100,100,618.8673469,618.8673469,black,legacy,legacy,legacy,0,incongruent,uniform,1,undefined,1,s,0,0,0,97,97,0,97,0,97,0,0,0,97,97,97,97,Fri Sep 17 17:02:01 2021,600,Flanker Task,yes,Flanker Task.osexp,C:/Users/rayra/Documents,no,mono,no,18,no,white,no,yes,768,legacy,17,79,C:/Users/rayra/Documents/rc-subject-0.csv,legacy,NA,Lentiform Loewenfeld,3.3.9,0,s,NA,h,s,NA,s,463,NA,36919,32629,NA,463,2,legacy,1024,2,48000,-16,experiment,HHSHH,0,even,39174,220038,NA,251201,NA,2250,238708,NA,252330,2254,187408,NA,252434,252898,252327,252434,Flan ,98,60649,98,yes,1024
NA,100,100,617.7575758,617.7575758,black,legacy,legacy,legacy,0,incongruent,uniform,1,undefined,1,s,0,0,0,98,98,0,98,0,98,0,0,0,98,98,98,98,Fri Sep 17 17:02:01 2021,600,Flanker Task,yes,Flanker Task.osexp,C:/Users/rayra/Documents,no,mono,no,18,no,white,no,yes,768,legacy,18,79,C:/Users/rayra/Documents/rc-subject-0.csv,legacy,NA,Lentiform Loewenfeld,3.3.9,0,s,NA,h,s,NA,s,509,NA,36919,32629,NA,509,2,legacy,1024,2,48000,-16,experiment,HHSHH,0,even,39174,220038,NA,252904,NA,2250,238708,NA,254015,2254,187408,NA,254120,254630,254013,254119,Flan ,99,61158,99,yes,1024
NA,100,100,616.86,616.86,black,legacy,legacy,legacy,0,incongruent,uniform,1,undefined,1,h,0,0,0,99,99,0,99,0,99,0,0,0,99,99,99,99,Fri Sep 17 17:02:01 2021,600,Flanker Task,yes,Flanker Task.osexp,C:/Users/rayra/Documents,no,mono,no,18,no,white,no,yes,768,legacy,19,79,C:/Users/rayra/Documents/rc-subject-0.csv,legacy,NA,Lentiform Loewenfeld,3.3.9,0,h,NA,h,s,NA,h,528,NA,36919,32629,NA,528,2,legacy,1024,2,48000,-16,experiment,SSHSS,0,even,39174,220038,NA,254636,NA,2250,238708,NA,255757,2254,187408,NA,255859,256388,255754,255859,Flan ,100,61686,100,yes,1024
NA,100,100,615.0792079,615.0792079,black,legacy,legacy,legacy,0,congruent,uniform,1,undefined,1,h,0,0,0,100,100,0,100,0,100,0,0,0,100,100,100,100,Fri Sep 17 17:02:01 2021,600,Flanker Task,yes,Flanker Task.osexp,C:/Users/rayra/Documents,no,mono,no,18,no,white,no,yes,768,legacy,20,79,C:/Users/rayra/Documents/rc-subject-0.csv,legacy,NA,Lentiform Loewenfeld,3.3.9,0,h,NA,h,s,NA,h,437,NA,36919,32629,NA,437,2,legacy,1024,2,48000,-16,experiment,HHHHH,0,even,39174,220038,NA,256394,NA,2250,238708,NA,257492,2254,187408,NA,257596,258034,257489,257596,Flan ,101,62123,101,yes,1024
NA,100,100,614.2156863,614.2156863,black,legacy,legacy,legacy,0,incongruent,uniform,1,undefined,1,h,0,0,0,101,101,0,101,0,101,0,0,0,101,101,101,101,Fri Sep 17 17:02:01 2021,600,Flanker Task,yes,Flanker Task.osexp,C:/Users/rayra/Documents,no,mono,no,18,no,white,no,yes,768,legacy,21,79,C:/Users/rayra/Documents/rc-subject-0.csv,legacy,NA,Lentiform Loewenfeld,3.3.9,0,h,NA,h,s,NA,h,527,NA,36919,32629,NA,527,2,legacy,1024,2,48000,-16,experiment,SSHSS,0,even,39174,220038,NA,258040,NA,2250,238708,NA,259152,2254,187408,NA,259256,259784,259150,259256,Flan ,102,62650,102,yes,1024
NA,100,100,612.7087379,612.7087379,black,legacy,legacy,legacy,0,congruent,uniform,1,undefined,1,h,0,0,0,102,102,0,102,0,102,0,0,0,102,102,102,102,Fri Sep 17 17:02:01 2021,600,Flanker Task,yes,Flanker Task.osexp,C:/Users/rayra/Documents,no,mono,no,18,no,white,no,yes,768,legacy,22,79,C:/Users/rayra/Documents/rc-subject-0.csv,legacy,NA,Lentiform Loewenfeld,3.3.9,0,h,NA,h,s,NA,h,459,NA,36919,32629,NA,459,2,legacy,1024,2,48000,-16,experiment,HHHHH,0,even,39174,220038,NA,259790,NA,2250,238708,NA,260910,2254,187408,NA,261014,261474,260908,261014,Flan ,103,63109,103,yes,1024
NA,100,100,612.5384615,612.5384615,black,legacy,legacy,legacy,0,congruent,uniform,1,undefined,1,s,0,0,0,103,103,0,103,0,103,0,0,0,103,103,103,103,Fri Sep 17 17:02:01 2021,600,Flanker Task,yes,Flanker Task.osexp,C:/Users/rayra/Documents,no,mono,no,18,no,white,no,yes,768,legacy,23,79,C:/Users/rayra/Documents/rc-subject-0.csv,legacy,NA,Lentiform Loewenfeld,3.3.9,0,s,NA,h,s,NA,s,595,NA,36919,32629,NA,595,2,legacy,1024,2,48000,-16,experiment,SSSSS,0,even,39174,220038,NA,261480,NA,2250,238708,NA,262594,2254,187408,NA,262697,263293,262591,262697,Flan ,104,63704,104,yes,1024
NA,100,100,611.0380952,611.0380952,black,legacy,legacy,legacy,0,congruent,uniform,1,undefined,1,h,0,0,0,104,104,0,104,0,104,0,0,0,104,104,104,104,Fri Sep 17 17:02:01 2021,600,Flanker Task,yes,Flanker Task.osexp,C:/Users/rayra/Documents,no,mono,no,18,no,white,no,yes,768,legacy,24,79,C:/Users/rayra/Documents/rc-subject-0.csv,legacy,NA,Lentiform Loewenfeld,3.3.9,0,h,NA,h,s,NA,h,455,NA,36919,32629,NA,455,2,legacy,1024,2,48000,-16,experiment,HHHHH,0,even,39174,220038,NA,263299,NA,2250,238708,NA,264404,2254,187408,NA,264507,264963,264402,264507,Flan ,105,64159,105,yes,1024
NA,100,100,609.6226415,609.6226415,black,legacy,legacy,legacy,0,congruent,uniform,1,undefined,1,s,0,0,0,105,105,0,105,0,105,0,0,0,105,105,105,105,Fri Sep 17 17:02:01 2021,600,Flanker Task,yes,Flanker Task.osexp,C:/Users/rayra/Documents,no,mono,no,18,no,white,no,yes,768,legacy,25,79,C:/Users/rayra/Documents/rc-subject-0.csv,legacy,NA,Lentiform Loewenfeld,3.3.9,0,s,NA,h,s,NA,s,461,NA,36919,32629,NA,461,2,legacy,1024,2,48000,-16,experiment,SSSSS,0,even,39174,220038,NA,264969,NA,2250,238708,NA,266073,2254,187408,NA,266175,266637,266070,266175,Flan ,106,64620,106,yes,1024
NA,100,100,608.0934579,608.0934579,black,legacy,legacy,legacy,0,congruent,uniform,1,undefined,1,s,0,0,0,106,106,0,106,0,106,0,0,0,106,106,106,106,Fri Sep 17 17:02:01 2021,600,Flanker Task,yes,Flanker Task.osexp,C:/Users/rayra/Documents,no,mono,no,18,no,white,no,yes,768,legacy,26,79,C:/Users/rayra/Documents/rc-subject-0.csv,legacy,NA,Lentiform Loewenfeld,3.3.9,0,s,NA,h,s,NA,s,446,NA,36919,32629,NA,446,2,legacy,1024,2,48000,-16,experiment,SSSSS,0,even,39174,220038,NA,266643,NA,2250,238708,NA,267766,2254,187408,NA,267870,268317,267763,267870,Flan ,107,65066,107,yes,1024
NA,100,100,607.8055556,607.8055556,black,legacy,legacy,legacy,0,incongruent,uniform,1,undefined,1,h,0,0,0,107,107,0,107,0,107,0,0,0,107,107,107,107,Fri Sep 17 17:02:01 2021,600,Flanker Task,yes,Flanker Task.osexp,C:/Users/rayra/Documents,no,mono,no,18,no,white,no,yes,768,legacy,27,79,C:/Users/rayra/Documents/rc-subject-0.csv,legacy,NA,Lentiform Loewenfeld,3.3.9,0,h,NA,h,s,NA,h,577,NA,36919,32629,NA,577,2,legacy,1024,2,48000,-16,experiment,SSHSS,0,even,39174,220038,NA,268323,NA,2250,238708,NA,269439,2254,187408,NA,269541,270119,269437,269541,Flan ,108,65643,108,yes,1024
NA,99.08256881,99.08256881,606.5229358,606.5229358,black,legacy,legacy,legacy,0,incongruent,uniform,0,undefined,0,s,0,0,0,108,108,0,108,0,108,0,0,0,108,108,108,108,Fri Sep 17 17:02:01 2021,600,Flanker Task,yes,Flanker Task.osexp,C:/Users/rayra/Documents,no,mono,no,18,no,white,no,yes,768,legacy,28,79,C:/Users/rayra/Documents/rc-subject-0.csv,legacy,NA,Lentiform Loewenfeld,3.3.9,0,h,NA,h,s,NA,h,468,NA,36919,32629,NA,468,2,legacy,1024,2,48000,-16,experiment,HHSHH,0,even,39174,220038,NA,270125,NA,2250,238708,NA,271238,2254,187408,NA,271342,271811,271235,271342,Flan ,108,66111,109,yes,1024
NA,99.09090909,99.09090909,605.4181818,605.4181818,black,legacy,legacy,legacy,0,congruent,uniform,1,undefined,1,h,0,0,0,109,109,0,109,0,109,0,0,0,109,109,109,109,Fri Sep 17 17:02:01 2021,600,Flanker Task,yes,Flanker Task.osexp,C:/Users/rayra/Documents,no,mono,no,18,no,white,no,yes,768,legacy,29,79,C:/Users/rayra/Documents/rc-subject-0.csv,legacy,NA,Lentiform Loewenfeld,3.3.9,0,h,NA,h,s,NA,h,485,NA,36919,32629,NA,485,2,legacy,1024,2,48000,-16,experiment,HHHHH,0,even,39174,220038,NA,272321,271817,2250,238708,NA,273427,2254,187408,NA,273528,274014,273425,273528,Flan ,109,66596,110,yes,1024
NA,99.0990991,99.0990991,604.4234234,604.4234234,black,legacy,legacy,legacy,0,congruent,uniform,1,undefined,1,s,0,0,0,110,110,0,110,0,110,0,0,0,110,110,110,110,Fri Sep 17 17:02:01 2021,600,Flanker Task,yes,Flanker Task.osexp,C:/Users/rayra/Documents,no,mono,no,18,no,white,no,yes,768,legacy,30,79,C:/Users/rayra/Documents/rc-subject-0.csv,legacy,NA,Lentiform Loewenfeld,3.3.9,0,s,NA,h,s,NA,s,495,NA,36919,32629,NA,495,2,legacy,1024,2,48000,-16,experiment,SSSSS,0,even,39174,220038,NA,274021,271817,2250,238708,NA,275140,2254,187408,NA,275244,275741,275137,275244,Flan ,110,67091,111,yes,1024
NA,99.10714286,99.10714286,603.8214286,603.8214286,black,legacy,legacy,legacy,0,incongruent,uniform,1,undefined,1,s,0,0,0,111,111,0,111,0,111,0,0,0,111,111,111,111,Fri Sep 17 17:02:01 2021,600,Flanker Task,yes,Flanker Task.osexp,C:/Users/rayra/Documents,no,mono,no,18,no,white,no,yes,768,legacy,31,79,C:/Users/rayra/Documents/rc-subject-0.csv,legacy,NA,Lentiform Loewenfeld,3.3.9,0,s,NA,h,s,NA,s,537,NA,36919,32629,NA,537,2,legacy,1024,2,48000,-16,experiment,HHSHH,0,even,39174,220038,NA,275747,271817,2250,238708,NA,276877,2254,187408,NA,276980,277518,276874,276980,Flan ,111,67628,112,yes,1024
NA,99.11504425,99.11504425,603.3451327,603.3451327,black,legacy,legacy,legacy,0,congruent,uniform,1,undefined,1,h,0,0,0,112,112,0,112,0,112,0,0,0,112,112,112,112,Fri Sep 17 17:02:01 2021,600,Flanker Task,yes,Flanker Task.osexp,C:/Users/rayra/Documents,no,mono,no,18,no,white,no,yes,768,legacy,32,79,C:/Users/rayra/Documents/rc-subject-0.csv,legacy,NA,Lentiform Loewenfeld,3.3.9,0,h,NA,h,s,NA,h,550,NA,36919,32629,NA,550,2,legacy,1024,2,48000,-16,experiment,HHHHH,0,even,39174,220038,NA,277524,271817,2250,238708,NA,278629,2254,187408,NA,278733,279284,278627,278733,Flan ,112,68178,113,yes,1024
NA,99.12280702,99.12280702,602.2105263,602.2105263,black,legacy,legacy,legacy,0,congruent,uniform,1,undefined,1,h,0,0,0,113,113,0,113,0,113,0,0,0,113,113,113,113,Fri Sep 17 17:02:01 2021,600,Flanker Task,yes,Flanker Task.osexp,C:/Users/rayra/Documents,no,mono,no,18,no,white,no,yes,768,legacy,33,79,C:/Users/rayra/Documents/rc-subject-0.csv,legacy,NA,Lentiform Loewenfeld,3.3.9,0,h,NA,h,s,NA,h,474,NA,36919,32629,NA,474,2,legacy,1024,2,48000,-16,experiment,HHHHH,0,even,39174,220038,NA,279290,271817,2250,238708,NA,280395,2254,187408,NA,280497,280972,280392,280497,Flan ,113,68652,114,yes,1024
NA,99.13043478,99.13043478,601.3826087,601.3826087,black,legacy,legacy,legacy,0,congruent,uniform,1,undefined,1,s,0,0,0,114,114,0,114,0,114,0,0,0,114,114,114,114,Fri Sep 17 17:02:01 2021,600,Flanker Task,yes,Flanker Task.osexp,C:/Users/rayra/Documents,no,mono,no,18,no,white,no,yes,768,legacy,34,79,C:/Users/rayra/Documents/rc-subject-0.csv,legacy,NA,Lentiform Loewenfeld,3.3.9,0,s,NA,h,s,NA,s,507,NA,36919,32629,NA,507,2,legacy,1024,2,48000,-16,experiment,SSSSS,0,even,39174,220038,NA,280979,271817,2250,238708,NA,282103,2254,187408,NA,282207,282715,282100,282206,Flan ,114,69159,115,yes,1024
NA,99.13793103,99.13793103,600.0603448,600.0603448,black,legacy,legacy,legacy,0,congruent,uniform,1,undefined,1,s,0,0,0,115,115,0,115,0,115,0,0,0,115,115,115,115,Fri Sep 17 17:02:01 2021,600,Flanker Task,yes,Flanker Task.osexp,C:/Users/rayra/Documents,no,mono,no,18,no,white,no,yes,768,legacy,35,79,C:/Users/rayra/Documents/rc-subject-0.csv,legacy,NA,Lentiform Loewenfeld,3.3.9,0,s,NA,h,s,NA,s,448,NA,36919,32629,NA,448,2,legacy,1024,2,48000,-16,experiment,SSSSS,0,even,39174,220038,NA,282722,271817,2250,238708,NA,283838,2254,187408,NA,283942,284392,283835,283942,Flan ,115,69607,116,yes,1024
NA,99.14529915,99.14529915,598.8888889,598.8888889,black,legacy,legacy,legacy,0,congruent,uniform,1,undefined,1,h,0,0,0,116,116,0,116,0,116,0,0,0,116,116,116,116,Fri Sep 17 17:02:01 2021,600,Flanker Task,yes,Flanker Task.osexp,C:/Users/rayra/Documents,no,mono,no,18,no,white,no,yes,768,legacy,36,79,C:/Users/rayra/Documents/rc-subject-0.csv,legacy,NA,Lentiform Loewenfeld,3.3.9,0,h,NA,h,s,NA,h,463,NA,36919,32629,NA,463,2,legacy,1024,2,48000,-16,experiment,HHHHH,0,even,39174,220038,NA,284397,271817,2250,238708,NA,285500,2254,187408,NA,285604,286069,285498,285604,Flan ,116,70070,117,yes,1024
NA,99.15254237,99.15254237,598.1101695,598.1101695,black,legacy,legacy,legacy,0,congruent,uniform,1,undefined,1,s,0,0,0,117,117,0,117,0,117,0,0,0,117,117,117,117,Fri Sep 17 17:02:01 2021,600,Flanker Task,yes,Flanker Task.osexp,C:/Users/rayra/Documents,no,mono,no,18,no,white,no,yes,768,legacy,37,79,C:/Users/rayra/Documents/rc-subject-0.csv,legacy,NA,Lentiform Loewenfeld,3.3.9,0,s,NA,h,s,NA,s,507,NA,36919,32629,NA,507,2,legacy,1024,2,48000,-16,experiment,SSSSS,0,even,39174,220038,NA,286077,271817,2250,238708,NA,287192,2254,187408,NA,287296,287804,287189,287296,Flan ,117,70577,118,yes,1024
NA,99.15966387,99.15966387,597.4117647,597.4117647,black,legacy,legacy,legacy,0,incongruent,uniform,1,undefined,1,s,0,0,0,118,118,0,118,0,118,0,0,0,118,118,118,118,Fri Sep 17 17:02:01 2021,600,Flanker Task,yes,Flanker Task.osexp,C:/Users/rayra/Documents,no,mono,no,18,no,white,no,yes,768,legacy,38,79,C:/Users/rayra/Documents/rc-subject-0.csv,legacy,NA,Lentiform Loewenfeld,3.3.9,0,s,NA,h,s,NA,s,515,NA,36919,32629,NA,515,2,legacy,1024,2,48000,-16,experiment,HHSHH,0,even,39174,220038,NA,287810,271817,2250,238708,NA,288927,2254,187408,NA,289029,289546,288924,289029,Flan ,118,71092,119,yes,1024
NA,99.16666667,99.16666667,598.3416667,598.3416667,black,legacy,legacy,legacy,0,incongruent,uniform,1,undefined,1,h,0,0,0,119,119,0,119,0,119,0,0,0,119,119,119,119,Fri Sep 17 17:02:01 2021,600,Flanker Task,yes,Flanker Task.osexp,C:/Users/rayra/Documents,no,mono,no,18,no,white,no,yes,768,legacy,39,79,C:/Users/rayra/Documents/rc-subject-0.csv,legacy,NA,Lentiform Loewenfeld,3.3.9,0,h,NA,h,s,NA,h,709,NA,36919,32629,NA,709,2,legacy,1024,2,48000,-16,experiment,SSHSS,0,even,39174,220038,NA,289552,271817,2250,238708,NA,290655,2254,187408,NA,290759,291469,290652,290759,Flan ,119,71801,120,yes,1024
NA,99.17355372,99.17355372,599.1735537,599.1735537,black,legacy,legacy,legacy,0,incongruent,uniform,1,undefined,1,h,0,0,0,120,120,0,120,0,120,0,0,0,120,120,120,120,Fri Sep 17 17:02:01 2021,600,Flanker Task,yes,Flanker Task.osexp,C:/Users/rayra/Documents,no,mono,no,18,no,white,no,yes,768,legacy,40,79,C:/Users/rayra/Documents/rc-subject-0.csv,legacy,NA,Lentiform Loewenfeld,3.3.9,0,h,NA,h,s,NA,h,699,NA,36919,32629,NA,699,2,legacy,1024,2,48000,-16,experiment,SSHSS,0,even,39174,220038,NA,291979,271817,2250,291476,NA,293098,2254,187408,NA,293201,293902,293096,293201,Flan ,120,72500,121,yes,1024
NA,99.18032787,99.18032787,598.2459016,598.2459016,black,legacy,legacy,legacy,0,congruent,uniform,1,undefined,1,s,0,0,0,121,121,0,121,0,121,0,0,0,121,121,121,121,Fri Sep 17 17:02:01 2021,600,Flanker Task,yes,Flanker Task.osexp,C:/Users/rayra/Documents,no,mono,no,18,no,white,no,yes,768,legacy,41,79,C:/Users/rayra/Documents/rc-subject-0.csv,legacy,NA,Lentiform Loewenfeld,3.3.9,0,s,NA,h,s,NA,s,486,NA,36919,32629,NA,486,2,legacy,1024,2,48000,-16,experiment,SSSSS,0,even,39174,220038,NA,294413,271817,2250,293909,NA,295527,2254,187408,NA,295629,296118,295524,295629,Flan ,121,72986,122,yes,1024
NA,99.18699187,99.18699187,597.0650407,597.0650407,black,legacy,legacy,legacy,0,congruent,uniform,1,undefined,1,s,0,0,0,122,122,0,122,0,122,0,0,0,122,122,122,122,Fri Sep 17 17:02:01 2021,600,Flanker Task,yes,Flanker Task.osexp,C:/Users/rayra/Documents,no,mono,no,18,no,white,no,yes,768,legacy,42,79,C:/Users/rayra/Documents/rc-subject-0.csv,legacy,NA,Lentiform Loewenfeld,3.3.9,0,s,NA,h,s,NA,s,453,NA,36919,32629,NA,453,2,legacy,1024,2,48000,-16,experiment,SSSSS,0,even,39174,220038,NA,296132,271817,2250,293909,NA,297221,2254,187408,NA,297323,297778,297218,297323,Flan ,122,73439,123,yes,1024
NA,99.19354839,99.19354839,597.1532258,597.1532258,black,legacy,legacy,legacy,0,incongruent,uniform,1,undefined,1,h,0,0,0,123,123,0,123,0,123,0,0,0,123,123,123,123,Fri Sep 17 17:02:01 2021,600,Flanker Task,yes,Flanker Task.osexp,C:/Users/rayra/Documents,no,mono,no,18,no,white,no,yes,768,legacy,43,79,C:/Users/rayra/Documents/rc-subject-0.csv,legacy,NA,Lentiform Loewenfeld,3.3.9,0,h,NA,h,s,NA,h,608,NA,36919,32629,NA,608,2,legacy,1024,2,48000,-16,experiment,SSHSS,0,even,39174,220038,NA,297783,271817,2250,293909,NA,298895,2254,187408,NA,298997,299606,298893,298997,Flan ,123,74047,124,yes,1024
NA,99.2,99.2,597.256,597.256,black,legacy,legacy,legacy,0,incongruent,uniform,1,undefined,1,s,0,0,0,124,124,0,124,0,124,0,0,0,124,124,124,124,Fri Sep 17 17:02:01 2021,600,Flanker Task,yes,Flanker Task.osexp,C:/Users/rayra/Documents,no,mono,no,18,no,white,no,yes,768,legacy,44,79,C:/Users/rayra/Documents/rc-subject-0.csv,legacy,NA,Lentiform Loewenfeld,3.3.9,0,s,NA,h,s,NA,s,610,NA,36919,32629,NA,610,2,legacy,1024,2,48000,-16,experiment,HHSHH,0,even,39174,220038,NA,300116,271817,2250,299612,NA,301232,2254,187408,NA,301334,301945,301229,301334,Flan ,124,74657,125,yes,1024
NA,99.20634921,99.20634921,597.547619,597.547619,black,legacy,legacy,legacy,0,incongruent,uniform,1,undefined,1,s,0,0,0,125,125,0,125,0,125,0,0,0,125,125,125,125,Fri Sep 17 17:02:01 2021,600,Flanker Task,yes,Flanker Task.osexp,C:/Users/rayra/Documents,no,mono,no,18,no,white,no,yes,768,legacy,45,79,C:/Users/rayra/Documents/rc-subject-0.csv,legacy,NA,Lentiform Loewenfeld,3.3.9,0,s,NA,h,s,NA,s,634,NA,36919,32629,NA,634,2,legacy,1024,2,48000,-16,experiment,HHSHH,0,even,39174,220038,NA,302455,271817,2250,301951,NA,303569,2254,187408,NA,303673,304309,303567,303673,Flan ,125,75291,126,yes,1024
NA,99.21259843,99.21259843,597.3385827,597.3385827,black,legacy,legacy,legacy,0,congruent,uniform,1,undefined,1,h,0,0,0,126,126,0,126,0,126,0,0,0,126,126,126,126,Fri Sep 17 17:02:01 2021,600,Flanker Task,yes,Flanker Task.osexp,C:/Users/rayra/Documents,no,mono,no,18,no,white,no,yes,768,legacy,46,79,C:/Users/rayra/Documents/rc-subject-0.csv,legacy,NA,Lentiform Loewenfeld,3.3.9,0,h,NA,h,s,NA,h,571,NA,36919,32629,NA,571,2,legacy,1024,2,48000,-16,experiment,HHHHH,0,even,39174,220038,NA,304819,271817,2250,304315,NA,305944,2254,187408,NA,306048,306620,305941,306048,Flan ,126,75862,127,yes,1024
NA,99.21875,99.21875,596.9609375,596.9609375,black,legacy,legacy,legacy,0,incongruent,uniform,1,undefined,1,s,0,0,0,127,127,0,127,0,127,0,0,0,127,127,127,127,Fri Sep 17 17:02:01 2021,600,Flanker Task,yes,Flanker Task.osexp,C:/Users/rayra/Documents,no,mono,no,18,no,white,no,yes,768,legacy,47,79,C:/Users/rayra/Documents/rc-subject-0.csv,legacy,NA,Lentiform Loewenfeld,3.3.9,0,s,NA,h,s,NA,s,549,NA,36919,32629,NA,549,2,legacy,1024,2,48000,-16,experiment,HHSHH,0,even,39174,220038,NA,306627,271817,2250,304315,NA,307743,2254,187408,NA,307845,308396,307741,307845,Flan ,127,76411,128,yes,1024
NA,99.2248062,99.2248062,596.0155039,596.0155039,black,legacy,legacy,legacy,0,congruent,uniform,1,undefined,1,s,0,0,0,128,128,0,128,0,128,0,0,0,128,128,128,128,Fri Sep 17 17:02:01 2021,600,Flanker Task,yes,Flanker Task.osexp,C:/Users/rayra/Documents,no,mono,no,18,no,white,no,yes,768,legacy,48,79,C:/Users/rayra/Documents/rc-subject-0.csv,legacy,NA,Lentiform Loewenfeld,3.3.9,0,s,NA,h,s,NA,s,475,NA,36919,32629,NA,475,2,legacy,1024,2,48000,-16,experiment,SSSSS,0,even,39174,220038,NA,308402,271817,2250,304315,NA,309514,2254,187408,NA,309618,310095,309511,309618,Flan ,128,76886,129,yes,1024
NA,98.46153846,98.46153846,595.4384615,595.4384615,black,legacy,legacy,legacy,0,incongruent,uniform,0,undefined,0,h,0,0,0,129,129,0,129,0,129,0,0,0,129,129,129,129,Fri Sep 17 17:02:01 2021,600,Flanker Task,yes,Flanker Task.osexp,C:/Users/rayra/Documents,no,mono,no,18,no,white,no,yes,768,legacy,49,79,C:/Users/rayra/Documents/rc-subject-0.csv,legacy,NA,Lentiform Loewenfeld,3.3.9,0,s,NA,h,s,NA,s,521,NA,36919,32629,NA,521,2,legacy,1024,2,48000,-16,experiment,SSHSS,0,even,39174,220038,NA,310101,271817,2250,304315,NA,311223,2254,187408,NA,311325,311848,311220,311325,Flan ,128,77407,130,yes,1024
NA,98.47328244,98.47328244,594.8778626,594.8778626,black,legacy,legacy,legacy,0,congruent,uniform,1,undefined,1,s,0,0,0,130,130,0,130,0,130,0,0,0,130,130,130,130,Fri Sep 17 17:02:01 2021,600,Flanker Task,yes,Flanker Task.osexp,C:/Users/rayra/Documents,no,mono,no,18,no,white,no,yes,768,legacy,50,79,C:/Users/rayra/Documents/rc-subject-0.csv,legacy,NA,Lentiform Loewenfeld,3.3.9,0,s,NA,h,s,NA,s,522,NA,36919,32629,NA,522,2,legacy,1024,2,48000,-16,experiment,SSSSS,0,even,39174,220038,NA,312359,311854,2250,304315,NA,313477,2254,187408,NA,313581,314104,313474,313581,Flan ,129,77929,131,yes,1024
NA,98.48484848,98.48484848,595.0530303,595.0530303,black,legacy,legacy,legacy,0,incongruent,uniform,1,undefined,1,s,0,0,0,131,131,0,131,0,131,0,0,0,131,131,131,131,Fri Sep 17 17:02:01 2021,600,Flanker Task,yes,Flanker Task.osexp,C:/Users/rayra/Documents,no,mono,no,18,no,white,no,yes,768,legacy,51,79,C:/Users/rayra/Documents/rc-subject-0.csv,legacy,NA,Lentiform Loewenfeld,3.3.9,0,s,NA,h,s,NA,s,618,NA,36919,32629,NA,618,2,legacy,1024,2,48000,-16,experiment,HHSHH,0,even,39174,220038,NA,314110,311854,2250,304315,NA,315218,2254,187408,NA,315321,315941,315215,315320,Flan ,130,78547,132,yes,1024
NA,98.4962406,98.4962406,594.112782,594.112782,black,legacy,legacy,legacy,0,congruent,uniform,1,undefined,1,s,0,0,0,132,132,0,132,0,132,0,0,0,132,132,132,132,Fri Sep 17 17:02:01 2021,600,Flanker Task,yes,Flanker Task.osexp,C:/Users/rayra/Documents,no,mono,no,18,no,white,no,yes,768,legacy,52,79,C:/Users/rayra/Documents/rc-subject-0.csv,legacy,NA,Lentiform Loewenfeld,3.3.9,0,s,NA,h,s,NA,s,470,NA,36919,32629,NA,470,2,legacy,1024,2,48000,-16,experiment,SSSSS,0,even,39174,220038,NA,316456,311854,2250,315951,NA,317568,2254,187408,NA,317671,318142,317565,317671,Flan ,131,79017,133,yes,1024
NA,98.50746269,98.50746269,593.619403,593.619403,black,legacy,legacy,legacy,0,congruent,uniform,1,undefined,1,h,0,0,0,133,133,0,133,0,133,0,0,0,133,133,133,133,Fri Sep 17 17:02:01 2021,600,Flanker Task,yes,Flanker Task.osexp,C:/Users/rayra/Documents,no,mono,no,18,no,white,no,yes,768,legacy,53,79,C:/Users/rayra/Documents/rc-subject-0.csv,legacy,NA,Lentiform Loewenfeld,3.3.9,0,h,NA,h,s,NA,h,528,NA,36919,32629,NA,528,2,legacy,1024,2,48000,-16,experiment,HHHHH,0,even,39174,220038,NA,318148,311854,2250,315951,NA,319259,2254,187408,NA,319363,319892,319257,319363,Flan ,132,79545,134,yes,1024
NA,98.51851852,98.51851852,594.237037,594.237037,black,legacy,legacy,legacy,0,incongruent,uniform,1,undefined,1,h,0,0,0,134,134,0,134,0,134,0,0,0,134,134,134,134,Fri Sep 17 17:02:01 2021,600,Flanker Task,yes,Flanker Task.osexp,C:/Users/rayra/Documents,no,mono,no,18,no,white,no,yes,768,legacy,54,79,C:/Users/rayra/Documents/rc-subject-0.csv,legacy,NA,Lentiform Loewenfeld,3.3.9,0,h,NA,h,s,NA,h,677,NA,36919,32629,NA,677,2,legacy,1024,2,48000,-16,experiment,SSHSS,0,even,39174,220038,NA,319897,311854,2250,315951,NA,321001,2254,187408,NA,321105,321784,320999,321105,Flan ,133,80222,135,yes,1024
NA,98.52941176,98.52941176,595.3602941,595.3602941,black,legacy,legacy,legacy,0,incongruent,uniform,1,undefined,1,s,0,0,0,135,135,0,135,0,135,0,0,0,135,135,135,135,Fri Sep 17 17:02:01 2021,600,Flanker Task,yes,Flanker Task.osexp,C:/Users/rayra/Documents,no,mono,no,18,no,white,no,yes,768,legacy,55,79,C:/Users/rayra/Documents/rc-subject-0.csv,legacy,NA,Lentiform Loewenfeld,3.3.9,0,s,NA,h,s,NA,s,747,NA,36919,32629,NA,747,2,legacy,1024,2,48000,-16,experiment,HHSHH,0,even,39174,220038,NA,322292,311854,2250,321790,NA,323399,2254,187408,NA,323503,324251,323396,323503,Flan ,134,80969,136,yes,1024
NA,98.54014599,98.54014599,595.3138686,595.3138686,black,legacy,legacy,legacy,0,incongruent,uniform,1,undefined,1,h,0,0,0,136,136,0,136,0,136,0,0,0,136,136,136,136,Fri Sep 17 17:02:01 2021,600,Flanker Task,yes,Flanker Task.osexp,C:/Users/rayra/Documents,no,mono,no,18,no,white,no,yes,768,legacy,56,79,C:/Users/rayra/Documents/rc-subject-0.csv,legacy,NA,Lentiform Loewenfeld,3.3.9,0,h,NA,h,s,NA,h,589,NA,36919,32629,NA,589,2,legacy,1024,2,48000,-16,experiment,SSHSS,0,even,39174,220038,NA,324762,311854,2250,324257,NA,325876,2254,187408,NA,325980,326570,325874,325980,Flan ,135,81558,137,yes,1024
NA,98.55072464,98.55072464,595.5,595.5,black,legacy,legacy,legacy,0,incongruent,uniform,1,undefined,1,h,0,0,0,137,137,0,137,0,137,0,0,0,137,137,137,137,Fri Sep 17 17:02:01 2021,600,Flanker Task,yes,Flanker Task.osexp,C:/Users/rayra/Documents,no,mono,no,18,no,white,no,yes,768,legacy,57,79,C:/Users/rayra/Documents/rc-subject-0.csv,legacy,NA,Lentiform Loewenfeld,3.3.9,0,h,NA,h,s,NA,h,621,NA,36919,32629,NA,621,2,legacy,1024,2,48000,-16,experiment,SSHSS,0,even,39174,220038,NA,326577,311854,2250,324257,NA,327679,2254,187408,NA,327783,328405,327676,327783,Flan ,136,82179,138,yes,1024
NA,98.56115108,98.56115108,595.1510791,595.1510791,black,legacy,legacy,legacy,0,congruent,uniform,1,undefined,1,h,0,0,0,138,138,0,138,0,138,0,0,0,138,138,138,138,Fri Sep 17 17:02:01 2021,600,Flanker Task,yes,Flanker Task.osexp,C:/Users/rayra/Documents,no,mono,no,18,no,white,no,yes,768,legacy,58,79,C:/Users/rayra/Documents/rc-subject-0.csv,legacy,NA,Lentiform Loewenfeld,3.3.9,0,h,NA,h,s,NA,h,547,NA,36919,32629,NA,547,2,legacy,1024,2,48000,-16,experiment,HHHHH,0,even,39174,220038,NA,328914,311854,2250,328411,NA,330014,2254,187408,NA,330118,330667,330011,330117,Flan ,137,82726,139,yes,1024
NA,98.57142857,98.57142857,594.8785714,594.8785714,black,legacy,legacy,legacy,0,congruent,uniform,1,undefined,1,s,0,0,0,139,139,0,139,0,139,0,0,0,139,139,139,139,Fri Sep 17 17:02:01 2021,600,Flanker Task,yes,Flanker Task.osexp,C:/Users/rayra/Documents,no,mono,no,18,no,white,no,yes,768,legacy,59,79,C:/Users/rayra/Documents/rc-subject-0.csv,legacy,NA,Lentiform Loewenfeld,3.3.9,0,s,NA,h,s,NA,s,557,NA,36919,32629,NA,557,2,legacy,1024,2,48000,-16,experiment,SSSSS,0,even,39174,220038,NA,330673,311854,2250,328411,NA,331777,2254,187408,NA,331879,332437,331774,331879,Flan ,138,83283,140,yes,1024
NA,98.58156028,98.58156028,594.5673759,594.5673759,black,legacy,legacy,legacy,0,incongruent,uniform,1,undefined,1,s,0,0,0,140,140,0,140,0,140,0,0,0,140,140,140,140,Fri Sep 17 17:02:01 2021,600,Flanker Task,yes,Flanker Task.osexp,C:/Users/rayra/Documents,no,mono,no,18,no,white,no,yes,768,legacy,60,79,C:/Users/rayra/Documents/rc-subject-0.csv,legacy,NA,Lentiform Loewenfeld,3.3.9,0,s,NA,h,s,NA,s,551,NA,36919,32629,NA,551,2,legacy,1024,2,48000,-16,experiment,HHSHH,0,even,39174,220038,NA,332443,311854,2250,328411,NA,333550,2254,187408,NA,333654,334207,333548,333653,Flan ,139,83834,141,yes,1024
NA,98.5915493,98.5915493,593.6830986,593.6830986,black,legacy,legacy,legacy,0,congruent,uniform,1,undefined,1,s,0,0,0,141,141,0,141,0,141,0,0,0,141,141,141,141,Fri Sep 17 17:02:01 2021,600,Flanker Task,yes,Flanker Task.osexp,C:/Users/rayra/Documents,no,mono,no,18,no,white,no,yes,768,legacy,61,79,C:/Users/rayra/Documents/rc-subject-0.csv,legacy,NA,Lentiform Loewenfeld,3.3.9,0,s,NA,h,s,NA,s,469,NA,36919,32629,NA,469,2,legacy,1024,2,48000,-16,experiment,SSSSS,0,even,39174,220038,NA,334212,311854,2250,328411,NA,335318,2254,187408,NA,335421,335893,335315,335421,Flan ,140,84303,142,yes,1024
NA,98.6013986,98.6013986,593.3076923,593.3076923,black,legacy,legacy,legacy,0,congruent,uniform,1,undefined,1,h,0,0,0,142,142,0,142,0,142,0,0,0,142,142,142,142,Fri Sep 17 17:02:01 2021,600,Flanker Task,yes,Flanker Task.osexp,C:/Users/rayra/Documents,no,mono,no,18,no,white,no,yes,768,legacy,62,79,C:/Users/rayra/Documents/rc-subject-0.csv,legacy,NA,Lentiform Loewenfeld,3.3.9,0,h,NA,h,s,NA,h,540,NA,36919,32629,NA,540,2,legacy,1024,2,48000,-16,experiment,HHHHH,0,even,39174,220038,NA,335899,311854,2250,328411,NA,337003,2254,187408,NA,337106,337648,337000,337106,Flan ,141,84843,143,yes,1024
NA,98.61111111,98.61111111,592.9861111,592.9861111,black,legacy,legacy,legacy,0,incongruent,uniform,1,undefined,1,s,0,0,0,143,143,0,143,0,143,0,0,0,143,143,143,143,Fri Sep 17 17:02:01 2021,600,Flanker Task,yes,Flanker Task.osexp,C:/Users/rayra/Documents,no,mono,no,18,no,white,no,yes,768,legacy,63,79,C:/Users/rayra/Documents/rc-subject-0.csv,legacy,NA,Lentiform Loewenfeld,3.3.9,0,s,NA,h,s,NA,s,547,NA,36919,32629,NA,547,2,legacy,1024,2,48000,-16,experiment,HHSHH,0,even,39174,220038,NA,337654,311854,2250,328411,NA,338769,2254,187408,NA,338871,339420,338766,338871,Flan ,142,85390,144,yes,1024
NA,98.62068966,98.62068966,592.137931,592.137931,black,legacy,legacy,legacy,0,congruent,uniform,1,undefined,1,s,0,0,0,144,144,0,144,0,144,0,0,0,144,144,144,144,Fri Sep 17 17:02:01 2021,600,Flanker Task,yes,Flanker Task.osexp,C:/Users/rayra/Documents,no,mono,no,18,no,white,no,yes,768,legacy,64,79,C:/Users/rayra/Documents/rc-subject-0.csv,legacy,NA,Lentiform Loewenfeld,3.3.9,0,s,NA,h,s,NA,s,470,NA,36919,32629,NA,470,2,legacy,1024,2,48000,-16,experiment,SSSSS,0,even,39174,220038,NA,339425,311854,2250,328411,NA,340527,2254,187408,NA,340630,341102,340524,340630,Flan ,143,85860,145,yes,1024
NA,98.63013699,98.63013699,591.6780822,591.6780822,black,legacy,legacy,legacy,0,congruent,uniform,1,undefined,1,s,0,0,0,145,145,0,145,0,145,0,0,0,145,145,145,145,Fri Sep 17 17:02:01 2021,600,Flanker Task,yes,Flanker Task.osexp,C:/Users/rayra/Documents,no,mono,no,18,no,white,no,yes,768,legacy,65,79,C:/Users/rayra/Documents/rc-subject-0.csv,legacy,NA,Lentiform Loewenfeld,3.3.9,0,s,NA,h,s,NA,s,525,NA,36919,32629,NA,525,2,legacy,1024,2,48000,-16,experiment,SSSSS,0,even,39174,220038,NA,341111,311854,2250,328411,NA,342219,2254,187408,NA,342323,342849,342217,342322,Flan ,144,86385,146,yes,1024
NA,98.63945578,98.63945578,591.1360544,591.1360544,black,legacy,legacy,legacy,0,incongruent,uniform,1,undefined,1,s,0,0,0,146,146,0,146,0,146,0,0,0,146,146,146,146,Fri Sep 17 17:02:01 2021,600,Flanker Task,yes,Flanker Task.osexp,C:/Users/rayra/Documents,no,mono,no,18,no,white,no,yes,768,legacy,66,79,C:/Users/rayra/Documents/rc-subject-0.csv,legacy,NA,Lentiform Loewenfeld,3.3.9,0,s,NA,h,s,NA,s,512,NA,36919,32629,NA,512,2,legacy,1024,2,48000,-16,experiment,HHSHH,0,even,39174,220038,NA,342855,311854,2250,328411,NA,343963,2254,187408,NA,344067,344582,343960,344067,Flan ,145,86897,147,yes,1024
NA,98.64864865,98.64864865,590.3851351,590.3851351,black,legacy,legacy,legacy,0,congruent,uniform,1,undefined,1,s,0,0,0,147,147,0,147,0,147,0,0,0,147,147,147,147,Fri Sep 17 17:02:01 2021,600,Flanker Task,yes,Flanker Task.osexp,C:/Users/rayra/Documents,no,mono,no,18,no,white,no,yes,768,legacy,67,79,C:/Users/rayra/Documents/rc-subject-0.csv,legacy,NA,Lentiform Loewenfeld,3.3.9,0,s,NA,h,s,NA,s,480,NA,36919,32629,NA,480,2,legacy,1024,2,48000,-16,experiment,SSSSS,0,even,39174,220038,NA,344587,311854,2250,328411,NA,345700,2254,187408,NA,345802,346283,345697,345802,Flan ,146,87377,148,yes,1024
NA,98.65771812,98.65771812,590.0671141,590.0671141,black,legacy,legacy,legacy,0,incongruent,uniform,1,undefined,1,s,0,0,0,148,148,0,148,0,148,0,0,0,148,148,148,148,Fri Sep 17 17:02:01 2021,600,Flanker Task,yes,Flanker Task.osexp,C:/Users/rayra/Documents,no,mono,no,18,no,white,no,yes,768,legacy,68,79,C:/Users/rayra/Documents/rc-subject-0.csv,legacy,NA,Lentiform Loewenfeld,3.3.9,0,s,NA,h,s,NA,s,543,NA,36919,32629,NA,543,2,legacy,1024,2,48000,-16,experiment,HHSHH,0,even,39174,220038,NA,346288,311854,2250,328411,NA,347379,2254,187408,NA,347483,348028,347376,347483,Flan ,147,87920,149,yes,1024
NA,98.66666667,98.66666667,589.34,589.34,black,legacy,legacy,legacy,0,congruent,uniform,1,undefined,1,s,0,0,0,149,149,0,149,0,149,0,0,0,149,149,149,149,Fri Sep 17 17:02:01 2021,600,Flanker Task,yes,Flanker Task.osexp,C:/Users/rayra/Documents,no,mono,no,18,no,white,no,yes,768,legacy,69,79,C:/Users/rayra/Documents/rc-subject-0.csv,legacy,NA,Lentiform Loewenfeld,3.3.9,0,s,NA,h,s,NA,s,481,NA,36919,32629,NA,481,2,legacy,1024,2,48000,-16,experiment,SSSSS,0,even,39174,220038,NA,348034,311854,2250,328411,NA,349136,2254,187408,NA,349239,349721,349134,349239,Flan ,148,88401,150,yes,1024
NA,98.67549669,98.67549669,589.1655629,589.1655629,black,legacy,legacy,legacy,0,incongruent,uniform,1,undefined,1,h,0,0,0,150,150,0,150,0,150,0,0,0,150,150,150,150,Fri Sep 17 17:02:01 2021,600,Flanker Task,yes,Flanker Task.osexp,C:/Users/rayra/Documents,no,mono,no,18,no,white,no,yes,768,legacy,70,79,C:/Users/rayra/Documents/rc-subject-0.csv,legacy,NA,Lentiform Loewenfeld,3.3.9,0,h,NA,h,s,NA,h,563,NA,36919,32629,NA,563,2,legacy,1024,2,48000,-16,experiment,SSHSS,0,even,39174,220038,NA,349728,311854,2250,328411,NA,350836,2254,187408,NA,350939,351504,350833,350939,Flan ,149,88964,151,yes,1024
NA,98.68421053,98.68421053,588.6052632,588.6052632,black,legacy,legacy,legacy,0,incongruent,uniform,1,undefined,1,s,0,0,0,151,151,0,151,0,151,0,0,0,151,151,151,151,Fri Sep 17 17:02:01 2021,600,Flanker Task,yes,Flanker Task.osexp,C:/Users/rayra/Documents,no,mono,no,18,no,white,no,yes,768,legacy,71,79,C:/Users/rayra/Documents/rc-subject-0.csv,legacy,NA,Lentiform Loewenfeld,3.3.9,0,s,NA,h,s,NA,s,504,NA,36919,32629,NA,504,2,legacy,1024,2,48000,-16,experiment,HHSHH,0,even,39174,220038,NA,351509,311854,2250,328411,NA,352623,2254,187408,NA,352725,353230,352621,352725,Flan ,150,89468,152,yes,1024
NA,98.69281046,98.69281046,588.5947712,588.5947712,black,legacy,legacy,legacy,0,incongruent,uniform,1,undefined,1,h,0,0,0,152,152,0,152,0,152,0,0,0,152,152,152,152,Fri Sep 17 17:02:01 2021,600,Flanker Task,yes,Flanker Task.osexp,C:/Users/rayra/Documents,no,mono,no,18,no,white,no,yes,768,legacy,72,79,C:/Users/rayra/Documents/rc-subject-0.csv,legacy,NA,Lentiform Loewenfeld,3.3.9,0,h,NA,h,s,NA,h,587,NA,36919,32629,NA,587,2,legacy,1024,2,48000,-16,experiment,SSHSS,0,even,39174,220038,NA,353236,311854,2250,328411,NA,354337,2254,187408,NA,354439,355028,354335,354439,Flan ,151,90055,153,yes,1024
NA,98.7012987,98.7012987,588.4805195,588.4805195,black,legacy,legacy,legacy,0,incongruent,uniform,1,undefined,1,h,0,0,0,153,153,0,153,0,153,0,0,0,153,153,153,153,Fri Sep 17 17:02:01 2021,600,Flanker Task,yes,Flanker Task.osexp,C:/Users/rayra/Documents,no,mono,no,18,no,white,no,yes,768,legacy,73,79,C:/Users/rayra/Documents/rc-subject-0.csv,legacy,NA,Lentiform Loewenfeld,3.3.9,0,h,NA,h,s,NA,h,571,NA,36919,32629,NA,571,2,legacy,1024,2,48000,-16,experiment,SSHSS,0,even,39174,220038,NA,355032,311854,2250,328411,NA,356141,2254,187408,NA,356243,356816,356138,356243,Flan ,152,90626,154,yes,1024
NA,98.70967742,98.70967742,587.8322581,587.8322581,black,legacy,legacy,legacy,0,congruent,uniform,1,undefined,1,s,0,0,0,154,154,0,154,0,154,0,0,0,154,154,154,154,Fri Sep 17 17:02:01 2021,600,Flanker Task,yes,Flanker Task.osexp,C:/Users/rayra/Documents,no,mono,no,18,no,white,no,yes,768,legacy,74,79,C:/Users/rayra/Documents/rc-subject-0.csv,legacy,NA,Lentiform Loewenfeld,3.3.9,0,s,NA,h,s,NA,s,488,NA,36919,32629,NA,488,2,legacy,1024,2,48000,-16,experiment,SSSSS,0,even,39174,220038,NA,356821,311854,2250,328411,NA,357919,2254,187408,NA,358021,358511,357916,358021,Flan ,153,91114,155,yes,1024
NA,98.71794872,98.71794872,587.3846154,587.3846154,black,legacy,legacy,legacy,0,congruent,uniform,1,undefined,1,h,0,0,0,155,155,0,155,0,155,0,0,0,155,155,155,155,Fri Sep 17 17:02:01 2021,600,Flanker Task,yes,Flanker Task.osexp,C:/Users/rayra/Documents,no,mono,no,18,no,white,no,yes,768,legacy,75,79,C:/Users/rayra/Documents/rc-subject-0.csv,legacy,NA,Lentiform Loewenfeld,3.3.9,0,h,NA,h,s,NA,h,518,NA,36919,32629,NA,518,2,legacy,1024,2,48000,-16,experiment,HHHHH,0,even,39174,220038,NA,358517,311854,2250,328411,NA,359626,2254,187408,NA,359728,360249,359623,359728,Flan ,154,91632,156,yes,1024
NA,98.72611465,98.72611465,586.5859873,586.5859873,black,legacy,legacy,legacy,0,congruent,uniform,1,undefined,1,h,0,0,0,156,156,0,156,0,156,0,0,0,156,156,156,156,Fri Sep 17 17:02:01 2021,600,Flanker Task,yes,Flanker Task.osexp,C:/Users/rayra/Documents,no,mono,no,18,no,white,no,yes,768,legacy,76,79,C:/Users/rayra/Documents/rc-subject-0.csv,legacy,NA,Lentiform Loewenfeld,3.3.9,0,h,NA,h,s,NA,h,462,NA,36919,32629,NA,462,2,legacy,1024,2,48000,-16,experiment,HHHHH,0,even,39174,220038,NA,360255,311854,2250,328411,NA,361345,2254,187408,NA,361447,361911,361343,361447,Flan ,155,92094,157,yes,1024
NA,98.73417722,98.73417722,586.2721519,586.2721519,black,legacy,legacy,legacy,0,incongruent,uniform,1,undefined,1,s,0,0,0,157,157,0,157,0,157,0,0,0,157,157,157,157,Fri Sep 17 17:02:01 2021,600,Flanker Task,yes,Flanker Task.osexp,C:/Users/rayra/Documents,no,mono,no,18,no,white,no,yes,768,legacy,77,79,C:/Users/rayra/Documents/rc-subject-0.csv,legacy,NA,Lentiform Loewenfeld,3.3.9,0,s,NA,h,s,NA,s,537,NA,36919,32629,NA,537,2,legacy,1024,2,48000,-16,experiment,HHSHH,0,even,39174,220038,NA,361918,311854,2250,328411,NA,363021,2254,187408,NA,363124,363663,363019,363124,Flan ,156,92631,158,yes,1024
NA,98.74213836,98.74213836,585.8930818,585.8930818,black,legacy,legacy,legacy,0,incongruent,uniform,1,undefined,1,s,0,0,0,158,158,0,158,0,158,0,0,0,158,158,158,158,Fri Sep 17 17:02:01 2021,600,Flanker Task,yes,Flanker Task.osexp,C:/Users/rayra/Documents,no,mono,no,18,no,white,no,yes,768,legacy,78,79,C:/Users/rayra/Documents/rc-subject-0.csv,legacy,NA,Lentiform Loewenfeld,3.3.9,0,s,NA,h,s,NA,s,526,NA,36919,32629,NA,526,2,legacy,1024,2,48000,-16,experiment,HHSHH,0,even,39174,220038,NA,363669,311854,2250,328411,NA,364773,2254,187408,NA,364875,365403,364770,364875,Flan ,157,93157,159,yes,1024
NA,98.75,98.75,585.26875,585.26875,black,legacy,legacy,legacy,0,congruent,uniform,1,undefined,1,h,0,0,0,159,159,0,159,0,159,0,0,0,159,159,159,159,Fri Sep 17 17:02:01 2021,600,Flanker Task,yes,Flanker Task.osexp,C:/Users/rayra/Documents,no,mono,no,18,no,white,no,yes,768,legacy,79,79,C:/Users/rayra/Documents/rc-subject-0.csv,legacy,NA,Lentiform Loewenfeld,3.3.9,0,h,NA,h,s,NA,h,486,NA,36919,32629,NA,486,2,legacy,1024,2,48000,-16,experiment,HHHHH,0,even,39174,220038,NA,365407,311854,2250,328411,NA,366514,2254,187408,NA,366616,367104,366511,366616,Flan ,158,93643,160,yes,1024
SSSSS,98.13664596,98.13664596,585.2111801,585.2111801,black,legacy,legacy,legacy,0,congruent,uniform,0,undefined,0,s,0,0,0,160,160,0,160,0,160,0,0,0,160,160,160,160,Fri Sep 17 17:02:01 2021,300,Flanker Task,yes,Flanker Task.osexp,C:/Users/rayra/Documents,no,mono,no,18,no,white,no,yes,768,legacy,0,79,C:/Users/rayra/Documents/rc-subject-0.csv,legacy,congruent,Lentiform Loewenfeld,3.3.9,0,h,NA,h,s,h,h,576,NA,36919,32629,14969,576,2,legacy,1024,2,48000,-16,experiment,HHHHH,0,even,39174,220038,383110,367108,311854,2250,328411,NA,383191,2254,187408,368139,383294,383872,383189,383293,Flan ,158,94219,161,yes,1024
SSSSS,97.5308642,97.5308642,584.5432099,584.5432099,black,legacy,legacy,legacy,0,congruent,uniform,0,undefined,0,s,0,0,0,161,161,0,161,0,161,0,0,0,161,161,161,161,Fri Sep 17 17:02:01 2021,300,Flanker Task,yes,Flanker Task.osexp,C:/Users/rayra/Documents,no,mono,no,18,no,white,no,yes,768,legacy,1,79,C:/Users/rayra/Documents/rc-subject-0.csv,legacy,congruent,Lentiform Loewenfeld,3.3.9,0,h,NA,h,s,h,h,477,NA,36919,32629,14969,477,2,legacy,1024,2,48000,-16,experiment,HHHHH,0,even,39174,220038,383110,384884,383878,2250,384381,NA,386002,2254,187408,368139,386105,386583,385999,386105,Flan ,158,94696,162,yes,1024
SSHSS,97.54601227,97.54601227,583.6687117,583.6687117,black,legacy,legacy,legacy,0,congruent,uniform,1,undefined,1,h,0,0,0,162,162,0,162,0,162,0,0,0,162,162,162,162,Fri Sep 17 17:02:01 2021,300,Flanker Task,yes,Flanker Task.osexp,C:/Users/rayra/Documents,no,mono,no,18,no,white,no,yes,768,legacy,2,79,C:/Users/rayra/Documents/rc-subject-0.csv,legacy,incongruent,Lentiform Loewenfeld,3.3.9,0,h,NA,h,s,h,h,442,NA,36919,32629,14969,442,2,legacy,1024,2,48000,-16,experiment,HHHHH,0,even,39174,220038,383110,387597,386589,2250,387093,NA,388705,2254,187408,368139,388809,389253,388702,388808,Flan ,159,95138,163,yes,1024
HHSHH,96.95121951,96.95121951,582.7439024,582.7439024,black,legacy,legacy,legacy,0,congruent,uniform,0,undefined,0,s,0,0,0,163,163,0,163,0,163,0,0,0,163,163,163,163,Fri Sep 17 17:02:01 2021,300,Flanker Task,yes,Flanker Task.osexp,C:/Users/rayra/Documents,no,mono,no,18,no,white,no,yes,768,legacy,3,79,C:/Users/rayra/Documents/rc-subject-0.csv,legacy,incongruent,Lentiform Loewenfeld,3.3.9,0,h,NA,h,s,h,h,432,NA,36919,32629,14969,432,2,legacy,1024,2,48000,-16,experiment,HHHHH,0,even,39174,220038,383110,389763,386589,2250,389259,NA,390888,2254,187408,368139,390990,391424,390885,390990,Flan ,159,95570,164,yes,1024
HHHHH,96.96969697,96.96969697,581.5454545,581.5454545,black,legacy,legacy,legacy,0,congruent,uniform,1,undefined,1,h,0,0,0,164,164,0,164,0,164,0,0,0,164,164,164,164,Fri Sep 17 17:02:01 2021,300,Flanker Task,yes,Flanker Task.osexp,C:/Users/rayra/Documents,no,mono,no,18,no,white,no,yes,768,legacy,4,79,C:/Users/rayra/Documents/rc-subject-0.csv,legacy,congruent,Lentiform Loewenfeld,3.3.9,0,h,NA,h,s,h,h,385,NA,36919,32629,14969,385,2,legacy,1024,2,48000,-16,experiment,HHHHH,0,even,39174,220038,383110,392435,391429,2250,391933,NA,393522,2254,187408,368139,393626,394012,393519,393626,Flan ,160,95955,165,yes,1024
SSSSS,96.38554217,96.38554217,580.5542169,580.5542169,black,legacy,legacy,legacy,0,congruent,uniform,0,undefined,0,s,0,0,0,165,165,0,165,0,165,0,0,0,165,165,165,165,Fri Sep 17 17:02:01 2021,300,Flanker Task,yes,Flanker Task.osexp,C:/Users/rayra/Documents,no,mono,no,18,no,white,no,yes,768,legacy,5,79,C:/Users/rayra/Documents/rc-subject-0.csv,legacy,congruent,Lentiform Loewenfeld,3.3.9,0,h,NA,h,s,h,h,417,NA,36919,32629,14969,417,2,legacy,1024,2,48000,-16,experiment,HHHHH,0,even,39174,220038,383110,394522,391429,2250,394018,NA,395626,2254,187408,368139,395730,396148,395623,395729,Flan ,160,96372,166,yes,1024
SSSSS,95.80838323,95.80838323,579.508982,579.508982,black,legacy,legacy,legacy,0,congruent,uniform,0,undefined,0,s,0,0,0,166,166,0,166,0,166,0,0,0,166,166,166,166,Fri Sep 17 17:02:01 2021,300,Flanker Task,yes,Flanker Task.osexp,C:/Users/rayra/Documents,no,mono,no,18,no,white,no,yes,768,legacy,6,79,C:/Users/rayra/Documents/rc-subject-0.csv,legacy,congruent,Lentiform Loewenfeld,3.3.9,0,h,NA,h,s,h,h,406,NA,36919,32629,14969,406,2,legacy,1024,2,48000,-16,experiment,HHHHH,0,even,39174,220038,383110,397162,396154,2250,396658,NA,398269,2254,187408,368139,398373,398780,398266,398373,Flan ,160,96778,167,yes,1024
HHSHH,95.23809524,95.23809524,578.3452381,578.3452381,black,legacy,legacy,legacy,0,congruent,uniform,0,undefined,0,s,0,0,0,167,167,0,167,0,167,0,0,0,167,167,167,167,Fri Sep 17 17:02:01 2021,300,Flanker Task,yes,Flanker Task.osexp,C:/Users/rayra/Documents,no,mono,no,18,no,white,no,yes,768,legacy,7,79,C:/Users/rayra/Documents/rc-subject-0.csv,legacy,incongruent,Lentiform Loewenfeld,3.3.9,0,h,NA,h,s,h,h,384,NA,36919,32629,14969,384,2,legacy,1024,2,48000,-16,experiment,HHHHH,0,even,39174,220038,383110,399794,398786,2250,399290,NA,400896,2254,187408,368139,400998,401384,400893,400998,Flan ,160,97162,168,yes,1024
SSHSS,95.26627219,95.26627219,576.408284,576.408284,black,legacy,legacy,legacy,0,congruent,uniform,1,undefined,1,h,0,0,0,168,168,0,168,0,168,0,0,0,168,168,168,168,Fri Sep 17 17:02:01 2021,300,Flanker Task,yes,Flanker Task.osexp,C:/Users/rayra/Documents,no,mono,no,18,no,white,no,yes,768,legacy,8,79,C:/Users/rayra/Documents/rc-subject-0.csv,legacy,incongruent,Lentiform Loewenfeld,3.3.9,0,h,NA,h,s,h,h,251,NA,36919,32629,14969,251,2,legacy,1024,2,48000,-16,experiment,HHHHH,0,even,39174,220038,383110,402398,401390,2250,401894,NA,403535,2254,187408,368139,403638,403891,403533,403638,Flan ,161,97413,169,yes,1024
SSSSS,94.70588235,94.70588235,575.4058824,575.4058824,black,legacy,legacy,legacy,0,congruent,uniform,0,undefined,0,s,0,0,0,169,169,0,169,0,169,0,0,0,169,169,169,169,Fri Sep 17 17:02:01 2021,300,Flanker Task,yes,Flanker Task.osexp,C:/Users/rayra/Documents,no,mono,no,18,no,white,no,yes,768,legacy,9,79,C:/Users/rayra/Documents/rc-subject-0.csv,legacy,congruent,Lentiform Loewenfeld,3.3.9,0,h,NA,h,s,h,h,406,NA,36919,32629,14969,406,2,legacy,1024,2,48000,-16,experiment,HHHHH,0,even,39174,220038,383110,403897,401390,2250,401894,NA,405006,2254,187408,368139,405108,405516,405003,405108,Flan ,161,97819,170,yes,1024
SSHSS,94.73684211,94.73684211,574.3859649,574.3859649,black,legacy,legacy,legacy,0,congruent,uniform,1,undefined,1,h,0,0,0,170,170,0,170,0,170,0,0,0,170,170,170,170,Fri Sep 17 17:02:01 2021,300,Flanker Task,yes,Flanker Task.osexp,C:/Users/rayra/Documents,no,mono,no,18,no,white,no,yes,768,legacy,10,79,C:/Users/rayra/Documents/rc-subject-0.csv,legacy,incongruent,Lentiform Loewenfeld,3.3.9,0,h,NA,h,s,h,h,401,NA,36919,32629,14969,401,2,legacy,1024,2,48000,-16,experiment,HHHHH,0,even,39174,220038,383110,406528,405522,2250,406026,NA,407639,2254,187408,368139,407743,408146,407637,407743,Flan ,162,98220,171,yes,1024
HHHHH,94.76744186,94.76744186,572.8662791,572.8662791,black,legacy,legacy,legacy,0,congruent,uniform,1,undefined,1,h,0,0,0,171,171,0,171,0,171,0,0,0,171,171,171,171,Fri Sep 17 17:02:01 2021,300,Flanker Task,yes,Flanker Task.osexp,C:/Users/rayra/Documents,no,mono,no,18,no,white,no,yes,768,legacy,11,79,C:/Users/rayra/Documents/rc-subject-0.csv,legacy,congruent,Lentiform Loewenfeld,3.3.9,0,h,NA,h,s,h,h,313,NA,36919,32629,14969,313,2,legacy,1024,2,48000,-16,experiment,HHHHH,0,even,39174,220038,383110,408655,405522,2250,408152,NA,409776,2254,187408,368139,409880,410195,409773,409879,Flan ,163,98533,172,yes,1024
