condition,stimulus,acc,accuracy,average_response_time,avg_rt,background,canvas_backend,clock_backend,color_backend,compensation,coordinates,correct,correct_Instructions,correct_keyboard_response,correct_response,count_Block1,count_Block2,count_Block3,count_Finish,count_Fixation,count_ISI,count_Instructions,count_Instructions2,count_Instructions3,count_Sequence,count_Stimulus,count_errorFeedback,count_experiment,count_faster,count_keyboard_response,count_logger,datetime,deadline,description,disable_garbage_collection,experiment_file,experiment_path,font_bold,font_family,font_italic,font_size,font_underline,foreground,form_clicks,fullscreen,height,keyboard_backend,live_row,live_row_Block1,logfile,mouse_backend,opensesame_codename,opensesame_version,repeat_cycle,response,response_Finish,response_Instructions,response_Instructions2,response_Instructions3,response_keyboard_response,response_time,response_time_Finish,response_time_Instructions,response_time_Instructions2,response_time_Instructions3,response_time_keyboard_response,round_decimals,sampler_backend,sound_buf_size,sound_channels,sound_freq,sound_sample_size,start,subject_nr,subject_parity,time_Block1,time_Block2,time_Block3,time_Finish,time_Fixation,time_ISI,time_Instructions,time_Instructions2,time_Instructions3,time_Sequence,time_Stimulus,time_errorFeedback,time_experiment,time_faster,time_keyboard_response,time_logger,title,total_correct,total_response_time,total_responses,uniform_coordinates,width
congruent,HHHHH,100,100,537,537,black,legacy,legacy,legacy,0,uniform,1,undefined,1,h,0,0,0,0,0,0,0,0,0,0,0,0,0,0,0,0,9/20/21 12:08,1500,The main experiment item,yes,FlankerTask.osexp,C:\Users\Brian\Desktop\College - Graduate\Graduate Work\Advanced Quant,no,mono,no,18,no,white,no,yes,768,legacy,0,0,C:/Users/Brian/Desktop/College - Graduate/Graduate Work/Advanced Quant/BK-subject-1.csv,legacy,Kafkaesque Koffka,3.2.8,0,h,NA,h,NA,NA,h,537,NA,8898,NA,NA,537,2,legacy,1024,2,48000,-16,experiment,1,odd,11370,NA,NA,NA,11521,NA,2471,NA,NA,11519,11623,NA,2462,NA,11623,12161,Flanker Task,1,537,1,yes,1024
incongruent,HHSHH,50,50,486.5,486.5,black,legacy,legacy,legacy,0,uniform,0,undefined,0,s,0,0,0,0,1,1,0,0,0,1,1,1,0,1,1,1,9/20/21 12:08,1500,The main experiment item,yes,FlankerTask.osexp,C:\Users\Brian\Desktop\College - Graduate\Graduate Work\Advanced Quant,no,mono,no,18,no,white,no,yes,768,legacy,1,1,C:/Users/Brian/Desktop/College - Graduate/Graduate Work/Advanced Quant/BK-subject-1.csv,legacy,Kafkaesque Koffka,3.2.8,0,h,NA,h,NA,NA,h,436,NA,8898,NA,NA,436,2,legacy,1024,2,48000,-16,experiment,1,odd,11370,NA,NA,NA,13250,12175,2471,NA,NA,13248,13352,NA,2462,NA,13352,13788,Flanker Task,1,973,2,yes,1024
incongruent,SSHSS,66.66666667,66.66666667,528.3333333,528.3333333,black,legacy,legacy,legacy,0,uniform,1,undefined,1,h,0,0,0,0,2,2,0,0,0,2,2,2,0,2,2,2,9/20/21 12:08,1500,The main experiment item,yes,FlankerTask.osexp,C:\Users\Brian\Desktop\College - Graduate\Graduate Work\Advanced Quant,no,mono,no,18,no,white,no,yes,768,legacy,2,2,C:/Users/Brian/Desktop/College - Graduate/Graduate Work/Advanced Quant/BK-subject-1.csv,legacy,Kafkaesque Koffka,3.2.8,0,h,NA,h,NA,NA,h,612,NA,8898,NA,NA,612,2,legacy,1024,2,48000,-16,experiment,1,odd,11370,NA,NA,NA,15373,14298,2471,NA,NA,15371,15476,13796,2462,NA,15476,16089,Flanker Task,2,1585,3,yes,1024
congruent,SSSSS,75,75,524.75,524.75,black,legacy,legacy,legacy,0,uniform,1,undefined,1,s,0,0,0,0,3,3,0,0,0,3,3,3,0,3,3,3,9/20/21 12:08,1500,The main experiment item,yes,FlankerTask.osexp,C:\Users\Brian\Desktop\College - Graduate\Graduate Work\Advanced Quant,no,mono,no,18,no,white,no,yes,768,legacy,3,3,C:/Users/Brian/Desktop/College - Graduate/Graduate Work/Advanced Quant/BK-subject-1.csv,legacy,Kafkaesque Koffka,3.2.8,0,s,NA,h,NA,NA,s,514,NA,8898,NA,NA,514,2,legacy,1024,2,48000,-16,experiment,1,odd,11370,NA,NA,NA,17174,16097,2471,NA,NA,17172,17277,13796,2462,NA,17277,17792,Flanker Task,3,2099,4,yes,1024
congruent,SSSSS,80,80,506,506,black,legacy,legacy,legacy,0,uniform,1,undefined,1,s,0,0,0,0,4,4,0,0,0,4,4,4,0,4,4,4,9/20/21 12:08,1500,The main experiment item,yes,FlankerTask.osexp,C:\Users\Brian\Desktop\College - Graduate\Graduate Work\Advanced Quant,no,mono,no,18,no,white,no,yes,768,legacy,4,4,C:/Users/Brian/Desktop/College - Graduate/Graduate Work/Advanced Quant/BK-subject-1.csv,legacy,Kafkaesque Koffka,3.2.8,0,s,NA,h,NA,NA,s,431,NA,8898,NA,NA,431,2,legacy,1024,2,48000,-16,experiment,1,odd,11370,NA,NA,NA,18874,17800,2471,NA,NA,18872,18978,13796,2462,NA,18978,19410,Flanker Task,4,2530,5,yes,1024
congruent,SSSSS,83.33333333,83.33333333,500.6666667,500.6666667,black,legacy,legacy,legacy,0,uniform,1,undefined,1,s,0,0,0,0,5,5,0,0,0,5,5,5,0,5,5,5,9/20/21 12:08,1500,The main experiment item,yes,FlankerTask.osexp,C:\Users\Brian\Desktop\College - Graduate\Graduate Work\Advanced Quant,no,mono,no,18,no,white,no,yes,768,legacy,5,5,C:/Users/Brian/Desktop/College - Graduate/Graduate Work/Advanced Quant/BK-subject-1.csv,legacy,Kafkaesque Koffka,3.2.8,0,s,NA,h,NA,NA,s,474,NA,8898,NA,NA,474,2,legacy,1024,2,48000,-16,experiment,1,odd,11370,NA,NA,NA,20491,19418,2471,NA,NA,20489,20593,13796,2462,NA,20593,21068,Flanker Task,5,3004,6,yes,1024
congruent,SSSSS,85.71428571,85.71428571,486.8571429,486.8571429,black,legacy,legacy,legacy,0,uniform,1,undefined,1,s,0,0,0,0,6,6,0,0,0,6,6,6,0,6,6,6,9/20/21 12:08,1500,The main experiment item,yes,FlankerTask.osexp,C:\Users\Brian\Desktop\College - Graduate\Graduate Work\Advanced Quant,no,mono,no,18,no,white,no,yes,768,legacy,6,6,C:/Users/Brian/Desktop/College - Graduate/Graduate Work/Advanced Quant/BK-subject-1.csv,legacy,Kafkaesque Koffka,3.2.8,0,s,NA,h,NA,NA,s,404,NA,8898,NA,NA,404,2,legacy,1024,2,48000,-16,experiment,1,odd,11370,NA,NA,NA,22149,21076,2471,NA,NA,22148,22252,13796,2462,NA,22252,22657,Flanker Task,6,3408,7,yes,1024
incongruent,HHSHH,87.5,87.5,526.25,526.25,black,legacy,legacy,legacy,0,uniform,1,undefined,1,s,0,0,0,0,7,7,0,0,0,7,7,7,0,7,7,7,9/20/21 12:08,1500,The main experiment item,yes,FlankerTask.osexp,C:\Users\Brian\Desktop\College - Graduate\Graduate Work\Advanced Quant,no,mono,no,18,no,white,no,yes,768,legacy,7,7,C:/Users/Brian/Desktop/College - Graduate/Graduate Work/Advanced Quant/BK-subject-1.csv,legacy,Kafkaesque Koffka,3.2.8,0,s,NA,h,NA,NA,s,802,NA,8898,NA,NA,802,2,legacy,1024,2,48000,-16,experiment,1,odd,11370,NA,NA,NA,23738,22665,2471,NA,NA,23736,23841,13796,2462,NA,23841,24643,Flanker Task,7,4210,8,yes,1024
incongruent,HHSHH,88.88888889,88.88888889,527.3333333,527.3333333,black,legacy,legacy,legacy,0,uniform,1,undefined,1,s,0,0,0,0,8,8,0,0,0,8,8,8,0,8,8,8,9/20/21 12:08,1500,The main experiment item,yes,FlankerTask.osexp,C:\Users\Brian\Desktop\College - Graduate\Graduate Work\Advanced Quant,no,mono,no,18,no,white,no,yes,768,legacy,8,8,C:/Users/Brian/Desktop/College - Graduate/Graduate Work/Advanced Quant/BK-subject-1.csv,legacy,Kafkaesque Koffka,3.2.8,0,s,NA,h,NA,NA,s,536,NA,8898,NA,NA,536,2,legacy,1024,2,48000,-16,experiment,1,odd,11370,NA,NA,NA,25727,24651,2471,NA,NA,25725,25828,13796,2462,NA,25829,26366,Flanker Task,8,4746,9,yes,1024
congruent,SSSSS,90,90,517.9,517.9,black,legacy,legacy,legacy,0,uniform,1,undefined,1,s,0,0,0,0,9,9,0,0,0,9,9,9,0,9,9,9,9/20/21 12:08,1500,The main experiment item,yes,FlankerTask.osexp,C:\Users\Brian\Desktop\College - Graduate\Graduate Work\Advanced Quant,no,mono,no,18,no,white,no,yes,768,legacy,9,9,C:/Users/Brian/Desktop/College - Graduate/Graduate Work/Advanced Quant/BK-subject-1.csv,legacy,Kafkaesque Koffka,3.2.8,0,s,NA,h,NA,NA,s,433,NA,8898,NA,NA,433,2,legacy,1024,2,48000,-16,experiment,1,odd,11370,NA,NA,NA,27452,26374,2471,NA,NA,27450,27555,13796,2462,NA,27555,27989,Flanker Task,9,5179,10,yes,1024
incongruent,HHSHH,90.90909091,90.90909091,514.2727273,514.2727273,black,legacy,legacy,legacy,0,uniform,1,undefined,1,s,0,0,0,0,10,10,0,0,0,10,10,10,0,10,10,10,9/20/21 12:08,1500,The main experiment item,yes,FlankerTask.osexp,C:\Users\Brian\Desktop\College - Graduate\Graduate Work\Advanced Quant,no,mono,no,18,no,white,no,yes,768,legacy,10,10,C:/Users/Brian/Desktop/College - Graduate/Graduate Work/Advanced Quant/BK-subject-1.csv,legacy,Kafkaesque Koffka,3.2.8,0,s,NA,h,NA,NA,s,478,NA,8898,NA,NA,478,2,legacy,1024,2,48000,-16,experiment,1,odd,11370,NA,NA,NA,29071,27998,2471,NA,NA,29069,29173,13796,2462,NA,29173,29652,Flanker Task,10,5657,11,yes,1024
incongruent,HHSHH,91.66666667,91.66666667,507.0833333,507.0833333,black,legacy,legacy,legacy,0,uniform,1,undefined,1,s,0,0,0,0,11,11,0,0,0,11,11,11,0,11,11,11,9/20/21 12:08,1500,The main experiment item,yes,FlankerTask.osexp,C:\Users\Brian\Desktop\College - Graduate\Graduate Work\Advanced Quant,no,mono,no,18,no,white,no,yes,768,legacy,11,11,C:/Users/Brian/Desktop/College - Graduate/Graduate Work/Advanced Quant/BK-subject-1.csv,legacy,Kafkaesque Koffka,3.2.8,0,s,NA,h,NA,NA,s,428,NA,8898,NA,NA,428,2,legacy,1024,2,48000,-16,experiment,1,odd,11370,NA,NA,NA,30733,29660,2471,NA,NA,30731,30836,13796,2462,NA,30836,31265,Flanker Task,11,6085,12,yes,1024
congruent,SSSSS,92.30769231,92.30769231,495.2307692,495.2307692,black,legacy,legacy,legacy,0,uniform,1,undefined,1,s,0,0,0,0,12,12,0,0,0,12,12,12,0,12,12,12,9/20/21 12:08,1500,The main experiment item,yes,FlankerTask.osexp,C:\Users\Brian\Desktop\College - Graduate\Graduate Work\Advanced Quant,no,mono,no,18,no,white,no,yes,768,legacy,12,12,C:/Users/Brian/Desktop/College - Graduate/Graduate Work/Advanced Quant/BK-subject-1.csv,legacy,Kafkaesque Koffka,3.2.8,0,s,NA,h,NA,NA,s,353,NA,8898,NA,NA,353,2,legacy,1024,2,48000,-16,experiment,1,odd,11370,NA,NA,NA,32347,31273,2471,NA,NA,32345,32450,13796,2462,NA,32450,32804,Flanker Task,12,6438,13,yes,1024
incongruent,HHSHH,85.71428571,85.71428571,489.3571429,489.3571429,black,legacy,legacy,legacy,0,uniform,0,undefined,0,s,0,0,0,0,13,13,0,0,0,13,13,13,0,13,13,13,9/20/21 12:08,1500,The main experiment item,yes,FlankerTask.osexp,C:\Users\Brian\Desktop\College - Graduate\Graduate Work\Advanced Quant,no,mono,no,18,no,white,no,yes,768,legacy,13,13,C:/Users/Brian/Desktop/College - Graduate/Graduate Work/Advanced Quant/BK-subject-1.csv,legacy,Kafkaesque Koffka,3.2.8,0,h,NA,h,NA,NA,h,413,NA,8898,NA,NA,413,2,legacy,1024,2,48000,-16,experiment,1,odd,11370,NA,NA,NA,33888,32812,2471,NA,NA,33886,33989,13796,2462,NA,33989,34403,Flanker Task,12,6851,14,yes,1024
congruent,SSSSS,86.66666667,86.66666667,490.4,490.4,black,legacy,legacy,legacy,0,uniform,1,undefined,1,s,0,0,0,0,14,14,0,0,0,14,14,14,0,14,14,14,9/20/21 12:08,1500,The main experiment item,yes,FlankerTask.osexp,C:\Users\Brian\Desktop\College - Graduate\Graduate Work\Advanced Quant,no,mono,no,18,no,white,no,yes,768,legacy,14,14,C:/Users/Brian/Desktop/College - Graduate/Graduate Work/Advanced Quant/BK-subject-1.csv,legacy,Kafkaesque Koffka,3.2.8,0,s,NA,h,NA,NA,s,505,NA,8898,NA,NA,505,2,legacy,1024,2,48000,-16,experiment,1,odd,11370,NA,NA,NA,35999,34915,2471,NA,NA,35997,36102,34412,2462,NA,36102,36607,Flanker Task,13,7356,15,yes,1024
congruent,HHHHH,87.5,87.5,490.75,490.75,black,legacy,legacy,legacy,0,uniform,1,undefined,1,h,0,0,0,0,15,15,0,0,0,15,15,15,0,15,15,15,9/20/21 12:08,1500,The main experiment item,yes,FlankerTask.osexp,C:\Users\Brian\Desktop\College - Graduate\Graduate Work\Advanced Quant,no,mono,no,18,no,white,no,yes,768,legacy,15,15,C:/Users/Brian/Desktop/College - Graduate/Graduate Work/Advanced Quant/BK-subject-1.csv,legacy,Kafkaesque Koffka,3.2.8,0,h,NA,h,NA,NA,h,496,NA,8898,NA,NA,496,2,legacy,1024,2,48000,-16,experiment,1,odd,11370,NA,NA,NA,37697,36616,2471,NA,NA,37695,37798,34412,2462,NA,37799,38295,Flanker Task,14,7852,16,yes,1024
incongruent,HHSHH,88.23529412,88.23529412,490.7058824,490.7058824,black,legacy,legacy,legacy,0,uniform,1,undefined,1,s,0,0,0,0,16,16,0,0,0,16,16,16,0,16,16,16,9/20/21 12:08,1500,The main experiment item,yes,FlankerTask.osexp,C:\Users\Brian\Desktop\College - Graduate\Graduate Work\Advanced Quant,no,mono,no,18,no,white,no,yes,768,legacy,16,16,C:/Users/Brian/Desktop/College - Graduate/Graduate Work/Advanced Quant/BK-subject-1.csv,legacy,Kafkaesque Koffka,3.2.8,0,s,NA,h,NA,NA,s,490,NA,8898,NA,NA,490,2,legacy,1024,2,48000,-16,experiment,1,odd,11370,NA,NA,NA,39379,38304,2471,NA,NA,39377,39482,34412,2462,NA,39482,39973,Flanker Task,15,8342,17,yes,1024
incongruent,SSHSS,83.33333333,83.33333333,486.0555556,486.0555556,black,legacy,legacy,legacy,0,uniform,0,undefined,0,h,0,0,0,0,17,17,0,0,0,17,17,17,0,17,17,17,9/20/21 12:08,1500,The main experiment item,yes,FlankerTask.osexp,C:\Users\Brian\Desktop\College - Graduate\Graduate Work\Advanced Quant,no,mono,no,18,no,white,no,yes,768,legacy,17,17,C:/Users/Brian/Desktop/College - Graduate/Graduate Work/Advanced Quant/BK-subject-1.csv,legacy,Kafkaesque Koffka,3.2.8,0,s,NA,h,NA,NA,s,407,NA,8898,NA,NA,407,2,legacy,1024,2,48000,-16,experiment,1,odd,11370,NA,NA,NA,41057,39982,2471,NA,NA,41054,41159,34412,2462,NA,41159,41566,Flanker Task,15,8749,18,yes,1024
congruent,SSSSS,84.21052632,84.21052632,483.7894737,483.7894737,black,legacy,legacy,legacy,0,uniform,1,undefined,1,s,0,0,0,0,18,18,0,0,0,18,18,18,0,18,18,18,9/20/21 12:08,1500,The main experiment item,yes,FlankerTask.osexp,C:\Users\Brian\Desktop\College - Graduate\Graduate Work\Advanced Quant,no,mono,no,18,no,white,no,yes,768,legacy,18,18,C:/Users/Brian/Desktop/College - Graduate/Graduate Work/Advanced Quant/BK-subject-1.csv,legacy,Kafkaesque Koffka,3.2.8,0,s,NA,h,NA,NA,s,443,NA,8898,NA,NA,443,2,legacy,1024,2,48000,-16,experiment,1,odd,11370,NA,NA,NA,43145,42076,2471,NA,NA,43143,43248,41575,2462,NA,43248,43692,Flanker Task,16,9192,19,yes,1024
incongruent,HHSHH,85,85,488.5,488.5,black,legacy,legacy,legacy,0,uniform,1,undefined,1,s,0,0,0,0,19,19,0,0,0,19,19,19,0,19,19,19,9/20/21 12:08,1500,The main experiment item,yes,FlankerTask.osexp,C:\Users\Brian\Desktop\College - Graduate\Graduate Work\Advanced Quant,no,mono,no,18,no,white,no,yes,768,legacy,19,19,C:/Users/Brian/Desktop/College - Graduate/Graduate Work/Advanced Quant/BK-subject-1.csv,legacy,Kafkaesque Koffka,3.2.8,0,s,NA,h,NA,NA,s,578,NA,8898,NA,NA,578,2,legacy,1024,2,48000,-16,experiment,1,odd,11370,NA,NA,NA,44783,43701,2471,NA,NA,44781,44886,41575,2462,NA,44886,45464,Flanker Task,17,9770,20,yes,1024
incongruent,SSHSS,85.71428571,85.71428571,494.4761905,494.4761905,black,legacy,legacy,legacy,0,uniform,1,undefined,1,h,0,0,0,0,20,20,0,0,0,20,20,20,0,20,20,20,9/20/21 12:08,1500,The main experiment item,yes,FlankerTask.osexp,C:\Users\Brian\Desktop\College - Graduate\Graduate Work\Advanced Quant,no,mono,no,18,no,white,no,yes,768,legacy,20,20,C:/Users/Brian/Desktop/College - Graduate/Graduate Work/Advanced Quant/BK-subject-1.csv,legacy,Kafkaesque Koffka,3.2.8,0,h,NA,h,NA,NA,h,614,NA,8898,NA,NA,614,2,legacy,1024,2,48000,-16,experiment,1,odd,11370,NA,NA,NA,46549,45472,2471,NA,NA,46547,46652,41575,2462,NA,46652,47267,Flanker Task,18,10384,21,yes,1024
congruent,HHHHH,86.36363636,86.36363636,496.4090909,496.4090909,black,legacy,legacy,legacy,0,uniform,1,undefined,1,h,0,0,0,0,21,21,0,0,0,21,21,21,0,21,21,21,9/20/21 12:08,1500,The main experiment item,yes,FlankerTask.osexp,C:\Users\Brian\Desktop\College - Graduate\Graduate Work\Advanced Quant,no,mono,no,18,no,white,no,yes,768,legacy,21,21,C:/Users/Brian/Desktop/College - Graduate/Graduate Work/Advanced Quant/BK-subject-1.csv,legacy,Kafkaesque Koffka,3.2.8,0,h,NA,h,NA,NA,h,537,NA,8898,NA,NA,537,2,legacy,1024,2,48000,-16,experiment,1,odd,11370,NA,NA,NA,48359,47276,2471,NA,NA,48357,48462,41575,2462,NA,48462,49000,Flanker Task,19,10921,22,yes,1024
congruent,HHHHH,86.95652174,86.95652174,496.3043478,496.3043478,black,legacy,legacy,legacy,0,uniform,1,undefined,1,h,0,0,0,0,22,22,0,0,0,22,22,22,0,22,22,22,9/20/21 12:08,1500,The main experiment item,yes,FlankerTask.osexp,C:\Users\Brian\Desktop\College - Graduate\Graduate Work\Advanced Quant,no,mono,no,18,no,white,no,yes,768,legacy,22,22,C:/Users/Brian/Desktop/College - Graduate/Graduate Work/Advanced Quant/BK-subject-1.csv,legacy,Kafkaesque Koffka,3.2.8,0,h,NA,h,NA,NA,h,494,NA,8898,NA,NA,494,2,legacy,1024,2,48000,-16,experiment,1,odd,11370,NA,NA,NA,50087,49009,2471,NA,NA,50085,50188,41575,2462,NA,50188,50682,Flanker Task,20,11415,23,yes,1024
congruent,HHHHH,87.5,87.5,495.5,495.5,black,legacy,legacy,legacy,0,uniform,1,undefined,1,h,0,0,0,0,23,23,0,0,0,23,23,23,0,23,23,23,9/20/21 12:08,1500,The main experiment item,yes,FlankerTask.osexp,C:\Users\Brian\Desktop\College - Graduate\Graduate Work\Advanced Quant,no,mono,no,18,no,white,no,yes,768,legacy,23,23,C:/Users/Brian/Desktop/College - Graduate/Graduate Work/Advanced Quant/BK-subject-1.csv,legacy,Kafkaesque Koffka,3.2.8,0,h,NA,h,NA,NA,h,477,NA,8898,NA,NA,477,2,legacy,1024,2,48000,-16,experiment,1,odd,11370,NA,NA,NA,51767,50691,2471,NA,NA,51765,51869,41575,2462,NA,51869,52346,Flanker Task,21,11892,24,yes,1024
incongruent,HHSHH,88,88,494.6,494.6,black,legacy,legacy,legacy,0,uniform,1,undefined,1,s,0,0,0,0,24,24,0,0,0,24,24,24,0,24,24,24,9/20/21 12:08,1500,The main experiment item,yes,FlankerTask.osexp,C:\Users\Brian\Desktop\College - Graduate\Graduate Work\Advanced Quant,no,mono,no,18,no,white,no,yes,768,legacy,24,24,C:/Users/Brian/Desktop/College - Graduate/Graduate Work/Advanced Quant/BK-subject-1.csv,legacy,Kafkaesque Koffka,3.2.8,0,s,NA,h,NA,NA,s,473,NA,8898,NA,NA,473,2,legacy,1024,2,48000,-16,experiment,1,odd,11370,NA,NA,NA,53432,52355,2471,NA,NA,53430,53534,41575,2462,NA,53534,54008,Flanker Task,22,12365,25,yes,1024
congruent,HHHHH,88.46153846,88.46153846,493.7692308,493.7692308,black,legacy,legacy,legacy,0,uniform,1,undefined,1,h,0,0,0,0,25,25,0,0,0,25,25,25,0,25,25,25,9/20/21 12:08,1500,The main experiment item,yes,FlankerTask.osexp,C:\Users\Brian\Desktop\College - Graduate\Graduate Work\Advanced Quant,no,mono,no,18,no,white,no,yes,768,legacy,25,25,C:/Users/Brian/Desktop/College - Graduate/Graduate Work/Advanced Quant/BK-subject-1.csv,legacy,Kafkaesque Koffka,3.2.8,0,h,NA,h,NA,NA,h,473,NA,8898,NA,NA,473,2,legacy,1024,2,48000,-16,experiment,1,odd,11370,NA,NA,NA,55090,54012,2471,NA,NA,55088,55193,41575,2462,NA,55193,55667,Flanker Task,23,12838,26,yes,1024
congruent,HHHHH,88.88888889,88.88888889,492.6296296,492.6296296,black,legacy,legacy,legacy,0,uniform,1,undefined,1,h,0,0,0,0,26,26,0,0,0,26,26,26,0,26,26,26,9/20/21 12:08,1500,The main experiment item,yes,FlankerTask.osexp,C:\Users\Brian\Desktop\College - Graduate\Graduate Work\Advanced Quant,no,mono,no,18,no,white,no,yes,768,legacy,26,26,C:/Users/Brian/Desktop/College - Graduate/Graduate Work/Advanced Quant/BK-subject-1.csv,legacy,Kafkaesque Koffka,3.2.8,0,h,NA,h,NA,NA,h,463,NA,8898,NA,NA,463,2,legacy,1024,2,48000,-16,experiment,1,odd,11370,NA,NA,NA,56748,55676,2471,NA,NA,56747,56852,41575,2462,NA,56852,57316,Flanker Task,24,13301,27,yes,1024
congruent,SSSSS,89.28571429,89.28571429,493.5,493.5,black,legacy,legacy,legacy,0,uniform,1,undefined,1,s,0,0,0,0,27,27,0,0,0,27,27,27,0,27,27,27,9/20/21 12:08,1500,The main experiment item,yes,FlankerTask.osexp,C:\Users\Brian\Desktop\College - Graduate\Graduate Work\Advanced Quant,no,mono,no,18,no,white,no,yes,768,legacy,27,27,C:/Users/Brian/Desktop/College - Graduate/Graduate Work/Advanced Quant/BK-subject-1.csv,legacy,Kafkaesque Koffka,3.2.8,0,s,NA,h,NA,NA,s,517,NA,8898,NA,NA,517,2,legacy,1024,2,48000,-16,experiment,1,odd,11370,NA,NA,NA,58398,57324,2471,NA,NA,58396,58499,41575,2462,NA,58499,59017,Flanker Task,25,13818,28,yes,1024
congruent,SSSSS,89.65517241,89.65517241,491.2068966,491.2068966,black,legacy,legacy,legacy,0,uniform,1,undefined,1,s,0,0,0,0,28,28,0,0,0,28,28,28,0,28,28,28,9/20/21 12:08,1500,The main experiment item,yes,FlankerTask.osexp,C:\Users\Brian\Desktop\College - Graduate\Graduate Work\Advanced Quant,no,mono,no,18,no,white,no,yes,768,legacy,28,28,C:/Users/Brian/Desktop/College - Graduate/Graduate Work/Advanced Quant/BK-subject-1.csv,legacy,Kafkaesque Koffka,3.2.8,0,s,NA,h,NA,NA,s,427,NA,8898,NA,NA,427,2,legacy,1024,2,48000,-16,experiment,1,odd,11370,NA,NA,NA,60104,59026,2471,NA,NA,60102,60207,41575,2462,NA,60207,60635,Flanker Task,26,14245,29,yes,1024
incongruent,SSHSS,90,90,493.3666667,493.3666667,black,legacy,legacy,legacy,0,uniform,1,undefined,1,h,0,0,0,0,29,29,0,0,0,29,29,29,0,29,29,29,9/20/21 12:08,1500,The main experiment item,yes,FlankerTask.osexp,C:\Users\Brian\Desktop\College - Graduate\Graduate Work\Advanced Quant,no,mono,no,18,no,white,no,yes,768,legacy,29,29,C:/Users/Brian/Desktop/College - Graduate/Graduate Work/Advanced Quant/BK-subject-1.csv,legacy,Kafkaesque Koffka,3.2.8,0,h,NA,h,NA,NA,h,556,NA,8898,NA,NA,556,2,legacy,1024,2,48000,-16,experiment,1,odd,11370,NA,NA,NA,61717,60644,2471,NA,NA,61715,61820,41575,2462,NA,61820,62377,Flanker Task,27,14801,30,yes,1024
incongruent,SSHSS,90.32258065,90.32258065,494.1612903,494.1612903,black,legacy,legacy,legacy,0,uniform,1,undefined,1,h,0,0,0,0,30,30,0,0,0,30,30,30,0,30,30,30,9/20/21 12:08,1500,The main experiment item,yes,FlankerTask.osexp,C:\Users\Brian\Desktop\College - Graduate\Graduate Work\Advanced Quant,no,mono,no,18,no,white,no,yes,768,legacy,30,30,C:/Users/Brian/Desktop/College - Graduate/Graduate Work/Advanced Quant/BK-subject-1.csv,legacy,Kafkaesque Koffka,3.2.8,0,h,NA,h,NA,NA,h,518,NA,8898,NA,NA,518,2,legacy,1024,2,48000,-16,experiment,1,odd,11370,NA,NA,NA,63458,62385,2471,NA,NA,63456,63561,41575,2462,NA,63561,64080,Flanker Task,28,15319,31,yes,1024
congruent,HHHHH,90.625,90.625,495.5,495.5,black,legacy,legacy,legacy,0,uniform,1,undefined,1,h,0,0,0,0,31,31,0,0,0,31,31,31,0,31,31,31,9/20/21 12:08,1500,The main experiment item,yes,FlankerTask.osexp,C:\Users\Brian\Desktop\College - Graduate\Graduate Work\Advanced Quant,no,mono,no,18,no,white,no,yes,768,legacy,31,31,C:/Users/Brian/Desktop/College - Graduate/Graduate Work/Advanced Quant/BK-subject-1.csv,legacy,Kafkaesque Koffka,3.2.8,0,h,NA,h,NA,NA,h,537,NA,8898,NA,NA,537,2,legacy,1024,2,48000,-16,experiment,1,odd,11370,NA,NA,NA,65167,64088,2471,NA,NA,65165,65270,41575,2462,NA,65270,65808,Flanker Task,29,15856,32,yes,1024
incongruent,SSHSS,87.87878788,87.87878788,493.9090909,493.9090909,black,legacy,legacy,legacy,0,uniform,0,undefined,0,h,0,0,0,0,32,32,0,0,0,32,32,32,0,32,32,32,9/20/21 12:08,1500,The main experiment item,yes,FlankerTask.osexp,C:\Users\Brian\Desktop\College - Graduate\Graduate Work\Advanced Quant,no,mono,no,18,no,white,no,yes,768,legacy,32,32,C:/Users/Brian/Desktop/College - Graduate/Graduate Work/Advanced Quant/BK-subject-1.csv,legacy,Kafkaesque Koffka,3.2.8,0,s,NA,h,NA,NA,s,443,NA,8898,NA,NA,443,2,legacy,1024,2,48000,-16,experiment,1,odd,11370,NA,NA,NA,66889,65816,2471,NA,NA,66888,66992,41575,2462,NA,66992,67436,Flanker Task,29,16299,33,yes,1024
incongruent,HHSHH,88.23529412,88.23529412,492.0588235,492.0588235,black,legacy,legacy,legacy,0,uniform,1,undefined,1,s,0,0,0,0,33,33,0,0,0,33,33,33,0,33,33,33,9/20/21 12:08,1500,The main experiment item,yes,FlankerTask.osexp,C:\Users\Brian\Desktop\College - Graduate\Graduate Work\Advanced Quant,no,mono,no,18,no,white,no,yes,768,legacy,33,33,C:/Users/Brian/Desktop/College - Graduate/Graduate Work/Advanced Quant/BK-subject-1.csv,legacy,Kafkaesque Koffka,3.2.8,0,s,NA,h,NA,NA,s,431,NA,8898,NA,NA,431,2,legacy,1024,2,48000,-16,experiment,1,odd,11370,NA,NA,NA,69018,67948,2471,NA,NA,69016,69120,67445,2462,NA,69120,69552,Flanker Task,30,16730,34,yes,1024
congruent,HHHHH,88.57142857,88.57142857,496.2571429,496.2571429,black,legacy,legacy,legacy,0,uniform,1,undefined,1,h,0,0,0,0,34,34,0,0,0,34,34,34,0,34,34,34,9/20/21 12:08,1500,The main experiment item,yes,FlankerTask.osexp,C:\Users\Brian\Desktop\College - Graduate\Graduate Work\Advanced Quant,no,mono,no,18,no,white,no,yes,768,legacy,34,34,C:/Users/Brian/Desktop/College - Graduate/Graduate Work/Advanced Quant/BK-subject-1.csv,legacy,Kafkaesque Koffka,3.2.8,0,h,NA,h,NA,NA,h,639,NA,8898,NA,NA,639,2,legacy,1024,2,48000,-16,experiment,1,odd,11370,NA,NA,NA,70638,69560,2471,NA,NA,70636,70739,67445,2462,NA,70739,71379,Flanker Task,31,17369,35,yes,1024
congruent,SSSSS,88.88888889,88.88888889,496.0277778,496.0277778,black,legacy,legacy,legacy,0,uniform,1,undefined,1,s,0,0,0,0,35,35,0,0,0,35,35,35,0,35,35,35,9/20/21 12:08,1500,The main experiment item,yes,FlankerTask.osexp,C:\Users\Brian\Desktop\College - Graduate\Graduate Work\Advanced Quant,no,mono,no,18,no,white,no,yes,768,legacy,35,35,C:/Users/Brian/Desktop/College - Graduate/Graduate Work/Advanced Quant/BK-subject-1.csv,legacy,Kafkaesque Koffka,3.2.8,0,s,NA,h,NA,NA,s,488,NA,8898,NA,NA,488,2,legacy,1024,2,48000,-16,experiment,1,odd,11370,NA,NA,NA,72465,71388,2471,NA,NA,72463,72568,67445,2462,NA,72568,73057,Flanker Task,32,17857,36,yes,1024
incongruent,SSHSS,89.18918919,89.18918919,496.6756757,496.6756757,black,legacy,legacy,legacy,0,uniform,1,undefined,1,h,0,0,0,0,36,36,0,0,0,36,36,36,0,36,36,36,9/20/21 12:08,1500,The main experiment item,yes,FlankerTask.osexp,C:\Users\Brian\Desktop\College - Graduate\Graduate Work\Advanced Quant,no,mono,no,18,no,white,no,yes,768,legacy,36,36,C:/Users/Brian/Desktop/College - Graduate/Graduate Work/Advanced Quant/BK-subject-1.csv,legacy,Kafkaesque Koffka,3.2.8,0,h,NA,h,NA,NA,h,520,NA,8898,NA,NA,520,2,legacy,1024,2,48000,-16,experiment,1,odd,11370,NA,NA,NA,74141,73066,2471,NA,NA,74139,74244,67445,2462,NA,74244,74765,Flanker Task,33,18377,37,yes,1024
congruent,SSSSS,89.47368421,89.47368421,496.2368421,496.2368421,black,legacy,legacy,legacy,0,uniform,1,undefined,1,s,0,0,0,0,37,37,0,0,0,37,37,37,0,37,37,37,9/20/21 12:08,1500,The main experiment item,yes,FlankerTask.osexp,C:\Users\Brian\Desktop\College - Graduate\Graduate Work\Advanced Quant,no,mono,no,18,no,white,no,yes,768,legacy,37,37,C:/Users/Brian/Desktop/College - Graduate/Graduate Work/Advanced Quant/BK-subject-1.csv,legacy,Kafkaesque Koffka,3.2.8,0,s,NA,h,NA,NA,s,480,NA,8898,NA,NA,480,2,legacy,1024,2,48000,-16,experiment,1,odd,11370,NA,NA,NA,75847,74773,2471,NA,NA,75845,75951,67445,2462,NA,75951,76432,Flanker Task,34,18857,38,yes,1024
incongruent,HHSHH,89.74358974,89.74358974,500.7435897,500.7435897,black,legacy,legacy,legacy,0,uniform,1,undefined,1,s,0,0,0,0,38,38,0,0,0,38,38,38,0,38,38,38,9/20/21 12:08,1500,The main experiment item,yes,FlankerTask.osexp,C:\Users\Brian\Desktop\College - Graduate\Graduate Work\Advanced Quant,no,mono,no,18,no,white,no,yes,768,legacy,38,38,C:/Users/Brian/Desktop/College - Graduate/Graduate Work/Advanced Quant/BK-subject-1.csv,legacy,Kafkaesque Koffka,3.2.8,0,s,NA,h,NA,NA,s,672,NA,8898,NA,NA,672,2,legacy,1024,2,48000,-16,experiment,1,odd,11370,NA,NA,NA,77514,76441,2471,NA,NA,77512,77617,67445,2462,NA,77617,78290,Flanker Task,35,19529,39,yes,1024
incongruent,HHSHH,90,90,503.4,503.4,black,legacy,legacy,legacy,0,uniform,1,undefined,1,s,0,0,0,0,39,39,0,0,0,39,39,39,0,39,39,39,9/20/21 12:08,1500,The main experiment item,yes,FlankerTask.osexp,C:\Users\Brian\Desktop\College - Graduate\Graduate Work\Advanced Quant,no,mono,no,18,no,white,no,yes,768,legacy,39,39,C:/Users/Brian/Desktop/College - Graduate/Graduate Work/Advanced Quant/BK-subject-1.csv,legacy,Kafkaesque Koffka,3.2.8,0,s,NA,h,NA,NA,s,607,NA,8898,NA,NA,607,2,legacy,1024,2,48000,-16,experiment,1,odd,11370,NA,NA,NA,79375,78298,2471,NA,NA,79373,79478,67445,2462,NA,79478,80086,Flanker Task,36,20136,40,yes,1024
incongruent,HHSHH,90.24390244,90.24390244,504.8780488,504.8780488,black,legacy,legacy,legacy,0,uniform,1,undefined,1,s,0,0,0,0,40,40,0,0,0,40,40,40,0,40,40,40,9/20/21 12:08,1500,The main experiment item,yes,FlankerTask.osexp,C:\Users\Brian\Desktop\College - Graduate\Graduate Work\Advanced Quant,no,mono,no,18,no,white,no,yes,768,legacy,40,40,C:/Users/Brian/Desktop/College - Graduate/Graduate Work/Advanced Quant/BK-subject-1.csv,legacy,Kafkaesque Koffka,3.2.8,0,s,NA,h,NA,NA,s,564,NA,8898,NA,NA,564,2,legacy,1024,2,48000,-16,experiment,1,odd,11370,NA,NA,NA,81171,80096,2471,NA,NA,81169,81274,67445,2462,NA,81274,81839,Flanker Task,37,20700,41,yes,1024
congruent,SSSSS,90.47619048,90.47619048,506.4761905,506.4761905,black,legacy,legacy,legacy,0,uniform,1,undefined,1,s,0,0,0,0,41,41,0,0,0,41,41,41,0,41,41,41,9/20/21 12:08,1500,The main experiment item,yes,FlankerTask.osexp,C:\Users\Brian\Desktop\College - Graduate\Graduate Work\Advanced Quant,no,mono,no,18,no,white,no,yes,768,legacy,41,41,C:/Users/Brian/Desktop/College - Graduate/Graduate Work/Advanced Quant/BK-subject-1.csv,legacy,Kafkaesque Koffka,3.2.8,0,s,NA,h,NA,NA,s,572,NA,8898,NA,NA,572,2,legacy,1024,2,48000,-16,experiment,1,odd,11370,NA,NA,NA,82926,81848,2471,NA,NA,82924,83029,67445,2462,NA,83029,83602,Flanker Task,38,21272,42,yes,1024
congruent,SSSSS,90.69767442,90.69767442,505.3023256,505.3023256,black,legacy,legacy,legacy,0,uniform,1,undefined,1,s,0,0,0,0,42,42,0,0,0,42,42,42,0,42,42,42,9/20/21 12:08,1500,The main experiment item,yes,FlankerTask.osexp,C:\Users\Brian\Desktop\College - Graduate\Graduate Work\Advanced Quant,no,mono,no,18,no,white,no,yes,768,legacy,42,42,C:/Users/Brian/Desktop/College - Graduate/Graduate Work/Advanced Quant/BK-subject-1.csv,legacy,Kafkaesque Koffka,3.2.8,0,s,NA,h,NA,NA,s,456,NA,8898,NA,NA,456,2,legacy,1024,2,48000,-16,experiment,1,odd,11370,NA,NA,NA,84685,83611,2471,NA,NA,84682,84788,67445,2462,NA,84788,85245,Flanker Task,39,21728,43,yes,1024
congruent,HHHHH,90.90909091,90.90909091,504.5681818,504.5681818,black,legacy,legacy,legacy,0,uniform,1,undefined,1,h,0,0,0,0,43,43,0,0,0,43,43,43,0,43,43,43,9/20/21 12:08,1500,The main experiment item,yes,FlankerTask.osexp,C:\Users\Brian\Desktop\College - Graduate\Graduate Work\Advanced Quant,no,mono,no,18,no,white,no,yes,768,legacy,43,43,C:/Users/Brian/Desktop/College - Graduate/Graduate Work/Advanced Quant/BK-subject-1.csv,legacy,Kafkaesque Koffka,3.2.8,0,h,NA,h,NA,NA,h,473,NA,8898,NA,NA,473,2,legacy,1024,2,48000,-16,experiment,1,odd,11370,NA,NA,NA,86329,85249,2471,NA,NA,86328,86433,67445,2462,NA,86433,86907,Flanker Task,40,22201,44,yes,1024
incongruent,SSHSS,91.11111111,91.11111111,505.6888889,505.6888889,black,legacy,legacy,legacy,0,uniform,1,undefined,1,h,0,0,0,0,44,44,0,0,0,44,44,44,0,44,44,44,9/20/21 12:08,1500,The main experiment item,yes,FlankerTask.osexp,C:\Users\Brian\Desktop\College - Graduate\Graduate Work\Advanced Quant,no,mono,no,18,no,white,no,yes,768,legacy,44,44,C:/Users/Brian/Desktop/College - Graduate/Graduate Work/Advanced Quant/BK-subject-1.csv,legacy,Kafkaesque Koffka,3.2.8,0,h,NA,h,NA,NA,h,555,NA,8898,NA,NA,555,2,legacy,1024,2,48000,-16,experiment,1,odd,11370,NA,NA,NA,87992,86915,2471,NA,NA,87990,88093,67445,2462,NA,88094,88650,Flanker Task,41,22756,45,yes,1024
congruent,HHHHH,91.30434783,91.30434783,506.1956522,506.1956522,black,legacy,legacy,legacy,0,uniform,1,undefined,1,h,0,0,0,0,45,45,0,0,0,45,45,45,0,45,45,45,9/20/21 12:08,1500,The main experiment item,yes,FlankerTask.osexp,C:\Users\Brian\Desktop\College - Graduate\Graduate Work\Advanced Quant,no,mono,no,18,no,white,no,yes,768,legacy,45,45,C:/Users/Brian/Desktop/College - Graduate/Graduate Work/Advanced Quant/BK-subject-1.csv,legacy,Kafkaesque Koffka,3.2.8,0,h,NA,h,NA,NA,h,529,NA,8898,NA,NA,529,2,legacy,1024,2,48000,-16,experiment,1,odd,11370,NA,NA,NA,89734,88659,2471,NA,NA,89733,89837,67445,2462,NA,89837,90367,Flanker Task,42,23285,46,yes,1024
incongruent,SSHSS,91.4893617,91.4893617,506.1702128,506.1702128,black,legacy,legacy,legacy,0,uniform,1,undefined,1,h,0,0,0,0,46,46,0,0,0,46,46,46,0,46,46,46,9/20/21 12:08,1500,The main experiment item,yes,FlankerTask.osexp,C:\Users\Brian\Desktop\College - Graduate\Graduate Work\Advanced Quant,no,mono,no,18,no,white,no,yes,768,legacy,46,46,C:/Users/Brian/Desktop/College - Graduate/Graduate Work/Advanced Quant/BK-subject-1.csv,legacy,Kafkaesque Koffka,3.2.8,0,h,NA,h,NA,NA,h,505,NA,8898,NA,NA,505,2,legacy,1024,2,48000,-16,experiment,1,odd,11370,NA,NA,NA,91442,90372,2471,NA,NA,91440,91543,67445,2462,NA,91544,92050,Flanker Task,43,23790,47,yes,1024
congruent,HHHHH,91.66666667,91.66666667,505.4375,505.4375,black,legacy,legacy,legacy,0,uniform,1,undefined,1,h,0,0,0,0,47,47,0,0,0,47,47,47,0,47,47,47,9/20/21 12:08,1500,The main experiment item,yes,FlankerTask.osexp,C:\Users\Brian\Desktop\College - Graduate\Graduate Work\Advanced Quant,no,mono,no,18,no,white,no,yes,768,legacy,47,47,C:/Users/Brian/Desktop/College - Graduate/Graduate Work/Advanced Quant/BK-subject-1.csv,legacy,Kafkaesque Koffka,3.2.8,0,h,NA,h,NA,NA,h,471,NA,8898,NA,NA,471,2,legacy,1024,2,48000,-16,experiment,1,odd,11370,NA,NA,NA,93137,92059,2471,NA,NA,93134,93240,67445,2462,NA,93240,93713,Flanker Task,44,24261,48,yes,1024
congruent,HHHHH,91.83673469,91.83673469,506.5510204,506.5510204,black,legacy,legacy,legacy,0,uniform,1,undefined,1,h,0,0,0,0,48,48,0,0,0,48,48,48,0,48,48,48,9/20/21 12:08,1500,The main experiment item,yes,FlankerTask.osexp,C:\Users\Brian\Desktop\College - Graduate\Graduate Work\Advanced Quant,no,mono,no,18,no,white,no,yes,768,legacy,48,48,C:/Users/Brian/Desktop/College - Graduate/Graduate Work/Advanced Quant/BK-subject-1.csv,legacy,Kafkaesque Koffka,3.2.8,0,h,NA,h,NA,NA,h,560,NA,8898,NA,NA,560,2,legacy,1024,2,48000,-16,experiment,1,odd,11370,NA,NA,NA,94796,93721,2471,NA,NA,94794,94899,67445,2462,NA,94899,95460,Flanker Task,45,24821,49,yes,1024
congruent,HHHHH,92,92,506,506,black,legacy,legacy,legacy,0,uniform,1,undefined,1,h,0,0,0,0,49,49,0,0,0,49,49,49,0,49,49,49,9/20/21 12:08,1500,The main experiment item,yes,FlankerTask.osexp,C:\Users\Brian\Desktop\College - Graduate\Graduate Work\Advanced Quant,no,mono,no,18,no,white,no,yes,768,legacy,49,49,C:/Users/Brian/Desktop/College - Graduate/Graduate Work/Advanced Quant/BK-subject-1.csv,legacy,Kafkaesque Koffka,3.2.8,0,h,NA,h,NA,NA,h,479,NA,8898,NA,NA,479,2,legacy,1024,2,48000,-16,experiment,1,odd,11370,NA,NA,NA,96546,95464,2471,NA,NA,96543,96649,67445,2462,NA,96649,97129,Flanker Task,46,25300,50,yes,1024
incongruent,SSHSS,90.19607843,90.19607843,504.5686275,504.5686275,black,legacy,legacy,legacy,0,uniform,0,undefined,0,h,0,0,0,0,50,50,0,0,0,50,50,50,0,50,50,50,9/20/21 12:08,1500,The main experiment item,yes,FlankerTask.osexp,C:\Users\Brian\Desktop\College - Graduate\Graduate Work\Advanced Quant,no,mono,no,18,no,white,no,yes,768,legacy,50,50,C:/Users/Brian/Desktop/College - Graduate/Graduate Work/Advanced Quant/BK-subject-1.csv,legacy,Kafkaesque Koffka,3.2.8,0,s,NA,h,NA,NA,s,433,NA,8898,NA,NA,433,2,legacy,1024,2,48000,-16,experiment,1,odd,11370,NA,NA,NA,98214,97137,2471,NA,NA,98212,98317,67445,2462,NA,98317,98751,Flanker Task,46,25733,51,yes,1024
incongruent,SSHSS,90.38461538,90.38461538,506.6346154,506.6346154,black,legacy,legacy,legacy,0,uniform,1,undefined,1,h,0,0,0,0,51,51,0,0,0,51,51,51,0,51,51,51,9/20/21 12:08,1500,The main experiment item,yes,FlankerTask.osexp,C:\Users\Brian\Desktop\College - Graduate\Graduate Work\Advanced Quant,no,mono,no,18,no,white,no,yes,768,legacy,51,51,C:/Users/Brian/Desktop/College - Graduate/Graduate Work/Advanced Quant/BK-subject-1.csv,legacy,Kafkaesque Koffka,3.2.8,0,h,NA,h,NA,NA,h,612,NA,8898,NA,NA,612,2,legacy,1024,2,48000,-16,experiment,1,odd,11370,NA,NA,NA,100335,99262,2471,NA,NA,100333,100438,98759,2462,NA,100438,101051,Flanker Task,47,26345,52,yes,1024
incongruent,SSHSS,88.67924528,88.67924528,506.8867925,506.8867925,black,legacy,legacy,legacy,0,uniform,0,undefined,0,h,0,0,0,0,52,52,0,0,0,52,52,52,0,52,52,52,9/20/21 12:08,1500,The main experiment item,yes,FlankerTask.osexp,C:\Users\Brian\Desktop\College - Graduate\Graduate Work\Advanced Quant,no,mono,no,18,no,white,no,yes,768,legacy,52,52,C:/Users/Brian/Desktop/College - Graduate/Graduate Work/Advanced Quant/BK-subject-1.csv,legacy,Kafkaesque Koffka,3.2.8,0,s,NA,h,NA,NA,s,520,NA,8898,NA,NA,520,2,legacy,1024,2,48000,-16,experiment,1,odd,11370,NA,NA,NA,102137,101060,2471,NA,NA,102135,102238,98759,2462,NA,102238,102759,Flanker Task,47,26865,53,yes,1024
incongruent,SSHSS,88.88888889,88.88888889,508.5555556,508.5555556,black,legacy,legacy,legacy,0,uniform,1,undefined,1,h,0,0,0,0,53,53,0,0,0,53,53,53,0,53,53,53,9/20/21 12:08,1500,The main experiment item,yes,FlankerTask.osexp,C:\Users\Brian\Desktop\College - Graduate\Graduate Work\Advanced Quant,no,mono,no,18,no,white,no,yes,768,legacy,53,53,C:/Users/Brian/Desktop/College - Graduate/Graduate Work/Advanced Quant/BK-subject-1.csv,legacy,Kafkaesque Koffka,3.2.8,0,h,NA,h,NA,NA,h,597,NA,8898,NA,NA,597,2,legacy,1024,2,48000,-16,experiment,1,odd,11370,NA,NA,NA,104347,103271,2471,NA,NA,104345,104450,102768,2462,NA,104450,105048,Flanker Task,48,27462,54,yes,1024
congruent,HHHHH,89.09090909,89.09090909,508.5272727,508.5272727,black,legacy,legacy,legacy,0,uniform,1,undefined,1,h,0,0,0,0,54,54,0,0,0,54,54,54,0,54,54,54,9/20/21 12:08,1500,The main experiment item,yes,FlankerTask.osexp,C:\Users\Brian\Desktop\College - Graduate\Graduate Work\Advanced Quant,no,mono,no,18,no,white,no,yes,768,legacy,54,54,C:/Users/Brian/Desktop/College - Graduate/Graduate Work/Advanced Quant/BK-subject-1.csv,legacy,Kafkaesque Koffka,3.2.8,0,h,NA,h,NA,NA,h,507,NA,8898,NA,NA,507,2,legacy,1024,2,48000,-16,experiment,1,odd,11370,NA,NA,NA,106130,105056,2471,NA,NA,106128,106233,102768,2462,NA,106233,106741,Flanker Task,49,27969,55,yes,1024
incongruent,SSHSS,89.28571429,89.28571429,508.8214286,508.8214286,black,legacy,legacy,legacy,0,uniform,1,undefined,1,h,0,0,0,0,55,55,0,0,0,55,55,55,0,55,55,55,9/20/21 12:08,1500,The main experiment item,yes,FlankerTask.osexp,C:\Users\Brian\Desktop\College - Graduate\Graduate Work\Advanced Quant,no,mono,no,18,no,white,no,yes,768,legacy,55,55,C:/Users/Brian/Desktop/College - Graduate/Graduate Work/Advanced Quant/BK-subject-1.csv,legacy,Kafkaesque Koffka,3.2.8,0,h,NA,h,NA,NA,h,525,NA,8898,NA,NA,525,2,legacy,1024,2,48000,-16,experiment,1,odd,11370,NA,NA,NA,107835,106749,2471,NA,NA,107833,107937,102768,2462,NA,107937,108463,Flanker Task,50,28494,56,yes,1024
congruent,SSSSS,89.47368421,89.47368421,510.2807018,510.2807018,black,legacy,legacy,legacy,0,uniform,1,undefined,1,s,0,0,0,0,56,56,0,0,0,56,56,56,0,56,56,56,9/20/21 12:08,1500,The main experiment item,yes,FlankerTask.osexp,C:\Users\Brian\Desktop\College - Graduate\Graduate Work\Advanced Quant,no,mono,no,18,no,white,no,yes,768,legacy,56,56,C:/Users/Brian/Desktop/College - Graduate/Graduate Work/Advanced Quant/BK-subject-1.csv,legacy,Kafkaesque Koffka,3.2.8,0,s,NA,h,NA,NA,s,592,NA,8898,NA,NA,592,2,legacy,1024,2,48000,-16,experiment,1,odd,11370,NA,NA,NA,109549,108472,2471,NA,NA,109547,109652,102768,2462,NA,109652,110245,Flanker Task,51,29086,57,yes,1024
incongruent,HHSHH,89.65517241,89.65517241,511.4310345,511.4310345,black,legacy,legacy,legacy,0,uniform,1,undefined,1,s,0,0,0,0,57,57,0,0,0,57,57,57,0,57,57,57,9/20/21 12:08,1500,The main experiment item,yes,FlankerTask.osexp,C:\Users\Brian\Desktop\College - Graduate\Graduate Work\Advanced Quant,no,mono,no,18,no,white,no,yes,768,legacy,57,57,C:/Users/Brian/Desktop/College - Graduate/Graduate Work/Advanced Quant/BK-subject-1.csv,legacy,Kafkaesque Koffka,3.2.8,0,s,NA,h,NA,NA,s,577,NA,8898,NA,NA,577,2,legacy,1024,2,48000,-16,experiment,1,odd,11370,NA,NA,NA,111342,110254,2471,NA,NA,111341,111445,102768,2462,NA,111445,112023,Flanker Task,52,29663,58,yes,1024
incongruent,HHSHH,89.83050847,89.83050847,512.3559322,512.3559322,black,legacy,legacy,legacy,0,uniform,1,undefined,1,s,0,0,0,0,58,58,0,0,0,58,58,58,0,58,58,58,9/20/21 12:08,1500,The main experiment item,yes,FlankerTask.osexp,C:\Users\Brian\Desktop\College - Graduate\Graduate Work\Advanced Quant,no,mono,no,18,no,white,no,yes,768,legacy,58,58,C:/Users/Brian/Desktop/College - Graduate/Graduate Work/Advanced Quant/BK-subject-1.csv,legacy,Kafkaesque Koffka,3.2.8,0,s,NA,h,NA,NA,s,566,NA,8898,NA,NA,566,2,legacy,1024,2,48000,-16,experiment,1,odd,11370,NA,NA,NA,113101,112028,2471,NA,NA,113099,113203,102768,2462,NA,113203,113770,Flanker Task,53,30229,59,yes,1024
incongruent,HHSHH,90,90,512.2,512.2,black,legacy,legacy,legacy,0,uniform,1,undefined,1,s,0,0,0,0,59,59,0,0,0,59,59,59,0,59,59,59,9/20/21 12:08,1500,The main experiment item,yes,FlankerTask.osexp,C:\Users\Brian\Desktop\College - Graduate\Graduate Work\Advanced Quant,no,mono,no,18,no,white,no,yes,768,legacy,59,59,C:/Users/Brian/Desktop/College - Graduate/Graduate Work/Advanced Quant/BK-subject-1.csv,legacy,Kafkaesque Koffka,3.2.8,0,s,NA,h,NA,NA,s,503,NA,8898,NA,NA,503,2,legacy,1024,2,48000,-16,experiment,1,odd,11370,NA,NA,NA,114851,113779,2471,NA,NA,114849,114954,102768,2462,NA,114954,115458,Flanker Task,54,30732,60,yes,1024
incongruent,SSHSS,90.16393443,90.16393443,514.147541,514.147541,black,legacy,legacy,legacy,0,uniform,1,undefined,1,h,0,0,0,0,60,60,0,0,0,60,60,60,0,60,60,60,9/20/21 12:08,1500,The main experiment item,yes,FlankerTask.osexp,C:\Users\Brian\Desktop\College - Graduate\Graduate Work\Advanced Quant,no,mono,no,18,no,white,no,yes,768,legacy,60,60,C:/Users/Brian/Desktop/College - Graduate/Graduate Work/Advanced Quant/BK-subject-1.csv,legacy,Kafkaesque Koffka,3.2.8,0,h,NA,h,NA,NA,h,631,NA,8898,NA,NA,631,2,legacy,1024,2,48000,-16,experiment,1,odd,11370,NA,NA,NA,116545,115467,2471,NA,NA,116543,116648,102768,2462,NA,116648,117280,Flanker Task,55,31363,61,yes,1024
congruent,SSSSS,90.32258065,90.32258065,512.8225806,512.8225806,black,legacy,legacy,legacy,0,uniform,1,undefined,1,s,0,0,0,0,61,61,0,0,0,61,61,61,0,61,61,61,9/20/21 12:08,1500,The main experiment item,yes,FlankerTask.osexp,C:\Users\Brian\Desktop\College - Graduate\Graduate Work\Advanced Quant,no,mono,no,18,no,white,no,yes,768,legacy,61,61,C:/Users/Brian/Desktop/College - Graduate/Graduate Work/Advanced Quant/BK-subject-1.csv,legacy,Kafkaesque Koffka,3.2.8,0,s,NA,h,NA,NA,s,432,NA,8898,NA,NA,432,2,legacy,1024,2,48000,-16,experiment,1,odd,11370,NA,NA,NA,118368,117288,2471,NA,NA,118366,118469,102768,2462,NA,118469,118902,Flanker Task,56,31795,62,yes,1024
incongruent,HHSHH,90.47619048,90.47619048,511.7619048,511.7619048,black,legacy,legacy,legacy,0,uniform,1,undefined,1,s,0,0,0,0,62,62,0,0,0,62,62,62,0,62,62,62,9/20/21 12:08,1500,The main experiment item,yes,FlankerTask.osexp,C:\Users\Brian\Desktop\College - Graduate\Graduate Work\Advanced Quant,no,mono,no,18,no,white,no,yes,768,legacy,62,62,C:/Users/Brian/Desktop/College - Graduate/Graduate Work/Advanced Quant/BK-subject-1.csv,legacy,Kafkaesque Koffka,3.2.8,0,s,NA,h,NA,NA,s,446,NA,8898,NA,NA,446,2,legacy,1024,2,48000,-16,experiment,1,odd,11370,NA,NA,NA,119986,118910,2471,NA,NA,119984,120088,102768,2462,NA,120088,120535,Flanker Task,57,32241,63,yes,1024
congruent,HHHHH,90.625,90.625,511.15625,511.15625,black,legacy,legacy,legacy,0,uniform,1,undefined,1,h,0,0,0,0,63,63,0,0,0,63,63,63,0,63,63,63,9/20/21 12:08,1500,The main experiment item,yes,FlankerTask.osexp,C:\Users\Brian\Desktop\College - Graduate\Graduate Work\Advanced Quant,no,mono,no,18,no,white,no,yes,768,legacy,63,63,C:/Users/Brian/Desktop/College - Graduate/Graduate Work/Advanced Quant/BK-subject-1.csv,legacy,Kafkaesque Koffka,3.2.8,0,h,NA,h,NA,NA,h,473,NA,8898,NA,NA,473,2,legacy,1024,2,48000,-16,experiment,1,odd,11370,NA,NA,NA,121627,120544,2471,NA,NA,121625,121730,102768,2462,NA,121730,122204,Flanker Task,58,32714,64,yes,1024
congruent,HHHHH,90.76923077,90.76923077,510.8461538,510.8461538,black,legacy,legacy,legacy,0,uniform,1,undefined,1,h,0,0,0,0,64,64,0,0,0,64,64,64,0,64,64,64,9/20/21 12:08,1500,The main experiment item,yes,FlankerTask.osexp,C:\Users\Brian\Desktop\College - Graduate\Graduate Work\Advanced Quant,no,mono,no,18,no,white,no,yes,768,legacy,64,64,C:/Users/Brian/Desktop/College - Graduate/Graduate Work/Advanced Quant/BK-subject-1.csv,legacy,Kafkaesque Koffka,3.2.8,0,h,NA,h,NA,NA,h,491,NA,8898,NA,NA,491,2,legacy,1024,2,48000,-16,experiment,1,odd,11370,NA,NA,NA,123291,122213,2471,NA,NA,123290,123394,102768,2462,NA,123394,123886,Flanker Task,59,33205,65,yes,1024
incongruent,SSHSS,90.90909091,90.90909091,511.1969697,511.1969697,black,legacy,legacy,legacy,0,uniform,1,undefined,1,h,0,0,0,0,65,65,0,0,0,65,65,65,0,65,65,65,9/20/21 12:08,1500,The main experiment item,yes,FlankerTask.osexp,C:\Users\Brian\Desktop\College - Graduate\Graduate Work\Advanced Quant,no,mono,no,18,no,white,no,yes,768,legacy,65,65,C:/Users/Brian/Desktop/College - Graduate/Graduate Work/Advanced Quant/BK-subject-1.csv,legacy,Kafkaesque Koffka,3.2.8,0,h,NA,h,NA,NA,h,534,NA,8898,NA,NA,534,2,legacy,1024,2,48000,-16,experiment,1,odd,11370,NA,NA,NA,124971,123894,2471,NA,NA,124969,125074,102768,2462,NA,125074,125609,Flanker Task,60,33739,66,yes,1024
congruent,HHHHH,91.04477612,91.04477612,509.9402985,509.9402985,black,legacy,legacy,legacy,0,uniform,1,undefined,1,h,0,0,0,0,66,66,0,0,0,66,66,66,0,66,66,66,9/20/21 12:08,1500,The main experiment item,yes,FlankerTask.osexp,C:\Users\Brian\Desktop\College - Graduate\Graduate Work\Advanced Quant,no,mono,no,18,no,white,no,yes,768,legacy,66,66,C:/Users/Brian/Desktop/College - Graduate/Graduate Work/Advanced Quant/BK-subject-1.csv,legacy,Kafkaesque Koffka,3.2.8,0,h,NA,h,NA,NA,h,427,NA,8898,NA,NA,427,2,legacy,1024,2,48000,-16,experiment,1,odd,11370,NA,NA,NA,126694,125617,2471,NA,NA,126693,126798,102768,2462,NA,126798,127227,Flanker Task,61,34166,67,yes,1024
congruent,SSSSS,91.17647059,91.17647059,509.3529412,509.3529412,black,legacy,legacy,legacy,0,uniform,1,undefined,1,s,0,0,0,0,67,67,0,0,0,67,67,67,0,67,67,67,9/20/21 12:08,1500,The main experiment item,yes,FlankerTask.osexp,C:\Users\Brian\Desktop\College - Graduate\Graduate Work\Advanced Quant,no,mono,no,18,no,white,no,yes,768,legacy,67,67,C:/Users/Brian/Desktop/College - Graduate/Graduate Work/Advanced Quant/BK-subject-1.csv,legacy,Kafkaesque Koffka,3.2.8,0,s,NA,h,NA,NA,s,470,NA,8898,NA,NA,470,2,legacy,1024,2,48000,-16,experiment,1,odd,11370,NA,NA,NA,128314,127235,2471,NA,NA,128312,128417,102768,2462,NA,128417,128889,Flanker Task,62,34636,68,yes,1024
incongruent,SSHSS,89.85507246,89.85507246,507.4637681,507.4637681,black,legacy,legacy,legacy,0,uniform,0,undefined,0,h,0,0,0,0,68,68,0,0,0,68,68,68,0,68,68,68,9/20/21 12:08,1500,The main experiment item,yes,FlankerTask.osexp,C:\Users\Brian\Desktop\College - Graduate\Graduate Work\Advanced Quant,no,mono,no,18,no,white,no,yes,768,legacy,68,68,C:/Users/Brian/Desktop/College - Graduate/Graduate Work/Advanced Quant/BK-subject-1.csv,legacy,Kafkaesque Koffka,3.2.8,0,s,NA,h,NA,NA,s,379,NA,8898,NA,NA,379,2,legacy,1024,2,48000,-16,experiment,1,odd,11370,NA,NA,NA,129969,128898,2471,NA,NA,129967,130072,102768,2462,NA,130072,130452,Flanker Task,62,35015,69,yes,1024
congruent,SSSSS,90,90,508.6428571,508.6428571,black,legacy,legacy,legacy,0,uniform,1,undefined,1,s,0,0,0,0,69,69,0,0,0,69,69,69,0,69,69,69,9/20/21 12:08,1500,The main experiment item,yes,FlankerTask.osexp,C:\Users\Brian\Desktop\College - Graduate\Graduate Work\Advanced Quant,no,mono,no,18,no,white,no,yes,768,legacy,69,69,C:/Users/Brian/Desktop/College - Graduate/Graduate Work/Advanced Quant/BK-subject-1.csv,legacy,Kafkaesque Koffka,3.2.8,0,s,NA,h,NA,NA,s,590,NA,8898,NA,NA,590,2,legacy,1024,2,48000,-16,experiment,1,odd,11370,NA,NA,NA,132033,130963,2471,NA,NA,132031,132135,130460,2462,NA,132135,132726,Flanker Task,63,35605,70,yes,1024
incongruent,HHSHH,90.14084507,90.14084507,508.5915493,508.5915493,black,legacy,legacy,legacy,0,uniform,1,undefined,1,s,0,0,0,0,70,70,0,0,0,70,70,70,0,70,70,70,9/20/21 12:08,1500,The main experiment item,yes,FlankerTask.osexp,C:\Users\Brian\Desktop\College - Graduate\Graduate Work\Advanced Quant,no,mono,no,18,no,white,no,yes,768,legacy,70,70,C:/Users/Brian/Desktop/College - Graduate/Graduate Work/Advanced Quant/BK-subject-1.csv,legacy,Kafkaesque Koffka,3.2.8,0,s,NA,h,NA,NA,s,505,NA,8898,NA,NA,505,2,legacy,1024,2,48000,-16,experiment,1,odd,11370,NA,NA,NA,133810,132734,2471,NA,NA,133808,133913,130460,2462,NA,133913,134419,Flanker Task,64,36110,71,yes,1024
congruent,HHHHH,90.27777778,90.27777778,508.6388889,508.6388889,black,legacy,legacy,legacy,0,uniform,1,undefined,1,h,0,0,0,0,71,71,0,0,0,71,71,71,0,71,71,71,9/20/21 12:08,1500,The main experiment item,yes,FlankerTask.osexp,C:\Users\Brian\Desktop\College - Graduate\Graduate Work\Advanced Quant,no,mono,no,18,no,white,no,yes,768,legacy,71,71,C:/Users/Brian/Desktop/College - Graduate/Graduate Work/Advanced Quant/BK-subject-1.csv,legacy,Kafkaesque Koffka,3.2.8,0,h,NA,h,NA,NA,h,512,NA,8898,NA,NA,512,2,legacy,1024,2,48000,-16,experiment,1,odd,11370,NA,NA,NA,135501,134428,2471,NA,NA,135499,135604,130460,2462,NA,135604,136117,Flanker Task,65,36622,72,yes,1024
congruent,HHHHH,90.4109589,90.4109589,508.0821918,508.0821918,black,legacy,legacy,legacy,0,uniform,1,undefined,1,h,0,0,0,0,72,72,0,0,0,72,72,72,0,72,72,72,9/20/21 12:08,1500,The main experiment item,yes,FlankerTask.osexp,C:\Users\Brian\Desktop\College - Graduate\Graduate Work\Advanced Quant,no,mono,no,18,no,white,no,yes,768,legacy,72,72,C:/Users/Brian/Desktop/College - Graduate/Graduate Work/Advanced Quant/BK-subject-1.csv,legacy,Kafkaesque Koffka,3.2.8,0,h,NA,h,NA,NA,h,468,NA,8898,NA,NA,468,2,legacy,1024,2,48000,-16,experiment,1,odd,11370,NA,NA,NA,137194,136122,2471,NA,NA,137192,137295,130460,2462,NA,137295,137764,Flanker Task,66,37090,73,yes,1024
incongruent,SSHSS,90.54054054,90.54054054,508.7432432,508.7432432,black,legacy,legacy,legacy,0,uniform,1,undefined,1,h,0,0,0,0,73,73,0,0,0,73,73,73,0,73,73,73,9/20/21 12:08,1500,The main experiment item,yes,FlankerTask.osexp,C:\Users\Brian\Desktop\College - Graduate\Graduate Work\Advanced Quant,no,mono,no,18,no,white,no,yes,768,legacy,73,73,C:/Users/Brian/Desktop/College - Graduate/Graduate Work/Advanced Quant/BK-subject-1.csv,legacy,Kafkaesque Koffka,3.2.8,0,h,NA,h,NA,NA,h,557,NA,8898,NA,NA,557,2,legacy,1024,2,48000,-16,experiment,1,odd,11370,NA,NA,NA,138846,137772,2471,NA,NA,138844,138949,130460,2462,NA,138949,139507,Flanker Task,67,37647,74,yes,1024
incongruent,SSHSS,90.66666667,90.66666667,508.0133333,508.0133333,black,legacy,legacy,legacy,0,uniform,1,undefined,1,h,0,0,0,0,74,74,0,0,0,74,74,74,0,74,74,74,9/20/21 12:08,1500,The main experiment item,yes,FlankerTask.osexp,C:\Users\Brian\Desktop\College - Graduate\Graduate Work\Advanced Quant,no,mono,no,18,no,white,no,yes,768,legacy,74,74,C:/Users/Brian/Desktop/College - Graduate/Graduate Work/Advanced Quant/BK-subject-1.csv,legacy,Kafkaesque Koffka,3.2.8,0,h,NA,h,NA,NA,h,454,NA,8898,NA,NA,454,2,legacy,1024,2,48000,-16,experiment,1,odd,11370,NA,NA,NA,140586,139516,2471,NA,NA,140584,140689,130460,2462,NA,140689,141144,Flanker Task,68,38101,75,yes,1024
incongruent,HHSHH,90.78947368,90.78947368,508.75,508.75,black,legacy,legacy,legacy,0,uniform,1,undefined,1,s,0,0,0,0,75,75,0,0,0,75,75,75,0,75,75,75,9/20/21 12:08,1500,The main experiment item,yes,FlankerTask.osexp,C:\Users\Brian\Desktop\College - Graduate\Graduate Work\Advanced Quant,no,mono,no,18,no,white,no,yes,768,legacy,75,75,C:/Users/Brian/Desktop/College - Graduate/Graduate Work/Advanced Quant/BK-subject-1.csv,legacy,Kafkaesque Koffka,3.2.8,0,s,NA,h,NA,NA,s,564,NA,8898,NA,NA,564,2,legacy,1024,2,48000,-16,experiment,1,odd,11370,NA,NA,NA,142224,141147,2471,NA,NA,142222,142326,130460,2462,NA,142326,142891,Flanker Task,69,38665,76,yes,1024
incongruent,SSHSS,90.90909091,90.90909091,510.1428571,510.1428571,black,legacy,legacy,legacy,0,uniform,1,undefined,1,h,0,0,0,0,76,76,0,0,0,76,76,76,0,76,76,76,9/20/21 12:08,1500,The main experiment item,yes,FlankerTask.osexp,C:\Users\Brian\Desktop\College - Graduate\Graduate Work\Advanced Quant,no,mono,no,18,no,white,no,yes,768,legacy,76,76,C:/Users/Brian/Desktop/College - Graduate/Graduate Work/Advanced Quant/BK-subject-1.csv,legacy,Kafkaesque Koffka,3.2.8,0,h,NA,h,NA,NA,h,616,NA,8898,NA,NA,616,2,legacy,1024,2,48000,-16,experiment,1,odd,11370,NA,NA,NA,143979,142900,2471,NA,NA,143977,144082,130460,2462,NA,144082,144699,Flanker Task,70,39281,77,yes,1024
incongruent,HHSHH,91.02564103,91.02564103,509.3717949,509.3717949,black,legacy,legacy,legacy,0,uniform,1,undefined,1,s,0,0,0,0,77,77,0,0,0,77,77,77,0,77,77,77,9/20/21 12:08,1500,The main experiment item,yes,FlankerTask.osexp,C:\Users\Brian\Desktop\College - Graduate\Graduate Work\Advanced Quant,no,mono,no,18,no,white,no,yes,768,legacy,77,77,C:/Users/Brian/Desktop/College - Graduate/Graduate Work/Advanced Quant/BK-subject-1.csv,legacy,Kafkaesque Koffka,3.2.8,0,s,NA,h,NA,NA,s,450,NA,8898,NA,NA,450,2,legacy,1024,2,48000,-16,experiment,1,odd,11370,NA,NA,NA,145777,144704,2471,NA,NA,145775,145880,130460,2462,NA,145880,146331,Flanker Task,71,39731,78,yes,1024
congruent,SSSSS,91.13924051,91.13924051,508.3544304,508.3544304,black,legacy,legacy,legacy,0,uniform,1,undefined,1,s,0,0,0,0,78,78,0,0,0,78,78,78,0,78,78,78,9/20/21 12:08,1500,The main experiment item,yes,FlankerTask.osexp,C:\Users\Brian\Desktop\College - Graduate\Graduate Work\Advanced Quant,no,mono,no,18,no,white,no,yes,768,legacy,78,78,C:/Users/Brian/Desktop/College - Graduate/Graduate Work/Advanced Quant/BK-subject-1.csv,legacy,Kafkaesque Koffka,3.2.8,0,s,NA,h,NA,NA,s,429,NA,8898,NA,NA,429,2,legacy,1024,2,48000,-16,experiment,1,odd,11370,NA,NA,NA,147412,146340,2471,NA,NA,147409,147515,130460,2462,NA,147515,147946,Flanker Task,72,40160,79,yes,1024
congruent,SSSSS,91.25,91.25,507.6875,507.6875,black,legacy,legacy,legacy,0,uniform,1,undefined,1,s,0,0,0,0,79,79,0,0,0,79,79,79,0,79,79,79,9/20/21 12:08,1500,The main experiment item,yes,FlankerTask.osexp,C:\Users\Brian\Desktop\College - Graduate\Graduate Work\Advanced Quant,no,mono,no,18,no,white,no,yes,768,legacy,79,79,C:/Users/Brian/Desktop/College - Graduate/Graduate Work/Advanced Quant/BK-subject-1.csv,legacy,Kafkaesque Koffka,3.2.8,0,s,NA,h,NA,NA,s,455,NA,8898,NA,NA,455,2,legacy,1024,2,48000,-16,experiment,1,odd,11370,NA,NA,NA,149028,147954,2471,NA,NA,149026,149131,130460,2462,NA,149131,149587,Flanker Task,73,40615,80,yes,1024
incongruent,SSHSS,91.35802469,91.35802469,508.5308642,508.5308642,black,legacy,legacy,legacy,0,uniform,1,undefined,1,h,0,0,0,0,80,80,0,0,0,80,80,80,0,80,80,80,9/20/21 12:08,600,The main experiment item,yes,FlankerTask.osexp,C:\Users\Brian\Desktop\College - Graduate\Graduate Work\Advanced Quant,no,mono,no,18,no,white,no,yes,768,legacy,0,79,C:/Users/Brian/Desktop/College - Graduate/Graduate Work/Advanced Quant/BK-subject-1.csv,legacy,Kafkaesque Koffka,3.2.8,0,h,NA,h,h,NA,h,576,NA,8898,17436,NA,576,2,legacy,1024,2,48000,-16,experiment,1,odd,11370,168050,NA,NA,168127,149595,2471,150612,NA,168126,168230,130460,2462,NA,168230,168808,Flanker Task,74,41191,81,yes,1024
incongruent,SSHSS,91.46341463,91.46341463,509.6463415,509.6463415,black,legacy,legacy,legacy,0,uniform,1,undefined,1,h,0,0,0,0,81,81,0,0,0,81,81,81,0,81,81,81,9/20/21 12:08,600,The main experiment item,yes,FlankerTask.osexp,C:\Users\Brian\Desktop\College - Graduate\Graduate Work\Advanced Quant,no,mono,no,18,no,white,no,yes,768,legacy,1,79,C:/Users/Brian/Desktop/College - Graduate/Graduate Work/Advanced Quant/BK-subject-1.csv,legacy,Kafkaesque Koffka,3.2.8,0,h,NA,h,h,NA,h,600,NA,8898,17436,NA,600,2,legacy,1024,2,48000,-16,experiment,1,odd,11370,168050,NA,NA,169895,168816,2471,150612,NA,169894,169998,130460,2462,NA,169998,170599,Flanker Task,75,41791,82,yes,1024
congruent,SSSSS,91.56626506,91.56626506,508.5180723,508.5180723,black,legacy,legacy,legacy,0,uniform,1,undefined,1,s,0,0,0,0,82,82,0,0,0,82,82,82,0,82,82,82,9/20/21 12:08,600,The main experiment item,yes,FlankerTask.osexp,C:\Users\Brian\Desktop\College - Graduate\Graduate Work\Advanced Quant,no,mono,no,18,no,white,no,yes,768,legacy,2,79,C:/Users/Brian/Desktop/College - Graduate/Graduate Work/Advanced Quant/BK-subject-1.csv,legacy,Kafkaesque Koffka,3.2.8,0,s,NA,h,h,NA,s,416,NA,8898,17436,NA,416,2,legacy,1024,2,48000,-16,experiment,1,odd,11370,168050,NA,NA,171681,170607,2471,150612,NA,171679,171784,130460,2462,NA,171784,172201,Flanker Task,76,42207,83,yes,1024
incongruent,HHSHH,91.66666667,91.66666667,507.6904762,507.6904762,black,legacy,legacy,legacy,0,uniform,1,undefined,1,s,0,0,0,0,83,83,0,0,0,83,83,83,0,83,83,83,9/20/21 12:08,600,The main experiment item,yes,FlankerTask.osexp,C:\Users\Brian\Desktop\College - Graduate\Graduate Work\Advanced Quant,no,mono,no,18,no,white,no,yes,768,legacy,3,79,C:/Users/Brian/Desktop/College - Graduate/Graduate Work/Advanced Quant/BK-subject-1.csv,legacy,Kafkaesque Koffka,3.2.8,0,s,NA,h,h,NA,s,439,NA,8898,17436,NA,439,2,legacy,1024,2,48000,-16,experiment,1,odd,11370,168050,NA,NA,173289,172210,2471,150612,NA,173287,173390,130460,2462,NA,173390,173830,Flanker Task,77,42646,84,yes,1024
incongruent,SSHSS,90.58823529,90.58823529,506.1882353,506.1882353,black,legacy,legacy,legacy,0,uniform,0,undefined,0,h,0,0,0,0,84,84,0,0,0,84,84,84,0,84,84,84,9/20/21 12:08,600,The main experiment item,yes,FlankerTask.osexp,C:\Users\Brian\Desktop\College - Graduate\Graduate Work\Advanced Quant,no,mono,no,18,no,white,no,yes,768,legacy,4,79,C:/Users/Brian/Desktop/College - Graduate/Graduate Work/Advanced Quant/BK-subject-1.csv,legacy,Kafkaesque Koffka,3.2.8,0,s,NA,h,h,NA,s,380,NA,8898,17436,NA,380,2,legacy,1024,2,48000,-16,experiment,1,odd,11370,168050,NA,NA,174913,173834,2471,150612,NA,174911,175016,130460,2462,NA,175016,175397,Flanker Task,77,43026,85,yes,1024
congruent,HHHHH,90.69767442,90.69767442,505.3488372,505.3488372,black,legacy,legacy,legacy,0,uniform,1,undefined,1,h,0,0,0,0,85,85,0,0,0,85,85,85,0,85,85,85,9/20/21 12:08,600,The main experiment item,yes,FlankerTask.osexp,C:\Users\Brian\Desktop\College - Graduate\Graduate Work\Advanced Quant,no,mono,no,18,no,white,no,yes,768,legacy,5,79,C:/Users/Brian/Desktop/College - Graduate/Graduate Work/Advanced Quant/BK-subject-1.csv,legacy,Kafkaesque Koffka,3.2.8,0,h,NA,h,h,NA,h,434,NA,8898,17436,NA,434,2,legacy,1024,2,48000,-16,experiment,1,odd,11370,168050,NA,NA,176975,175906,2471,150612,NA,176973,177078,175405,2462,NA,177078,177513,Flanker Task,78,43460,86,yes,1024
congruent,SSSSS,90.8045977,90.8045977,504.7126437,504.7126437,black,legacy,legacy,legacy,0,uniform,1,undefined,1,s,0,0,0,0,86,86,0,0,0,86,86,86,0,86,86,86,9/20/21 12:08,600,The main experiment item,yes,FlankerTask.osexp,C:\Users\Brian\Desktop\College - Graduate\Graduate Work\Advanced Quant,no,mono,no,18,no,white,no,yes,768,legacy,6,79,C:/Users/Brian/Desktop/College - Graduate/Graduate Work/Advanced Quant/BK-subject-1.csv,legacy,Kafkaesque Koffka,3.2.8,0,s,NA,h,h,NA,s,450,NA,8898,17436,NA,450,2,legacy,1024,2,48000,-16,experiment,1,odd,11370,168050,NA,NA,178596,177518,2471,150612,NA,178594,178699,175405,2462,NA,178699,179151,Flanker Task,79,43910,87,yes,1024
incongruent,HHSHH,90.90909091,90.90909091,504.25,504.25,black,legacy,legacy,legacy,0,uniform,1,undefined,1,s,0,0,0,0,87,87,0,0,0,87,87,87,0,87,87,87,9/20/21 12:08,600,The main experiment item,yes,FlankerTask.osexp,C:\Users\Brian\Desktop\College - Graduate\Graduate Work\Advanced Quant,no,mono,no,18,no,white,no,yes,768,legacy,7,79,C:/Users/Brian/Desktop/College - Graduate/Graduate Work/Advanced Quant/BK-subject-1.csv,legacy,Kafkaesque Koffka,3.2.8,0,s,NA,h,h,NA,s,464,NA,8898,17436,NA,464,2,legacy,1024,2,48000,-16,experiment,1,odd,11370,168050,NA,NA,180236,179160,2471,150612,NA,180234,180339,175405,2462,NA,180339,180805,Flanker Task,80,44374,88,yes,1024
incongruent,HHSHH,91.01123596,91.01123596,503.1235955,503.1235955,black,legacy,legacy,legacy,0,uniform,1,undefined,1,s,0,0,0,0,88,88,0,0,0,88,88,88,0,88,88,88,9/20/21 12:08,600,The main experiment item,yes,FlankerTask.osexp,C:\Users\Brian\Desktop\College - Graduate\Graduate Work\Advanced Quant,no,mono,no,18,no,white,no,yes,768,legacy,8,79,C:/Users/Brian/Desktop/College - Graduate/Graduate Work/Advanced Quant/BK-subject-1.csv,legacy,Kafkaesque Koffka,3.2.8,0,s,NA,h,h,NA,s,404,NA,8898,17436,NA,404,2,legacy,1024,2,48000,-16,experiment,1,odd,11370,168050,NA,NA,181893,180814,2471,150612,NA,181891,181996,175405,2462,NA,181996,182401,Flanker Task,81,44778,89,yes,1024
incongruent,SSHSS,91.11111111,91.11111111,502.9,502.9,black,legacy,legacy,legacy,0,uniform,1,undefined,1,h,0,0,0,0,89,89,0,0,0,89,89,89,0,89,89,89,9/20/21 12:08,600,The main experiment item,yes,FlankerTask.osexp,C:\Users\Brian\Desktop\College - Graduate\Graduate Work\Advanced Quant,no,mono,no,18,no,white,no,yes,768,legacy,9,79,C:/Users/Brian/Desktop/College - Graduate/Graduate Work/Advanced Quant/BK-subject-1.csv,legacy,Kafkaesque Koffka,3.2.8,0,h,NA,h,h,NA,h,483,NA,8898,17436,NA,483,2,legacy,1024,2,48000,-16,experiment,1,odd,11370,168050,NA,NA,183486,182409,2471,150612,NA,183483,183589,175405,2462,NA,183589,184074,Flanker Task,82,45261,90,yes,1024
congruent,HHHHH,91.20879121,91.20879121,501.978022,501.978022,black,legacy,legacy,legacy,0,uniform,1,undefined,1,h,0,0,0,0,90,90,0,0,0,90,90,90,0,90,90,90,9/20/21 12:08,600,The main experiment item,yes,FlankerTask.osexp,C:\Users\Brian\Desktop\College - Graduate\Graduate Work\Advanced Quant,no,mono,no,18,no,white,no,yes,768,legacy,10,79,C:/Users/Brian/Desktop/College - Graduate/Graduate Work/Advanced Quant/BK-subject-1.csv,legacy,Kafkaesque Koffka,3.2.8,0,h,NA,h,h,NA,h,419,NA,8898,17436,NA,419,2,legacy,1024,2,48000,-16,experiment,1,odd,11370,168050,NA,NA,185158,184082,2471,150612,NA,185155,185261,175405,2462,NA,185261,185682,Flanker Task,83,45680,91,yes,1024
congruent,HHHHH,91.30434783,91.30434783,500.9891304,500.9891304,black,legacy,legacy,legacy,0,uniform,1,undefined,1,h,0,0,0,0,91,91,0,0,0,91,91,91,0,91,91,91,9/20/21 12:08,600,The main experiment item,yes,FlankerTask.osexp,C:\Users\Brian\Desktop\College - Graduate\Graduate Work\Advanced Quant,no,mono,no,18,no,white,no,yes,768,legacy,11,79,C:/Users/Brian/Desktop/College - Graduate/Graduate Work/Advanced Quant/BK-subject-1.csv,legacy,Kafkaesque Koffka,3.2.8,0,h,NA,h,h,NA,h,411,NA,8898,17436,NA,411,2,legacy,1024,2,48000,-16,experiment,1,odd,11370,168050,NA,NA,186769,185691,2471,150612,NA,186766,186872,175405,2462,NA,186872,187284,Flanker Task,84,46091,92,yes,1024
incongruent,SSHSS,91.39784946,91.39784946,499.9892473,499.9892473,black,legacy,legacy,legacy,0,uniform,1,undefined,1,h,0,0,0,0,92,92,0,0,0,92,92,92,0,92,92,92,9/20/21 12:08,600,The main experiment item,yes,FlankerTask.osexp,C:\Users\Brian\Desktop\College - Graduate\Graduate Work\Advanced Quant,no,mono,no,18,no,white,no,yes,768,legacy,12,79,C:/Users/Brian/Desktop/College - Graduate/Graduate Work/Advanced Quant/BK-subject-1.csv,legacy,Kafkaesque Koffka,3.2.8,0,h,NA,h,h,NA,h,408,NA,8898,17436,NA,408,2,legacy,1024,2,48000,-16,experiment,1,odd,11370,168050,NA,NA,188365,187292,2471,150612,NA,188363,188468,175405,2462,NA,188468,188878,Flanker Task,85,46499,93,yes,1024
congruent,HHHHH,91.4893617,91.4893617,499.5638298,499.5638298,black,legacy,legacy,legacy,0,uniform,1,undefined,1,h,0,0,0,0,93,93,0,0,0,93,93,93,0,93,93,93,9/20/21 12:08,600,The main experiment item,yes,FlankerTask.osexp,C:\Users\Brian\Desktop\College - Graduate\Graduate Work\Advanced Quant,no,mono,no,18,no,white,no,yes,768,legacy,13,79,C:/Users/Brian/Desktop/College - Graduate/Graduate Work/Advanced Quant/BK-subject-1.csv,legacy,Kafkaesque Koffka,3.2.8,0,h,NA,h,h,NA,h,460,NA,8898,17436,NA,460,2,legacy,1024,2,48000,-16,experiment,1,odd,11370,168050,NA,NA,189965,188887,2471,150612,NA,189964,190069,175405,2462,NA,190069,190530,Flanker Task,86,46959,94,yes,1024
incongruent,HHSHH,90.52631579,90.52631579,498.7368421,498.7368421,black,legacy,legacy,legacy,0,uniform,0,undefined,0,s,0,0,0,0,94,94,0,0,0,94,94,94,0,94,94,94,9/20/21 12:08,600,The main experiment item,yes,FlankerTask.osexp,C:\Users\Brian\Desktop\College - Graduate\Graduate Work\Advanced Quant,no,mono,no,18,no,white,no,yes,768,legacy,14,79,C:/Users/Brian/Desktop/College - Graduate/Graduate Work/Advanced Quant/BK-subject-1.csv,legacy,Kafkaesque Koffka,3.2.8,0,h,NA,h,h,NA,h,421,NA,8898,17436,NA,421,2,legacy,1024,2,48000,-16,experiment,1,odd,11370,168050,NA,NA,191623,190538,2471,150612,NA,191621,191726,175405,2462,NA,191726,192148,Flanker Task,86,47380,95,yes,1024
congruent,HHHHH,90.625,90.625,498.4270833,498.4270833,black,legacy,legacy,legacy,0,uniform,1,undefined,1,h,0,0,0,0,95,95,0,0,0,95,95,95,0,95,95,95,9/20/21 12:08,600,The main experiment item,yes,FlankerTask.osexp,C:\Users\Brian\Desktop\College - Graduate\Graduate Work\Advanced Quant,no,mono,no,18,no,white,no,yes,768,legacy,15,79,C:/Users/Brian/Desktop/College - Graduate/Graduate Work/Advanced Quant/BK-subject-1.csv,legacy,Kafkaesque Koffka,3.2.8,0,h,NA,h,h,NA,h,469,NA,8898,17436,NA,469,2,legacy,1024,2,48000,-16,experiment,1,odd,11370,168050,NA,NA,193734,192658,2471,150612,NA,193732,193837,192156,2462,NA,193837,194308,Flanker Task,87,47849,96,yes,1024
congruent,HHHHH,90.72164948,90.72164948,497.6907216,497.6907216,black,legacy,legacy,legacy,0,uniform,1,undefined,1,h,0,0,0,0,96,96,0,0,0,96,96,96,0,96,96,96,9/20/21 12:08,600,The main experiment item,yes,FlankerTask.osexp,C:\Users\Brian\Desktop\College - Graduate\Graduate Work\Advanced Quant,no,mono,no,18,no,white,no,yes,768,legacy,16,79,C:/Users/Brian/Desktop/College - Graduate/Graduate Work/Advanced Quant/BK-subject-1.csv,legacy,Kafkaesque Koffka,3.2.8,0,h,NA,h,h,NA,h,427,NA,8898,17436,NA,427,2,legacy,1024,2,48000,-16,experiment,1,odd,11370,168050,NA,NA,195394,194316,2471,150612,NA,195392,195497,192156,2462,NA,195497,195926,Flanker Task,88,48276,97,yes,1024
incongruent,HHSHH,90.81632653,90.81632653,497.6734694,497.6734694,black,legacy,legacy,legacy,0,uniform,1,undefined,1,s,0,0,0,0,97,97,0,0,0,97,97,97,0,97,97,97,9/20/21 12:08,600,The main experiment item,yes,FlankerTask.osexp,C:\Users\Brian\Desktop\College - Graduate\Graduate Work\Advanced Quant,no,mono,no,18,no,white,no,yes,768,legacy,17,79,C:/Users/Brian/Desktop/College - Graduate/Graduate Work/Advanced Quant/BK-subject-1.csv,legacy,Kafkaesque Koffka,3.2.8,0,s,NA,h,h,NA,s,496,NA,8898,17436,NA,496,2,legacy,1024,2,48000,-16,experiment,1,odd,11370,168050,NA,NA,197014,195934,2471,150612,NA,197012,197117,192156,2462,NA,197117,197614,Flanker Task,89,48772,98,yes,1024
congruent,SSSSS,90.90909091,90.90909091,496.8484848,496.8484848,black,legacy,legacy,legacy,0,uniform,1,undefined,1,s,0,0,0,0,98,98,0,0,0,98,98,98,0,98,98,98,9/20/21 12:08,600,The main experiment item,yes,FlankerTask.osexp,C:\Users\Brian\Desktop\College - Graduate\Graduate Work\Advanced Quant,no,mono,no,18,no,white,no,yes,768,legacy,18,79,C:/Users/Brian/Desktop/College - Graduate/Graduate Work/Advanced Quant/BK-subject-1.csv,legacy,Kafkaesque Koffka,3.2.8,0,s,NA,h,h,NA,s,416,NA,8898,17436,NA,416,2,legacy,1024,2,48000,-16,experiment,1,odd,11370,168050,NA,NA,198696,197622,2471,150612,NA,198694,198799,192156,2462,NA,198799,199217,Flanker Task,90,49188,99,yes,1024
incongruent,SSHSS,90,90,496.53,496.53,black,legacy,legacy,legacy,0,uniform,0,undefined,0,h,0,0,0,0,99,99,0,0,0,99,99,99,0,99,99,99,9/20/21 12:08,600,The main experiment item,yes,FlankerTask.osexp,C:\Users\Brian\Desktop\College - Graduate\Graduate Work\Advanced Quant,no,mono,no,18,no,white,no,yes,768,legacy,19,79,C:/Users/Brian/Desktop/College - Graduate/Graduate Work/Advanced Quant/BK-subject-1.csv,legacy,Kafkaesque Koffka,3.2.8,0,s,NA,h,h,NA,s,465,NA,8898,17436,NA,465,2,legacy,1024,2,48000,-16,experiment,1,odd,11370,168050,NA,NA,200300,199226,2471,150612,NA,200298,200403,192156,2462,NA,200403,200869,Flanker Task,90,49653,100,yes,1024
incongruent,SSHSS,90.0990099,90.0990099,498.2475248,498.2475248,black,legacy,legacy,legacy,0,uniform,1,undefined,1,h,0,0,0,0,100,100,0,0,0,100,100,100,0,100,100,100,9/20/21 12:08,600,The main experiment item,yes,FlankerTask.osexp,C:\Users\Brian\Desktop\College - Graduate\Graduate Work\Advanced Quant,no,mono,no,18,no,white,no,yes,768,legacy,20,79,C:/Users/Brian/Desktop/College - Graduate/Graduate Work/Advanced Quant/BK-subject-1.csv,legacy,Kafkaesque Koffka,3.2.8,0,h,NA,h,h,NA,h,670,NA,8898,17436,NA,670,2,legacy,1024,2,48000,-16,experiment,1,odd,11370,168050,NA,NA,202449,201380,2471,150612,NA,202447,202552,200877,2462,NA,202552,203224,Flanker Task,91,50323,101,yes,1024
incongruent,HHSHH,90.19607843,90.19607843,498.7647059,498.7647059,black,legacy,legacy,legacy,0,uniform,1,undefined,1,s,0,0,0,0,101,101,0,0,0,101,101,101,0,101,101,101,9/20/21 12:08,600,The main experiment item,yes,FlankerTask.osexp,C:\Users\Brian\Desktop\College - Graduate\Graduate Work\Advanced Quant,no,mono,no,18,no,white,no,yes,768,legacy,21,79,C:/Users/Brian/Desktop/College - Graduate/Graduate Work/Advanced Quant/BK-subject-1.csv,legacy,Kafkaesque Koffka,3.2.8,0,s,NA,h,h,NA,s,551,NA,8898,17436,NA,551,2,legacy,1024,2,48000,-16,experiment,1,odd,11370,168050,NA,NA,204809,203735,2471,150612,NA,204807,204912,200877,2462,203232,204912,205464,Flanker Task,92,50874,102,yes,1024
congruent,SSSSS,90.29126214,90.29126214,497.8349515,497.8349515,black,legacy,legacy,legacy,0,uniform,1,undefined,1,s,0,0,0,0,102,102,0,0,0,102,102,102,0,102,102,102,9/20/21 12:08,600,The main experiment item,yes,FlankerTask.osexp,C:\Users\Brian\Desktop\College - Graduate\Graduate Work\Advanced Quant,no,mono,no,18,no,white,no,yes,768,legacy,22,79,C:/Users/Brian/Desktop/College - Graduate/Graduate Work/Advanced Quant/BK-subject-1.csv,legacy,Kafkaesque Koffka,3.2.8,0,s,NA,h,h,NA,s,403,NA,8898,17436,NA,403,2,legacy,1024,2,48000,-16,experiment,1,odd,11370,168050,NA,NA,206550,205472,2471,150612,NA,206548,206652,200877,2462,203232,206652,207057,Flanker Task,93,51277,103,yes,1024
congruent,HHHHH,90.38461538,90.38461538,498.5576923,498.5576923,black,legacy,legacy,legacy,0,uniform,1,undefined,1,h,0,0,0,0,103,103,0,0,0,103,103,103,0,103,103,103,9/20/21 12:08,600,The main experiment item,yes,FlankerTask.osexp,C:\Users\Brian\Desktop\College - Graduate\Graduate Work\Advanced Quant,no,mono,no,18,no,white,no,yes,768,legacy,23,79,C:/Users/Brian/Desktop/College - Graduate/Graduate Work/Advanced Quant/BK-subject-1.csv,legacy,Kafkaesque Koffka,3.2.8,0,h,NA,h,h,NA,h,573,NA,8898,17436,NA,573,2,legacy,1024,2,48000,-16,experiment,1,odd,11370,168050,NA,NA,208137,207065,2471,150612,NA,208135,208240,200877,2462,203232,208240,208814,Flanker Task,94,51850,104,yes,1024
congruent,HHHHH,90.47619048,90.47619048,497.8285714,497.8285714,black,legacy,legacy,legacy,0,uniform,1,undefined,1,h,0,0,0,0,104,104,0,0,0,104,104,104,0,104,104,104,9/20/21 12:08,600,The main experiment item,yes,FlankerTask.osexp,C:\Users\Brian\Desktop\College - Graduate\Graduate Work\Advanced Quant,no,mono,no,18,no,white,no,yes,768,legacy,24,79,C:/Users/Brian/Desktop/College - Graduate/Graduate Work/Advanced Quant/BK-subject-1.csv,legacy,Kafkaesque Koffka,3.2.8,0,h,NA,h,h,NA,h,422,NA,8898,17436,NA,422,2,legacy,1024,2,48000,-16,experiment,1,odd,11370,168050,NA,NA,209891,208818,2471,150612,NA,209889,209994,200877,2462,203232,209994,210417,Flanker Task,95,52272,105,yes,1024
congruent,SSSSS,90.56603774,90.56603774,497.3396226,497.3396226,black,legacy,legacy,legacy,0,uniform,1,undefined,1,s,0,0,0,0,105,105,0,0,0,105,105,105,0,105,105,105,9/20/21 12:08,600,The main experiment item,yes,FlankerTask.osexp,C:\Users\Brian\Desktop\College - Graduate\Graduate Work\Advanced Quant,no,mono,no,18,no,white,no,yes,768,legacy,25,79,C:/Users/Brian/Desktop/College - Graduate/Graduate Work/Advanced Quant/BK-subject-1.csv,legacy,Kafkaesque Koffka,3.2.8,0,s,NA,h,h,NA,s,446,NA,8898,17436,NA,446,2,legacy,1024,2,48000,-16,experiment,1,odd,11370,168050,NA,NA,211504,210426,2471,150612,NA,211501,211607,200877,2462,203232,211607,212055,Flanker Task,96,52718,106,yes,1024
incongruent,SSHSS,89.71962617,89.71962617,496.4299065,496.4299065,black,legacy,legacy,legacy,0,uniform,0,undefined,0,h,0,0,0,0,106,106,0,0,0,106,106,106,0,106,106,106,9/20/21 12:08,600,The main experiment item,yes,FlankerTask.osexp,C:\Users\Brian\Desktop\College - Graduate\Graduate Work\Advanced Quant,no,mono,no,18,no,white,no,yes,768,legacy,26,79,C:/Users/Brian/Desktop/College - Graduate/Graduate Work/Advanced Quant/BK-subject-1.csv,legacy,Kafkaesque Koffka,3.2.8,0,s,NA,h,h,NA,s,400,NA,8898,17436,NA,400,2,legacy,1024,2,48000,-16,experiment,1,odd,11370,168050,NA,NA,213151,212064,2471,150612,NA,213149,213253,200877,2462,203232,213253,213654,Flanker Task,96,53118,107,yes,1024
incongruent,HHSHH,89.81481481,89.81481481,496.3333333,496.3333333,black,legacy,legacy,legacy,0,uniform,1,undefined,1,s,0,0,0,0,107,107,0,0,0,107,107,107,0,107,107,107,9/20/21 12:08,600,The main experiment item,yes,FlankerTask.osexp,C:\Users\Brian\Desktop\College - Graduate\Graduate Work\Advanced Quant,no,mono,no,18,no,white,no,yes,768,legacy,27,79,C:/Users/Brian/Desktop/College - Graduate/Graduate Work/Advanced Quant/BK-subject-1.csv,legacy,Kafkaesque Koffka,3.2.8,0,s,NA,h,h,NA,s,486,NA,8898,17436,NA,486,2,legacy,1024,2,48000,-16,experiment,1,odd,11370,168050,NA,NA,215238,214165,2471,150612,NA,215236,215341,213662,2462,203232,215341,215828,Flanker Task,97,53604,108,yes,1024
incongruent,HHSHH,89.90825688,89.90825688,495.4036697,495.4036697,black,legacy,legacy,legacy,0,uniform,1,undefined,1,s,0,0,0,0,108,108,0,0,0,108,108,108,0,108,108,108,9/20/21 12:08,600,The main experiment item,yes,FlankerTask.osexp,C:\Users\Brian\Desktop\College - Graduate\Graduate Work\Advanced Quant,no,mono,no,18,no,white,no,yes,768,legacy,28,79,C:/Users/Brian/Desktop/College - Graduate/Graduate Work/Advanced Quant/BK-subject-1.csv,legacy,Kafkaesque Koffka,3.2.8,0,s,NA,h,h,NA,s,395,NA,8898,17436,NA,395,2,legacy,1024,2,48000,-16,experiment,1,odd,11370,168050,NA,NA,216907,215836,2471,150612,NA,216906,217010,213662,2462,203232,217010,217407,Flanker Task,98,53999,109,yes,1024
incongruent,HHSHH,90,90,494.3363636,494.3363636,black,legacy,legacy,legacy,0,uniform,1,undefined,1,s,0,0,0,0,109,109,0,0,0,109,109,109,0,109,109,109,9/20/21 12:08,600,The main experiment item,yes,FlankerTask.osexp,C:\Users\Brian\Desktop\College - Graduate\Graduate Work\Advanced Quant,no,mono,no,18,no,white,no,yes,768,legacy,29,79,C:/Users/Brian/Desktop/College - Graduate/Graduate Work/Advanced Quant/BK-subject-1.csv,legacy,Kafkaesque Koffka,3.2.8,0,s,NA,h,h,NA,s,378,NA,8898,17436,NA,378,2,legacy,1024,2,48000,-16,experiment,1,odd,11370,168050,NA,NA,218493,217416,2471,150612,NA,218491,218596,213662,2462,203232,218596,218975,Flanker Task,99,54377,110,yes,1024
incongruent,SSHSS,89.18918919,89.18918919,493.4954955,493.4954955,black,legacy,legacy,legacy,0,uniform,0,undefined,0,h,0,0,0,0,110,110,0,0,0,110,110,110,0,110,110,110,9/20/21 12:08,600,The main experiment item,yes,FlankerTask.osexp,C:\Users\Brian\Desktop\College - Graduate\Graduate Work\Advanced Quant,no,mono,no,18,no,white,no,yes,768,legacy,30,79,C:/Users/Brian/Desktop/College - Graduate/Graduate Work/Advanced Quant/BK-subject-1.csv,legacy,Kafkaesque Koffka,3.2.8,0,s,NA,h,h,NA,s,401,NA,8898,17436,NA,401,2,legacy,1024,2,48000,-16,experiment,1,odd,11370,168050,NA,NA,220062,218984,2471,150612,NA,220060,220165,213662,2462,203232,220165,220567,Flanker Task,99,54778,111,yes,1024
incongruent,SSHSS,89.28571429,89.28571429,494.4017857,494.4017857,black,legacy,legacy,legacy,0,uniform,1,undefined,1,h,0,0,0,0,111,111,0,0,0,111,111,111,0,111,111,111,9/20/21 12:08,600,The main experiment item,yes,FlankerTask.osexp,C:\Users\Brian\Desktop\College - Graduate\Graduate Work\Advanced Quant,no,mono,no,18,no,white,no,yes,768,legacy,31,79,C:/Users/Brian/Desktop/College - Graduate/Graduate Work/Advanced Quant/BK-subject-1.csv,legacy,Kafkaesque Koffka,3.2.8,0,h,NA,h,h,NA,h,595,NA,8898,17436,NA,595,2,legacy,1024,2,48000,-16,experiment,1,odd,11370,168050,NA,NA,222153,221078,2471,150612,NA,222151,222256,220575,2462,203232,222256,222852,Flanker Task,100,55373,112,yes,1024
congruent,SSSSS,89.38053097,89.38053097,493.9292035,493.9292035,black,legacy,legacy,legacy,0,uniform,1,undefined,1,s,0,0,0,0,112,112,0,0,0,112,112,112,0,112,112,112,9/20/21 12:08,600,The main experiment item,yes,FlankerTask.osexp,C:\Users\Brian\Desktop\College - Graduate\Graduate Work\Advanced Quant,no,mono,no,18,no,white,no,yes,768,legacy,32,79,C:/Users/Brian/Desktop/College - Graduate/Graduate Work/Advanced Quant/BK-subject-1.csv,legacy,Kafkaesque Koffka,3.2.8,0,s,NA,h,h,NA,s,441,NA,8898,17436,NA,441,2,legacy,1024,2,48000,-16,experiment,1,odd,11370,168050,NA,NA,223934,222860,2471,150612,NA,223932,224037,220575,2462,203232,224037,224480,Flanker Task,101,55814,113,yes,1024
congruent,SSSSS,89.47368421,89.47368421,494.1491228,494.1491228,black,legacy,legacy,legacy,0,uniform,1,undefined,1,s,0,0,0,0,113,113,0,0,0,113,113,113,0,113,113,113,9/20/21 12:08,600,The main experiment item,yes,FlankerTask.osexp,C:\Users\Brian\Desktop\College - Graduate\Graduate Work\Advanced Quant,no,mono,no,18,no,white,no,yes,768,legacy,33,79,C:/Users/Brian/Desktop/College - Graduate/Graduate Work/Advanced Quant/BK-subject-1.csv,legacy,Kafkaesque Koffka,3.2.8,0,s,NA,h,h,NA,s,519,NA,8898,17436,NA,519,2,legacy,1024,2,48000,-16,experiment,1,odd,11370,168050,NA,NA,225565,224489,2471,150612,NA,225563,225668,220575,2462,203232,225668,226188,Flanker Task,102,56333,114,yes,1024
incongruent,HHSHH,88.69565217,88.69565217,494.0782609,494.0782609,black,legacy,legacy,legacy,0,uniform,0,undefined,0,s,0,0,0,0,114,114,0,0,0,114,114,114,0,114,114,114,9/20/21 12:08,600,The main experiment item,yes,FlankerTask.osexp,C:\Users\Brian\Desktop\College - Graduate\Graduate Work\Advanced Quant,no,mono,no,18,no,white,no,yes,768,legacy,34,79,C:/Users/Brian/Desktop/College - Graduate/Graduate Work/Advanced Quant/BK-subject-1.csv,legacy,Kafkaesque Koffka,3.2.8,0,h,NA,h,h,NA,h,486,NA,8898,17436,NA,486,2,legacy,1024,2,48000,-16,experiment,1,odd,11370,168050,NA,NA,227265,226192,2471,150612,NA,227263,227368,220575,2462,203232,227368,227856,Flanker Task,102,56819,115,yes,1024
congruent,SSSSS,88.79310345,88.79310345,493.9655172,493.9655172,black,legacy,legacy,legacy,0,uniform,1,undefined,1,s,0,0,0,0,115,115,0,0,0,115,115,115,0,115,115,115,9/20/21 12:08,600,The main experiment item,yes,FlankerTask.osexp,C:\Users\Brian\Desktop\College - Graduate\Graduate Work\Advanced Quant,no,mono,no,18,no,white,no,yes,768,legacy,35,79,C:/Users/Brian/Desktop/College - Graduate/Graduate Work/Advanced Quant/BK-subject-1.csv,legacy,Kafkaesque Koffka,3.2.8,0,s,NA,h,h,NA,s,481,NA,8898,17436,NA,481,2,legacy,1024,2,48000,-16,experiment,1,odd,11370,168050,NA,NA,229430,228362,2471,150612,NA,229428,229533,227860,2462,203232,229533,230015,Flanker Task,103,57300,116,yes,1024
incongruent,SSHSS,88.88888889,88.88888889,494.2051282,494.2051282,black,legacy,legacy,legacy,0,uniform,1,undefined,1,h,0,0,0,0,116,116,0,0,0,116,116,116,0,116,116,116,9/20/21 12:08,600,The main experiment item,yes,FlankerTask.osexp,C:\Users\Brian\Desktop\College - Graduate\Graduate Work\Advanced Quant,no,mono,no,18,no,white,no,yes,768,legacy,36,79,C:/Users/Brian/Desktop/College - Graduate/Graduate Work/Advanced Quant/BK-subject-1.csv,legacy,Kafkaesque Koffka,3.2.8,0,h,NA,h,h,NA,h,522,NA,8898,17436,NA,522,2,legacy,1024,2,48000,-16,experiment,1,odd,11370,168050,NA,NA,231102,230024,2471,150612,NA,231100,231205,227860,2462,203232,231205,231728,Flanker Task,104,57822,117,yes,1024
incongruent,HHSHH,88.98305085,88.98305085,493.7966102,493.7966102,black,legacy,legacy,legacy,0,uniform,1,undefined,1,s,0,0,0,0,117,117,0,0,0,117,117,117,0,117,117,117,9/20/21 12:08,600,The main experiment item,yes,FlankerTask.osexp,C:\Users\Brian\Desktop\College - Graduate\Graduate Work\Advanced Quant,no,mono,no,18,no,white,no,yes,768,legacy,37,79,C:/Users/Brian/Desktop/College - Graduate/Graduate Work/Advanced Quant/BK-subject-1.csv,legacy,Kafkaesque Koffka,3.2.8,0,s,NA,h,h,NA,s,446,NA,8898,17436,NA,446,2,legacy,1024,2,48000,-16,experiment,1,odd,11370,168050,NA,NA,232810,231736,2471,150612,NA,232808,232913,227860,2462,203232,232913,233361,Flanker Task,105,58268,118,yes,1024
congruent,SSSSS,89.07563025,89.07563025,493.4789916,493.4789916,black,legacy,legacy,legacy,0,uniform,1,undefined,1,s,0,0,0,0,118,118,0,0,0,118,118,118,0,118,118,118,9/20/21 12:08,600,The main experiment item,yes,FlankerTask.osexp,C:\Users\Brian\Desktop\College - Graduate\Graduate Work\Advanced Quant,no,mono,no,18,no,white,no,yes,768,legacy,38,79,C:/Users/Brian/Desktop/College - Graduate/Graduate Work/Advanced Quant/BK-subject-1.csv,legacy,Kafkaesque Koffka,3.2.8,0,s,NA,h,h,NA,s,456,NA,8898,17436,NA,456,2,legacy,1024,2,48000,-16,experiment,1,odd,11370,168050,NA,NA,234443,233370,2471,150612,NA,234442,234547,227860,2462,203232,234547,235004,Flanker Task,106,58724,119,yes,1024
congruent,SSSSS,89.16666667,89.16666667,492.9833333,492.9833333,black,legacy,legacy,legacy,0,uniform,1,undefined,1,s,0,0,0,0,119,119,0,0,0,119,119,119,0,119,119,119,9/20/21 12:08,600,The main experiment item,yes,FlankerTask.osexp,C:\Users\Brian\Desktop\College - Graduate\Graduate Work\Advanced Quant,no,mono,no,18,no,white,no,yes,768,legacy,39,79,C:/Users/Brian/Desktop/College - Graduate/Graduate Work/Advanced Quant/BK-subject-1.csv,legacy,Kafkaesque Koffka,3.2.8,0,s,NA,h,h,NA,s,434,NA,8898,17436,NA,434,2,legacy,1024,2,48000,-16,experiment,1,odd,11370,168050,NA,NA,236093,235012,2471,150612,NA,236091,236196,227860,2462,203232,236196,236631,Flanker Task,107,59158,120,yes,1024
congruent,HHHHH,89.25619835,89.25619835,492.9090909,492.9090909,black,legacy,legacy,legacy,0,uniform,1,undefined,1,h,0,0,0,0,120,120,0,0,0,120,120,120,0,120,120,120,9/20/21 12:08,600,The main experiment item,yes,FlankerTask.osexp,C:\Users\Brian\Desktop\College - Graduate\Graduate Work\Advanced Quant,no,mono,no,18,no,white,no,yes,768,legacy,40,79,C:/Users/Brian/Desktop/College - Graduate/Graduate Work/Advanced Quant/BK-subject-1.csv,legacy,Kafkaesque Koffka,3.2.8,0,h,NA,h,h,NA,h,484,NA,8898,17436,NA,484,2,legacy,1024,2,48000,-16,experiment,1,odd,11370,168050,NA,NA,237722,236639,2471,150612,NA,237720,237824,227860,2462,203232,237824,238310,Flanker Task,108,59642,121,yes,1024
congruent,HHHHH,89.3442623,89.3442623,492.5655738,492.5655738,black,legacy,legacy,legacy,0,uniform,1,undefined,1,h,0,0,0,0,121,121,0,0,0,121,121,121,0,121,121,121,9/20/21 12:08,600,The main experiment item,yes,FlankerTask.osexp,C:\Users\Brian\Desktop\College - Graduate\Graduate Work\Advanced Quant,no,mono,no,18,no,white,no,yes,768,legacy,41,79,C:/Users/Brian/Desktop/College - Graduate/Graduate Work/Advanced Quant/BK-subject-1.csv,legacy,Kafkaesque Koffka,3.2.8,0,h,NA,h,h,NA,h,451,NA,8898,17436,NA,451,2,legacy,1024,2,48000,-16,experiment,1,odd,11370,168050,NA,NA,239392,238319,2471,150612,NA,239390,239495,227860,2462,203232,239495,239947,Flanker Task,109,60093,122,yes,1024
congruent,HHHHH,89.43089431,89.43089431,492.1626016,492.1626016,black,legacy,legacy,legacy,0,uniform,1,undefined,1,h,0,0,0,0,122,122,0,0,0,122,122,122,0,122,122,122,9/20/21 12:08,600,The main experiment item,yes,FlankerTask.osexp,C:\Users\Brian\Desktop\College - Graduate\Graduate Work\Advanced Quant,no,mono,no,18,no,white,no,yes,768,legacy,42,79,C:/Users/Brian/Desktop/College - Graduate/Graduate Work/Advanced Quant/BK-subject-1.csv,legacy,Kafkaesque Koffka,3.2.8,0,h,NA,h,h,NA,h,443,NA,8898,17436,NA,443,2,legacy,1024,2,48000,-16,experiment,1,odd,11370,168050,NA,NA,241032,239955,2471,150612,NA,241030,241135,227860,2462,203232,241135,241580,Flanker Task,110,60536,123,yes,1024
congruent,HHHHH,89.51612903,89.51612903,491.8629032,491.8629032,black,legacy,legacy,legacy,0,uniform,1,undefined,1,h,0,0,0,0,123,123,0,0,0,123,123,123,0,123,123,123,9/20/21 12:08,600,The main experiment item,yes,FlankerTask.osexp,C:\Users\Brian\Desktop\College - Graduate\Graduate Work\Advanced Quant,no,mono,no,18,no,white,no,yes,768,legacy,43,79,C:/Users/Brian/Desktop/College - Graduate/Graduate Work/Advanced Quant/BK-subject-1.csv,legacy,Kafkaesque Koffka,3.2.8,0,h,NA,h,h,NA,h,455,NA,8898,17436,NA,455,2,legacy,1024,2,48000,-16,experiment,1,odd,11370,168050,NA,NA,242663,241585,2471,150612,NA,242661,242766,227860,2462,203232,242766,243223,Flanker Task,111,60991,124,yes,1024
congruent,HHHHH,89.6,89.6,491.328,491.328,black,legacy,legacy,legacy,0,uniform,1,undefined,1,h,0,0,0,0,124,124,0,0,0,124,124,124,0,124,124,124,9/20/21 12:08,600,The main experiment item,yes,FlankerTask.osexp,C:\Users\Brian\Desktop\College - Graduate\Graduate Work\Advanced Quant,no,mono,no,18,no,white,no,yes,768,legacy,44,79,C:/Users/Brian/Desktop/College - Graduate/Graduate Work/Advanced Quant/BK-subject-1.csv,legacy,Kafkaesque Koffka,3.2.8,0,h,NA,h,h,NA,h,425,NA,8898,17436,NA,425,2,legacy,1024,2,48000,-16,experiment,1,odd,11370,168050,NA,NA,244308,243232,2471,150612,NA,244306,244409,227860,2462,203232,244409,244837,Flanker Task,112,61416,125,yes,1024
incongruent,HHSHH,89.68253968,89.68253968,492.4206349,492.4206349,black,legacy,legacy,legacy,0,uniform,1,undefined,1,s,0,0,0,0,125,125,0,0,0,125,125,125,0,125,125,125,9/20/21 12:08,600,The main experiment item,yes,FlankerTask.osexp,C:\Users\Brian\Desktop\College - Graduate\Graduate Work\Advanced Quant,no,mono,no,18,no,white,no,yes,768,legacy,45,79,C:/Users/Brian/Desktop/College - Graduate/Graduate Work/Advanced Quant/BK-subject-1.csv,legacy,Kafkaesque Koffka,3.2.8,0,s,NA,h,h,NA,s,629,NA,8898,17436,NA,629,2,legacy,1024,2,48000,-16,experiment,1,odd,11370,168050,NA,NA,245924,244846,2471,150612,NA,245922,246027,227860,2462,203232,246027,246658,Flanker Task,113,62045,126,yes,1024
incongruent,SSHSS,88.97637795,88.97637795,492.4409449,492.4409449,black,legacy,legacy,legacy,0,uniform,0,undefined,0,h,0,0,0,0,126,126,0,0,0,126,126,126,0,126,126,126,9/20/21 12:08,600,The main experiment item,yes,FlankerTask.osexp,C:\Users\Brian\Desktop\College - Graduate\Graduate Work\Advanced Quant,no,mono,no,18,no,white,no,yes,768,legacy,46,79,C:/Users/Brian/Desktop/College - Graduate/Graduate Work/Advanced Quant/BK-subject-1.csv,legacy,Kafkaesque Koffka,3.2.8,0,s,NA,h,h,NA,s,495,NA,8898,17436,NA,495,2,legacy,1024,2,48000,-16,experiment,1,odd,11370,168050,NA,NA,248239,247169,2471,150612,NA,248237,248342,227860,2462,246667,248342,248839,Flanker Task,113,62540,127,yes,1024
incongruent,HHSHH,89.0625,89.0625,492.296875,492.296875,black,legacy,legacy,legacy,0,uniform,1,undefined,1,s,0,0,0,0,127,127,0,0,0,127,127,127,0,127,127,127,9/20/21 12:08,600,The main experiment item,yes,FlankerTask.osexp,C:\Users\Brian\Desktop\College - Graduate\Graduate Work\Advanced Quant,no,mono,no,18,no,white,no,yes,768,legacy,47,79,C:/Users/Brian/Desktop/College - Graduate/Graduate Work/Advanced Quant/BK-subject-1.csv,legacy,Kafkaesque Koffka,3.2.8,0,s,NA,h,h,NA,s,474,NA,8898,17436,NA,474,2,legacy,1024,2,48000,-16,experiment,1,odd,11370,168050,NA,NA,250425,249351,2471,150612,NA,250423,250528,248848,2462,246667,250528,251004,Flanker Task,114,63014,128,yes,1024
congruent,SSSSS,89.14728682,89.14728682,491.8217054,491.8217054,black,legacy,legacy,legacy,0,uniform,1,undefined,1,s,0,0,0,0,128,128,0,0,0,128,128,128,0,128,128,128,9/20/21 12:08,600,The main experiment item,yes,FlankerTask.osexp,C:\Users\Brian\Desktop\College - Graduate\Graduate Work\Advanced Quant,no,mono,no,18,no,white,no,yes,768,legacy,48,79,C:/Users/Brian/Desktop/College - Graduate/Graduate Work/Advanced Quant/BK-subject-1.csv,legacy,Kafkaesque Koffka,3.2.8,0,s,NA,h,h,NA,s,431,NA,8898,17436,NA,431,2,legacy,1024,2,48000,-16,experiment,1,odd,11370,168050,NA,NA,252084,251012,2471,150612,NA,252083,252188,248848,2462,246667,252188,252622,Flanker Task,115,63445,129,yes,1024
incongruent,SSHSS,88.46153846,88.46153846,490.8,490.8,black,legacy,legacy,legacy,0,uniform,0,undefined,0,h,0,0,0,0,129,129,0,0,0,129,129,129,0,129,129,129,9/20/21 12:08,600,The main experiment item,yes,FlankerTask.osexp,C:\Users\Brian\Desktop\College - Graduate\Graduate Work\Advanced Quant,no,mono,no,18,no,white,no,yes,768,legacy,49,79,C:/Users/Brian/Desktop/College - Graduate/Graduate Work/Advanced Quant/BK-subject-1.csv,legacy,Kafkaesque Koffka,3.2.8,0,s,NA,h,h,NA,s,359,NA,8898,17436,NA,359,2,legacy,1024,2,48000,-16,experiment,1,odd,11370,168050,NA,NA,253701,252630,2471,150612,NA,253699,253804,248848,2462,246667,253804,254165,Flanker Task,115,63804,130,yes,1024
incongruent,HHSHH,88.54961832,88.54961832,490.7633588,490.7633588,black,legacy,legacy,legacy,0,uniform,1,undefined,1,s,0,0,0,0,130,130,0,0,0,130,130,130,0,130,130,130,9/20/21 12:08,600,The main experiment item,yes,FlankerTask.osexp,C:\Users\Brian\Desktop\College - Graduate\Graduate Work\Advanced Quant,no,mono,no,18,no,white,no,yes,768,legacy,50,79,C:/Users/Brian/Desktop/College - Graduate/Graduate Work/Advanced Quant/BK-subject-1.csv,legacy,Kafkaesque Koffka,3.2.8,0,s,NA,h,h,NA,s,486,NA,8898,17436,NA,486,2,legacy,1024,2,48000,-16,experiment,1,odd,11370,168050,NA,NA,255749,254676,2471,150612,NA,255747,255852,254173,2462,246667,255852,256340,Flanker Task,116,64290,131,yes,1024
congruent,SSSSS,88.63636364,88.63636364,490.219697,490.219697,black,legacy,legacy,legacy,0,uniform,1,undefined,1,s,0,0,0,0,131,131,0,0,0,131,131,131,0,131,131,131,9/20/21 12:08,600,The main experiment item,yes,FlankerTask.osexp,C:\Users\Brian\Desktop\College - Graduate\Graduate Work\Advanced Quant,no,mono,no,18,no,white,no,yes,768,legacy,51,79,C:/Users/Brian/Desktop/College - Graduate/Graduate Work/Advanced Quant/BK-subject-1.csv,legacy,Kafkaesque Koffka,3.2.8,0,s,NA,h,h,NA,s,419,NA,8898,17436,NA,419,2,legacy,1024,2,48000,-16,experiment,1,odd,11370,168050,NA,NA,257419,256344,2471,150612,NA,257416,257522,254173,2462,246667,257522,257944,Flanker Task,117,64709,132,yes,1024
congruent,SSSSS,88.72180451,88.72180451,489.3007519,489.3007519,black,legacy,legacy,legacy,0,uniform,1,undefined,1,s,0,0,0,0,132,132,0,0,0,132,132,132,0,132,132,132,9/20/21 12:08,600,The main experiment item,yes,FlankerTask.osexp,C:\Users\Brian\Desktop\College - Graduate\Graduate Work\Advanced Quant,no,mono,no,18,no,white,no,yes,768,legacy,52,79,C:/Users/Brian/Desktop/College - Graduate/Graduate Work/Advanced Quant/BK-subject-1.csv,legacy,Kafkaesque Koffka,3.2.8,0,s,NA,h,h,NA,s,368,NA,8898,17436,NA,368,2,legacy,1024,2,48000,-16,experiment,1,odd,11370,168050,NA,NA,259021,257948,2471,150612,NA,259019,259123,254173,2462,246667,259123,259493,Flanker Task,118,65077,133,yes,1024
congruent,SSSSS,88.80597015,88.80597015,490.1044776,490.1044776,black,legacy,legacy,legacy,0,uniform,1,undefined,1,s,0,0,0,0,133,133,0,0,0,133,133,133,0,133,133,133,9/20/21 12:08,600,The main experiment item,yes,FlankerTask.osexp,C:\Users\Brian\Desktop\College - Graduate\Graduate Work\Advanced Quant,no,mono,no,18,no,white,no,yes,768,legacy,53,79,C:/Users/Brian/Desktop/College - Graduate/Graduate Work/Advanced Quant/BK-subject-1.csv,legacy,Kafkaesque Koffka,3.2.8,0,s,NA,h,h,NA,s,597,NA,8898,17436,NA,597,2,legacy,1024,2,48000,-16,experiment,1,odd,11370,168050,NA,NA,260583,259502,2471,150612,NA,260581,260686,254173,2462,246667,260686,261285,Flanker Task,119,65674,134,yes,1024
congruent,SSSSS,88.88888889,88.88888889,489.1851852,489.1851852,black,legacy,legacy,legacy,0,uniform,1,undefined,1,s,0,0,0,0,134,134,0,0,0,134,134,134,0,134,134,134,9/20/21 12:08,600,The main experiment item,yes,FlankerTask.osexp,C:\Users\Brian\Desktop\College - Graduate\Graduate Work\Advanced Quant,no,mono,no,18,no,white,no,yes,768,legacy,54,79,C:/Users/Brian/Desktop/College - Graduate/Graduate Work/Advanced Quant/BK-subject-1.csv,legacy,Kafkaesque Koffka,3.2.8,0,s,NA,h,h,NA,s,366,NA,8898,17436,NA,366,2,legacy,1024,2,48000,-16,experiment,1,odd,11370,168050,NA,NA,262361,261289,2471,150612,NA,262359,262464,254173,2462,246667,262464,262832,Flanker Task,120,66040,135,yes,1024
incongruent,SSHSS,88.97058824,88.97058824,488.6470588,488.6470588,black,legacy,legacy,legacy,0,uniform,1,undefined,1,h,0,0,0,0,135,135,0,0,0,135,135,135,0,135,135,135,9/20/21 12:08,600,The main experiment item,yes,FlankerTask.osexp,C:\Users\Brian\Desktop\College - Graduate\Graduate Work\Advanced Quant,no,mono,no,18,no,white,no,yes,768,legacy,55,79,C:/Users/Brian/Desktop/College - Graduate/Graduate Work/Advanced Quant/BK-subject-1.csv,legacy,Kafkaesque Koffka,3.2.8,0,h,NA,h,h,NA,h,416,NA,8898,17436,NA,416,2,legacy,1024,2,48000,-16,experiment,1,odd,11370,168050,NA,NA,263915,262840,2471,150612,NA,263913,264018,254173,2462,246667,264018,264435,Flanker Task,121,66456,136,yes,1024
incongruent,SSHSS,89.05109489,89.05109489,488.2846715,488.2846715,black,legacy,legacy,legacy,0,uniform,1,undefined,1,h,0,0,0,0,136,136,0,0,0,136,136,136,0,136,136,136,9/20/21 12:08,600,The main experiment item,yes,FlankerTask.osexp,C:\Users\Brian\Desktop\College - Graduate\Graduate Work\Advanced Quant,no,mono,no,18,no,white,no,yes,768,legacy,56,79,C:/Users/Brian/Desktop/College - Graduate/Graduate Work/Advanced Quant/BK-subject-1.csv,legacy,Kafkaesque Koffka,3.2.8,0,h,NA,h,h,NA,h,439,NA,8898,17436,NA,439,2,legacy,1024,2,48000,-16,experiment,1,odd,11370,168050,NA,NA,265519,264443,2471,150612,NA,265517,265622,254173,2462,246667,265622,266064,Flanker Task,122,66895,137,yes,1024
incongruent,SSHSS,89.13043478,89.13043478,488.0217391,488.0217391,black,legacy,legacy,legacy,0,uniform,1,undefined,1,h,0,0,0,0,137,137,0,0,0,137,137,137,0,137,137,137,9/20/21 12:08,600,The main experiment item,yes,FlankerTask.osexp,C:\Users\Brian\Desktop\College - Graduate\Graduate Work\Advanced Quant,no,mono,no,18,no,white,no,yes,768,legacy,57,79,C:/Users/Brian/Desktop/College - Graduate/Graduate Work/Advanced Quant/BK-subject-1.csv,legacy,Kafkaesque Koffka,3.2.8,0,h,NA,h,h,NA,h,452,NA,8898,17436,NA,452,2,legacy,1024,2,48000,-16,experiment,1,odd,11370,168050,NA,NA,267143,266068,2471,150612,NA,267141,267247,254173,2462,246667,267247,267701,Flanker Task,123,67347,138,yes,1024
incongruent,SSHSS,89.20863309,89.20863309,487.7769784,487.7769784,black,legacy,legacy,legacy,0,uniform,1,undefined,1,h,0,0,0,0,138,138,0,0,0,138,138,138,0,138,138,138,9/20/21 12:08,600,The main experiment item,yes,FlankerTask.osexp,C:\Users\Brian\Desktop\College - Graduate\Graduate Work\Advanced Quant,no,mono,no,18,no,white,no,yes,768,legacy,58,79,C:/Users/Brian/Desktop/College - Graduate/Graduate Work/Advanced Quant/BK-subject-1.csv,legacy,Kafkaesque Koffka,3.2.8,0,h,NA,h,h,NA,h,454,NA,8898,17436,NA,454,2,legacy,1024,2,48000,-16,experiment,1,odd,11370,168050,NA,NA,268791,267709,2471,150612,NA,268789,268894,254173,2462,246667,268894,269349,Flanker Task,124,67801,139,yes,1024
incongruent,SSHSS,89.28571429,89.28571429,486.7357143,486.7357143,black,legacy,legacy,legacy,0,uniform,1,undefined,1,h,0,0,0,0,139,139,0,0,0,139,139,139,0,139,139,139,9/20/21 12:08,600,The main experiment item,yes,FlankerTask.osexp,C:\Users\Brian\Desktop\College - Graduate\Graduate Work\Advanced Quant,no,mono,no,18,no,white,no,yes,768,legacy,59,79,C:/Users/Brian/Desktop/College - Graduate/Graduate Work/Advanced Quant/BK-subject-1.csv,legacy,Kafkaesque Koffka,3.2.8,0,h,NA,h,h,NA,h,342,NA,8898,17436,NA,342,2,legacy,1024,2,48000,-16,experiment,1,odd,11370,168050,NA,NA,270435,269357,2471,150612,NA,270433,270537,254173,2462,246667,270538,270883,Flanker Task,125,68143,140,yes,1024
congruent,SSSSS,89.36170213,89.36170213,485.4893617,485.4893617,black,legacy,legacy,legacy,0,uniform,1,undefined,1,s,0,0,0,0,140,140,0,0,0,140,140,140,0,140,140,140,9/20/21 12:08,600,The main experiment item,yes,FlankerTask.osexp,C:\Users\Brian\Desktop\College - Graduate\Graduate Work\Advanced Quant,no,mono,no,18,no,white,no,yes,768,legacy,60,79,C:/Users/Brian/Desktop/College - Graduate/Graduate Work/Advanced Quant/BK-subject-1.csv,legacy,Kafkaesque Koffka,3.2.8,0,s,NA,h,h,NA,s,311,NA,8898,17436,NA,311,2,legacy,1024,2,48000,-16,experiment,1,odd,11370,168050,NA,NA,271971,270892,2471,150612,NA,271969,272074,254173,2462,246667,272074,272387,Flanker Task,126,68454,141,yes,1024
incongruent,HHSHH,89.43661972,89.43661972,485.028169,485.028169,black,legacy,legacy,legacy,0,uniform,1,undefined,1,s,0,0,0,0,141,141,0,0,0,141,141,141,0,141,141,141,9/20/21 12:08,600,The main experiment item,yes,FlankerTask.osexp,C:\Users\Brian\Desktop\College - Graduate\Graduate Work\Advanced Quant,no,mono,no,18,no,white,no,yes,768,legacy,61,79,C:/Users/Brian/Desktop/College - Graduate/Graduate Work/Advanced Quant/BK-subject-1.csv,legacy,Kafkaesque Koffka,3.2.8,0,s,NA,h,h,NA,s,420,NA,8898,17436,NA,420,2,legacy,1024,2,48000,-16,experiment,1,odd,11370,168050,NA,NA,273468,272396,2471,150612,NA,273466,273571,254173,2462,246667,273571,273993,Flanker Task,127,68874,142,yes,1024
congruent,HHHHH,89.51048951,89.51048951,484.7202797,484.7202797,black,legacy,legacy,legacy,0,uniform,1,undefined,1,h,0,0,0,0,142,142,0,0,0,142,142,142,0,142,142,142,9/20/21 12:08,600,The main experiment item,yes,FlankerTask.osexp,C:\Users\Brian\Desktop\College - Graduate\Graduate Work\Advanced Quant,no,mono,no,18,no,white,no,yes,768,legacy,62,79,C:/Users/Brian/Desktop/College - Graduate/Graduate Work/Advanced Quant/BK-subject-1.csv,legacy,Kafkaesque Koffka,3.2.8,0,h,NA,h,h,NA,h,441,NA,8898,17436,NA,441,2,legacy,1024,2,48000,-16,experiment,1,odd,11370,168050,NA,NA,275076,274001,2471,150612,NA,275074,275179,254173,2462,246667,275179,275622,Flanker Task,128,69315,143,yes,1024
incongruent,SSHSS,89.58333333,89.58333333,485.7083333,485.7083333,black,legacy,legacy,legacy,0,uniform,1,undefined,1,h,0,0,0,0,143,143,0,0,0,143,143,143,0,143,143,143,9/20/21 12:08,600,The main experiment item,yes,FlankerTask.osexp,C:\Users\Brian\Desktop\College - Graduate\Graduate Work\Advanced Quant,no,mono,no,18,no,white,no,yes,768,legacy,63,79,C:/Users/Brian/Desktop/College - Graduate/Graduate Work/Advanced Quant/BK-subject-1.csv,legacy,Kafkaesque Koffka,3.2.8,0,h,NA,h,h,NA,h,627,NA,8898,17436,NA,627,2,legacy,1024,2,48000,-16,experiment,1,odd,11370,168050,NA,NA,276709,275631,2471,150612,NA,276707,276810,254173,2462,246667,276810,277440,Flanker Task,129,69942,144,yes,1024
congruent,SSSSS,89.65517241,89.65517241,485.4,485.4,black,legacy,legacy,legacy,0,uniform,1,undefined,1,s,0,0,0,0,144,144,0,0,0,144,144,144,0,144,144,144,9/20/21 12:08,600,The main experiment item,yes,FlankerTask.osexp,C:\Users\Brian\Desktop\College - Graduate\Graduate Work\Advanced Quant,no,mono,no,18,no,white,no,yes,768,legacy,64,79,C:/Users/Brian/Desktop/College - Graduate/Graduate Work/Advanced Quant/BK-subject-1.csv,legacy,Kafkaesque Koffka,3.2.8,0,s,NA,h,h,NA,s,441,NA,8898,17436,NA,441,2,legacy,1024,2,48000,-16,experiment,1,odd,11370,168050,NA,NA,279018,277949,2471,150612,NA,279016,279121,254173,2462,277448,279121,279564,Flanker Task,130,70383,145,yes,1024
incongruent,HHSHH,89.7260274,89.7260274,485.1369863,485.1369863,black,legacy,legacy,legacy,0,uniform,1,undefined,1,s,0,0,0,0,145,145,0,0,0,145,145,145,0,145,145,145,9/20/21 12:08,600,The main experiment item,yes,FlankerTask.osexp,C:\Users\Brian\Desktop\College - Graduate\Graduate Work\Advanced Quant,no,mono,no,18,no,white,no,yes,768,legacy,65,79,C:/Users/Brian/Desktop/College - Graduate/Graduate Work/Advanced Quant/BK-subject-1.csv,legacy,Kafkaesque Koffka,3.2.8,0,s,NA,h,h,NA,s,447,NA,8898,17436,NA,447,2,legacy,1024,2,48000,-16,experiment,1,odd,11370,168050,NA,NA,280645,279573,2471,150612,NA,280643,280748,254173,2462,277448,280748,281196,Flanker Task,131,70830,146,yes,1024
congruent,SSSSS,89.79591837,89.79591837,484.6054422,484.6054422,black,legacy,legacy,legacy,0,uniform,1,undefined,1,s,0,0,0,0,146,146,0,0,0,146,146,146,0,146,146,146,9/20/21 12:08,600,The main experiment item,yes,FlankerTask.osexp,C:\Users\Brian\Desktop\College - Graduate\Graduate Work\Advanced Quant,no,mono,no,18,no,white,no,yes,768,legacy,66,79,C:/Users/Brian/Desktop/College - Graduate/Graduate Work/Advanced Quant/BK-subject-1.csv,legacy,Kafkaesque Koffka,3.2.8,0,s,NA,h,h,NA,s,407,NA,8898,17436,NA,407,2,legacy,1024,2,48000,-16,experiment,1,odd,11370,168050,NA,NA,282278,281204,2471,150612,NA,282275,282381,254173,2462,277448,282381,282789,Flanker Task,132,71237,147,yes,1024
congruent,HHHHH,89.86486486,89.86486486,484.3243243,484.3243243,black,legacy,legacy,legacy,0,uniform,1,undefined,1,h,0,0,0,0,147,147,0,0,0,147,147,147,0,147,147,147,9/20/21 12:08,600,The main experiment item,yes,FlankerTask.osexp,C:\Users\Brian\Desktop\College - Graduate\Graduate Work\Advanced Quant,no,mono,no,18,no,white,no,yes,768,legacy,67,79,C:/Users/Brian/Desktop/College - Graduate/Graduate Work/Advanced Quant/BK-subject-1.csv,legacy,Kafkaesque Koffka,3.2.8,0,h,NA,h,h,NA,h,443,NA,8898,17436,NA,443,2,legacy,1024,2,48000,-16,experiment,1,odd,11370,168050,NA,NA,283875,282798,2471,150612,NA,283873,283977,254173,2462,277448,283978,284423,Flanker Task,133,71680,148,yes,1024
