"acc","accuracy","average_response_time","avg_rt","background","canvas_backend","clock_backend","color_backend","compensation","condition","coordinates","correct","correct_Instructions1","correct_keyboard_response","correct_response","count_Block1","count_Block2","count_Block3","count_Finish","count_ISI","count_Instructions1","count_Instructions2","count_Instructions3","count_errorFeedback","count_experiment","count_faster","count_fixation","count_keyboard_response","count_logger","count_sequence","count_stimulus","datetime","deadline","description","disable_garbage_collection","experiment_file","experiment_path","font_bold","font_family","font_italic","font_size","font_underline","foreground","form_clicks","fullscreen","height","keyboard_backend","live_row","live_row_Block1","logfile","mouse_backend","opensesame_codename","opensesame_version","repeat_cycle","response","response_Finish","response_Instructions1","response_Instructions2","response_Instructions3","response_keyboard_response","response_time","response_time_Finish","response_time_Instructions1","response_time_Instructions2","response_time_Instructions3","response_time_keyboard_response","round_decimals","sampler_backend","sound_buf_size","sound_channels","sound_freq","sound_sample_size","start","stimulus","subject_nr","subject_parity","time_Block1","time_Block2","time_Block3","time_Finish","time_ISI","time_Instructions1","time_Instructions2","time_Instructions3","time_errorFeedback","time_experiment","time_faster","time_fixation","time_keyboard_response","time_logger","time_sequence","time_stimulus","title","total_correct","total_response_time","total_responses","uniform_coordinates","width"
"100","100","809","809","black","legacy","legacy","legacy","0","incongruent","uniform","1","undefined","1","h","0","0","0","0","0","0","0","0","0","0","0","0","0","0","0","0","09/21/21 15:39:18","1500","The main experiment item","yes","FlankerTask.osexp","C:\Users\bryan\OneDrive\Documents\School\PSYC 5316  (Quant Methods)\Lab 2","no","mono","no","18","no","white","no","yes","768","legacy","0","0","C:/Users/bryan/OneDrive/Documents/School/PSYC 5316  (Quant Methods)/Lab 2/BS-subject-2.csv","legacy","Lentiform Loewenfeld","3.3.9","0","h","NA","s","NA","NA","h","809","NA","103627","NA","NA","809","2","legacy","1024","2","48000","-16","experiment","SSHSS","2","even","106897","NA","NA","NA","NA","3269","NA","NA","NA","3262","NA","107023","107132","107941","107019","107131","Flanker Task","1","809","1","yes","1024"
"100","100","660.5","660.5","black","legacy","legacy","legacy","0","congruent","uniform","1","undefined","1","h","0","0","0","0","1","0","0","0","1","0","1","1","1","1","1","1","09/21/21 15:39:18","1500","The main experiment item","yes","FlankerTask.osexp","C:\Users\bryan\OneDrive\Documents\School\PSYC 5316  (Quant Methods)\Lab 2","no","mono","no","18","no","white","no","yes","768","legacy","1","1","C:/Users/bryan/OneDrive/Documents/School/PSYC 5316  (Quant Methods)/Lab 2/BS-subject-2.csv","legacy","Lentiform Loewenfeld","3.3.9","0","h","NA","s","NA","NA","h","512","NA","103627","NA","NA","512","2","legacy","1024","2","48000","-16","experiment","HHHHH","2","even","106897","NA","NA","NA","107956","3269","NA","NA","NA","3262","NA","109077","109186","109699","109073","109185","Flanker Task","2","1321","2","yes","1024"
"100","100","594","594","black","legacy","legacy","legacy","0","congruent","uniform","1","undefined","1","h","0","0","0","0","2","0","0","0","2","0","2","2","2","2","2","2","09/21/21 15:39:18","1500","The main experiment item","yes","FlankerTask.osexp","C:\Users\bryan\OneDrive\Documents\School\PSYC 5316  (Quant Methods)\Lab 2","no","mono","no","18","no","white","no","yes","768","legacy","2","2","C:/Users/bryan/OneDrive/Documents/School/PSYC 5316  (Quant Methods)/Lab 2/BS-subject-2.csv","legacy","Lentiform Loewenfeld","3.3.9","0","h","NA","s","NA","NA","h","461","NA","103627","NA","NA","461","2","legacy","1024","2","48000","-16","experiment","HHHHH","2","even","106897","NA","NA","NA","109707","3269","NA","NA","NA","3262","NA","110833","110942","111404","110829","110941","Flanker Task","3","1782","3","yes","1024"
"75","75","541.75","541.75","black","legacy","legacy","legacy","0","incongruent","uniform","0","undefined","0","h","0","0","0","0","3","0","0","0","3","0","3","3","3","3","3","3","09/21/21 15:39:18","1500","The main experiment item","yes","FlankerTask.osexp","C:\Users\bryan\OneDrive\Documents\School\PSYC 5316  (Quant Methods)\Lab 2","no","mono","no","18","no","white","no","yes","768","legacy","3","3","C:/Users/bryan/OneDrive/Documents/School/PSYC 5316  (Quant Methods)/Lab 2/BS-subject-2.csv","legacy","Lentiform Loewenfeld","3.3.9","0","s","NA","s","NA","NA","s","385","NA","103627","NA","NA","385","2","legacy","1024","2","48000","-16","experiment","SSHSS","2","even","106897","NA","NA","NA","111414","3269","NA","NA","NA","3262","NA","112542","112651","113036","112537","112650","Flanker Task","3","2167","4","yes","1024"
"80","80","536.8","536.8","black","legacy","legacy","legacy","0","incongruent","uniform","1","undefined","1","h","0","0","0","0","4","0","0","0","4","0","4","4","4","4","4","4","09/21/21 15:39:18","1500","The main experiment item","yes","FlankerTask.osexp","C:\Users\bryan\OneDrive\Documents\School\PSYC 5316  (Quant Methods)\Lab 2","no","mono","no","18","no","white","no","yes","768","legacy","4","4","C:/Users/bryan/OneDrive/Documents/School/PSYC 5316  (Quant Methods)/Lab 2/BS-subject-2.csv","legacy","Lentiform Loewenfeld","3.3.9","0","h","NA","s","NA","NA","h","517","NA","103627","NA","NA","517","2","legacy","1024","2","48000","-16","experiment","SSHSS","2","even","106897","NA","NA","NA","113550","3269","NA","NA","113043","3262","NA","114658","114768","115286","114654","114767","Flanker Task","4","2684","5","yes","1024"
"83.3333333333","83.3333333333","533.5","533.5","black","legacy","legacy","legacy","0","congruent","uniform","1","undefined","1","s","0","0","0","0","5","0","0","0","5","0","5","5","5","5","5","5","09/21/21 15:39:18","1500","The main experiment item","yes","FlankerTask.osexp","C:\Users\bryan\OneDrive\Documents\School\PSYC 5316  (Quant Methods)\Lab 2","no","mono","no","18","no","white","no","yes","768","legacy","5","5","C:/Users/bryan/OneDrive/Documents/School/PSYC 5316  (Quant Methods)/Lab 2/BS-subject-2.csv","legacy","Lentiform Loewenfeld","3.3.9","0","s","NA","s","NA","NA","s","517","NA","103627","NA","NA","517","2","legacy","1024","2","48000","-16","experiment","SSSSS","2","even","106897","NA","NA","NA","115293","3269","NA","NA","113043","3262","NA","116405","116514","117032","116400","116513","Flanker Task","5","3201","6","yes","1024"
"85.7142857143","85.7142857143","521.142857143","521.142857143","black","legacy","legacy","legacy","0","incongruent","uniform","1","undefined","1","s","0","0","0","0","6","0","0","0","6","0","6","6","6","6","6","6","09/21/21 15:39:18","1500","The main experiment item","yes","FlankerTask.osexp","C:\Users\bryan\OneDrive\Documents\School\PSYC 5316  (Quant Methods)\Lab 2","no","mono","no","18","no","white","no","yes","768","legacy","6","6","C:/Users/bryan/OneDrive/Documents/School/PSYC 5316  (Quant Methods)/Lab 2/BS-subject-2.csv","legacy","Lentiform Loewenfeld","3.3.9","0","s","NA","s","NA","NA","s","447","NA","103627","NA","NA","447","2","legacy","1024","2","48000","-16","experiment","HHSHH","2","even","106897","NA","NA","NA","117041","3269","NA","NA","113043","3262","NA","118158","118268","118716","118154","118267","Flanker Task","6","3648","7","yes","1024"
"87.5","87.5","510.625","510.625","black","legacy","legacy","legacy","0","congruent","uniform","1","undefined","1","h","0","0","0","0","7","0","0","0","7","0","7","7","7","7","7","7","09/21/21 15:39:18","1500","The main experiment item","yes","FlankerTask.osexp","C:\Users\bryan\OneDrive\Documents\School\PSYC 5316  (Quant Methods)\Lab 2","no","mono","no","18","no","white","no","yes","768","legacy","7","7","C:/Users/bryan/OneDrive/Documents/School/PSYC 5316  (Quant Methods)/Lab 2/BS-subject-2.csv","legacy","Lentiform Loewenfeld","3.3.9","0","h","NA","s","NA","NA","h","437","NA","103627","NA","NA","437","2","legacy","1024","2","48000","-16","experiment","HHHHH","2","even","106897","NA","NA","NA","118726","3269","NA","NA","113043","3262","NA","119842","119951","120389","119838","119950","Flanker Task","7","4085","8","yes","1024"
"88.8888888889","88.8888888889","500.222222222","500.222222222","black","legacy","legacy","legacy","0","incongruent","uniform","1","undefined","1","s","0","0","0","0","8","0","0","0","8","0","8","8","8","8","8","8","09/21/21 15:39:18","1500","The main experiment item","yes","FlankerTask.osexp","C:\Users\bryan\OneDrive\Documents\School\PSYC 5316  (Quant Methods)\Lab 2","no","mono","no","18","no","white","no","yes","768","legacy","8","8","C:/Users/bryan/OneDrive/Documents/School/PSYC 5316  (Quant Methods)/Lab 2/BS-subject-2.csv","legacy","Lentiform Loewenfeld","3.3.9","0","s","NA","s","NA","NA","s","417","NA","103627","NA","NA","417","2","legacy","1024","2","48000","-16","experiment","HHSHH","2","even","106897","NA","NA","NA","120400","3269","NA","NA","113043","3262","NA","121521","121630","122047","121516","121629","Flanker Task","8","4502","9","yes","1024"
"90","90","497.5","497.5","black","legacy","legacy","legacy","0","incongruent","uniform","1","undefined","1","s","0","0","0","0","9","0","0","0","9","0","9","9","9","9","9","9","09/21/21 15:39:18","1500","The main experiment item","yes","FlankerTask.osexp","C:\Users\bryan\OneDrive\Documents\School\PSYC 5316  (Quant Methods)\Lab 2","no","mono","no","18","no","white","no","yes","768","legacy","9","9","C:/Users/bryan/OneDrive/Documents/School/PSYC 5316  (Quant Methods)/Lab 2/BS-subject-2.csv","legacy","Lentiform Loewenfeld","3.3.9","0","s","NA","s","NA","NA","s","473","NA","103627","NA","NA","473","2","legacy","1024","2","48000","-16","experiment","HHSHH","2","even","106897","NA","NA","NA","122058","3269","NA","NA","113043","3262","NA","123192","123301","123775","123188","123300","Flanker Task","9","4975","10","yes","1024"
"90.9090909091","90.9090909091","500.181818182","500.181818182","black","legacy","legacy","legacy","0","incongruent","uniform","1","undefined","1","s","0","0","0","0","10","0","0","0","10","0","10","10","10","10","10","10","09/21/21 15:39:18","1500","The main experiment item","yes","FlankerTask.osexp","C:\Users\bryan\OneDrive\Documents\School\PSYC 5316  (Quant Methods)\Lab 2","no","mono","no","18","no","white","no","yes","768","legacy","10","10","C:/Users/bryan/OneDrive/Documents/School/PSYC 5316  (Quant Methods)/Lab 2/BS-subject-2.csv","legacy","Lentiform Loewenfeld","3.3.9","0","s","NA","s","NA","NA","s","527","NA","103627","NA","NA","527","2","legacy","1024","2","48000","-16","experiment","HHSHH","2","even","106897","NA","NA","NA","123786","3269","NA","NA","113043","3262","NA","124908","125017","125545","124904","125016","Flanker Task","10","5502","11","yes","1024"
"91.6666666667","91.6666666667","503.083333333","503.083333333","black","legacy","legacy","legacy","0","congruent","uniform","1","undefined","1","h","0","0","0","0","11","0","0","0","11","0","11","11","11","11","11","11","09/21/21 15:39:18","1500","The main experiment item","yes","FlankerTask.osexp","C:\Users\bryan\OneDrive\Documents\School\PSYC 5316  (Quant Methods)\Lab 2","no","mono","no","18","no","white","no","yes","768","legacy","11","11","C:/Users/bryan/OneDrive/Documents/School/PSYC 5316  (Quant Methods)/Lab 2/BS-subject-2.csv","legacy","Lentiform Loewenfeld","3.3.9","0","h","NA","s","NA","NA","h","535","NA","103627","NA","NA","535","2","legacy","1024","2","48000","-16","experiment","HHHHH","2","even","106897","NA","NA","NA","125555","3269","NA","NA","113043","3262","NA","126677","126786","127322","126673","126785","Flanker Task","11","6037","12","yes","1024"
"92.3076923077","92.3076923077","498.307692308","498.307692308","black","legacy","legacy","legacy","0","incongruent","uniform","1","undefined","1","h","0","0","0","0","12","0","0","0","12","0","12","12","12","12","12","12","09/21/21 15:39:18","1500","The main experiment item","yes","FlankerTask.osexp","C:\Users\bryan\OneDrive\Documents\School\PSYC 5316  (Quant Methods)\Lab 2","no","mono","no","18","no","white","no","yes","768","legacy","12","12","C:/Users/bryan/OneDrive/Documents/School/PSYC 5316  (Quant Methods)/Lab 2/BS-subject-2.csv","legacy","Lentiform Loewenfeld","3.3.9","0","h","NA","s","NA","NA","h","441","NA","103627","NA","NA","441","2","legacy","1024","2","48000","-16","experiment","SSHSS","2","even","106897","NA","NA","NA","127329","3269","NA","NA","113043","3262","NA","128447","128556","128998","128443","128556","Flanker Task","12","6478","13","yes","1024"
"92.8571428571","92.8571428571","496.857142857","496.857142857","black","legacy","legacy","legacy","0","congruent","uniform","1","undefined","1","h","0","0","0","0","13","0","0","0","13","0","13","13","13","13","13","13","09/21/21 15:39:18","1500","The main experiment item","yes","FlankerTask.osexp","C:\Users\bryan\OneDrive\Documents\School\PSYC 5316  (Quant Methods)\Lab 2","no","mono","no","18","no","white","no","yes","768","legacy","13","13","C:/Users/bryan/OneDrive/Documents/School/PSYC 5316  (Quant Methods)/Lab 2/BS-subject-2.csv","legacy","Lentiform Loewenfeld","3.3.9","0","h","NA","s","NA","NA","h","478","NA","103627","NA","NA","478","2","legacy","1024","2","48000","-16","experiment","HHHHH","2","even","106897","NA","NA","NA","129007","3269","NA","NA","113043","3262","NA","130128","130237","130715","130123","130236","Flanker Task","13","6956","14","yes","1024"
"93.3333333333","93.3333333333","498.4","498.4","black","legacy","legacy","legacy","0","incongruent","uniform","1","undefined","1","s","0","0","0","0","14","0","0","0","14","0","14","14","14","14","14","14","09/21/21 15:39:18","1500","The main experiment item","yes","FlankerTask.osexp","C:\Users\bryan\OneDrive\Documents\School\PSYC 5316  (Quant Methods)\Lab 2","no","mono","no","18","no","white","no","yes","768","legacy","14","14","C:/Users/bryan/OneDrive/Documents/School/PSYC 5316  (Quant Methods)/Lab 2/BS-subject-2.csv","legacy","Lentiform Loewenfeld","3.3.9","0","s","NA","s","NA","NA","s","520","NA","103627","NA","NA","520","2","legacy","1024","2","48000","-16","experiment","HHSHH","2","even","106897","NA","NA","NA","130722","3269","NA","NA","113043","3262","NA","131841","131950","132470","131836","131949","Flanker Task","14","7476","15","yes","1024"
"93.75","93.75","504.4375","504.4375","black","legacy","legacy","legacy","0","congruent","uniform","1","undefined","1","h","0","0","0","0","15","0","0","0","15","0","15","15","15","15","15","15","09/21/21 15:39:18","1500","The main experiment item","yes","FlankerTask.osexp","C:\Users\bryan\OneDrive\Documents\School\PSYC 5316  (Quant Methods)\Lab 2","no","mono","no","18","no","white","no","yes","768","legacy","15","15","C:/Users/bryan/OneDrive/Documents/School/PSYC 5316  (Quant Methods)/Lab 2/BS-subject-2.csv","legacy","Lentiform Loewenfeld","3.3.9","0","h","NA","s","NA","NA","h","595","NA","103627","NA","NA","595","2","legacy","1024","2","48000","-16","experiment","HHHHH","2","even","106897","NA","NA","NA","132479","3269","NA","NA","113043","3262","NA","133605","133714","134310","133601","133713","Flanker Task","15","8071","16","yes","1024"
"94.1176470588","94.1176470588","506.352941176","506.352941176","black","legacy","legacy","legacy","0","incongruent","uniform","1","undefined","1","h","0","0","0","0","16","0","0","0","16","0","16","16","16","16","16","16","09/21/21 15:39:18","1500","The main experiment item","yes","FlankerTask.osexp","C:\Users\bryan\OneDrive\Documents\School\PSYC 5316  (Quant Methods)\Lab 2","no","mono","no","18","no","white","no","yes","768","legacy","16","16","C:/Users/bryan/OneDrive/Documents/School/PSYC 5316  (Quant Methods)/Lab 2/BS-subject-2.csv","legacy","Lentiform Loewenfeld","3.3.9","0","h","NA","s","NA","NA","h","537","NA","103627","NA","NA","537","2","legacy","1024","2","48000","-16","experiment","SSHSS","2","even","106897","NA","NA","NA","134320","3269","NA","NA","113043","3262","NA","135457","135562","136100","135453","135562","Flanker Task","16","8608","17","yes","1024"
"94.4444444444","94.4444444444","505.833333333","505.833333333","black","legacy","legacy","legacy","0","congruent","uniform","1","undefined","1","s","0","0","0","0","17","0","0","0","17","0","17","17","17","17","17","17","09/21/21 15:39:18","1500","The main experiment item","yes","FlankerTask.osexp","C:\Users\bryan\OneDrive\Documents\School\PSYC 5316  (Quant Methods)\Lab 2","no","mono","no","18","no","white","no","yes","768","legacy","17","17","C:/Users/bryan/OneDrive/Documents/School/PSYC 5316  (Quant Methods)/Lab 2/BS-subject-2.csv","legacy","Lentiform Loewenfeld","3.3.9","0","s","NA","s","NA","NA","s","497","NA","103627","NA","NA","497","2","legacy","1024","2","48000","-16","experiment","SSSSS","2","even","106897","NA","NA","NA","136110","3269","NA","NA","113043","3262","NA","137234","137343","137841","137230","137342","Flanker Task","17","9105","18","yes","1024"
"94.7368421053","94.7368421053","510.210526316","510.210526316","black","legacy","legacy","legacy","0","incongruent","uniform","1","undefined","1","h","0","0","0","0","18","0","0","0","18","0","18","18","18","18","18","18","09/21/21 15:39:18","1500","The main experiment item","yes","FlankerTask.osexp","C:\Users\bryan\OneDrive\Documents\School\PSYC 5316  (Quant Methods)\Lab 2","no","mono","no","18","no","white","no","yes","768","legacy","18","18","C:/Users/bryan/OneDrive/Documents/School/PSYC 5316  (Quant Methods)/Lab 2/BS-subject-2.csv","legacy","Lentiform Loewenfeld","3.3.9","0","h","NA","s","NA","NA","h","589","NA","103627","NA","NA","589","2","legacy","1024","2","48000","-16","experiment","SSHSS","2","even","106897","NA","NA","NA","137851","3269","NA","NA","113043","3262","NA","138972","139081","139671","138968","139080","Flanker Task","18","9694","19","yes","1024"
"95","95","506.85","506.85","black","legacy","legacy","legacy","0","congruent","uniform","1","undefined","1","h","0","0","0","0","19","0","0","0","19","0","19","19","19","19","19","19","09/21/21 15:39:18","1500","The main experiment item","yes","FlankerTask.osexp","C:\Users\bryan\OneDrive\Documents\School\PSYC 5316  (Quant Methods)\Lab 2","no","mono","no","18","no","white","no","yes","768","legacy","19","19","C:/Users/bryan/OneDrive/Documents/School/PSYC 5316  (Quant Methods)/Lab 2/BS-subject-2.csv","legacy","Lentiform Loewenfeld","3.3.9","0","h","NA","s","NA","NA","h","443","NA","103627","NA","NA","443","2","legacy","1024","2","48000","-16","experiment","HHHHH","2","even","106897","NA","NA","NA","139679","3269","NA","NA","113043","3262","NA","140804","140913","141357","140800","140912","Flanker Task","19","10137","20","yes","1024"
"95.2380952381","95.2380952381","503.523809524","503.523809524","black","legacy","legacy","legacy","0","congruent","uniform","1","undefined","1","h","0","0","0","0","20","0","0","0","20","0","20","20","20","20","20","20","09/21/21 15:39:18","1500","The main experiment item","yes","FlankerTask.osexp","C:\Users\bryan\OneDrive\Documents\School\PSYC 5316  (Quant Methods)\Lab 2","no","mono","no","18","no","white","no","yes","768","legacy","20","20","C:/Users/bryan/OneDrive/Documents/School/PSYC 5316  (Quant Methods)/Lab 2/BS-subject-2.csv","legacy","Lentiform Loewenfeld","3.3.9","0","h","NA","s","NA","NA","h","437","NA","103627","NA","NA","437","2","legacy","1024","2","48000","-16","experiment","HHHHH","2","even","106897","NA","NA","NA","141363","3269","NA","NA","113043","3262","NA","142486","142595","143034","142482","142594","Flanker Task","20","10574","21","yes","1024"
"95.4545454545","95.4545454545","505.136363636","505.136363636","black","legacy","legacy","legacy","0","incongruent","uniform","1","undefined","1","h","0","0","0","0","21","0","0","0","21","0","21","21","21","21","21","21","09/21/21 15:39:18","1500","The main experiment item","yes","FlankerTask.osexp","C:\Users\bryan\OneDrive\Documents\School\PSYC 5316  (Quant Methods)\Lab 2","no","mono","no","18","no","white","no","yes","768","legacy","21","21","C:/Users/bryan/OneDrive/Documents/School/PSYC 5316  (Quant Methods)/Lab 2/BS-subject-2.csv","legacy","Lentiform Loewenfeld","3.3.9","0","h","NA","s","NA","NA","h","539","NA","103627","NA","NA","539","2","legacy","1024","2","48000","-16","experiment","SSHSS","2","even","106897","NA","NA","NA","143042","3269","NA","NA","113043","3262","NA","144164","144274","144814","144160","144273","Flanker Task","21","11113","22","yes","1024"
"95.652173913","95.652173913","505.826086957","505.826086957","black","legacy","legacy","legacy","0","incongruent","uniform","1","undefined","1","h","0","0","0","0","22","0","0","0","22","0","22","22","22","22","22","22","09/21/21 15:39:18","1500","The main experiment item","yes","FlankerTask.osexp","C:\Users\bryan\OneDrive\Documents\School\PSYC 5316  (Quant Methods)\Lab 2","no","mono","no","18","no","white","no","yes","768","legacy","22","22","C:/Users/bryan/OneDrive/Documents/School/PSYC 5316  (Quant Methods)/Lab 2/BS-subject-2.csv","legacy","Lentiform Loewenfeld","3.3.9","0","h","NA","s","NA","NA","h","521","NA","103627","NA","NA","521","2","legacy","1024","2","48000","-16","experiment","SSHSS","2","even","106897","NA","NA","NA","144821","3269","NA","NA","113043","3262","NA","145958","146067","146589","145953","146066","Flanker Task","22","11634","23","yes","1024"
"95.8333333333","95.8333333333","507.416666667","507.416666667","black","legacy","legacy","legacy","0","congruent","uniform","1","undefined","1","s","0","0","0","0","23","0","0","0","23","0","23","23","23","23","23","23","09/21/21 15:39:18","1500","The main experiment item","yes","FlankerTask.osexp","C:\Users\bryan\OneDrive\Documents\School\PSYC 5316  (Quant Methods)\Lab 2","no","mono","no","18","no","white","no","yes","768","legacy","23","23","C:/Users/bryan/OneDrive/Documents/School/PSYC 5316  (Quant Methods)/Lab 2/BS-subject-2.csv","legacy","Lentiform Loewenfeld","3.3.9","0","s","NA","s","NA","NA","s","544","NA","103627","NA","NA","544","2","legacy","1024","2","48000","-16","experiment","SSSSS","2","even","106897","NA","NA","NA","146598","3269","NA","NA","113043","3262","NA","147731","147840","148385","147726","147839","Flanker Task","23","12178","24","yes","1024"
"96","96","506.8","506.8","black","legacy","legacy","legacy","0","congruent","uniform","1","undefined","1","s","0","0","0","0","24","0","0","0","24","0","24","24","24","24","24","24","09/21/21 15:39:18","1500","The main experiment item","yes","FlankerTask.osexp","C:\Users\bryan\OneDrive\Documents\School\PSYC 5316  (Quant Methods)\Lab 2","no","mono","no","18","no","white","no","yes","768","legacy","24","24","C:/Users/bryan/OneDrive/Documents/School/PSYC 5316  (Quant Methods)/Lab 2/BS-subject-2.csv","legacy","Lentiform Loewenfeld","3.3.9","0","s","NA","s","NA","NA","s","492","NA","103627","NA","NA","492","2","legacy","1024","2","48000","-16","experiment","SSSSS","2","even","106897","NA","NA","NA","148395","3269","NA","NA","113043","3262","NA","149513","149622","150115","149509","149621","Flanker Task","24","12670","25","yes","1024"
"92.3076923077","92.3076923077","507.615384615","507.615384615","black","legacy","legacy","legacy","0","incongruent","uniform","0","undefined","0","s","0","0","0","0","25","0","0","0","25","0","25","25","25","25","25","25","09/21/21 15:39:18","1500","The main experiment item","yes","FlankerTask.osexp","C:\Users\bryan\OneDrive\Documents\School\PSYC 5316  (Quant Methods)\Lab 2","no","mono","no","18","no","white","no","yes","768","legacy","25","25","C:/Users/bryan/OneDrive/Documents/School/PSYC 5316  (Quant Methods)/Lab 2/BS-subject-2.csv","legacy","Lentiform Loewenfeld","3.3.9","0","h","NA","s","NA","NA","h","528","NA","103627","NA","NA","528","2","legacy","1024","2","48000","-16","experiment","HHSHH","2","even","106897","NA","NA","NA","150124","3269","NA","NA","113043","3262","NA","151245","151354","151883","151240","151354","Flanker Task","24","13198","26","yes","1024"
"92.5925925926","92.5925925926","518.148148148","518.148148148","black","legacy","legacy","legacy","0","incongruent","uniform","1","undefined","1","s","0","0","0","0","26","0","0","0","26","0","26","26","26","26","26","26","09/21/21 15:39:18","1500","The main experiment item","yes","FlankerTask.osexp","C:\Users\bryan\OneDrive\Documents\School\PSYC 5316  (Quant Methods)\Lab 2","no","mono","no","18","no","white","no","yes","768","legacy","26","26","C:/Users/bryan/OneDrive/Documents/School/PSYC 5316  (Quant Methods)/Lab 2/BS-subject-2.csv","legacy","Lentiform Loewenfeld","3.3.9","0","s","NA","s","NA","NA","s","792","NA","103627","NA","NA","792","2","legacy","1024","2","48000","-16","experiment","HHSHH","2","even","106897","NA","NA","NA","152399","3269","NA","NA","151890","3262","NA","153522","153631","154424","153518","153630","Flanker Task","25","13990","27","yes","1024"
"92.8571428571","92.8571428571","518.535714286","518.535714286","black","legacy","legacy","legacy","0","incongruent","uniform","1","undefined","1","h","0","0","0","0","27","0","0","0","27","0","27","27","27","27","27","27","09/21/21 15:39:18","1500","The main experiment item","yes","FlankerTask.osexp","C:\Users\bryan\OneDrive\Documents\School\PSYC 5316  (Quant Methods)\Lab 2","no","mono","no","18","no","white","no","yes","768","legacy","27","27","C:/Users/bryan/OneDrive/Documents/School/PSYC 5316  (Quant Methods)/Lab 2/BS-subject-2.csv","legacy","Lentiform Loewenfeld","3.3.9","0","h","NA","s","NA","NA","h","529","NA","103627","NA","NA","529","2","legacy","1024","2","48000","-16","experiment","SSHSS","2","even","106897","NA","NA","NA","154433","3269","NA","NA","151890","3262","NA","155560","155669","156199","155556","155668","Flanker Task","26","14519","28","yes","1024"
"93.1034482759","93.1034482759","517.793103448","517.793103448","black","legacy","legacy","legacy","0","congruent","uniform","1","undefined","1","h","0","0","0","0","28","0","0","0","28","0","28","28","28","28","28","28","09/21/21 15:39:18","1500","The main experiment item","yes","FlankerTask.osexp","C:\Users\bryan\OneDrive\Documents\School\PSYC 5316  (Quant Methods)\Lab 2","no","mono","no","18","no","white","no","yes","768","legacy","28","28","C:/Users/bryan/OneDrive/Documents/School/PSYC 5316  (Quant Methods)/Lab 2/BS-subject-2.csv","legacy","Lentiform Loewenfeld","3.3.9","0","h","NA","s","NA","NA","h","497","NA","103627","NA","NA","497","2","legacy","1024","2","48000","-16","experiment","HHHHH","2","even","106897","NA","NA","NA","156206","3269","NA","NA","151890","3262","NA","157333","157443","157941","157329","157442","Flanker Task","27","15016","29","yes","1024"
"93.3333333333","93.3333333333","518.066666667","518.066666667","black","legacy","legacy","legacy","0","congruent","uniform","1","undefined","1","h","0","0","0","0","29","0","0","0","29","0","29","29","29","29","29","29","09/21/21 15:39:18","1500","The main experiment item","yes","FlankerTask.osexp","C:\Users\bryan\OneDrive\Documents\School\PSYC 5316  (Quant Methods)\Lab 2","no","mono","no","18","no","white","no","yes","768","legacy","29","29","C:/Users/bryan/OneDrive/Documents/School/PSYC 5316  (Quant Methods)/Lab 2/BS-subject-2.csv","legacy","Lentiform Loewenfeld","3.3.9","0","h","NA","s","NA","NA","h","526","NA","103627","NA","NA","526","2","legacy","1024","2","48000","-16","experiment","HHHHH","2","even","106897","NA","NA","NA","157952","3269","NA","NA","151890","3262","NA","159076","159185","159712","159072","159184","Flanker Task","28","15542","30","yes","1024"
"93.5483870968","93.5483870968","519","519","black","legacy","legacy","legacy","0","congruent","uniform","1","undefined","1","h","0","0","0","0","30","0","0","0","30","0","30","30","30","30","30","30","09/21/21 15:39:18","1500","The main experiment item","yes","FlankerTask.osexp","C:\Users\bryan\OneDrive\Documents\School\PSYC 5316  (Quant Methods)\Lab 2","no","mono","no","18","no","white","no","yes","768","legacy","30","30","C:/Users/bryan/OneDrive/Documents/School/PSYC 5316  (Quant Methods)/Lab 2/BS-subject-2.csv","legacy","Lentiform Loewenfeld","3.3.9","0","h","NA","s","NA","NA","h","547","NA","103627","NA","NA","547","2","legacy","1024","2","48000","-16","experiment","HHHHH","2","even","106897","NA","NA","NA","159719","3269","NA","NA","151890","3262","NA","160844","160953","161502","160840","160952","Flanker Task","29","16089","31","yes","1024"
"93.75","93.75","519.09375","519.09375","black","legacy","legacy","legacy","0","congruent","uniform","1","undefined","1","s","0","0","0","0","31","0","0","0","31","0","31","31","31","31","31","31","09/21/21 15:39:18","1500","The main experiment item","yes","FlankerTask.osexp","C:\Users\bryan\OneDrive\Documents\School\PSYC 5316  (Quant Methods)\Lab 2","no","mono","no","18","no","white","no","yes","768","legacy","31","31","C:/Users/bryan/OneDrive/Documents/School/PSYC 5316  (Quant Methods)/Lab 2/BS-subject-2.csv","legacy","Lentiform Loewenfeld","3.3.9","0","s","NA","s","NA","NA","s","522","NA","103627","NA","NA","522","2","legacy","1024","2","48000","-16","experiment","SSSSS","2","even","106897","NA","NA","NA","161511","3269","NA","NA","151890","3262","NA","162641","162751","163274","162637","162750","Flanker Task","30","16611","32","yes","1024"
"93.9393939394","93.9393939394","518.484848485","518.484848485","black","legacy","legacy","legacy","0","congruent","uniform","1","undefined","1","s","0","0","0","0","32","0","0","0","32","0","32","32","32","32","32","32","09/21/21 15:39:18","1500","The main experiment item","yes","FlankerTask.osexp","C:\Users\bryan\OneDrive\Documents\School\PSYC 5316  (Quant Methods)\Lab 2","no","mono","no","18","no","white","no","yes","768","legacy","32","32","C:/Users/bryan/OneDrive/Documents/School/PSYC 5316  (Quant Methods)/Lab 2/BS-subject-2.csv","legacy","Lentiform Loewenfeld","3.3.9","0","s","NA","s","NA","NA","s","499","NA","103627","NA","NA","499","2","legacy","1024","2","48000","-16","experiment","SSSSS","2","even","106897","NA","NA","NA","163283","3269","NA","NA","151890","3262","NA","164411","164521","165021","164407","164520","Flanker Task","31","17110","33","yes","1024"
"94.1176470588","94.1176470588","518.117647059","518.117647059","black","legacy","legacy","legacy","0","incongruent","uniform","1","undefined","1","h","0","0","0","0","33","0","0","0","33","0","33","33","33","33","33","33","09/21/21 15:39:18","1500","The main experiment item","yes","FlankerTask.osexp","C:\Users\bryan\OneDrive\Documents\School\PSYC 5316  (Quant Methods)\Lab 2","no","mono","no","18","no","white","no","yes","768","legacy","33","33","C:/Users/bryan/OneDrive/Documents/School/PSYC 5316  (Quant Methods)/Lab 2/BS-subject-2.csv","legacy","Lentiform Loewenfeld","3.3.9","0","h","NA","s","NA","NA","h","506","NA","103627","NA","NA","506","2","legacy","1024","2","48000","-16","experiment","SSHSS","2","even","106897","NA","NA","NA","165031","3269","NA","NA","151890","3262","NA","166155","166263","166770","166150","166263","Flanker Task","32","17616","34","yes","1024"
"94.2857142857","94.2857142857","518.571428571","518.571428571","black","legacy","legacy","legacy","0","incongruent","uniform","1","undefined","1","h","0","0","0","0","34","0","0","0","34","0","34","34","34","34","34","34","09/21/21 15:39:18","1500","The main experiment item","yes","FlankerTask.osexp","C:\Users\bryan\OneDrive\Documents\School\PSYC 5316  (Quant Methods)\Lab 2","no","mono","no","18","no","white","no","yes","768","legacy","34","34","C:/Users/bryan/OneDrive/Documents/School/PSYC 5316  (Quant Methods)/Lab 2/BS-subject-2.csv","legacy","Lentiform Loewenfeld","3.3.9","0","h","NA","s","NA","NA","h","534","NA","103627","NA","NA","534","2","legacy","1024","2","48000","-16","experiment","SSHSS","2","even","106897","NA","NA","NA","166776","3269","NA","NA","151890","3262","NA","167898","168007","168542","167894","168006","Flanker Task","33","18150","35","yes","1024"
"94.4444444444","94.4444444444","519.027777778","519.027777778","black","legacy","legacy","legacy","0","incongruent","uniform","1","undefined","1","s","0","0","0","0","35","0","0","0","35","0","35","35","35","35","35","35","09/21/21 15:39:18","1500","The main experiment item","yes","FlankerTask.osexp","C:\Users\bryan\OneDrive\Documents\School\PSYC 5316  (Quant Methods)\Lab 2","no","mono","no","18","no","white","no","yes","768","legacy","35","35","C:/Users/bryan/OneDrive/Documents/School/PSYC 5316  (Quant Methods)/Lab 2/BS-subject-2.csv","legacy","Lentiform Loewenfeld","3.3.9","0","s","NA","s","NA","NA","s","535","NA","103627","NA","NA","535","2","legacy","1024","2","48000","-16","experiment","HHSHH","2","even","106897","NA","NA","NA","168550","3269","NA","NA","151890","3262","NA","169670","169779","170316","169666","169778","Flanker Task","34","18685","36","yes","1024"
"94.5945945946","94.5945945946","517.054054054","517.054054054","black","legacy","legacy","legacy","0","incongruent","uniform","1","undefined","1","s","0","0","0","0","36","0","0","0","36","0","36","36","36","36","36","36","09/21/21 15:39:18","1500","The main experiment item","yes","FlankerTask.osexp","C:\Users\bryan\OneDrive\Documents\School\PSYC 5316  (Quant Methods)\Lab 2","no","mono","no","18","no","white","no","yes","768","legacy","36","36","C:/Users/bryan/OneDrive/Documents/School/PSYC 5316  (Quant Methods)/Lab 2/BS-subject-2.csv","legacy","Lentiform Loewenfeld","3.3.9","0","s","NA","s","NA","NA","s","446","NA","103627","NA","NA","446","2","legacy","1024","2","48000","-16","experiment","HHSHH","2","even","106897","NA","NA","NA","170322","3269","NA","NA","151890","3262","NA","171441","171550","171998","171437","171549","Flanker Task","35","19131","37","yes","1024"
"94.7368421053","94.7368421053","517.394736842","517.394736842","black","legacy","legacy","legacy","0","congruent","uniform","1","undefined","1","s","0","0","0","0","37","0","0","0","37","0","37","37","37","37","37","37","09/21/21 15:39:18","1500","The main experiment item","yes","FlankerTask.osexp","C:\Users\bryan\OneDrive\Documents\School\PSYC 5316  (Quant Methods)\Lab 2","no","mono","no","18","no","white","no","yes","768","legacy","37","37","C:/Users/bryan/OneDrive/Documents/School/PSYC 5316  (Quant Methods)/Lab 2/BS-subject-2.csv","legacy","Lentiform Loewenfeld","3.3.9","0","s","NA","s","NA","NA","s","530","NA","103627","NA","NA","530","2","legacy","1024","2","48000","-16","experiment","SSSSS","2","even","106897","NA","NA","NA","172008","3269","NA","NA","151890","3262","NA","173141","173250","173781","173137","173249","Flanker Task","36","19661","38","yes","1024"
"94.8717948718","94.8717948718","515.358974359","515.358974359","black","legacy","legacy","legacy","0","incongruent","uniform","1","undefined","1","s","0","0","0","0","38","0","0","0","38","0","38","38","38","38","38","38","09/21/21 15:39:18","1500","The main experiment item","yes","FlankerTask.osexp","C:\Users\bryan\OneDrive\Documents\School\PSYC 5316  (Quant Methods)\Lab 2","no","mono","no","18","no","white","no","yes","768","legacy","38","38","C:/Users/bryan/OneDrive/Documents/School/PSYC 5316  (Quant Methods)/Lab 2/BS-subject-2.csv","legacy","Lentiform Loewenfeld","3.3.9","0","s","NA","s","NA","NA","s","438","NA","103627","NA","NA","438","2","legacy","1024","2","48000","-16","experiment","HHSHH","2","even","106897","NA","NA","NA","173791","3269","NA","NA","151890","3262","NA","174916","175025","175464","174912","175024","Flanker Task","37","20099","39","yes","1024"
"95","95","516.425","516.425","black","legacy","legacy","legacy","0","incongruent","uniform","1","undefined","1","h","0","0","0","0","39","0","0","0","39","0","39","39","39","39","39","39","09/21/21 15:39:18","1500","The main experiment item","yes","FlankerTask.osexp","C:\Users\bryan\OneDrive\Documents\School\PSYC 5316  (Quant Methods)\Lab 2","no","mono","no","18","no","white","no","yes","768","legacy","39","39","C:/Users/bryan/OneDrive/Documents/School/PSYC 5316  (Quant Methods)/Lab 2/BS-subject-2.csv","legacy","Lentiform Loewenfeld","3.3.9","0","h","NA","s","NA","NA","h","558","NA","103627","NA","NA","558","2","legacy","1024","2","48000","-16","experiment","SSHSS","2","even","106897","NA","NA","NA","175471","3269","NA","NA","151890","3262","NA","176596","176705","177264","176592","176704","Flanker Task","38","20657","40","yes","1024"
"95.1219512195","95.1219512195","517.268292683","517.268292683","black","legacy","legacy","legacy","0","incongruent","uniform","1","undefined","1","h","0","0","0","0","40","0","0","0","40","0","40","40","40","40","40","40","09/21/21 15:39:18","1500","The main experiment item","yes","FlankerTask.osexp","C:\Users\bryan\OneDrive\Documents\School\PSYC 5316  (Quant Methods)\Lab 2","no","mono","no","18","no","white","no","yes","768","legacy","40","40","C:/Users/bryan/OneDrive/Documents/School/PSYC 5316  (Quant Methods)/Lab 2/BS-subject-2.csv","legacy","Lentiform Loewenfeld","3.3.9","0","h","NA","s","NA","NA","h","551","NA","103627","NA","NA","551","2","legacy","1024","2","48000","-16","experiment","SSHSS","2","even","106897","NA","NA","NA","177275","3269","NA","NA","151890","3262","NA","178379","178489","179041","178375","178488","Flanker Task","39","21208","41","yes","1024"
"95.2380952381","95.2380952381","518.523809524","518.523809524","black","legacy","legacy","legacy","0","congruent","uniform","1","undefined","1","h","0","0","0","0","41","0","0","0","41","0","41","41","41","41","41","41","09/21/21 15:39:18","1500","The main experiment item","yes","FlankerTask.osexp","C:\Users\bryan\OneDrive\Documents\School\PSYC 5316  (Quant Methods)\Lab 2","no","mono","no","18","no","white","no","yes","768","legacy","41","41","C:/Users/bryan/OneDrive/Documents/School/PSYC 5316  (Quant Methods)/Lab 2/BS-subject-2.csv","legacy","Lentiform Loewenfeld","3.3.9","0","h","NA","s","NA","NA","h","570","NA","103627","NA","NA","570","2","legacy","1024","2","48000","-16","experiment","HHHHH","2","even","106897","NA","NA","NA","179048","3269","NA","NA","151890","3262","NA","180168","180277","180848","180164","180276","Flanker Task","40","21778","42","yes","1024"
"95.3488372093","95.3488372093","519.23255814","519.23255814","black","legacy","legacy","legacy","0","incongruent","uniform","1","undefined","1","s","0","0","0","0","42","0","0","0","42","0","42","42","42","42","42","42","09/21/21 15:39:18","1500","The main experiment item","yes","FlankerTask.osexp","C:\Users\bryan\OneDrive\Documents\School\PSYC 5316  (Quant Methods)\Lab 2","no","mono","no","18","no","white","no","yes","768","legacy","42","42","C:/Users/bryan/OneDrive/Documents/School/PSYC 5316  (Quant Methods)/Lab 2/BS-subject-2.csv","legacy","Lentiform Loewenfeld","3.3.9","0","s","NA","s","NA","NA","s","549","NA","103627","NA","NA","549","2","legacy","1024","2","48000","-16","experiment","HHSHH","2","even","106897","NA","NA","NA","180857","3269","NA","NA","151890","3262","NA","182010","182115","182666","182006","182115","Flanker Task","41","22327","43","yes","1024"
"95.4545454545","95.4545454545","519.772727273","519.772727273","black","legacy","legacy","legacy","0","incongruent","uniform","1","undefined","1","h","0","0","0","0","43","0","0","0","43","0","43","43","43","43","43","43","09/21/21 15:39:18","1500","The main experiment item","yes","FlankerTask.osexp","C:\Users\bryan\OneDrive\Documents\School\PSYC 5316  (Quant Methods)\Lab 2","no","mono","no","18","no","white","no","yes","768","legacy","43","43","C:/Users/bryan/OneDrive/Documents/School/PSYC 5316  (Quant Methods)/Lab 2/BS-subject-2.csv","legacy","Lentiform Loewenfeld","3.3.9","0","h","NA","s","NA","NA","h","543","NA","103627","NA","NA","543","2","legacy","1024","2","48000","-16","experiment","SSHSS","2","even","106897","NA","NA","NA","182675","3269","NA","NA","151890","3262","NA","183796","183905","184449","183792","183905","Flanker Task","42","22870","44","yes","1024"
"95.5555555556","95.5555555556","520.288888889","520.288888889","black","legacy","legacy","legacy","0","congruent","uniform","1","undefined","1","h","0","0","0","0","44","0","0","0","44","0","44","44","44","44","44","44","09/21/21 15:39:18","1500","The main experiment item","yes","FlankerTask.osexp","C:\Users\bryan\OneDrive\Documents\School\PSYC 5316  (Quant Methods)\Lab 2","no","mono","no","18","no","white","no","yes","768","legacy","44","44","C:/Users/bryan/OneDrive/Documents/School/PSYC 5316  (Quant Methods)/Lab 2/BS-subject-2.csv","legacy","Lentiform Loewenfeld","3.3.9","0","h","NA","s","NA","NA","h","543","NA","103627","NA","NA","543","2","legacy","1024","2","48000","-16","experiment","HHHHH","2","even","106897","NA","NA","NA","184459","3269","NA","NA","151890","3262","NA","185591","185699","186243","185587","185699","Flanker Task","43","23413","45","yes","1024"
"95.652173913","95.652173913","519.260869565","519.260869565","black","legacy","legacy","legacy","0","incongruent","uniform","1","undefined","1","h","0","0","0","0","45","0","0","0","45","0","45","45","45","45","45","45","09/21/21 15:39:18","1500","The main experiment item","yes","FlankerTask.osexp","C:\Users\bryan\OneDrive\Documents\School\PSYC 5316  (Quant Methods)\Lab 2","no","mono","no","18","no","white","no","yes","768","legacy","45","45","C:/Users/bryan/OneDrive/Documents/School/PSYC 5316  (Quant Methods)/Lab 2/BS-subject-2.csv","legacy","Lentiform Loewenfeld","3.3.9","0","h","NA","s","NA","NA","h","473","NA","103627","NA","NA","473","2","legacy","1024","2","48000","-16","experiment","SSHSS","2","even","106897","NA","NA","NA","186254","3269","NA","NA","151890","3262","NA","187372","187481","187955","187368","187481","Flanker Task","44","23886","46","yes","1024"
"95.7446808511","95.7446808511","521.255319149","521.255319149","black","legacy","legacy","legacy","0","incongruent","uniform","1","undefined","1","h","0","0","0","0","46","0","0","0","46","0","46","46","46","46","46","46","09/21/21 15:39:18","1500","The main experiment item","yes","FlankerTask.osexp","C:\Users\bryan\OneDrive\Documents\School\PSYC 5316  (Quant Methods)\Lab 2","no","mono","no","18","no","white","no","yes","768","legacy","46","46","C:/Users/bryan/OneDrive/Documents/School/PSYC 5316  (Quant Methods)/Lab 2/BS-subject-2.csv","legacy","Lentiform Loewenfeld","3.3.9","0","h","NA","s","NA","NA","h","613","NA","103627","NA","NA","613","2","legacy","1024","2","48000","-16","experiment","SSHSS","2","even","106897","NA","NA","NA","187966","3269","NA","NA","151890","3262","NA","189082","189191","189805","189078","189190","Flanker Task","45","24499","47","yes","1024"
"95.8333333333","95.8333333333","521.604166667","521.604166667","black","legacy","legacy","legacy","0","incongruent","uniform","1","undefined","1","h","0","0","0","0","47","0","0","0","47","0","47","47","47","47","47","47","09/21/21 15:39:18","1500","The main experiment item","yes","FlankerTask.osexp","C:\Users\bryan\OneDrive\Documents\School\PSYC 5316  (Quant Methods)\Lab 2","no","mono","no","18","no","white","no","yes","768","legacy","47","47","C:/Users/bryan/OneDrive/Documents/School/PSYC 5316  (Quant Methods)/Lab 2/BS-subject-2.csv","legacy","Lentiform Loewenfeld","3.3.9","0","h","NA","s","NA","NA","h","538","NA","103627","NA","NA","538","2","legacy","1024","2","48000","-16","experiment","SSHSS","2","even","106897","NA","NA","NA","189814","3269","NA","NA","151890","3262","NA","190937","191046","191585","190933","191045","Flanker Task","46","25037","48","yes","1024"
"95.9183673469","95.9183673469","522.795918367","522.795918367","black","legacy","legacy","legacy","0","incongruent","uniform","1","undefined","1","s","0","0","0","0","48","0","0","0","48","0","48","48","48","48","48","48","09/21/21 15:39:18","1500","The main experiment item","yes","FlankerTask.osexp","C:\Users\bryan\OneDrive\Documents\School\PSYC 5316  (Quant Methods)\Lab 2","no","mono","no","18","no","white","no","yes","768","legacy","48","48","C:/Users/bryan/OneDrive/Documents/School/PSYC 5316  (Quant Methods)/Lab 2/BS-subject-2.csv","legacy","Lentiform Loewenfeld","3.3.9","0","s","NA","s","NA","NA","s","580","NA","103627","NA","NA","580","2","legacy","1024","2","48000","-16","experiment","HHSHH","2","even","106897","NA","NA","NA","191596","3269","NA","NA","151890","3262","NA","192712","192821","193402","192708","192820","Flanker Task","47","25617","49","yes","1024"
"96","96","522.56","522.56","black","legacy","legacy","legacy","0","congruent","uniform","1","undefined","1","s","0","0","0","0","49","0","0","0","49","0","49","49","49","49","49","49","09/21/21 15:39:18","1500","The main experiment item","yes","FlankerTask.osexp","C:\Users\bryan\OneDrive\Documents\School\PSYC 5316  (Quant Methods)\Lab 2","no","mono","no","18","no","white","no","yes","768","legacy","49","49","C:/Users/bryan/OneDrive/Documents/School/PSYC 5316  (Quant Methods)/Lab 2/BS-subject-2.csv","legacy","Lentiform Loewenfeld","3.3.9","0","s","NA","s","NA","NA","s","511","NA","103627","NA","NA","511","2","legacy","1024","2","48000","-16","experiment","SSSSS","2","even","106897","NA","NA","NA","193411","3269","NA","NA","151890","3262","NA","194535","194645","195158","194531","194644","Flanker Task","48","26128","50","yes","1024"
"96.0784313725","96.0784313725","522.098039216","522.098039216","black","legacy","legacy","legacy","0","congruent","uniform","1","undefined","1","h","0","0","0","0","50","0","0","0","50","0","50","50","50","50","50","50","09/21/21 15:39:18","1500","The main experiment item","yes","FlankerTask.osexp","C:\Users\bryan\OneDrive\Documents\School\PSYC 5316  (Quant Methods)\Lab 2","no","mono","no","18","no","white","no","yes","768","legacy","50","50","C:/Users/bryan/OneDrive/Documents/School/PSYC 5316  (Quant Methods)/Lab 2/BS-subject-2.csv","legacy","Lentiform Loewenfeld","3.3.9","0","h","NA","s","NA","NA","h","499","NA","103627","NA","NA","499","2","legacy","1024","2","48000","-16","experiment","HHHHH","2","even","106897","NA","NA","NA","195167","3269","NA","NA","151890","3262","NA","196279","196389","196889","196275","196388","Flanker Task","49","26627","51","yes","1024"
"96.1538461538","96.1538461538","521.865384615","521.865384615","black","legacy","legacy","legacy","0","congruent","uniform","1","undefined","1","h","0","0","0","0","51","0","0","0","51","0","51","51","51","51","51","51","09/21/21 15:39:18","1500","The main experiment item","yes","FlankerTask.osexp","C:\Users\bryan\OneDrive\Documents\School\PSYC 5316  (Quant Methods)\Lab 2","no","mono","no","18","no","white","no","yes","768","legacy","51","51","C:/Users/bryan/OneDrive/Documents/School/PSYC 5316  (Quant Methods)/Lab 2/BS-subject-2.csv","legacy","Lentiform Loewenfeld","3.3.9","0","h","NA","s","NA","NA","h","510","NA","103627","NA","NA","510","2","legacy","1024","2","48000","-16","experiment","HHHHH","2","even","106897","NA","NA","NA","196896","3269","NA","NA","151890","3262","NA","198018","198127","198639","198013","198126","Flanker Task","50","27137","52","yes","1024"
"96.2264150943","96.2264150943","521.698113208","521.698113208","black","legacy","legacy","legacy","0","incongruent","uniform","1","undefined","1","s","0","0","0","0","52","0","0","0","52","0","52","52","52","52","52","52","09/21/21 15:39:18","1500","The main experiment item","yes","FlankerTask.osexp","C:\Users\bryan\OneDrive\Documents\School\PSYC 5316  (Quant Methods)\Lab 2","no","mono","no","18","no","white","no","yes","768","legacy","52","52","C:/Users/bryan/OneDrive/Documents/School/PSYC 5316  (Quant Methods)/Lab 2/BS-subject-2.csv","legacy","Lentiform Loewenfeld","3.3.9","0","s","NA","s","NA","NA","s","513","NA","103627","NA","NA","513","2","legacy","1024","2","48000","-16","experiment","HHSHH","2","even","106897","NA","NA","NA","198647","3269","NA","NA","151890","3262","NA","199764","199873","200387","199760","199873","Flanker Task","51","27650","53","yes","1024"
"96.2962962963","96.2962962963","521.796296296","521.796296296","black","legacy","legacy","legacy","0","incongruent","uniform","1","undefined","1","s","0","0","0","0","53","0","0","0","53","0","53","53","53","53","53","53","09/21/21 15:39:18","1500","The main experiment item","yes","FlankerTask.osexp","C:\Users\bryan\OneDrive\Documents\School\PSYC 5316  (Quant Methods)\Lab 2","no","mono","no","18","no","white","no","yes","768","legacy","53","53","C:/Users/bryan/OneDrive/Documents/School/PSYC 5316  (Quant Methods)/Lab 2/BS-subject-2.csv","legacy","Lentiform Loewenfeld","3.3.9","0","s","NA","s","NA","NA","s","527","NA","103627","NA","NA","527","2","legacy","1024","2","48000","-16","experiment","HHSHH","2","even","106897","NA","NA","NA","200397","3269","NA","NA","151890","3262","NA","201524","201633","202161","201520","201632","Flanker Task","52","28177","54","yes","1024"
"96.3636363636","96.3636363636","520.890909091","520.890909091","black","legacy","legacy","legacy","0","congruent","uniform","1","undefined","1","h","0","0","0","0","54","0","0","0","54","0","54","54","54","54","54","54","09/21/21 15:39:18","1500","The main experiment item","yes","FlankerTask.osexp","C:\Users\bryan\OneDrive\Documents\School\PSYC 5316  (Quant Methods)\Lab 2","no","mono","no","18","no","white","no","yes","768","legacy","54","54","C:/Users/bryan/OneDrive/Documents/School/PSYC 5316  (Quant Methods)/Lab 2/BS-subject-2.csv","legacy","Lentiform Loewenfeld","3.3.9","0","h","NA","s","NA","NA","h","472","NA","103627","NA","NA","472","2","legacy","1024","2","48000","-16","experiment","HHHHH","2","even","106897","NA","NA","NA","202171","3269","NA","NA","151890","3262","NA","203315","203424","203898","203311","203423","Flanker Task","53","28649","55","yes","1024"
"96.4285714286","96.4285714286","521.482142857","521.482142857","black","legacy","legacy","legacy","0","incongruent","uniform","1","undefined","1","s","0","0","0","0","55","0","0","0","55","0","55","55","55","55","55","55","09/21/21 15:39:18","1500","The main experiment item","yes","FlankerTask.osexp","C:\Users\bryan\OneDrive\Documents\School\PSYC 5316  (Quant Methods)\Lab 2","no","mono","no","18","no","white","no","yes","768","legacy","55","55","C:/Users/bryan/OneDrive/Documents/School/PSYC 5316  (Quant Methods)/Lab 2/BS-subject-2.csv","legacy","Lentiform Loewenfeld","3.3.9","0","s","NA","s","NA","NA","s","554","NA","103627","NA","NA","554","2","legacy","1024","2","48000","-16","experiment","HHSHH","2","even","106897","NA","NA","NA","203904","3269","NA","NA","151890","3262","NA","205033","205142","205697","205029","205141","Flanker Task","54","29203","56","yes","1024"
"96.4912280702","96.4912280702","521.245614035","521.245614035","black","legacy","legacy","legacy","0","congruent","uniform","1","undefined","1","h","0","0","0","0","56","0","0","0","56","0","56","56","56","56","56","56","09/21/21 15:39:18","1500","The main experiment item","yes","FlankerTask.osexp","C:\Users\bryan\OneDrive\Documents\School\PSYC 5316  (Quant Methods)\Lab 2","no","mono","no","18","no","white","no","yes","768","legacy","56","56","C:/Users/bryan/OneDrive/Documents/School/PSYC 5316  (Quant Methods)/Lab 2/BS-subject-2.csv","legacy","Lentiform Loewenfeld","3.3.9","0","h","NA","s","NA","NA","h","508","NA","103627","NA","NA","508","2","legacy","1024","2","48000","-16","experiment","HHHHH","2","even","106897","NA","NA","NA","205707","3269","NA","NA","151890","3262","NA","206842","206951","207461","206837","206950","Flanker Task","55","29711","57","yes","1024"
"96.5517241379","96.5517241379","520.793103448","520.793103448","black","legacy","legacy","legacy","0","congruent","uniform","1","undefined","1","s","0","0","0","0","57","0","0","0","57","0","57","57","57","57","57","57","09/21/21 15:39:18","1500","The main experiment item","yes","FlankerTask.osexp","C:\Users\bryan\OneDrive\Documents\School\PSYC 5316  (Quant Methods)\Lab 2","no","mono","no","18","no","white","no","yes","768","legacy","57","57","C:/Users/bryan/OneDrive/Documents/School/PSYC 5316  (Quant Methods)/Lab 2/BS-subject-2.csv","legacy","Lentiform Loewenfeld","3.3.9","0","s","NA","s","NA","NA","s","495","NA","103627","NA","NA","495","2","legacy","1024","2","48000","-16","experiment","SSSSS","2","even","106897","NA","NA","NA","207471","3269","NA","NA","151890","3262","NA","208600","208710","209207","208596","208709","Flanker Task","56","30206","58","yes","1024"
"96.6101694915","96.6101694915","520.237288136","520.237288136","black","legacy","legacy","legacy","0","congruent","uniform","1","undefined","1","s","0","0","0","0","58","0","0","0","58","0","58","58","58","58","58","58","09/21/21 15:39:18","1500","The main experiment item","yes","FlankerTask.osexp","C:\Users\bryan\OneDrive\Documents\School\PSYC 5316  (Quant Methods)\Lab 2","no","mono","no","18","no","white","no","yes","768","legacy","58","58","C:/Users/bryan/OneDrive/Documents/School/PSYC 5316  (Quant Methods)/Lab 2/BS-subject-2.csv","legacy","Lentiform Loewenfeld","3.3.9","0","s","NA","s","NA","NA","s","488","NA","103627","NA","NA","488","2","legacy","1024","2","48000","-16","experiment","SSSSS","2","even","106897","NA","NA","NA","209215","3269","NA","NA","151890","3262","NA","210361","210470","210959","210357","210469","Flanker Task","57","30694","59","yes","1024"
"96.6666666667","96.6666666667","520.05","520.05","black","legacy","legacy","legacy","0","congruent","uniform","1","undefined","1","s","0","0","0","0","59","0","0","0","59","0","59","59","59","59","59","59","09/21/21 15:39:18","1500","The main experiment item","yes","FlankerTask.osexp","C:\Users\bryan\OneDrive\Documents\School\PSYC 5316  (Quant Methods)\Lab 2","no","mono","no","18","no","white","no","yes","768","legacy","59","59","C:/Users/bryan/OneDrive/Documents/School/PSYC 5316  (Quant Methods)/Lab 2/BS-subject-2.csv","legacy","Lentiform Loewenfeld","3.3.9","0","s","NA","s","NA","NA","s","509","NA","103627","NA","NA","509","2","legacy","1024","2","48000","-16","experiment","SSSSS","2","even","106897","NA","NA","NA","210968","3269","NA","NA","151890","3262","NA","212089","212199","212710","212085","212198","Flanker Task","58","31203","60","yes","1024"
"96.7213114754","96.7213114754","522.262295082","522.262295082","black","legacy","legacy","legacy","0","incongruent","uniform","1","undefined","1","h","0","0","0","0","60","0","0","0","60","0","60","60","60","60","60","60","09/21/21 15:39:18","1500","The main experiment item","yes","FlankerTask.osexp","C:\Users\bryan\OneDrive\Documents\School\PSYC 5316  (Quant Methods)\Lab 2","no","mono","no","18","no","white","no","yes","768","legacy","60","60","C:/Users/bryan/OneDrive/Documents/School/PSYC 5316  (Quant Methods)/Lab 2/BS-subject-2.csv","legacy","Lentiform Loewenfeld","3.3.9","0","h","NA","s","NA","NA","h","655","NA","103627","NA","NA","655","2","legacy","1024","2","48000","-16","experiment","SSHSS","2","even","106897","NA","NA","NA","212721","3269","NA","NA","151890","3262","NA","213851","213960","214616","213847","213959","Flanker Task","59","31858","61","yes","1024"
"96.7741935484","96.7741935484","525.241935484","525.241935484","black","legacy","legacy","legacy","0","incongruent","uniform","1","undefined","1","s","0","0","0","0","61","0","0","0","61","0","61","61","61","61","61","61","09/21/21 15:39:18","1500","The main experiment item","yes","FlankerTask.osexp","C:\Users\bryan\OneDrive\Documents\School\PSYC 5316  (Quant Methods)\Lab 2","no","mono","no","18","no","white","no","yes","768","legacy","61","61","C:/Users/bryan/OneDrive/Documents/School/PSYC 5316  (Quant Methods)/Lab 2/BS-subject-2.csv","legacy","Lentiform Loewenfeld","3.3.9","0","s","NA","s","NA","NA","s","707","NA","103627","NA","NA","707","2","legacy","1024","2","48000","-16","experiment","HHSHH","2","even","106897","NA","NA","NA","214626","3269","NA","NA","151890","3262","NA","215746","215855","216564","215742","215854","Flanker Task","60","32565","62","yes","1024"
"96.8253968254","96.8253968254","526.53968254","526.53968254","black","legacy","legacy","legacy","0","congruent","uniform","1","undefined","1","h","0","0","0","0","62","0","0","0","62","0","62","62","62","62","62","62","09/21/21 15:39:18","1500","The main experiment item","yes","FlankerTask.osexp","C:\Users\bryan\OneDrive\Documents\School\PSYC 5316  (Quant Methods)\Lab 2","no","mono","no","18","no","white","no","yes","768","legacy","62","62","C:/Users/bryan/OneDrive/Documents/School/PSYC 5316  (Quant Methods)/Lab 2/BS-subject-2.csv","legacy","Lentiform Loewenfeld","3.3.9","0","h","NA","s","NA","NA","h","607","NA","103627","NA","NA","607","2","legacy","1024","2","48000","-16","experiment","HHHHH","2","even","106897","NA","NA","NA","216571","3269","NA","NA","151890","3262","NA","217697","217807","218416","217693","217806","Flanker Task","61","33172","63","yes","1024"
"96.875","96.875","526.21875","526.21875","black","legacy","legacy","legacy","0","incongruent","uniform","1","undefined","1","s","0","0","0","0","63","0","0","0","63","0","63","63","63","63","63","63","09/21/21 15:39:18","1500","The main experiment item","yes","FlankerTask.osexp","C:\Users\bryan\OneDrive\Documents\School\PSYC 5316  (Quant Methods)\Lab 2","no","mono","no","18","no","white","no","yes","768","legacy","63","63","C:/Users/bryan/OneDrive/Documents/School/PSYC 5316  (Quant Methods)/Lab 2/BS-subject-2.csv","legacy","Lentiform Loewenfeld","3.3.9","0","s","NA","s","NA","NA","s","506","NA","103627","NA","NA","506","2","legacy","1024","2","48000","-16","experiment","HHSHH","2","even","106897","NA","NA","NA","218427","3269","NA","NA","151890","3262","NA","219538","219646","220154","219534","219645","Flanker Task","62","33678","64","yes","1024"
"96.9230769231","96.9230769231","525.907692308","525.907692308","black","legacy","legacy","legacy","0","congruent","uniform","1","undefined","1","s","0","0","0","0","64","0","0","0","64","0","64","64","64","64","64","64","09/21/21 15:39:18","1500","The main experiment item","yes","FlankerTask.osexp","C:\Users\bryan\OneDrive\Documents\School\PSYC 5316  (Quant Methods)\Lab 2","no","mono","no","18","no","white","no","yes","768","legacy","64","64","C:/Users/bryan/OneDrive/Documents/School/PSYC 5316  (Quant Methods)/Lab 2/BS-subject-2.csv","legacy","Lentiform Loewenfeld","3.3.9","0","s","NA","s","NA","NA","s","506","NA","103627","NA","NA","506","2","legacy","1024","2","48000","-16","experiment","SSSSS","2","even","106897","NA","NA","NA","220164","3269","NA","NA","151890","3262","NA","221291","221395","221903","221288","221395","Flanker Task","63","34184","65","yes","1024"
"96.9696969697","96.9696969697","532.136363636","532.136363636","black","legacy","legacy","legacy","0","congruent","uniform","1","undefined","1","h","0","0","0","0","65","0","0","0","65","0","65","65","65","65","65","65","09/21/21 15:39:18","1500","The main experiment item","yes","FlankerTask.osexp","C:\Users\bryan\OneDrive\Documents\School\PSYC 5316  (Quant Methods)\Lab 2","no","mono","no","18","no","white","no","yes","768","legacy","65","65","C:/Users/bryan/OneDrive/Documents/School/PSYC 5316  (Quant Methods)/Lab 2/BS-subject-2.csv","legacy","Lentiform Loewenfeld","3.3.9","0","h","NA","s","NA","NA","h","937","NA","103627","NA","NA","937","2","legacy","1024","2","48000","-16","experiment","HHHHH","2","even","106897","NA","NA","NA","221912","3269","NA","NA","151890","3262","NA","223035","223144","224083","223031","223143","Flanker Task","64","35121","66","yes","1024"
"97.0149253731","97.0149253731","533.149253731","533.149253731","black","legacy","legacy","legacy","0","incongruent","uniform","1","undefined","1","s","0","0","0","0","66","0","0","0","66","0","66","66","66","66","66","66","09/21/21 15:39:18","1500","The main experiment item","yes","FlankerTask.osexp","C:\Users\bryan\OneDrive\Documents\School\PSYC 5316  (Quant Methods)\Lab 2","no","mono","no","18","no","white","no","yes","768","legacy","66","66","C:/Users/bryan/OneDrive/Documents/School/PSYC 5316  (Quant Methods)/Lab 2/BS-subject-2.csv","legacy","Lentiform Loewenfeld","3.3.9","0","s","NA","s","NA","NA","s","600","NA","103627","NA","NA","600","2","legacy","1024","2","48000","-16","experiment","HHSHH","2","even","106897","NA","NA","NA","224089","3269","NA","NA","151890","3262","NA","225208","225311","225912","225203","225311","Flanker Task","65","35721","67","yes","1024"
"97.0588235294","97.0588235294","534.764705882","534.764705882","black","legacy","legacy","legacy","0","incongruent","uniform","1","undefined","1","h","0","0","0","0","67","0","0","0","67","0","67","67","67","67","67","67","09/21/21 15:39:18","1500","The main experiment item","yes","FlankerTask.osexp","C:\Users\bryan\OneDrive\Documents\School\PSYC 5316  (Quant Methods)\Lab 2","no","mono","no","18","no","white","no","yes","768","legacy","67","67","C:/Users/bryan/OneDrive/Documents/School/PSYC 5316  (Quant Methods)/Lab 2/BS-subject-2.csv","legacy","Lentiform Loewenfeld","3.3.9","0","h","NA","s","NA","NA","h","643","NA","103627","NA","NA","643","2","legacy","1024","2","48000","-16","experiment","SSHSS","2","even","106897","NA","NA","NA","225922","3269","NA","NA","151890","3262","NA","227051","227160","227805","227046","227159","Flanker Task","66","36364","68","yes","1024"
"97.1014492754","97.1014492754","535.550724638","535.550724638","black","legacy","legacy","legacy","0","congruent","uniform","1","undefined","1","s","0","0","0","0","68","0","0","0","68","0","68","68","68","68","68","68","09/21/21 15:39:18","1500","The main experiment item","yes","FlankerTask.osexp","C:\Users\bryan\OneDrive\Documents\School\PSYC 5316  (Quant Methods)\Lab 2","no","mono","no","18","no","white","no","yes","768","legacy","68","68","C:/Users/bryan/OneDrive/Documents/School/PSYC 5316  (Quant Methods)/Lab 2/BS-subject-2.csv","legacy","Lentiform Loewenfeld","3.3.9","0","s","NA","s","NA","NA","s","589","NA","103627","NA","NA","589","2","legacy","1024","2","48000","-16","experiment","SSSSS","2","even","106897","NA","NA","NA","227815","3269","NA","NA","151890","3262","NA","228944","229052","229643","228940","229052","Flanker Task","67","36953","69","yes","1024"
"97.1428571429","97.1428571429","534.528571429","534.528571429","black","legacy","legacy","legacy","0","congruent","uniform","1","undefined","1","s","0","0","0","0","69","0","0","0","69","0","69","69","69","69","69","69","09/21/21 15:39:18","1500","The main experiment item","yes","FlankerTask.osexp","C:\Users\bryan\OneDrive\Documents\School\PSYC 5316  (Quant Methods)\Lab 2","no","mono","no","18","no","white","no","yes","768","legacy","69","69","C:/Users/bryan/OneDrive/Documents/School/PSYC 5316  (Quant Methods)/Lab 2/BS-subject-2.csv","legacy","Lentiform Loewenfeld","3.3.9","0","s","NA","s","NA","NA","s","464","NA","103627","NA","NA","464","2","legacy","1024","2","48000","-16","experiment","SSSSS","2","even","106897","NA","NA","NA","229652","3269","NA","NA","151890","3262","NA","230774","230883","231348","230770","230883","Flanker Task","68","37417","70","yes","1024"
"97.1830985915","97.1830985915","535.253521127","535.253521127","black","legacy","legacy","legacy","0","congruent","uniform","1","undefined","1","s","0","0","0","0","70","0","0","0","70","0","70","70","70","70","70","70","09/21/21 15:39:18","1500","The main experiment item","yes","FlankerTask.osexp","C:\Users\bryan\OneDrive\Documents\School\PSYC 5316  (Quant Methods)\Lab 2","no","mono","no","18","no","white","no","yes","768","legacy","70","70","C:/Users/bryan/OneDrive/Documents/School/PSYC 5316  (Quant Methods)/Lab 2/BS-subject-2.csv","legacy","Lentiform Loewenfeld","3.3.9","0","s","NA","s","NA","NA","s","586","NA","103627","NA","NA","586","2","legacy","1024","2","48000","-16","experiment","SSSSS","2","even","106897","NA","NA","NA","231359","3269","NA","NA","151890","3262","NA","232525","232634","233222","232521","232633","Flanker Task","69","38003","71","yes","1024"
"97.2222222222","97.2222222222","535.736111111","535.736111111","black","legacy","legacy","legacy","0","incongruent","uniform","1","undefined","1","s","0","0","0","0","71","0","0","0","71","0","71","71","71","71","71","71","09/21/21 15:39:18","1500","The main experiment item","yes","FlankerTask.osexp","C:\Users\bryan\OneDrive\Documents\School\PSYC 5316  (Quant Methods)\Lab 2","no","mono","no","18","no","white","no","yes","768","legacy","71","71","C:/Users/bryan/OneDrive/Documents/School/PSYC 5316  (Quant Methods)/Lab 2/BS-subject-2.csv","legacy","Lentiform Loewenfeld","3.3.9","0","s","NA","s","NA","NA","s","570","NA","103627","NA","NA","570","2","legacy","1024","2","48000","-16","experiment","HHSHH","2","even","106897","NA","NA","NA","233232","3269","NA","NA","151890","3262","NA","234356","234459","235031","234351","234459","Flanker Task","70","38573","72","yes","1024"
"97.2602739726","97.2602739726","535.109589041","535.109589041","black","legacy","legacy","legacy","0","congruent","uniform","1","undefined","1","s","0","0","0","0","72","0","0","0","72","0","72","72","72","72","72","72","09/21/21 15:39:18","1500","The main experiment item","yes","FlankerTask.osexp","C:\Users\bryan\OneDrive\Documents\School\PSYC 5316  (Quant Methods)\Lab 2","no","mono","no","18","no","white","no","yes","768","legacy","72","72","C:/Users/bryan/OneDrive/Documents/School/PSYC 5316  (Quant Methods)/Lab 2/BS-subject-2.csv","legacy","Lentiform Loewenfeld","3.3.9","0","s","NA","s","NA","NA","s","490","NA","103627","NA","NA","490","2","legacy","1024","2","48000","-16","experiment","SSSSS","2","even","106897","NA","NA","NA","235040","3269","NA","NA","151890","3262","NA","236169","236278","236770","236165","236277","Flanker Task","71","39063","73","yes","1024"
"97.2972972973","97.2972972973","535.22972973","535.22972973","black","legacy","legacy","legacy","0","congruent","uniform","1","undefined","1","h","0","0","0","0","73","0","0","0","73","0","73","73","73","73","73","73","09/21/21 15:39:18","1500","The main experiment item","yes","FlankerTask.osexp","C:\Users\bryan\OneDrive\Documents\School\PSYC 5316  (Quant Methods)\Lab 2","no","mono","no","18","no","white","no","yes","768","legacy","73","73","C:/Users/bryan/OneDrive/Documents/School/PSYC 5316  (Quant Methods)/Lab 2/BS-subject-2.csv","legacy","Lentiform Loewenfeld","3.3.9","0","h","NA","s","NA","NA","h","544","NA","103627","NA","NA","544","2","legacy","1024","2","48000","-16","experiment","HHHHH","2","even","106897","NA","NA","NA","236780","3269","NA","NA","151890","3262","NA","237888","237997","238543","237884","237996","Flanker Task","72","39607","74","yes","1024"
"97.3333333333","97.3333333333","535.613333333","535.613333333","black","legacy","legacy","legacy","0","congruent","uniform","1","undefined","1","s","0","0","0","0","74","0","0","0","74","0","74","74","74","74","74","74","09/21/21 15:39:18","1500","The main experiment item","yes","FlankerTask.osexp","C:\Users\bryan\OneDrive\Documents\School\PSYC 5316  (Quant Methods)\Lab 2","no","mono","no","18","no","white","no","yes","768","legacy","74","74","C:/Users/bryan/OneDrive/Documents/School/PSYC 5316  (Quant Methods)/Lab 2/BS-subject-2.csv","legacy","Lentiform Loewenfeld","3.3.9","0","s","NA","s","NA","NA","s","564","NA","103627","NA","NA","564","2","legacy","1024","2","48000","-16","experiment","SSSSS","2","even","106897","NA","NA","NA","238550","3269","NA","NA","151890","3262","NA","239681","239790","240355","239677","239789","Flanker Task","73","40171","75","yes","1024"
"97.3684210526","97.3684210526","535.842105263","535.842105263","black","legacy","legacy","legacy","0","congruent","uniform","1","undefined","1","s","0","0","0","0","75","0","0","0","75","0","75","75","75","75","75","75","09/21/21 15:39:18","1500","The main experiment item","yes","FlankerTask.osexp","C:\Users\bryan\OneDrive\Documents\School\PSYC 5316  (Quant Methods)\Lab 2","no","mono","no","18","no","white","no","yes","768","legacy","75","75","C:/Users/bryan/OneDrive/Documents/School/PSYC 5316  (Quant Methods)/Lab 2/BS-subject-2.csv","legacy","Lentiform Loewenfeld","3.3.9","0","s","NA","s","NA","NA","s","553","NA","103627","NA","NA","553","2","legacy","1024","2","48000","-16","experiment","SSSSS","2","even","106897","NA","NA","NA","240362","3269","NA","NA","151890","3262","NA","241485","241594","242149","241481","241593","Flanker Task","74","40724","76","yes","1024"
"97.4025974026","97.4025974026","536.155844156","536.155844156","black","legacy","legacy","legacy","0","incongruent","uniform","1","undefined","1","s","0","0","0","0","76","0","0","0","76","0","76","76","76","76","76","76","09/21/21 15:39:18","1500","The main experiment item","yes","FlankerTask.osexp","C:\Users\bryan\OneDrive\Documents\School\PSYC 5316  (Quant Methods)\Lab 2","no","mono","no","18","no","white","no","yes","768","legacy","76","76","C:/Users/bryan/OneDrive/Documents/School/PSYC 5316  (Quant Methods)/Lab 2/BS-subject-2.csv","legacy","Lentiform Loewenfeld","3.3.9","0","s","NA","s","NA","NA","s","560","NA","103627","NA","NA","560","2","legacy","1024","2","48000","-16","experiment","HHSHH","2","even","106897","NA","NA","NA","242159","3269","NA","NA","151890","3262","NA","243284","243393","243955","243280","243392","Flanker Task","75","41284","77","yes","1024"
"97.4358974359","97.4358974359","535.333333333","535.333333333","black","legacy","legacy","legacy","0","congruent","uniform","1","undefined","1","s","0","0","0","0","77","0","0","0","77","0","77","77","77","77","77","77","09/21/21 15:39:18","1500","The main experiment item","yes","FlankerTask.osexp","C:\Users\bryan\OneDrive\Documents\School\PSYC 5316  (Quant Methods)\Lab 2","no","mono","no","18","no","white","no","yes","768","legacy","77","77","C:/Users/bryan/OneDrive/Documents/School/PSYC 5316  (Quant Methods)/Lab 2/BS-subject-2.csv","legacy","Lentiform Loewenfeld","3.3.9","0","s","NA","s","NA","NA","s","472","NA","103627","NA","NA","472","2","legacy","1024","2","48000","-16","experiment","SSSSS","2","even","106897","NA","NA","NA","243966","3269","NA","NA","151890","3262","NA","245110","245219","245693","245105","245218","Flanker Task","76","41756","78","yes","1024"
"97.4683544304","97.4683544304","534.962025316","534.962025316","black","legacy","legacy","legacy","0","congruent","uniform","1","undefined","1","s","0","0","0","0","78","0","0","0","78","0","78","78","78","78","78","78","09/21/21 15:39:18","1500","The main experiment item","yes","FlankerTask.osexp","C:\Users\bryan\OneDrive\Documents\School\PSYC 5316  (Quant Methods)\Lab 2","no","mono","no","18","no","white","no","yes","768","legacy","78","78","C:/Users/bryan/OneDrive/Documents/School/PSYC 5316  (Quant Methods)/Lab 2/BS-subject-2.csv","legacy","Lentiform Loewenfeld","3.3.9","0","s","NA","s","NA","NA","s","506","NA","103627","NA","NA","506","2","legacy","1024","2","48000","-16","experiment","SSSSS","2","even","106897","NA","NA","NA","245700","3269","NA","NA","151890","3262","NA","246823","246931","247439","246819","246931","Flanker Task","77","42262","79","yes","1024"
"97.5","97.5","535.35","535.35","black","legacy","legacy","legacy","0","incongruent","uniform","1","undefined","1","h","0","0","0","0","79","0","0","0","79","0","79","79","79","79","79","79","09/21/21 15:39:18","1500","The main experiment item","yes","FlankerTask.osexp","C:\Users\bryan\OneDrive\Documents\School\PSYC 5316  (Quant Methods)\Lab 2","no","mono","no","18","no","white","no","yes","768","legacy","79","79","C:/Users/bryan/OneDrive/Documents/School/PSYC 5316  (Quant Methods)/Lab 2/BS-subject-2.csv","legacy","Lentiform Loewenfeld","3.3.9","0","h","NA","s","NA","NA","h","566","NA","103627","NA","NA","566","2","legacy","1024","2","48000","-16","experiment","SSHSS","2","even","106897","NA","NA","NA","247447","3269","NA","NA","151890","3262","NA","248567","248676","249244","248563","248675","Flanker Task","78","42828","80","yes","1024"
"97.5308641975","97.5308641975","535.209876543","535.209876543","black","legacy","legacy","legacy","0","congruent","uniform","1","undefined","1","s","0","0","0","0","80","0","0","0","80","0","80","80","80","80","80","80","09/21/21 15:39:18","600","The main experiment item","yes","FlankerTask.osexp","C:\Users\bryan\OneDrive\Documents\School\PSYC 5316  (Quant Methods)\Lab 2","no","mono","no","18","no","white","no","yes","768","legacy","0","79","C:/Users/bryan/OneDrive/Documents/School/PSYC 5316  (Quant Methods)/Lab 2/BS-subject-2.csv","legacy","Lentiform Loewenfeld","3.3.9","0","s","NA","s","s","NA","s","524","NA","103627","13817","NA","524","2","legacy","1024","2","48000","-16","experiment","SSSSS","2","even","106897","264109","NA","NA","249254","3269","250290","NA","151890","3262","NA","264206","264315","264840","264202","264314","Flanker Task","79","43352","81","yes","1024"
"97.5609756098","97.5609756098","533.695121951","533.695121951","black","legacy","legacy","legacy","0","incongruent","uniform","1","undefined","1","h","0","0","0","0","81","0","0","0","81","0","81","81","81","81","81","81","09/21/21 15:39:18","600","The main experiment item","yes","FlankerTask.osexp","C:\Users\bryan\OneDrive\Documents\School\PSYC 5316  (Quant Methods)\Lab 2","no","mono","no","18","no","white","no","yes","768","legacy","1","79","C:/Users/bryan/OneDrive/Documents/School/PSYC 5316  (Quant Methods)/Lab 2/BS-subject-2.csv","legacy","Lentiform Loewenfeld","3.3.9","0","h","NA","s","s","NA","h","411","NA","103627","13817","NA","411","2","legacy","1024","2","48000","-16","experiment","SSHSS","2","even","106897","264109","NA","NA","264850","3269","250290","NA","151890","3262","NA","265970","266079","266492","265966","266079","Flanker Task","80","43763","82","yes","1024"
"97.5903614458","97.5903614458","531.542168675","531.542168675","black","legacy","legacy","legacy","0","congruent","uniform","1","undefined","1","h","0","0","0","0","82","0","0","0","82","0","82","82","82","82","82","82","09/21/21 15:39:18","600","The main experiment item","yes","FlankerTask.osexp","C:\Users\bryan\OneDrive\Documents\School\PSYC 5316  (Quant Methods)\Lab 2","no","mono","no","18","no","white","no","yes","768","legacy","2","79","C:/Users/bryan/OneDrive/Documents/School/PSYC 5316  (Quant Methods)/Lab 2/BS-subject-2.csv","legacy","Lentiform Loewenfeld","3.3.9","0","h","NA","s","s","NA","h","355","NA","103627","13817","NA","355","2","legacy","1024","2","48000","-16","experiment","HHHHH","2","even","106897","264109","NA","NA","266501","3269","250290","NA","151890","3262","NA","267620","267728","268085","267615","267727","Flanker Task","81","44118","83","yes","1024"
"97.619047619","97.619047619","529.428571429","529.428571429","black","legacy","legacy","legacy","0","incongruent","uniform","1","undefined","1","s","0","0","0","0","83","0","0","0","83","0","83","83","83","83","83","83","09/21/21 15:39:18","600","The main experiment item","yes","FlankerTask.osexp","C:\Users\bryan\OneDrive\Documents\School\PSYC 5316  (Quant Methods)\Lab 2","no","mono","no","18","no","white","no","yes","768","legacy","3","79","C:/Users/bryan/OneDrive/Documents/School/PSYC 5316  (Quant Methods)/Lab 2/BS-subject-2.csv","legacy","Lentiform Loewenfeld","3.3.9","0","s","NA","s","s","NA","s","354","NA","103627","13817","NA","354","2","legacy","1024","2","48000","-16","experiment","HHSHH","2","even","106897","264109","NA","NA","268094","3269","250290","NA","151890","3262","NA","269212","269320","269675","269208","269320","Flanker Task","82","44472","84","yes","1024"
"96.4705882353","96.4705882353","526.682352941","526.682352941","black","legacy","legacy","legacy","0","incongruent","uniform","0","undefined","0","s","0","0","0","0","84","0","0","0","84","0","84","84","84","84","84","84","09/21/21 15:39:18","600","The main experiment item","yes","FlankerTask.osexp","C:\Users\bryan\OneDrive\Documents\School\PSYC 5316  (Quant Methods)\Lab 2","no","mono","no","18","no","white","no","yes","768","legacy","4","79","C:/Users/bryan/OneDrive/Documents/School/PSYC 5316  (Quant Methods)/Lab 2/BS-subject-2.csv","legacy","Lentiform Loewenfeld","3.3.9","0","h","NA","s","s","NA","h","296","NA","103627","13817","NA","296","2","legacy","1024","2","48000","-16","experiment","HHSHH","2","even","106897","264109","NA","NA","269685","3269","250290","NA","151890","3262","NA","270801","270910","271207","270798","270909","Flanker Task","82","44768","85","yes","1024"
"96.511627907","96.511627907","526.627906977","526.627906977","black","legacy","legacy","legacy","0","incongruent","uniform","1","undefined","1","s","0","0","0","0","85","0","0","0","85","0","85","85","85","85","85","85","09/21/21 15:39:18","600","The main experiment item","yes","FlankerTask.osexp","C:\Users\bryan\OneDrive\Documents\School\PSYC 5316  (Quant Methods)\Lab 2","no","mono","no","18","no","white","no","yes","768","legacy","5","79","C:/Users/bryan/OneDrive/Documents/School/PSYC 5316  (Quant Methods)/Lab 2/BS-subject-2.csv","legacy","Lentiform Loewenfeld","3.3.9","0","s","NA","s","s","NA","s","522","NA","103627","13817","NA","522","2","legacy","1024","2","48000","-16","experiment","HHSHH","2","even","106897","264109","NA","NA","271726","3269","250290","NA","271217","3262","NA","272842","272952","273475","272838","272951","Flanker Task","83","45290","86","yes","1024"
"96.5517241379","96.5517241379","525.873563218","525.873563218","black","legacy","legacy","legacy","0","congruent","uniform","1","undefined","1","h","0","0","0","0","86","0","0","0","86","0","86","86","86","86","86","86","09/21/21 15:39:18","600","The main experiment item","yes","FlankerTask.osexp","C:\Users\bryan\OneDrive\Documents\School\PSYC 5316  (Quant Methods)\Lab 2","no","mono","no","18","no","white","no","yes","768","legacy","6","79","C:/Users/bryan/OneDrive/Documents/School/PSYC 5316  (Quant Methods)/Lab 2/BS-subject-2.csv","legacy","Lentiform Loewenfeld","3.3.9","0","h","NA","s","s","NA","h","461","NA","103627","13817","NA","461","2","legacy","1024","2","48000","-16","experiment","HHHHH","2","even","106897","264109","NA","NA","273485","3269","250290","NA","271217","3262","NA","274608","274717","275179","274604","274716","Flanker Task","84","45751","87","yes","1024"
"96.5909090909","96.5909090909","526.181818182","526.181818182","black","legacy","legacy","legacy","0","incongruent","uniform","1","undefined","1","s","0","0","0","0","87","0","0","0","87","0","87","87","87","87","87","87","09/21/21 15:39:18","600","The main experiment item","yes","FlankerTask.osexp","C:\Users\bryan\OneDrive\Documents\School\PSYC 5316  (Quant Methods)\Lab 2","no","mono","no","18","no","white","no","yes","768","legacy","7","79","C:/Users/bryan/OneDrive/Documents/School/PSYC 5316  (Quant Methods)/Lab 2/BS-subject-2.csv","legacy","Lentiform Loewenfeld","3.3.9","0","s","NA","s","s","NA","s","553","NA","103627","13817","NA","553","2","legacy","1024","2","48000","-16","experiment","HHSHH","2","even","106897","264109","NA","NA","275188","3269","250290","NA","271217","3262","NA","276314","276417","276972","276310","276417","Flanker Task","85","46304","88","yes","1024"
"96.6292134831","96.6292134831","524.719101124","524.719101124","black","legacy","legacy","legacy","0","incongruent","uniform","1","undefined","1","h","0","0","0","0","88","0","0","0","88","0","88","88","88","88","88","88","09/21/21 15:39:18","600","The main experiment item","yes","FlankerTask.osexp","C:\Users\bryan\OneDrive\Documents\School\PSYC 5316  (Quant Methods)\Lab 2","no","mono","no","18","no","white","no","yes","768","legacy","8","79","C:/Users/bryan/OneDrive/Documents/School/PSYC 5316  (Quant Methods)/Lab 2/BS-subject-2.csv","legacy","Lentiform Loewenfeld","3.3.9","0","h","NA","s","s","NA","h","396","NA","103627","13817","NA","396","2","legacy","1024","2","48000","-16","experiment","SSHSS","2","even","106897","264109","NA","NA","276983","3269","250290","NA","271217","3262","NA","278112","278221","278619","278108","278220","Flanker Task","86","46700","89","yes","1024"
"96.6666666667","96.6666666667","523.822222222","523.822222222","black","legacy","legacy","legacy","0","congruent","uniform","1","undefined","1","s","0","0","0","0","89","0","0","0","89","0","89","89","89","89","89","89","09/21/21 15:39:18","600","The main experiment item","yes","FlankerTask.osexp","C:\Users\bryan\OneDrive\Documents\School\PSYC 5316  (Quant Methods)\Lab 2","no","mono","no","18","no","white","no","yes","768","legacy","9","79","C:/Users/bryan/OneDrive/Documents/School/PSYC 5316  (Quant Methods)/Lab 2/BS-subject-2.csv","legacy","Lentiform Loewenfeld","3.3.9","0","s","NA","s","s","NA","s","444","NA","103627","13817","NA","444","2","legacy","1024","2","48000","-16","experiment","SSSSS","2","even","106897","264109","NA","NA","278626","3269","250290","NA","271217","3262","NA","279744","279852","280297","279739","279852","Flanker Task","87","47144","90","yes","1024"
"96.7032967033","96.7032967033","524.120879121","524.120879121","black","legacy","legacy","legacy","0","incongruent","uniform","1","undefined","1","h","0","0","0","0","90","0","0","0","90","0","90","90","90","90","90","90","09/21/21 15:39:18","600","The main experiment item","yes","FlankerTask.osexp","C:\Users\bryan\OneDrive\Documents\School\PSYC 5316  (Quant Methods)\Lab 2","no","mono","no","18","no","white","no","yes","768","legacy","10","79","C:/Users/bryan/OneDrive/Documents/School/PSYC 5316  (Quant Methods)/Lab 2/BS-subject-2.csv","legacy","Lentiform Loewenfeld","3.3.9","0","h","NA","s","s","NA","h","551","NA","103627","13817","NA","551","2","legacy","1024","2","48000","-16","experiment","SSHSS","2","even","106897","264109","NA","NA","280308","3269","250290","NA","271217","3262","NA","281418","281521","282074","281413","281521","Flanker Task","88","47695","91","yes","1024"
"96.7391304348","96.7391304348","524.141304348","524.141304348","black","legacy","legacy","legacy","0","incongruent","uniform","1","undefined","1","h","0","0","0","0","91","0","0","0","91","0","91","91","91","91","91","91","09/21/21 15:39:18","600","The main experiment item","yes","FlankerTask.osexp","C:\Users\bryan\OneDrive\Documents\School\PSYC 5316  (Quant Methods)\Lab 2","no","mono","no","18","no","white","no","yes","768","legacy","11","79","C:/Users/bryan/OneDrive/Documents/School/PSYC 5316  (Quant Methods)/Lab 2/BS-subject-2.csv","legacy","Lentiform Loewenfeld","3.3.9","0","h","NA","s","s","NA","h","526","NA","103627","13817","NA","526","2","legacy","1024","2","48000","-16","experiment","SSHSS","2","even","106897","264109","NA","NA","282084","3269","250290","NA","271217","3262","NA","283206","283315","283843","283202","283314","Flanker Task","89","48221","92","yes","1024"
"96.7741935484","96.7741935484","523.483870968","523.483870968","black","legacy","legacy","legacy","0","congruent","uniform","1","undefined","1","s","0","0","0","0","92","0","0","0","92","0","92","92","92","92","92","92","09/21/21 15:39:18","600","The main experiment item","yes","FlankerTask.osexp","C:\Users\bryan\OneDrive\Documents\School\PSYC 5316  (Quant Methods)\Lab 2","no","mono","no","18","no","white","no","yes","768","legacy","12","79","C:/Users/bryan/OneDrive/Documents/School/PSYC 5316  (Quant Methods)/Lab 2/BS-subject-2.csv","legacy","Lentiform Loewenfeld","3.3.9","0","s","NA","s","s","NA","s","463","NA","103627","13817","NA","463","2","legacy","1024","2","48000","-16","experiment","SSSSS","2","even","106897","264109","NA","NA","283850","3269","250290","NA","271217","3262","NA","284981","285090","285555","284976","285089","Flanker Task","90","48684","93","yes","1024"
"96.8085106383","96.8085106383","523.170212766","523.170212766","black","legacy","legacy","legacy","0","congruent","uniform","1","undefined","1","h","0","0","0","0","93","0","0","0","93","0","93","93","93","93","93","93","09/21/21 15:39:18","600","The main experiment item","yes","FlankerTask.osexp","C:\Users\bryan\OneDrive\Documents\School\PSYC 5316  (Quant Methods)\Lab 2","no","mono","no","18","no","white","no","yes","768","legacy","13","79","C:/Users/bryan/OneDrive/Documents/School/PSYC 5316  (Quant Methods)/Lab 2/BS-subject-2.csv","legacy","Lentiform Loewenfeld","3.3.9","0","h","NA","s","s","NA","h","494","NA","103627","13817","NA","494","2","legacy","1024","2","48000","-16","experiment","HHHHH","2","even","106897","264109","NA","NA","285565","3269","250290","NA","271217","3262","NA","286693","286803","287299","286689","286802","Flanker Task","91","49178","94","yes","1024"
"96.8421052632","96.8421052632","521.947368421","521.947368421","black","legacy","legacy","legacy","0","congruent","uniform","1","undefined","1","s","0","0","0","0","94","0","0","0","94","0","94","94","94","94","94","94","09/21/21 15:39:18","600","The main experiment item","yes","FlankerTask.osexp","C:\Users\bryan\OneDrive\Documents\School\PSYC 5316  (Quant Methods)\Lab 2","no","mono","no","18","no","white","no","yes","768","legacy","14","79","C:/Users/bryan/OneDrive/Documents/School/PSYC 5316  (Quant Methods)/Lab 2/BS-subject-2.csv","legacy","Lentiform Loewenfeld","3.3.9","0","s","NA","s","s","NA","s","407","NA","103627","13817","NA","407","2","legacy","1024","2","48000","-16","experiment","SSSSS","2","even","106897","264109","NA","NA","287309","3269","250290","NA","271217","3262","NA","288433","288542","288951","288429","288541","Flanker Task","92","49585","95","yes","1024"
"96.875","96.875","520.552083333","520.552083333","black","legacy","legacy","legacy","0","congruent","uniform","1","undefined","1","s","0","0","0","0","95","0","0","0","95","0","95","95","95","95","95","95","09/21/21 15:39:18","600","The main experiment item","yes","FlankerTask.osexp","C:\Users\bryan\OneDrive\Documents\School\PSYC 5316  (Quant Methods)\Lab 2","no","mono","no","18","no","white","no","yes","768","legacy","15","79","C:/Users/bryan/OneDrive/Documents/School/PSYC 5316  (Quant Methods)/Lab 2/BS-subject-2.csv","legacy","Lentiform Loewenfeld","3.3.9","0","s","NA","s","s","NA","s","388","NA","103627","13817","NA","388","2","legacy","1024","2","48000","-16","experiment","SSSSS","2","even","106897","264109","NA","NA","288959","3269","250290","NA","271217","3262","NA","290084","290193","290583","290081","290192","Flanker Task","93","49973","96","yes","1024"
"96.9072164948","96.9072164948","519.505154639","519.505154639","black","legacy","legacy","legacy","0","congruent","uniform","1","undefined","1","s","0","0","0","0","96","0","0","0","96","0","96","96","96","96","96","96","09/21/21 15:39:18","600","The main experiment item","yes","FlankerTask.osexp","C:\Users\bryan\OneDrive\Documents\School\PSYC 5316  (Quant Methods)\Lab 2","no","mono","no","18","no","white","no","yes","768","legacy","16","79","C:/Users/bryan/OneDrive/Documents/School/PSYC 5316  (Quant Methods)/Lab 2/BS-subject-2.csv","legacy","Lentiform Loewenfeld","3.3.9","0","s","NA","s","s","NA","s","419","NA","103627","13817","NA","419","2","legacy","1024","2","48000","-16","experiment","SSSSS","2","even","106897","264109","NA","NA","290590","3269","250290","NA","271217","3262","NA","291709","291818","292239","291705","291817","Flanker Task","94","50392","97","yes","1024"
"96.9387755102","96.9387755102","519.346938776","519.346938776","black","legacy","legacy","legacy","0","incongruent","uniform","1","undefined","1","s","0","0","0","0","97","0","0","0","97","0","97","97","97","97","97","97","09/21/21 15:39:18","600","The main experiment item","yes","FlankerTask.osexp","C:\Users\bryan\OneDrive\Documents\School\PSYC 5316  (Quant Methods)\Lab 2","no","mono","no","18","no","white","no","yes","768","legacy","17","79","C:/Users/bryan/OneDrive/Documents/School/PSYC 5316  (Quant Methods)/Lab 2/BS-subject-2.csv","legacy","Lentiform Loewenfeld","3.3.9","0","s","NA","s","s","NA","s","504","NA","103627","13817","NA","504","2","legacy","1024","2","48000","-16","experiment","HHSHH","2","even","106897","264109","NA","NA","292246","3269","250290","NA","271217","3262","NA","293364","293472","293977","293360","293472","Flanker Task","95","50896","98","yes","1024"
"96.9696969697","96.9696969697","519.363636364","519.363636364","black","legacy","legacy","legacy","0","incongruent","uniform","1","undefined","1","h","0","0","0","0","98","0","0","0","98","0","98","98","98","98","98","98","09/21/21 15:39:18","600","The main experiment item","yes","FlankerTask.osexp","C:\Users\bryan\OneDrive\Documents\School\PSYC 5316  (Quant Methods)\Lab 2","no","mono","no","18","no","white","no","yes","768","legacy","18","79","C:/Users/bryan/OneDrive/Documents/School/PSYC 5316  (Quant Methods)/Lab 2/BS-subject-2.csv","legacy","Lentiform Loewenfeld","3.3.9","0","h","NA","s","s","NA","h","521","NA","103627","13817","NA","521","2","legacy","1024","2","48000","-16","experiment","SSHSS","2","even","106897","264109","NA","NA","293987","3269","250290","NA","271217","3262","NA","295103","295212","295734","295098","295211","Flanker Task","96","51417","99","yes","1024"
"97","97","519.12","519.12","black","legacy","legacy","legacy","0","incongruent","uniform","1","undefined","1","h","0","0","0","0","99","0","0","0","99","0","99","99","99","99","99","99","09/21/21 15:39:18","600","The main experiment item","yes","FlankerTask.osexp","C:\Users\bryan\OneDrive\Documents\School\PSYC 5316  (Quant Methods)\Lab 2","no","mono","no","18","no","white","no","yes","768","legacy","19","79","C:/Users/bryan/OneDrive/Documents/School/PSYC 5316  (Quant Methods)/Lab 2/BS-subject-2.csv","legacy","Lentiform Loewenfeld","3.3.9","0","h","NA","s","s","NA","h","495","NA","103627","13817","NA","495","2","legacy","1024","2","48000","-16","experiment","SSHSS","2","even","106897","264109","NA","NA","295744","3269","250290","NA","271217","3262","NA","296870","296979","297476","296866","296978","Flanker Task","97","51912","100","yes","1024"
"97.0297029703","97.0297029703","520.851485149","520.851485149","black","legacy","legacy","legacy","0","incongruent","uniform","1","undefined","1","h","0","0","0","0","100","0","0","0","100","0","100","100","100","100","100","100","09/21/21 15:39:18","600","The main experiment item","yes","FlankerTask.osexp","C:\Users\bryan\OneDrive\Documents\School\PSYC 5316  (Quant Methods)\Lab 2","no","mono","no","18","no","white","no","yes","768","legacy","20","79","C:/Users/bryan/OneDrive/Documents/School/PSYC 5316  (Quant Methods)/Lab 2/BS-subject-2.csv","legacy","Lentiform Loewenfeld","3.3.9","0","h","NA","s","s","NA","h","694","NA","103627","13817","NA","694","2","legacy","1024","2","48000","-16","experiment","SSHSS","2","even","106897","264109","NA","NA","297487","3269","250290","NA","271217","3262","NA","298608","298717","299412","298604","298716","Flanker Task","98","52606","101","yes","1024"
"97.0588235294","97.0588235294","520.803921569","520.803921569","black","legacy","legacy","legacy","0","incongruent","uniform","1","undefined","1","s","0","0","0","0","101","0","0","0","101","0","101","101","101","101","101","101","09/21/21 15:39:18","600","The main experiment item","yes","FlankerTask.osexp","C:\Users\bryan\OneDrive\Documents\School\PSYC 5316  (Quant Methods)\Lab 2","no","mono","no","18","no","white","no","yes","768","legacy","21","79","C:/Users/bryan/OneDrive/Documents/School/PSYC 5316  (Quant Methods)/Lab 2/BS-subject-2.csv","legacy","Lentiform Loewenfeld","3.3.9","0","s","NA","s","s","NA","s","516","NA","103627","13817","NA","516","2","legacy","1024","2","48000","-16","experiment","HHSHH","2","even","106897","264109","NA","NA","299930","3269","250290","NA","271217","3262","299422","301062","301171","301689","301058","301170","Flanker Task","99","53122","102","yes","1024"
"97.0873786408","97.0873786408","519.106796117","519.106796117","black","legacy","legacy","legacy","0","incongruent","uniform","1","undefined","1","h","0","0","0","0","102","0","0","0","102","0","102","102","102","102","102","102","09/21/21 15:39:18","600","The main experiment item","yes","FlankerTask.osexp","C:\Users\bryan\OneDrive\Documents\School\PSYC 5316  (Quant Methods)\Lab 2","no","mono","no","18","no","white","no","yes","768","legacy","22","79","C:/Users/bryan/OneDrive/Documents/School/PSYC 5316  (Quant Methods)/Lab 2/BS-subject-2.csv","legacy","Lentiform Loewenfeld","3.3.9","0","h","NA","s","s","NA","h","346","NA","103627","13817","NA","346","2","legacy","1024","2","48000","-16","experiment","SSHSS","2","even","106897","264109","NA","NA","301700","3269","250290","NA","271217","3262","299422","302807","302916","303264","302803","302915","Flanker Task","100","53468","103","yes","1024"
"97.1153846154","97.1153846154","517.836538462","517.836538462","black","legacy","legacy","legacy","0","incongruent","uniform","1","undefined","1","h","0","0","0","0","103","0","0","0","103","0","103","103","103","103","103","103","09/21/21 15:39:18","600","The main experiment item","yes","FlankerTask.osexp","C:\Users\bryan\OneDrive\Documents\School\PSYC 5316  (Quant Methods)\Lab 2","no","mono","no","18","no","white","no","yes","768","legacy","23","79","C:/Users/bryan/OneDrive/Documents/School/PSYC 5316  (Quant Methods)/Lab 2/BS-subject-2.csv","legacy","Lentiform Loewenfeld","3.3.9","0","h","NA","s","s","NA","h","387","NA","103627","13817","NA","387","2","legacy","1024","2","48000","-16","experiment","SSHSS","2","even","106897","264109","NA","NA","303274","3269","250290","NA","271217","3262","299422","304394","304503","304892","304390","304502","Flanker Task","101","53855","104","yes","1024"
"97.1428571429","97.1428571429","516.657142857","516.657142857","black","legacy","legacy","legacy","0","congruent","uniform","1","undefined","1","h","0","0","0","0","104","0","0","0","104","0","104","104","104","104","104","104","09/21/21 15:39:18","600","The main experiment item","yes","FlankerTask.osexp","C:\Users\bryan\OneDrive\Documents\School\PSYC 5316  (Quant Methods)\Lab 2","no","mono","no","18","no","white","no","yes","768","legacy","24","79","C:/Users/bryan/OneDrive/Documents/School/PSYC 5316  (Quant Methods)/Lab 2/BS-subject-2.csv","legacy","Lentiform Loewenfeld","3.3.9","0","h","NA","s","s","NA","h","394","NA","103627","13817","NA","394","2","legacy","1024","2","48000","-16","experiment","HHHHH","2","even","106897","264109","NA","NA","304901","3269","250290","NA","271217","3262","299422","306024","306133","306529","306020","306132","Flanker Task","102","54249","105","yes","1024"
"97.1698113208","97.1698113208","516","516","black","legacy","legacy","legacy","0","congruent","uniform","1","undefined","1","h","0","0","0","0","105","0","0","0","105","0","105","105","105","105","105","105","09/21/21 15:39:18","600","The main experiment item","yes","FlankerTask.osexp","C:\Users\bryan\OneDrive\Documents\School\PSYC 5316  (Quant Methods)\Lab 2","no","mono","no","18","no","white","no","yes","768","legacy","25","79","C:/Users/bryan/OneDrive/Documents/School/PSYC 5316  (Quant Methods)/Lab 2/BS-subject-2.csv","legacy","Lentiform Loewenfeld","3.3.9","0","h","NA","s","s","NA","h","447","NA","103627","13817","NA","447","2","legacy","1024","2","48000","-16","experiment","HHHHH","2","even","106897","264109","NA","NA","306540","3269","250290","NA","271217","3262","299422","307686","307795","308243","307682","307794","Flanker Task","103","54696","106","yes","1024"
"97.1962616822","97.1962616822","516","516","black","legacy","legacy","legacy","0","incongruent","uniform","1","undefined","1","s","0","0","0","0","106","0","0","0","106","0","106","106","106","106","106","106","09/21/21 15:39:18","600","The main experiment item","yes","FlankerTask.osexp","C:\Users\bryan\OneDrive\Documents\School\PSYC 5316  (Quant Methods)\Lab 2","no","mono","no","18","no","white","no","yes","768","legacy","26","79","C:/Users/bryan/OneDrive/Documents/School/PSYC 5316  (Quant Methods)/Lab 2/BS-subject-2.csv","legacy","Lentiform Loewenfeld","3.3.9","0","s","NA","s","s","NA","s","516","NA","103627","13817","NA","516","2","legacy","1024","2","48000","-16","experiment","HHSHH","2","even","106897","264109","NA","NA","308250","3269","250290","NA","271217","3262","299422","309359","309468","309986","309355","309467","Flanker Task","104","55212","107","yes","1024"
"97.2222222222","97.2222222222","514.564814815","514.564814815","black","legacy","legacy","legacy","0","congruent","uniform","1","undefined","1","h","0","0","0","0","107","0","0","0","107","0","107","107","107","107","107","107","09/21/21 15:39:18","600","The main experiment item","yes","FlankerTask.osexp","C:\Users\bryan\OneDrive\Documents\School\PSYC 5316  (Quant Methods)\Lab 2","no","mono","no","18","no","white","no","yes","768","legacy","27","79","C:/Users/bryan/OneDrive/Documents/School/PSYC 5316  (Quant Methods)/Lab 2/BS-subject-2.csv","legacy","Lentiform Loewenfeld","3.3.9","0","h","NA","s","s","NA","h","361","NA","103627","13817","NA","361","2","legacy","1024","2","48000","-16","experiment","HHHHH","2","even","106897","264109","NA","NA","309993","3269","250290","NA","271217","3262","299422","311118","311226","311589","311114","311226","Flanker Task","105","55573","108","yes","1024"
"97.247706422","97.247706422","512.678899083","512.678899083","black","legacy","legacy","legacy","0","congruent","uniform","1","undefined","1","s","0","0","0","0","108","0","0","0","108","0","108","108","108","108","108","108","09/21/21 15:39:18","600","The main experiment item","yes","FlankerTask.osexp","C:\Users\bryan\OneDrive\Documents\School\PSYC 5316  (Quant Methods)\Lab 2","no","mono","no","18","no","white","no","yes","768","legacy","28","79","C:/Users/bryan/OneDrive/Documents/School/PSYC 5316  (Quant Methods)/Lab 2/BS-subject-2.csv","legacy","Lentiform Loewenfeld","3.3.9","0","s","NA","s","s","NA","s","309","NA","103627","13817","NA","309","2","legacy","1024","2","48000","-16","experiment","SSSSS","2","even","106897","264109","NA","NA","311599","3269","250290","NA","271217","3262","299422","312715","312824","313135","312711","312823","Flanker Task","106","55882","109","yes","1024"
"97.2727272727","97.2727272727","512.254545455","512.254545455","black","legacy","legacy","legacy","0","congruent","uniform","1","undefined","1","h","0","0","0","0","109","0","0","0","109","0","109","109","109","109","109","109","09/21/21 15:39:18","600","The main experiment item","yes","FlankerTask.osexp","C:\Users\bryan\OneDrive\Documents\School\PSYC 5316  (Quant Methods)\Lab 2","no","mono","no","18","no","white","no","yes","768","legacy","29","79","C:/Users/bryan/OneDrive/Documents/School/PSYC 5316  (Quant Methods)/Lab 2/BS-subject-2.csv","legacy","Lentiform Loewenfeld","3.3.9","0","h","NA","s","s","NA","h","466","NA","103627","13817","NA","466","2","legacy","1024","2","48000","-16","experiment","HHHHH","2","even","106897","264109","NA","NA","313145","3269","250290","NA","271217","3262","299422","314268","314377","314845","314264","314376","Flanker Task","107","56348","110","yes","1024"
"97.2972972973","97.2972972973","512.126126126","512.126126126","black","legacy","legacy","legacy","0","incongruent","uniform","1","undefined","1","h","0","0","0","0","110","0","0","0","110","0","110","110","110","110","110","110","09/21/21 15:39:18","600","The main experiment item","yes","FlankerTask.osexp","C:\Users\bryan\OneDrive\Documents\School\PSYC 5316  (Quant Methods)\Lab 2","no","mono","no","18","no","white","no","yes","768","legacy","30","79","C:/Users/bryan/OneDrive/Documents/School/PSYC 5316  (Quant Methods)/Lab 2/BS-subject-2.csv","legacy","Lentiform Loewenfeld","3.3.9","0","h","NA","s","s","NA","h","498","NA","103627","13817","NA","498","2","legacy","1024","2","48000","-16","experiment","SSHSS","2","even","106897","264109","NA","NA","314853","3269","250290","NA","271217","3262","299422","315977","316086","316586","315972","316085","Flanker Task","108","56846","111","yes","1024"
