"acc","accuracy","average_response_time","avg_rt","background","canvas_backend","clock_backend","color_backend","compensation","condition","coordinates","correct","correct_instructions1","correct_response","correct_skeyboard_response","count_ISI","count_block1","count_block2","count_block3","count_errorFedback","count_experiment","count_faster","count_finish","count_fixation","count_instructions1","count_instructions2","count_instructions3","count_logger","count_sequence","count_skeyboard_response","count_stimulus","datetime","deadline","description","disable_garbage_collection","experiment_file","experiment_path","font_bold","font_family","font_italic","font_size","font_underline","foreground","form_clicks","fullscreen","height","keyboard_backend","live_row","live_row_block1","logfile","mouse_backend","opensesame_codename","opensesame_version","repeat_cycle","response","response_finish","response_instructions1","response_instructions2","response_instructions3","response_skeyboard_response","response_time","response_time_finish","response_time_instructions1","response_time_instructions2","response_time_instructions3","response_time_skeyboard_response","round_decimals","sampler_backend","sound_buf_size","sound_channels","sound_freq","sound_sample_size","start","stimulus","subject_nr","subject_parity","time_ISI","time_block1","time_block2","time_block3","time_errorFedback","time_experiment","time_faster","time_finish","time_fixation","time_instructions1","time_instructions2","time_instructions3","time_logger","time_sequence","time_skeyboard_response","time_stimulus","title","total_correct","total_response_time","total_responses","uniform_coordinates","width"
"100","100","779","779","black","legacy","legacy","legacy","0","incongruent","uniform","1","undefined","s","1","0","0","0","0","0","0","0","NA","0","0","0","0","0","0","0","0","Sun Sep 19 23:03:20 2021","1500","The main experiment item","yes","FlankerTaskHW.osexp","C:/Users/19565/Desktop","no","mono","no","18","no","white","no","yes","768","legacy","0","0","C:/Users/19565/Desktop/MR-subject-3.csv","legacy","Lentiform Loewenfeld","3.3.9","0","s","NA","s","NA","NA","s","779","NA","11765","NA","NA","779","2","legacy","1024","2","48000","-16","experiment","HHSHH","3","odd","NA","15586","NA","NA","NA","3815","NA","NA","15685","3820","NA","NA","16568","15683","15789","15788","Flanker Task HW","1","779","1","yes","1024"
"100","100","593","593","black","legacy","legacy","legacy","0","congruent","uniform","1","undefined","s","1","1","0","0","0","1","0","1","NA","1","0","0","0","1","1","1","1","Sun Sep 19 23:03:20 2021","1500","The main experiment item","yes","FlankerTaskHW.osexp","C:/Users/19565/Desktop","no","mono","no","18","no","white","no","yes","768","legacy","1","1","C:/Users/19565/Desktop/MR-subject-3.csv","legacy","Lentiform Loewenfeld","3.3.9","0","s","NA","s","NA","NA","s","407","NA","11765","NA","NA","407","2","legacy","1024","2","48000","-16","experiment","SSSSS","3","odd","16581","15586","NA","NA","NA","3815","NA","NA","17720","3820","NA","NA","18231","17717","17824","17823","Flanker Task HW","2","1186","2","yes","1024"
"100","100","557.3333333333334","557.3333333333334","black","legacy","legacy","legacy","0","incongruent","uniform","1","undefined","s","1","2","0","0","0","2","0","2","NA","2","0","0","0","2","2","2","2","Sun Sep 19 23:03:20 2021","1500","The main experiment item","yes","FlankerTaskHW.osexp","C:/Users/19565/Desktop","no","mono","no","18","no","white","no","yes","768","legacy","2","2","C:/Users/19565/Desktop/MR-subject-3.csv","legacy","Lentiform Loewenfeld","3.3.9","0","s","NA","s","NA","NA","s","486","NA","11765","NA","NA","486","2","legacy","1024","2","48000","-16","experiment","HHSHH","3","odd","18240","15586","NA","NA","NA","3815","NA","NA","19405","3820","NA","NA","19996","19402","19509","19509","Flanker Task HW","3","1672","3","yes","1024"
"100","100","544","544","black","legacy","legacy","legacy","0","congruent","uniform","1","undefined","h","1","3","0","0","0","3","0","3","NA","3","0","0","0","3","3","3","3","Sun Sep 19 23:03:20 2021","1500","The main experiment item","yes","FlankerTaskHW.osexp","C:/Users/19565/Desktop","no","mono","no","18","no","white","no","yes","768","legacy","3","3","C:/Users/19565/Desktop/MR-subject-3.csv","legacy","Lentiform Loewenfeld","3.3.9","0","h","NA","s","NA","NA","h","504","NA","11765","NA","NA","504","2","legacy","1024","2","48000","-16","experiment","HHHHH","3","odd","20005","15586","NA","NA","NA","3815","NA","NA","21165","3820","NA","NA","21773","21162","21269","21269","Flanker Task HW","4","2176","4","yes","1024"
"100","100","524.8","524.8","black","legacy","legacy","legacy","0","congruent","uniform","1","undefined","s","1","4","0","0","0","4","0","4","NA","4","0","0","0","4","4","4","4","Sun Sep 19 23:03:20 2021","1500","The main experiment item","yes","FlankerTaskHW.osexp","C:/Users/19565/Desktop","no","mono","no","18","no","white","no","yes","768","legacy","4","4","C:/Users/19565/Desktop/MR-subject-3.csv","legacy","Lentiform Loewenfeld","3.3.9","0","s","NA","s","NA","NA","s","448","NA","11765","NA","NA","448","2","legacy","1024","2","48000","-16","experiment","SSSSS","3","odd","21779","15586","NA","NA","NA","3815","NA","NA","22916","3820","NA","NA","23469","22913","23021","23020","Flanker Task HW","5","2624","5","yes","1024"
"100","100","525","525","black","legacy","legacy","legacy","0","incongruent","uniform","1","undefined","h","1","5","0","0","0","5","0","5","NA","5","0","0","0","5","5","5","5","Sun Sep 19 23:03:20 2021","1500","The main experiment item","yes","FlankerTaskHW.osexp","C:/Users/19565/Desktop","no","mono","no","18","no","white","no","yes","768","legacy","5","5","C:/Users/19565/Desktop/MR-subject-3.csv","legacy","Lentiform Loewenfeld","3.3.9","0","h","NA","s","NA","NA","h","526","NA","11765","NA","NA","526","2","legacy","1024","2","48000","-16","experiment","SSHSS","3","odd","23479","15586","NA","NA","NA","3815","NA","NA","24642","3820","NA","NA","25274","24640","24747","24746","Flanker Task HW","6","3150","6","yes","1024"
"85.71428571428571","85.71428571428571","664.2857142857143","664.2857142857143","black","legacy","legacy","legacy","0","incongruent","uniform","0","undefined","s","0","6","0","0","0","6","0","6","NA","6","0","0","0","6","6","6","6","Sun Sep 19 23:03:20 2021","1500","The main experiment item","yes","FlankerTaskHW.osexp","C:/Users/19565/Desktop","no","mono","no","18","no","white","no","yes","768","legacy","6","6","C:/Users/19565/Desktop/MR-subject-3.csv","legacy","Lentiform Loewenfeld","3.3.9","0","None","NA","s","NA","NA","None","1500","NA","11765","NA","NA","1500","2","legacy","1024","2","48000","-16","experiment","HHSHH","3","odd","25280","15586","NA","NA","NA","3815","NA","NA","26425","3820","NA","NA","28030","26422","26530","26529","Flanker Task HW","6","4650","7","yes","1024"
"87.5","87.5","645.75","645.75","black","legacy","legacy","legacy","0","congruent","uniform","1","undefined","s","1","7","0","0","0","7","0","7","NA","7","0","0","0","7","7","7","7","Sun Sep 19 23:03:20 2021","1500","The main experiment item","yes","FlankerTaskHW.osexp","C:/Users/19565/Desktop","no","mono","no","18","no","white","no","yes","768","legacy","7","7","C:/Users/19565/Desktop/MR-subject-3.csv","legacy","Lentiform Loewenfeld","3.3.9","0","s","NA","s","NA","NA","s","516","NA","11765","NA","NA","516","2","legacy","1024","2","48000","-16","experiment","SSSSS","3","odd","28543","15586","NA","NA","28037","3815","NA","NA","29688","3820","NA","NA","30308","29685","29792","29792","Flanker Task HW","7","5166","8","yes","1024"
"77.77777777777777","77.77777777777777","740.6666666666666","740.6666666666666","black","legacy","legacy","legacy","0","incongruent","uniform","0","undefined","h","0","8","0","0","0","8","0","8","NA","8","0","0","0","8","8","8","8","Sun Sep 19 23:03:20 2021","1500","The main experiment item","yes","FlankerTaskHW.osexp","C:/Users/19565/Desktop","no","mono","no","18","no","white","no","yes","768","legacy","8","8","C:/Users/19565/Desktop/MR-subject-3.csv","legacy","Lentiform Loewenfeld","3.3.9","0","None","NA","s","NA","NA","None","1500","NA","11765","NA","NA","1500","2","legacy","1024","2","48000","-16","experiment","SSHSS","3","odd","30318","15586","NA","NA","28037","3815","NA","NA","31451","3820","NA","NA","33056","31448","31556","31556","Flanker Task HW","7","6666","9","yes","1024"
"80","80","719.7","719.7","black","legacy","legacy","legacy","0","congruent","uniform","1","undefined","s","1","9","0","0","0","9","0","9","NA","9","0","0","0","9","9","9","9","Sun Sep 19 23:03:20 2021","1500","The main experiment item","yes","FlankerTaskHW.osexp","C:/Users/19565/Desktop","no","mono","no","18","no","white","no","yes","768","legacy","9","9","C:/Users/19565/Desktop/MR-subject-3.csv","legacy","Lentiform Loewenfeld","3.3.9","0","s","NA","s","NA","NA","s","531","NA","11765","NA","NA","531","2","legacy","1024","2","48000","-16","experiment","SSSSS","3","odd","33567","15586","NA","NA","33063","3815","NA","NA","34697","3820","NA","NA","35332","34694","34801","34801","Flanker Task HW","8","7197","10","yes","1024"
"81.81818181818181","81.81818181818181","695","695","black","legacy","legacy","legacy","0","congruent","uniform","1","undefined","h","1","10","0","0","0","10","0","10","NA","10","0","0","0","10","10","10","10","Sun Sep 19 23:03:20 2021","1500","The main experiment item","yes","FlankerTaskHW.osexp","C:/Users/19565/Desktop","no","mono","no","18","no","white","no","yes","768","legacy","10","10","C:/Users/19565/Desktop/MR-subject-3.csv","legacy","Lentiform Loewenfeld","3.3.9","0","h","NA","s","NA","NA","h","448","NA","11765","NA","NA","448","2","legacy","1024","2","48000","-16","experiment","HHHHH","3","odd","35339","15586","NA","NA","33063","3815","NA","NA","36514","3820","NA","NA","37068","36512","36619","36619","Flanker Task HW","9","7645","11","yes","1024"
"83.33333333333333","83.33333333333333","670.5833333333334","670.5833333333334","black","legacy","legacy","legacy","0","congruent","uniform","1","undefined","h","1","11","0","0","0","11","0","11","NA","11","0","0","0","11","11","11","11","Sun Sep 19 23:03:20 2021","1500","The main experiment item","yes","FlankerTaskHW.osexp","C:/Users/19565/Desktop","no","mono","no","18","no","white","no","yes","768","legacy","11","11","C:/Users/19565/Desktop/MR-subject-3.csv","legacy","Lentiform Loewenfeld","3.3.9","0","h","NA","s","NA","NA","h","402","NA","11765","NA","NA","402","2","legacy","1024","2","48000","-16","experiment","HHHHH","3","odd","37076","15586","NA","NA","33063","3815","NA","NA","38218","3820","NA","NA","38726","38215","38323","38323","Flanker Task HW","10","8047","12","yes","1024"
"84.61538461538461","84.61538461538461","658.7692307692307","658.7692307692307","black","legacy","legacy","legacy","0","incongruent","uniform","1","undefined","h","1","12","0","0","0","12","0","12","NA","12","0","0","0","12","12","12","12","Sun Sep 19 23:03:20 2021","1500","The main experiment item","yes","FlankerTaskHW.osexp","C:/Users/19565/Desktop","no","mono","no","18","no","white","no","yes","768","legacy","12","12","C:/Users/19565/Desktop/MR-subject-3.csv","legacy","Lentiform Loewenfeld","3.3.9","0","h","NA","s","NA","NA","h","517","NA","11765","NA","NA","517","2","legacy","1024","2","48000","-16","experiment","SSHSS","3","odd","38735","15586","NA","NA","33063","3815","NA","NA","39922","3820","NA","NA","40545","39919","40027","40027","Flanker Task HW","11","8564","13","yes","1024"
"85.71428571428571","85.71428571428571","651.2142857142857","651.2142857142857","black","legacy","legacy","legacy","0","congruent","uniform","1","undefined","h","1","13","0","0","0","13","0","13","NA","13","0","0","0","13","13","13","13","Sun Sep 19 23:03:20 2021","1500","The main experiment item","yes","FlankerTaskHW.osexp","C:/Users/19565/Desktop","no","mono","no","18","no","white","no","yes","768","legacy","13","13","C:/Users/19565/Desktop/MR-subject-3.csv","legacy","Lentiform Loewenfeld","3.3.9","0","h","NA","s","NA","NA","h","553","NA","11765","NA","NA","553","2","legacy","1024","2","48000","-16","experiment","HHHHH","3","odd","40555","15586","NA","NA","33063","3815","NA","NA","41678","3820","NA","NA","42337","41675","41782","41782","Flanker Task HW","12","9117","14","yes","1024"
"86.66666666666667","86.66666666666667","644.2666666666667","644.2666666666667","black","legacy","legacy","legacy","0","incongruent","uniform","1","undefined","s","1","14","0","0","0","14","0","14","NA","14","0","0","0","14","14","14","14","Sun Sep 19 23:03:20 2021","1500","The main experiment item","yes","FlankerTaskHW.osexp","C:/Users/19565/Desktop","no","mono","no","18","no","white","no","yes","768","legacy","14","14","C:/Users/19565/Desktop/MR-subject-3.csv","legacy","Lentiform Loewenfeld","3.3.9","0","s","NA","s","NA","NA","s","547","NA","11765","NA","NA","547","2","legacy","1024","2","48000","-16","experiment","HHSHH","3","odd","42346","15586","NA","NA","33063","3815","NA","NA","43526","3820","NA","NA","44179","43524","43631","43630","Flanker Task HW","13","9664","15","yes","1024"
"87.5","87.5","634.4375","634.4375","black","legacy","legacy","legacy","0","incongruent","uniform","1","undefined","s","1","15","0","0","0","15","0","15","NA","15","0","0","0","15","15","15","15","Sun Sep 19 23:03:20 2021","1500","The main experiment item","yes","FlankerTaskHW.osexp","C:/Users/19565/Desktop","no","mono","no","18","no","white","no","yes","768","legacy","15","15","C:/Users/19565/Desktop/MR-subject-3.csv","legacy","Lentiform Loewenfeld","3.3.9","0","s","NA","s","NA","NA","s","487","NA","11765","NA","NA","487","2","legacy","1024","2","48000","-16","experiment","HHSHH","3","odd","44187","15586","NA","NA","33063","3815","NA","NA","45389","3820","NA","NA","45980","45385","45491","45491","Flanker Task HW","14","10151","16","yes","1024"
"88.23529411764706","88.23529411764706","627.5882352941177","627.5882352941177","black","legacy","legacy","legacy","0","incongruent","uniform","1","undefined","h","1","16","0","0","0","16","0","16","NA","16","0","0","0","16","16","16","16","Sun Sep 19 23:03:20 2021","1500","The main experiment item","yes","FlankerTaskHW.osexp","C:/Users/19565/Desktop","no","mono","no","18","no","white","no","yes","768","legacy","16","16","C:/Users/19565/Desktop/MR-subject-3.csv","legacy","Lentiform Loewenfeld","3.3.9","0","h","NA","s","NA","NA","h","518","NA","11765","NA","NA","518","2","legacy","1024","2","48000","-16","experiment","SSHSS","3","odd","45989","15586","NA","NA","33063","3815","NA","NA","47135","3820","NA","NA","47757","47132","47239","47239","Flanker Task HW","15","10669","17","yes","1024"
"83.33333333333333","83.33333333333333","613.7222222222222","613.7222222222222","black","legacy","legacy","legacy","0","congruent","uniform","0","undefined","s","0","17","0","0","0","17","0","17","NA","17","0","0","0","17","17","17","17","Sun Sep 19 23:03:20 2021","1500","The main experiment item","yes","FlankerTaskHW.osexp","C:/Users/19565/Desktop","no","mono","no","18","no","white","no","yes","768","legacy","17","17","C:/Users/19565/Desktop/MR-subject-3.csv","legacy","Lentiform Loewenfeld","3.3.9","0","h","NA","s","NA","NA","h","378","NA","11765","NA","NA","378","2","legacy","1024","2","48000","-16","experiment","SSSSS","3","odd","47767","15586","NA","NA","33063","3815","NA","NA","48953","3820","NA","NA","49438","48949","49058","49058","Flanker Task HW","15","11047","18","yes","1024"
"84.21052631578948","84.21052631578948","605.3157894736842","605.3157894736842","black","legacy","legacy","legacy","0","congruent","uniform","1","undefined","s","1","18","0","0","0","18","0","18","NA","18","0","0","0","18","18","18","18","Sun Sep 19 23:03:20 2021","1500","The main experiment item","yes","FlankerTaskHW.osexp","C:/Users/19565/Desktop","no","mono","no","18","no","white","no","yes","768","legacy","18","18","C:/Users/19565/Desktop/MR-subject-3.csv","legacy","Lentiform Loewenfeld","3.3.9","0","s","NA","s","NA","NA","s","454","NA","11765","NA","NA","454","2","legacy","1024","2","48000","-16","experiment","SSSSS","3","odd","49952","15586","NA","NA","49448","3815","NA","NA","51080","3820","NA","NA","51640","51077","51185","51184","Flanker Task HW","16","11501","19","yes","1024"
"85","85","596.9","596.9","black","legacy","legacy","legacy","0","congruent","uniform","1","undefined","s","1","19","0","0","0","19","0","19","NA","19","0","0","0","19","19","19","19","Sun Sep 19 23:03:20 2021","1500","The main experiment item","yes","FlankerTaskHW.osexp","C:/Users/19565/Desktop","no","mono","no","18","no","white","no","yes","768","legacy","19","19","C:/Users/19565/Desktop/MR-subject-3.csv","legacy","Lentiform Loewenfeld","3.3.9","0","s","NA","s","NA","NA","s","437","NA","11765","NA","NA","437","2","legacy","1024","2","48000","-16","experiment","SSSSS","3","odd","51649","15586","NA","NA","49448","3815","NA","NA","52831","3820","NA","NA","53374","52829","52936","52935","Flanker Task HW","17","11938","20","yes","1024"
"80.95238095238095","80.95238095238095","593","593","black","legacy","legacy","legacy","0","incongruent","uniform","0","undefined","h","0","20","0","0","0","20","0","20","NA","20","0","0","0","20","20","20","20","Sun Sep 19 23:03:20 2021","1500","The main experiment item","yes","FlankerTaskHW.osexp","C:/Users/19565/Desktop","no","mono","no","18","no","white","no","yes","768","legacy","20","20","C:/Users/19565/Desktop/MR-subject-3.csv","legacy","Lentiform Loewenfeld","3.3.9","0","s","NA","s","NA","NA","s","515","NA","11765","NA","NA","515","2","legacy","1024","2","48000","-16","experiment","SSHSS","3","odd","53386","15586","NA","NA","49448","3815","NA","NA","54537","3820","NA","NA","55159","54534","54642","54641","Flanker Task HW","17","12453","21","yes","1024"
"81.81818181818181","81.81818181818181","589.5454545454545","589.5454545454545","black","legacy","legacy","legacy","0","congruent","uniform","1","undefined","h","1","21","0","0","0","21","0","21","NA","21","0","0","0","21","21","21","21","Sun Sep 19 23:03:20 2021","1500","The main experiment item","yes","FlankerTaskHW.osexp","C:/Users/19565/Desktop","no","mono","no","18","no","white","no","yes","768","legacy","21","21","C:/Users/19565/Desktop/MR-subject-3.csv","legacy","Lentiform Loewenfeld","3.3.9","0","h","NA","s","NA","NA","h","517","NA","11765","NA","NA","517","2","legacy","1024","2","48000","-16","experiment","HHHHH","3","odd","55673","15586","NA","NA","55169","3815","NA","NA","56844","3820","NA","NA","57466","56842","56948","56948","Flanker Task HW","18","12970","22","yes","1024"
"82.6086956521739","82.6086956521739","587.695652173913","587.695652173913","black","legacy","legacy","legacy","0","congruent","uniform","1","undefined","s","1","22","0","0","0","22","0","22","NA","22","0","0","0","22","22","22","22","Sun Sep 19 23:03:20 2021","1500","The main experiment item","yes","FlankerTaskHW.osexp","C:/Users/19565/Desktop","no","mono","no","18","no","white","no","yes","768","legacy","22","22","C:/Users/19565/Desktop/MR-subject-3.csv","legacy","Lentiform Loewenfeld","3.3.9","0","s","NA","s","NA","NA","s","547","NA","11765","NA","NA","547","2","legacy","1024","2","48000","-16","experiment","SSSSS","3","odd","57476","15586","NA","NA","55169","3815","NA","NA","58613","3820","NA","NA","59265","58610","58717","58717","Flanker Task HW","19","13517","23","yes","1024"
"83.33333333333333","83.33333333333333","588.7083333333334","588.7083333333334","black","legacy","legacy","legacy","0","incongruent","uniform","1","undefined","s","1","23","0","0","0","23","0","23","NA","23","0","0","0","23","23","23","23","Sun Sep 19 23:03:20 2021","1500","The main experiment item","yes","FlankerTaskHW.osexp","C:/Users/19565/Desktop","no","mono","no","18","no","white","no","yes","768","legacy","23","23","C:/Users/19565/Desktop/MR-subject-3.csv","legacy","Lentiform Loewenfeld","3.3.9","0","s","NA","s","NA","NA","s","612","NA","11765","NA","NA","612","2","legacy","1024","2","48000","-16","experiment","HHSHH","3","odd","59275","15586","NA","NA","55169","3815","NA","NA","60462","3820","NA","NA","61178","60458","60565","60565","Flanker Task HW","20","14129","24","yes","1024"
"80","80","584.56","584.56","black","legacy","legacy","legacy","0","incongruent","uniform","0","undefined","h","0","24","0","0","0","24","0","24","NA","24","0","0","0","24","24","24","24","Sun Sep 19 23:03:20 2021","1500","The main experiment item","yes","FlankerTaskHW.osexp","C:/Users/19565/Desktop","no","mono","no","18","no","white","no","yes","768","legacy","24","24","C:/Users/19565/Desktop/MR-subject-3.csv","legacy","Lentiform Loewenfeld","3.3.9","0","s","NA","s","NA","NA","s","485","NA","11765","NA","NA","485","2","legacy","1024","2","48000","-16","experiment","SSHSS","3","odd","61187","15586","NA","NA","55169","3815","NA","NA","62346","3820","NA","NA","62937","62343","62450","62450","Flanker Task HW","20","14614","25","yes","1024"
"80.76923076923077","80.76923076923077","579.6538461538462","579.6538461538462","black","legacy","legacy","legacy","0","congruent","uniform","1","undefined","h","1","25","0","0","0","25","0","25","NA","25","0","0","0","25","25","25","25","Sun Sep 19 23:03:20 2021","1500","The main experiment item","yes","FlankerTaskHW.osexp","C:/Users/19565/Desktop","no","mono","no","18","no","white","no","yes","768","legacy","25","25","C:/Users/19565/Desktop/MR-subject-3.csv","legacy","Lentiform Loewenfeld","3.3.9","0","h","NA","s","NA","NA","h","457","NA","11765","NA","NA","457","2","legacy","1024","2","48000","-16","experiment","HHHHH","3","odd","63449","15586","NA","NA","62944","3815","NA","NA","64608","3820","NA","NA","65171","64605","64713","64712","Flanker Task HW","21","15071","26","yes","1024"
"81.48148148148148","81.48148148148148","575.5185185185185","575.5185185185185","black","legacy","legacy","legacy","0","incongruent","uniform","1","undefined","h","1","26","0","0","0","26","0","26","NA","26","0","0","0","26","26","26","26","Sun Sep 19 23:03:20 2021","1500","The main experiment item","yes","FlankerTaskHW.osexp","C:/Users/19565/Desktop","no","mono","no","18","no","white","no","yes","768","legacy","26","26","C:/Users/19565/Desktop/MR-subject-3.csv","legacy","Lentiform Loewenfeld","3.3.9","0","h","NA","s","NA","NA","h","468","NA","11765","NA","NA","468","2","legacy","1024","2","48000","-16","experiment","SSHSS","3","odd","65180","15586","NA","NA","62944","3815","NA","NA","66352","3820","NA","NA","66926","66349","66457","66457","Flanker Task HW","22","15539","27","yes","1024"
"82.14285714285714","82.14285714285714","573.5357142857143","573.5357142857143","black","legacy","legacy","legacy","0","incongruent","uniform","1","undefined","h","1","27","0","0","0","27","0","27","NA","27","0","0","0","27","27","27","27","Sun Sep 19 23:03:20 2021","1500","The main experiment item","yes","FlankerTaskHW.osexp","C:/Users/19565/Desktop","no","mono","no","18","no","white","no","yes","768","legacy","27","27","C:/Users/19565/Desktop/MR-subject-3.csv","legacy","Lentiform Loewenfeld","3.3.9","0","h","NA","s","NA","NA","h","520","NA","11765","NA","NA","520","2","legacy","1024","2","48000","-16","experiment","SSHSS","3","odd","66936","15586","NA","NA","62944","3815","NA","NA","68111","3820","NA","NA","68736","68108","68215","68215","Flanker Task HW","23","16059","28","yes","1024"
"82.75862068965517","82.75862068965517","574.1034482758621","574.1034482758621","black","legacy","legacy","legacy","0","congruent","uniform","1","undefined","h","1","28","0","0","0","28","0","28","NA","28","0","0","0","28","28","28","28","Sun Sep 19 23:03:20 2021","1500","The main experiment item","yes","FlankerTaskHW.osexp","C:/Users/19565/Desktop","no","mono","no","18","no","white","no","yes","768","legacy","28","28","C:/Users/19565/Desktop/MR-subject-3.csv","legacy","Lentiform Loewenfeld","3.3.9","0","h","NA","s","NA","NA","h","590","NA","11765","NA","NA","590","2","legacy","1024","2","48000","-16","experiment","HHHHH","3","odd","68745","15586","NA","NA","62944","3815","NA","NA","69921","3820","NA","NA","70617","69918","70026","70026","Flanker Task HW","24","16649","29","yes","1024"
"83.33333333333333","83.33333333333333","573.4","573.4","black","legacy","legacy","legacy","0","incongruent","uniform","1","undefined","s","1","29","0","0","0","29","0","29","NA","29","0","0","0","29","29","29","29","Sun Sep 19 23:03:20 2021","1500","The main experiment item","yes","FlankerTaskHW.osexp","C:/Users/19565/Desktop","no","mono","no","18","no","white","no","yes","768","legacy","29","29","C:/Users/19565/Desktop/MR-subject-3.csv","legacy","Lentiform Loewenfeld","3.3.9","0","s","NA","s","NA","NA","s","553","NA","11765","NA","NA","553","2","legacy","1024","2","48000","-16","experiment","HHSHH","3","odd","70626","15586","NA","NA","62944","3815","NA","NA","71781","3820","NA","NA","72438","71779","71885","71885","Flanker Task HW","25","17202","30","yes","1024"
"83.87096774193549","83.87096774193549","581.9354838709677","581.9354838709677","black","legacy","legacy","legacy","0","congruent","uniform","1","undefined","s","1","30","0","0","0","30","0","30","NA","30","0","0","0","30","30","30","30","Sun Sep 19 23:03:20 2021","1500","The main experiment item","yes","FlankerTaskHW.osexp","C:/Users/19565/Desktop","no","mono","no","18","no","white","no","yes","768","legacy","30","30","C:/Users/19565/Desktop/MR-subject-3.csv","legacy","Lentiform Loewenfeld","3.3.9","0","s","NA","s","NA","NA","s","838","NA","11765","NA","NA","838","2","legacy","1024","2","48000","-16","experiment","SSSSS","3","odd","72449","15586","NA","NA","62944","3815","NA","NA","73586","3820","NA","NA","74531","73584","73691","73690","Flanker Task HW","26","18040","31","yes","1024"
"84.375","84.375","578.28125","578.28125","black","legacy","legacy","legacy","0","congruent","uniform","1","undefined","s","1","31","0","0","0","31","0","31","NA","31","0","0","0","31","31","31","31","Sun Sep 19 23:03:20 2021","1500","The main experiment item","yes","FlankerTaskHW.osexp","C:/Users/19565/Desktop","no","mono","no","18","no","white","no","yes","768","legacy","31","31","C:/Users/19565/Desktop/MR-subject-3.csv","legacy","Lentiform Loewenfeld","3.3.9","0","s","NA","s","NA","NA","s","465","NA","11765","NA","NA","465","2","legacy","1024","2","48000","-16","experiment","SSSSS","3","odd","74540","15586","NA","NA","62944","3815","NA","NA","75715","3820","NA","NA","76287","75711","75820","75820","Flanker Task HW","27","18505","32","yes","1024"
"84.84848484848484","84.84848484848484","574.030303030303","574.030303030303","black","legacy","legacy","legacy","0","congruent","uniform","1","undefined","s","1","32","0","0","0","32","0","32","NA","32","0","0","0","32","32","32","32","Sun Sep 19 23:03:20 2021","1500","The main experiment item","yes","FlankerTaskHW.osexp","C:/Users/19565/Desktop","no","mono","no","18","no","white","no","yes","768","legacy","32","32","C:/Users/19565/Desktop/MR-subject-3.csv","legacy","Lentiform Loewenfeld","3.3.9","0","s","NA","s","NA","NA","s","438","NA","11765","NA","NA","438","2","legacy","1024","2","48000","-16","experiment","SSSSS","3","odd","76296","15586","NA","NA","62944","3815","NA","NA","77424","3820","NA","NA","77968","77421","77528","77528","Flanker Task HW","28","18943","33","yes","1024"
"85.29411764705883","85.29411764705883","571.9117647058823","571.9117647058823","black","legacy","legacy","legacy","0","incongruent","uniform","1","undefined","h","1","33","0","0","0","33","0","33","NA","33","0","0","0","33","33","33","33","Sun Sep 19 23:03:20 2021","1500","The main experiment item","yes","FlankerTaskHW.osexp","C:/Users/19565/Desktop","no","mono","no","18","no","white","no","yes","768","legacy","33","33","C:/Users/19565/Desktop/MR-subject-3.csv","legacy","Lentiform Loewenfeld","3.3.9","0","h","NA","s","NA","NA","h","502","NA","11765","NA","NA","502","2","legacy","1024","2","48000","-16","experiment","SSHSS","3","odd","77977","15586","NA","NA","62944","3815","NA","NA","79186","3820","NA","NA","79795","79181","79291","79290","Flanker Task HW","29","19445","34","yes","1024"
"85.71428571428571","85.71428571428571","571.3714285714286","571.3714285714286","black","legacy","legacy","legacy","0","incongruent","uniform","1","undefined","s","1","34","0","0","0","34","0","34","NA","34","0","0","0","34","34","34","34","Sun Sep 19 23:03:20 2021","1500","The main experiment item","yes","FlankerTaskHW.osexp","C:/Users/19565/Desktop","no","mono","no","18","no","white","no","yes","768","legacy","34","34","C:/Users/19565/Desktop/MR-subject-3.csv","legacy","Lentiform Loewenfeld","3.3.9","0","s","NA","s","NA","NA","s","553","NA","11765","NA","NA","553","2","legacy","1024","2","48000","-16","experiment","HHSHH","3","odd","79800","15586","NA","NA","62944","3815","NA","NA","80964","3820","NA","NA","81626","80961","81071","81070","Flanker Task HW","30","19998","35","yes","1024"
"86.11111111111111","86.11111111111111","573.8888888888889","573.8888888888889","black","legacy","legacy","legacy","0","congruent","uniform","1","undefined","h","1","35","0","0","0","35","0","35","NA","35","0","0","0","35","35","35","35","Sun Sep 19 23:03:20 2021","1500","The main experiment item","yes","FlankerTaskHW.osexp","C:/Users/19565/Desktop","no","mono","no","18","no","white","no","yes","768","legacy","35","35","C:/Users/19565/Desktop/MR-subject-3.csv","legacy","Lentiform Loewenfeld","3.3.9","0","h","NA","s","NA","NA","h","662","NA","11765","NA","NA","662","2","legacy","1024","2","48000","-16","experiment","HHHHH","3","odd","81634","15586","NA","NA","62944","3815","NA","NA","82765","3820","NA","NA","83533","82762","82870","82870","Flanker Task HW","31","20660","36","yes","1024"
"86.48648648648648","86.48648648648648","577.2702702702703","577.2702702702703","black","legacy","legacy","legacy","0","incongruent","uniform","1","undefined","s","1","36","0","0","0","36","0","36","NA","36","0","0","0","36","36","36","36","Sun Sep 19 23:03:20 2021","1500","The main experiment item","yes","FlankerTaskHW.osexp","C:/Users/19565/Desktop","no","mono","no","18","no","white","no","yes","768","legacy","36","36","C:/Users/19565/Desktop/MR-subject-3.csv","legacy","Lentiform Loewenfeld","3.3.9","0","s","NA","s","NA","NA","s","699","NA","11765","NA","NA","699","2","legacy","1024","2","48000","-16","experiment","HHSHH","3","odd","83542","15586","NA","NA","62944","3815","NA","NA","84680","3820","NA","NA","85487","84677","84786","84785","Flanker Task HW","32","21359","37","yes","1024"
"86.84210526315789","86.84210526315789","579.1052631578947","579.1052631578947","black","legacy","legacy","legacy","0","congruent","uniform","1","undefined","s","1","37","0","0","0","37","0","37","NA","37","0","0","0","37","37","37","37","Sun Sep 19 23:03:20 2021","1500","The main experiment item","yes","FlankerTaskHW.osexp","C:/Users/19565/Desktop","no","mono","no","18","no","white","no","yes","768","legacy","37","37","C:/Users/19565/Desktop/MR-subject-3.csv","legacy","Lentiform Loewenfeld","3.3.9","0","s","NA","s","NA","NA","s","647","NA","11765","NA","NA","647","2","legacy","1024","2","48000","-16","experiment","SSSSS","3","odd","85495","15586","NA","NA","62944","3815","NA","NA","86654","3820","NA","NA","87406","86651","86758","86758","Flanker Task HW","33","22006","38","yes","1024"
"87.17948717948718","87.17948717948718","576.3076923076923","576.3076923076923","black","legacy","legacy","legacy","0","incongruent","uniform","1","undefined","h","1","38","0","0","0","38","0","38","NA","38","0","0","0","38","38","38","38","Sun Sep 19 23:03:20 2021","1500","The main experiment item","yes","FlankerTaskHW.osexp","C:/Users/19565/Desktop","no","mono","no","18","no","white","no","yes","768","legacy","38","38","C:/Users/19565/Desktop/MR-subject-3.csv","legacy","Lentiform Loewenfeld","3.3.9","0","h","NA","s","NA","NA","h","470","NA","11765","NA","NA","470","2","legacy","1024","2","48000","-16","experiment","SSHSS","3","odd","87416","15586","NA","NA","62944","3815","NA","NA","88592","3820","NA","NA","89168","88590","88696","88696","Flanker Task HW","34","22476","39","yes","1024"
"87.5","87.5","576.175","576.175","black","legacy","legacy","legacy","0","incongruent","uniform","1","undefined","s","1","39","0","0","0","39","0","39","NA","39","0","0","0","39","39","39","39","Sun Sep 19 23:03:20 2021","1500","The main experiment item","yes","FlankerTaskHW.osexp","C:/Users/19565/Desktop","no","mono","no","18","no","white","no","yes","768","legacy","39","39","C:/Users/19565/Desktop/MR-subject-3.csv","legacy","Lentiform Loewenfeld","3.3.9","0","s","NA","s","NA","NA","s","571","NA","11765","NA","NA","571","2","legacy","1024","2","48000","-16","experiment","HHSHH","3","odd","89179","15586","NA","NA","62944","3815","NA","NA","90307","3820","NA","NA","90985","90304","90412","90412","Flanker Task HW","35","23047","40","yes","1024"
"87.8048780487805","87.8048780487805","576.3170731707318","576.3170731707318","black","legacy","legacy","legacy","0","congruent","uniform","1","undefined","h","1","40","0","0","0","40","0","40","NA","40","0","0","0","40","40","40","40","Sun Sep 19 23:03:20 2021","1500","The main experiment item","yes","FlankerTaskHW.osexp","C:/Users/19565/Desktop","no","mono","no","18","no","white","no","yes","768","legacy","40","40","C:/Users/19565/Desktop/MR-subject-3.csv","legacy","Lentiform Loewenfeld","3.3.9","0","h","NA","s","NA","NA","h","582","NA","11765","NA","NA","582","2","legacy","1024","2","48000","-16","experiment","HHHHH","3","odd","90996","15586","NA","NA","62944","3815","NA","NA","92131","3820","NA","NA","92820","92128","92236","92236","Flanker Task HW","36","23629","41","yes","1024"
"88.0952380952381","88.0952380952381","575.8571428571429","575.8571428571429","black","legacy","legacy","legacy","0","incongruent","uniform","1","undefined","h","1","41","0","0","0","41","0","41","NA","41","0","0","0","41","41","41","41","Sun Sep 19 23:03:20 2021","1500","The main experiment item","yes","FlankerTaskHW.osexp","C:/Users/19565/Desktop","no","mono","no","18","no","white","no","yes","768","legacy","41","41","C:/Users/19565/Desktop/MR-subject-3.csv","legacy","Lentiform Loewenfeld","3.3.9","0","h","NA","s","NA","NA","h","557","NA","11765","NA","NA","557","2","legacy","1024","2","48000","-16","experiment","SSHSS","3","odd","92826","15586","NA","NA","62944","3815","NA","NA","94033","3820","NA","NA","94696","94031","94138","94138","Flanker Task HW","37","24186","42","yes","1024"
"88.37209302325581","88.37209302325581","573.7906976744187","573.7906976744187","black","legacy","legacy","legacy","0","congruent","uniform","1","undefined","h","1","42","0","0","0","42","0","42","NA","42","0","0","0","42","42","42","42","Sun Sep 19 23:03:20 2021","1500","The main experiment item","yes","FlankerTaskHW.osexp","C:/Users/19565/Desktop","no","mono","no","18","no","white","no","yes","768","legacy","42","42","C:/Users/19565/Desktop/MR-subject-3.csv","legacy","Lentiform Loewenfeld","3.3.9","0","h","NA","s","NA","NA","h","487","NA","11765","NA","NA","487","2","legacy","1024","2","48000","-16","experiment","HHHHH","3","odd","94705","15586","NA","NA","62944","3815","NA","NA","95901","3820","NA","NA","96495","95898","96005","96005","Flanker Task HW","38","24673","43","yes","1024"
"88.63636363636364","88.63636363636364","572.9318181818181","572.9318181818181","black","legacy","legacy","legacy","0","congruent","uniform","1","undefined","s","1","43","0","0","0","43","0","43","NA","43","0","0","0","43","43","43","43","Sun Sep 19 23:03:20 2021","1500","The main experiment item","yes","FlankerTaskHW.osexp","C:/Users/19565/Desktop","no","mono","no","18","no","white","no","yes","768","legacy","43","43","C:/Users/19565/Desktop/MR-subject-3.csv","legacy","Lentiform Loewenfeld","3.3.9","0","s","NA","s","NA","NA","s","536","NA","11765","NA","NA","536","2","legacy","1024","2","48000","-16","experiment","SSSSS","3","odd","96504","15586","NA","NA","62944","3815","NA","NA","97665","3820","NA","NA","98307","97662","97769","97769","Flanker Task HW","39","25209","44","yes","1024"
"86.66666666666667","86.66666666666667","570.8222222222222","570.8222222222222","black","legacy","legacy","legacy","0","incongruent","uniform","0","undefined","s","0","44","0","0","0","44","0","44","NA","44","0","0","0","44","44","44","44","Sun Sep 19 23:03:20 2021","1500","The main experiment item","yes","FlankerTaskHW.osexp","C:/Users/19565/Desktop","no","mono","no","18","no","white","no","yes","768","legacy","44","44","C:/Users/19565/Desktop/MR-subject-3.csv","legacy","Lentiform Loewenfeld","3.3.9","0","h","NA","s","NA","NA","h","478","NA","11765","NA","NA","478","2","legacy","1024","2","48000","-16","experiment","HHSHH","3","odd","98316","15586","NA","NA","62944","3815","NA","NA","99447","3820","NA","NA","100031","99444","99551","99550","Flanker Task HW","39","25687","45","yes","1024"
"86.95652173913044","86.95652173913044","571.2826086956521","571.2826086956521","black","legacy","legacy","legacy","0","incongruent","uniform","1","undefined","s","1","45","0","0","0","45","0","45","NA","45","0","0","0","45","45","45","45","Sun Sep 19 23:03:20 2021","1500","The main experiment item","yes","FlankerTaskHW.osexp","C:/Users/19565/Desktop","no","mono","no","18","no","white","no","yes","768","legacy","45","45","C:/Users/19565/Desktop/MR-subject-3.csv","legacy","Lentiform Loewenfeld","3.3.9","0","s","NA","s","NA","NA","s","592","NA","11765","NA","NA","592","2","legacy","1024","2","48000","-16","experiment","HHSHH","3","odd","100546","15586","NA","NA","100040","3815","NA","NA","101710","3820","NA","NA","102408","101708","101814","101813","Flanker Task HW","40","26279","46","yes","1024"
"87.23404255319149","87.23404255319149","575.4042553191489","575.4042553191489","black","legacy","legacy","legacy","0","incongruent","uniform","1","undefined","s","1","46","0","0","0","46","0","46","NA","46","0","0","0","46","46","46","46","Sun Sep 19 23:03:20 2021","1500","The main experiment item","yes","FlankerTaskHW.osexp","C:/Users/19565/Desktop","no","mono","no","18","no","white","no","yes","768","legacy","46","46","C:/Users/19565/Desktop/MR-subject-3.csv","legacy","Lentiform Loewenfeld","3.3.9","0","s","NA","s","NA","NA","s","765","NA","11765","NA","NA","765","2","legacy","1024","2","48000","-16","experiment","HHSHH","3","odd","102418","15586","NA","NA","100040","3815","NA","NA","103546","3820","NA","NA","104418","103543","103651","103650","Flanker Task HW","41","27044","47","yes","1024"
"87.5","87.5","572.6041666666666","572.6041666666666","black","legacy","legacy","legacy","0","incongruent","uniform","1","undefined","s","1","47","0","0","0","47","0","47","NA","47","0","0","0","47","47","47","47","Sun Sep 19 23:03:20 2021","1500","The main experiment item","yes","FlankerTaskHW.osexp","C:/Users/19565/Desktop","no","mono","no","18","no","white","no","yes","768","legacy","47","47","C:/Users/19565/Desktop/MR-subject-3.csv","legacy","Lentiform Loewenfeld","3.3.9","0","s","NA","s","NA","NA","s","441","NA","11765","NA","NA","441","2","legacy","1024","2","48000","-16","experiment","HHSHH","3","odd","104428","15586","NA","NA","100040","3815","NA","NA","105561","3820","NA","NA","106109","105560","105666","105665","Flanker Task HW","42","27485","48","yes","1024"
"87.75510204081633","87.75510204081633","569.3265306122449","569.3265306122449","black","legacy","legacy","legacy","0","incongruent","uniform","1","undefined","s","1","48","0","0","0","48","0","48","NA","48","0","0","0","48","48","48","48","Sun Sep 19 23:03:20 2021","1500","The main experiment item","yes","FlankerTaskHW.osexp","C:/Users/19565/Desktop","no","mono","no","18","no","white","no","yes","768","legacy","48","48","C:/Users/19565/Desktop/MR-subject-3.csv","legacy","Lentiform Loewenfeld","3.3.9","0","s","NA","s","NA","NA","s","412","NA","11765","NA","NA","412","2","legacy","1024","2","48000","-16","experiment","HHSHH","3","odd","106118","15586","NA","NA","100040","3815","NA","NA","107236","3820","NA","NA","107755","107233","107341","107339","Flanker Task HW","43","27897","49","yes","1024"
"88","88","567.54","567.54","black","legacy","legacy","legacy","0","incongruent","uniform","1","undefined","s","1","49","0","0","0","49","0","49","NA","49","0","0","0","49","49","49","49","Sun Sep 19 23:03:20 2021","1500","The main experiment item","yes","FlankerTaskHW.osexp","C:/Users/19565/Desktop","no","mono","no","18","no","white","no","yes","768","legacy","49","49","C:/Users/19565/Desktop/MR-subject-3.csv","legacy","Lentiform Loewenfeld","3.3.9","0","s","NA","s","NA","NA","s","480","NA","11765","NA","NA","480","2","legacy","1024","2","48000","-16","experiment","HHSHH","3","odd","107765","15586","NA","NA","100040","3815","NA","NA","108953","3820","NA","NA","109540","108950","109058","109058","Flanker Task HW","44","28377","50","yes","1024"
"88.23529411764706","88.23529411764706","565.4509803921569","565.4509803921569","black","legacy","legacy","legacy","0","congruent","uniform","1","undefined","s","1","50","0","0","0","50","0","50","NA","50","0","0","0","50","50","50","50","Sun Sep 19 23:03:20 2021","1500","The main experiment item","yes","FlankerTaskHW.osexp","C:/Users/19565/Desktop","no","mono","no","18","no","white","no","yes","768","legacy","50","50","C:/Users/19565/Desktop/MR-subject-3.csv","legacy","Lentiform Loewenfeld","3.3.9","0","s","NA","s","NA","NA","s","461","NA","11765","NA","NA","461","2","legacy","1024","2","48000","-16","experiment","SSSSS","3","odd","109550","15586","NA","NA","100040","3815","NA","NA","110712","3820","NA","NA","111279","110709","110816","110816","Flanker Task HW","45","28838","51","yes","1024"
"88.46153846153847","88.46153846153847","570.3461538461538","570.3461538461538","black","legacy","legacy","legacy","0","incongruent","uniform","1","undefined","h","1","51","0","0","0","51","0","51","NA","51","0","0","0","51","51","51","51","Sun Sep 19 23:03:20 2021","1500","The main experiment item","yes","FlankerTaskHW.osexp","C:/Users/19565/Desktop","no","mono","no","18","no","white","no","yes","768","legacy","51","51","C:/Users/19565/Desktop/MR-subject-3.csv","legacy","Lentiform Loewenfeld","3.3.9","0","h","NA","s","NA","NA","h","820","NA","11765","NA","NA","820","2","legacy","1024","2","48000","-16","experiment","SSHSS","3","odd","111288","15586","NA","NA","100040","3815","NA","NA","112450","3820","NA","NA","113376","112448","112554","112554","Flanker Task HW","46","29658","52","yes","1024"
"88.67924528301887","88.67924528301887","568.6603773584906","568.6603773584906","black","legacy","legacy","legacy","0","congruent","uniform","1","undefined","s","1","52","0","0","0","52","0","52","NA","52","0","0","0","52","52","52","52","Sun Sep 19 23:03:20 2021","1500","The main experiment item","yes","FlankerTaskHW.osexp","C:/Users/19565/Desktop","no","mono","no","18","no","white","no","yes","768","legacy","52","52","C:/Users/19565/Desktop/MR-subject-3.csv","legacy","Lentiform Loewenfeld","3.3.9","0","s","NA","s","NA","NA","s","481","NA","11765","NA","NA","481","2","legacy","1024","2","48000","-16","experiment","SSSSS","3","odd","113385","15586","NA","NA","100040","3815","NA","NA","114522","3820","NA","NA","115108","114519","114625","114624","Flanker Task HW","47","30139","53","yes","1024"
"88.88888888888889","88.88888888888889","565.6481481481482","565.6481481481482","black","legacy","legacy","legacy","0","congruent","uniform","1","undefined","s","1","53","0","0","0","53","0","53","NA","53","0","0","0","53","53","53","53","Sun Sep 19 23:03:20 2021","1500","The main experiment item","yes","FlankerTaskHW.osexp","C:/Users/19565/Desktop","no","mono","no","18","no","white","no","yes","768","legacy","53","53","C:/Users/19565/Desktop/MR-subject-3.csv","legacy","Lentiform Loewenfeld","3.3.9","0","s","NA","s","NA","NA","s","406","NA","11765","NA","NA","406","2","legacy","1024","2","48000","-16","experiment","SSSSS","3","odd","115117","15586","NA","NA","100040","3815","NA","NA","116287","3820","NA","NA","116800","116284","116392","116391","Flanker Task HW","48","30545","54","yes","1024"
"89.0909090909091","89.0909090909091","563.9454545454546","563.9454545454546","black","legacy","legacy","legacy","0","congruent","uniform","1","undefined","s","1","54","0","0","0","54","0","54","NA","54","0","0","0","54","54","54","54","Sun Sep 19 23:03:20 2021","1500","The main experiment item","yes","FlankerTaskHW.osexp","C:/Users/19565/Desktop","no","mono","no","18","no","white","no","yes","768","legacy","54","54","C:/Users/19565/Desktop/MR-subject-3.csv","legacy","Lentiform Loewenfeld","3.3.9","0","s","NA","s","NA","NA","s","472","NA","11765","NA","NA","472","2","legacy","1024","2","48000","-16","experiment","SSSSS","3","odd","116809","15586","NA","NA","100040","3815","NA","NA","117955","3820","NA","NA","118531","117952","118058","118058","Flanker Task HW","49","31017","55","yes","1024"
"89.28571428571429","89.28571428571429","563.1785714285714","563.1785714285714","black","legacy","legacy","legacy","0","incongruent","uniform","1","undefined","h","1","55","0","0","0","55","0","55","NA","55","0","0","0","55","55","55","55","Sun Sep 19 23:03:20 2021","1500","The main experiment item","yes","FlankerTaskHW.osexp","C:/Users/19565/Desktop","no","mono","no","18","no","white","no","yes","768","legacy","55","55","C:/Users/19565/Desktop/MR-subject-3.csv","legacy","Lentiform Loewenfeld","3.3.9","0","h","NA","s","NA","NA","h","521","NA","11765","NA","NA","521","2","legacy","1024","2","48000","-16","experiment","SSHSS","3","odd","118537","15586","NA","NA","100040","3815","NA","NA","119695","3820","NA","NA","120320","119692","119799","119799","Flanker Task HW","50","31538","56","yes","1024"
"89.47368421052632","89.47368421052632","561.7894736842105","561.7894736842105","black","legacy","legacy","legacy","0","congruent","uniform","1","undefined","h","1","56","0","0","0","56","0","56","NA","56","0","0","0","56","56","56","56","Sun Sep 19 23:03:20 2021","1500","The main experiment item","yes","FlankerTaskHW.osexp","C:/Users/19565/Desktop","no","mono","no","18","no","white","no","yes","768","legacy","56","56","C:/Users/19565/Desktop/MR-subject-3.csv","legacy","Lentiform Loewenfeld","3.3.9","0","h","NA","s","NA","NA","h","484","NA","11765","NA","NA","484","2","legacy","1024","2","48000","-16","experiment","HHHHH","3","odd","120327","15586","NA","NA","100040","3815","NA","NA","121504","3820","NA","NA","122096","121502","121609","121608","Flanker Task HW","51","32022","57","yes","1024"
"89.65517241379311","89.65517241379311","562.5344827586207","562.5344827586207","black","legacy","legacy","legacy","0","congruent","uniform","1","undefined","h","1","57","0","0","0","57","0","57","NA","57","0","0","0","57","57","57","57","Sun Sep 19 23:03:20 2021","1500","The main experiment item","yes","FlankerTaskHW.osexp","C:/Users/19565/Desktop","no","mono","no","18","no","white","no","yes","768","legacy","57","57","C:/Users/19565/Desktop/MR-subject-3.csv","legacy","Lentiform Loewenfeld","3.3.9","0","h","NA","s","NA","NA","h","605","NA","11765","NA","NA","605","2","legacy","1024","2","48000","-16","experiment","HHHHH","3","odd","122107","15586","NA","NA","100040","3815","NA","NA","123276","3820","NA","NA","123987","123273","123380","123380","Flanker Task HW","52","32627","58","yes","1024"
"89.83050847457628","89.83050847457628","563.6271186440678","563.6271186440678","black","legacy","legacy","legacy","0","congruent","uniform","1","undefined","h","1","58","0","0","0","58","0","58","NA","58","0","0","0","58","58","58","58","Sun Sep 19 23:03:20 2021","1500","The main experiment item","yes","FlankerTaskHW.osexp","C:/Users/19565/Desktop","no","mono","no","18","no","white","no","yes","768","legacy","58","58","C:/Users/19565/Desktop/MR-subject-3.csv","legacy","Lentiform Loewenfeld","3.3.9","0","h","NA","s","NA","NA","h","627","NA","11765","NA","NA","627","2","legacy","1024","2","48000","-16","experiment","HHHHH","3","odd","123997","15586","NA","NA","100040","3815","NA","NA","125122","3820","NA","NA","125855","125120","125226","125226","Flanker Task HW","53","33254","59","yes","1024"
"90","90","563.2333333333333","563.2333333333333","black","legacy","legacy","legacy","0","incongruent","uniform","1","undefined","s","1","59","0","0","0","59","0","59","NA","59","0","0","0","59","59","59","59","Sun Sep 19 23:03:20 2021","1500","The main experiment item","yes","FlankerTaskHW.osexp","C:/Users/19565/Desktop","no","mono","no","18","no","white","no","yes","768","legacy","59","59","C:/Users/19565/Desktop/MR-subject-3.csv","legacy","Lentiform Loewenfeld","3.3.9","0","s","NA","s","NA","NA","s","540","NA","11765","NA","NA","540","2","legacy","1024","2","48000","-16","experiment","HHSHH","3","odd","125862","15586","NA","NA","100040","3815","NA","NA","127003","3820","NA","NA","127650","127001","127108","127108","Flanker Task HW","54","33794","60","yes","1024"
"90.1639344262295","90.1639344262295","563.0655737704918","563.0655737704918","black","legacy","legacy","legacy","0","congruent","uniform","1","undefined","s","1","60","0","0","0","60","0","60","NA","60","0","0","0","60","60","60","60","Sun Sep 19 23:03:20 2021","1500","The main experiment item","yes","FlankerTaskHW.osexp","C:/Users/19565/Desktop","no","mono","no","18","no","white","no","yes","768","legacy","60","60","C:/Users/19565/Desktop/MR-subject-3.csv","legacy","Lentiform Loewenfeld","3.3.9","0","s","NA","s","NA","NA","s","553","NA","11765","NA","NA","553","2","legacy","1024","2","48000","-16","experiment","SSSSS","3","odd","127659","15586","NA","NA","100040","3815","NA","NA","128838","3820","NA","NA","129497","128835","128943","128942","Flanker Task HW","55","34347","61","yes","1024"
"90.3225806451613","90.3225806451613","561.6129032258065","561.6129032258065","black","legacy","legacy","legacy","0","incongruent","uniform","1","undefined","s","1","61","0","0","0","61","0","61","NA","61","0","0","0","61","61","61","61","Sun Sep 19 23:03:20 2021","1500","The main experiment item","yes","FlankerTaskHW.osexp","C:/Users/19565/Desktop","no","mono","no","18","no","white","no","yes","768","legacy","61","61","C:/Users/19565/Desktop/MR-subject-3.csv","legacy","Lentiform Loewenfeld","3.3.9","0","s","NA","s","NA","NA","s","473","NA","11765","NA","NA","473","2","legacy","1024","2","48000","-16","experiment","HHSHH","3","odd","129502","15586","NA","NA","100040","3815","NA","NA","130639","3820","NA","NA","131218","130636","130743","130743","Flanker Task HW","56","34820","62","yes","1024"
"90.47619047619048","90.47619047619048","560.4126984126984","560.4126984126984","black","legacy","legacy","legacy","0","incongruent","uniform","1","undefined","s","1","62","0","0","0","62","0","62","NA","62","0","0","0","62","62","62","62","Sun Sep 19 23:03:20 2021","1500","The main experiment item","yes","FlankerTaskHW.osexp","C:/Users/19565/Desktop","no","mono","no","18","no","white","no","yes","768","legacy","62","62","C:/Users/19565/Desktop/MR-subject-3.csv","legacy","Lentiform Loewenfeld","3.3.9","0","s","NA","s","NA","NA","s","486","NA","11765","NA","NA","486","2","legacy","1024","2","48000","-16","experiment","HHSHH","3","odd","131226","15586","NA","NA","100040","3815","NA","NA","132401","3820","NA","NA","132994","132398","132506","132504","Flanker Task HW","57","35306","63","yes","1024"
"90.625","90.625","561.6875","561.6875","black","legacy","legacy","legacy","0","incongruent","uniform","1","undefined","h","1","63","0","0","0","63","0","63","NA","63","0","0","0","63","63","63","63","Sun Sep 19 23:03:20 2021","1500","The main experiment item","yes","FlankerTaskHW.osexp","C:/Users/19565/Desktop","no","mono","no","18","no","white","no","yes","768","legacy","63","63","C:/Users/19565/Desktop/MR-subject-3.csv","legacy","Lentiform Loewenfeld","3.3.9","0","h","NA","s","NA","NA","h","642","NA","11765","NA","NA","642","2","legacy","1024","2","48000","-16","experiment","SSHSS","3","odd","133003","15586","NA","NA","100040","3815","NA","NA","134161","3820","NA","NA","134911","134158","134266","134266","Flanker Task HW","58","35948","64","yes","1024"
"90.76923076923077","90.76923076923077","560.4461538461538","560.4461538461538","black","legacy","legacy","legacy","0","congruent","uniform","1","undefined","h","1","64","0","0","0","64","0","64","NA","64","0","0","0","64","64","64","64","Sun Sep 19 23:03:20 2021","1500","The main experiment item","yes","FlankerTaskHW.osexp","C:/Users/19565/Desktop","no","mono","no","18","no","white","no","yes","768","legacy","64","64","C:/Users/19565/Desktop/MR-subject-3.csv","legacy","Lentiform Loewenfeld","3.3.9","0","h","NA","s","NA","NA","h","481","NA","11765","NA","NA","481","2","legacy","1024","2","48000","-16","experiment","HHHHH","3","odd","134922","15586","NA","NA","100040","3815","NA","NA","136081","3820","NA","NA","136668","136078","136185","136185","Flanker Task HW","59","36429","65","yes","1024"
"90.9090909090909","90.9090909090909","560","560","black","legacy","legacy","legacy","0","congruent","uniform","1","undefined","s","1","65","0","0","0","65","0","65","NA","65","0","0","0","65","65","65","65","Sun Sep 19 23:03:20 2021","1500","The main experiment item","yes","FlankerTaskHW.osexp","C:/Users/19565/Desktop","no","mono","no","18","no","white","no","yes","768","legacy","65","65","C:/Users/19565/Desktop/MR-subject-3.csv","legacy","Lentiform Loewenfeld","3.3.9","0","s","NA","s","NA","NA","s","531","NA","11765","NA","NA","531","2","legacy","1024","2","48000","-16","experiment","SSSSS","3","odd","136679","15586","NA","NA","100040","3815","NA","NA","137872","3820","NA","NA","138512","137870","137978","137978","Flanker Task HW","60","36960","66","yes","1024"
"91.04477611940298","91.04477611940298","558.9253731343283","558.9253731343283","black","legacy","legacy","legacy","0","congruent","uniform","1","undefined","h","1","66","0","0","0","66","0","66","NA","66","0","0","0","66","66","66","66","Sun Sep 19 23:03:20 2021","1500","The main experiment item","yes","FlankerTaskHW.osexp","C:/Users/19565/Desktop","no","mono","no","18","no","white","no","yes","768","legacy","66","66","C:/Users/19565/Desktop/MR-subject-3.csv","legacy","Lentiform Loewenfeld","3.3.9","0","h","NA","s","NA","NA","h","488","NA","11765","NA","NA","488","2","legacy","1024","2","48000","-16","experiment","HHHHH","3","odd","138523","15586","NA","NA","100040","3815","NA","NA","139725","3820","NA","NA","140318","139722","139830","139830","Flanker Task HW","61","37448","67","yes","1024"
"91.17647058823529","91.17647058823529","557.6029411764706","557.6029411764706","black","legacy","legacy","legacy","0","incongruent","uniform","1","undefined","h","1","67","0","0","0","67","0","67","NA","67","0","0","0","67","67","67","67","Sun Sep 19 23:03:20 2021","1500","The main experiment item","yes","FlankerTaskHW.osexp","C:/Users/19565/Desktop","no","mono","no","18","no","white","no","yes","768","legacy","67","67","C:/Users/19565/Desktop/MR-subject-3.csv","legacy","Lentiform Loewenfeld","3.3.9","0","h","NA","s","NA","NA","h","469","NA","11765","NA","NA","469","2","legacy","1024","2","48000","-16","experiment","SSHSS","3","odd","140325","15586","NA","NA","100040","3815","NA","NA","141524","3820","NA","NA","142100","141521","141629","141629","Flanker Task HW","62","37917","68","yes","1024"
"91.30434782608695","91.30434782608695","556.927536231884","556.927536231884","black","legacy","legacy","legacy","0","incongruent","uniform","1","undefined","s","1","68","0","0","0","68","0","68","NA","68","0","0","0","68","68","68","68","Sun Sep 19 23:03:20 2021","1500","The main experiment item","yes","FlankerTaskHW.osexp","C:/Users/19565/Desktop","no","mono","no","18","no","white","no","yes","768","legacy","68","68","C:/Users/19565/Desktop/MR-subject-3.csv","legacy","Lentiform Loewenfeld","3.3.9","0","s","NA","s","NA","NA","s","511","NA","11765","NA","NA","511","2","legacy","1024","2","48000","-16","experiment","HHSHH","3","odd","142110","15586","NA","NA","100040","3815","NA","NA","143291","3820","NA","NA","143907","143289","143394","143394","Flanker Task HW","63","38428","69","yes","1024"
"91.42857142857143","91.42857142857143","561.3285714285714","561.3285714285714","black","legacy","legacy","legacy","0","incongruent","uniform","1","undefined","h","1","69","0","0","0","69","0","69","NA","69","0","0","0","69","69","69","69","Sun Sep 19 23:03:20 2021","1500","The main experiment item","yes","FlankerTaskHW.osexp","C:/Users/19565/Desktop","no","mono","no","18","no","white","no","yes","768","legacy","69","69","C:/Users/19565/Desktop/MR-subject-3.csv","legacy","Lentiform Loewenfeld","3.3.9","0","h","NA","s","NA","NA","h","865","NA","11765","NA","NA","865","2","legacy","1024","2","48000","-16","experiment","SSHSS","3","odd","143917","15586","NA","NA","100040","3815","NA","NA","145103","3820","NA","NA","146075","145100","145208","145208","Flanker Task HW","64","39293","70","yes","1024"
"91.54929577464789","91.54929577464789","559.6478873239437","559.6478873239437","black","legacy","legacy","legacy","0","congruent","uniform","1","undefined","h","1","70","0","0","0","70","0","70","NA","70","0","0","0","70","70","70","70","Sun Sep 19 23:03:20 2021","1500","The main experiment item","yes","FlankerTaskHW.osexp","C:/Users/19565/Desktop","no","mono","no","18","no","white","no","yes","768","legacy","70","70","C:/Users/19565/Desktop/MR-subject-3.csv","legacy","Lentiform Loewenfeld","3.3.9","0","h","NA","s","NA","NA","h","442","NA","11765","NA","NA","442","2","legacy","1024","2","48000","-16","experiment","HHHHH","3","odd","146085","15586","NA","NA","100040","3815","NA","NA","147234","3820","NA","NA","147783","147231","147339","147339","Flanker Task HW","65","39735","71","yes","1024"
"91.66666666666667","91.66666666666667","558.0138888888889","558.0138888888889","black","legacy","legacy","legacy","0","congruent","uniform","1","undefined","h","1","71","0","0","0","71","0","71","NA","71","0","0","0","71","71","71","71","Sun Sep 19 23:03:20 2021","1500","The main experiment item","yes","FlankerTaskHW.osexp","C:/Users/19565/Desktop","no","mono","no","18","no","white","no","yes","768","legacy","71","71","C:/Users/19565/Desktop/MR-subject-3.csv","legacy","Lentiform Loewenfeld","3.3.9","0","h","NA","s","NA","NA","h","442","NA","11765","NA","NA","442","2","legacy","1024","2","48000","-16","experiment","HHHHH","3","odd","147794","15586","NA","NA","100040","3815","NA","NA","148939","3820","NA","NA","149486","148937","149043","149043","Flanker Task HW","66","40177","72","yes","1024"
"91.78082191780823","91.78082191780823","558.0958904109589","558.0958904109589","black","legacy","legacy","legacy","0","congruent","uniform","1","undefined","s","1","72","0","0","0","72","0","72","NA","72","0","0","0","72","72","72","72","Sun Sep 19 23:03:20 2021","1500","The main experiment item","yes","FlankerTaskHW.osexp","C:/Users/19565/Desktop","no","mono","no","18","no","white","no","yes","768","legacy","72","72","C:/Users/19565/Desktop/MR-subject-3.csv","legacy","Lentiform Loewenfeld","3.3.9","0","s","NA","s","NA","NA","s","564","NA","11765","NA","NA","564","2","legacy","1024","2","48000","-16","experiment","SSSSS","3","odd","149493","15586","NA","NA","100040","3815","NA","NA","150650","3820","NA","NA","151321","150648","150755","150755","Flanker Task HW","67","40741","73","yes","1024"
"91.89189189189189","91.89189189189189","557.9594594594595","557.9594594594595","black","legacy","legacy","legacy","0","incongruent","uniform","1","undefined","h","1","73","0","0","0","73","0","73","NA","73","0","0","0","73","73","73","73","Sun Sep 19 23:03:20 2021","1500","The main experiment item","yes","FlankerTaskHW.osexp","C:/Users/19565/Desktop","no","mono","no","18","no","white","no","yes","768","legacy","73","73","C:/Users/19565/Desktop/MR-subject-3.csv","legacy","Lentiform Loewenfeld","3.3.9","0","h","NA","s","NA","NA","h","548","NA","11765","NA","NA","548","2","legacy","1024","2","48000","-16","experiment","SSHSS","3","odd","151332","15586","NA","NA","100040","3815","NA","NA","152440","3820","NA","NA","153096","152437","152545","152544","Flanker Task HW","68","41289","74","yes","1024"
"92","92","557.2533333333333","557.2533333333333","black","legacy","legacy","legacy","0","incongruent","uniform","1","undefined","h","1","74","0","0","0","74","0","74","NA","74","0","0","0","74","74","74","74","Sun Sep 19 23:03:20 2021","1500","The main experiment item","yes","FlankerTaskHW.osexp","C:/Users/19565/Desktop","no","mono","no","18","no","white","no","yes","768","legacy","74","74","C:/Users/19565/Desktop/MR-subject-3.csv","legacy","Lentiform Loewenfeld","3.3.9","0","h","NA","s","NA","NA","h","505","NA","11765","NA","NA","505","2","legacy","1024","2","48000","-16","experiment","SSHSS","3","odd","153105","15586","NA","NA","100040","3815","NA","NA","154227","3820","NA","NA","154839","154225","154332","154331","Flanker Task HW","69","41794","75","yes","1024"
"92.10526315789474","92.10526315789474","555.7894736842105","555.7894736842105","black","legacy","legacy","legacy","0","congruent","uniform","1","undefined","h","1","75","0","0","0","75","0","75","NA","75","0","0","0","75","75","75","75","Sun Sep 19 23:03:20 2021","1500","The main experiment item","yes","FlankerTaskHW.osexp","C:/Users/19565/Desktop","no","mono","no","18","no","white","no","yes","768","legacy","75","75","C:/Users/19565/Desktop/MR-subject-3.csv","legacy","Lentiform Loewenfeld","3.3.9","0","h","NA","s","NA","NA","h","446","NA","11765","NA","NA","446","2","legacy","1024","2","48000","-16","experiment","HHHHH","3","odd","154849","15586","NA","NA","100040","3815","NA","NA","155976","3820","NA","NA","156528","155974","156080","156080","Flanker Task HW","70","42240","76","yes","1024"
"92.20779220779221","92.20779220779221","554.2467532467532","554.2467532467532","black","legacy","legacy","legacy","0","congruent","uniform","1","undefined","h","1","76","0","0","0","76","0","76","NA","76","0","0","0","76","76","76","76","Sun Sep 19 23:03:20 2021","1500","The main experiment item","yes","FlankerTaskHW.osexp","C:/Users/19565/Desktop","no","mono","no","18","no","white","no","yes","768","legacy","76","76","C:/Users/19565/Desktop/MR-subject-3.csv","legacy","Lentiform Loewenfeld","3.3.9","0","h","NA","s","NA","NA","h","437","NA","11765","NA","NA","437","2","legacy","1024","2","48000","-16","experiment","HHHHH","3","odd","156538","15586","NA","NA","100040","3815","NA","NA","157685","3820","NA","NA","158228","157682","157789","157789","Flanker Task HW","71","42677","77","yes","1024"
"92.3076923076923","92.3076923076923","552.8846153846154","552.8846153846154","black","legacy","legacy","legacy","0","incongruent","uniform","1","undefined","h","1","77","0","0","0","77","0","77","NA","77","0","0","0","77","77","77","77","Sun Sep 19 23:03:20 2021","1500","The main experiment item","yes","FlankerTaskHW.osexp","C:/Users/19565/Desktop","no","mono","no","18","no","white","no","yes","768","legacy","77","77","C:/Users/19565/Desktop/MR-subject-3.csv","legacy","Lentiform Loewenfeld","3.3.9","0","h","NA","s","NA","NA","h","448","NA","11765","NA","NA","448","2","legacy","1024","2","48000","-16","experiment","SSHSS","3","odd","158238","15586","NA","NA","100040","3815","NA","NA","159396","3820","NA","NA","159950","159394","159500","159500","Flanker Task HW","72","43125","78","yes","1024"
"92.40506329113924","92.40506329113924","553.7721518987341","553.7721518987341","black","legacy","legacy","legacy","0","incongruent","uniform","1","undefined","h","1","78","0","0","0","78","0","78","NA","78","0","0","0","78","78","78","78","Sun Sep 19 23:03:20 2021","1500","The main experiment item","yes","FlankerTaskHW.osexp","C:/Users/19565/Desktop","no","mono","no","18","no","white","no","yes","768","legacy","78","78","C:/Users/19565/Desktop/MR-subject-3.csv","legacy","Lentiform Loewenfeld","3.3.9","0","h","NA","s","NA","NA","h","623","NA","11765","NA","NA","623","2","legacy","1024","2","48000","-16","experiment","SSHSS","3","odd","159959","15586","NA","NA","100040","3815","NA","NA","161126","3820","NA","NA","161856","161123","161231","161231","Flanker Task HW","73","43748","79","yes","1024"
"92.5","92.5","552.9375","552.9375","black","legacy","legacy","legacy","0","congruent","uniform","1","undefined","h","1","79","0","0","0","79","0","79","NA","79","0","0","0","79","79","79","79","Sun Sep 19 23:03:20 2021","1500","The main experiment item","yes","FlankerTaskHW.osexp","C:/Users/19565/Desktop","no","mono","no","18","no","white","no","yes","768","legacy","79","79","C:/Users/19565/Desktop/MR-subject-3.csv","legacy","Lentiform Loewenfeld","3.3.9","0","h","NA","s","NA","NA","h","487","NA","11765","NA","NA","487","2","legacy","1024","2","48000","-16","experiment","HHHHH","3","odd","161866","15586","NA","NA","100040","3815","NA","NA","163041","3820","NA","NA","163636","163038","163147","163146","Flanker Task HW","74","44235","80","yes","1024"
"92.5925925925926","92.5925925925926","556.4320987654321","556.4320987654321","black","legacy","legacy","legacy","0","incongruent","uniform","1","undefined","s","1","80","0","0","0","80","0","80","NA","80","0","0","0","80","80","80","80","Sun Sep 19 23:03:20 2021","600","The main experiment item","yes","FlankerTaskHW.osexp","C:/Users/19565/Desktop","no","mono","no","18","no","white","no","yes","768","legacy","0","79","C:/Users/19565/Desktop/MR-subject-3.csv","legacy","Lentiform Loewenfeld","3.3.9","0","s","NA","s","h","NA","s","836","NA","11765","1660","NA","836","2","legacy","1024","2","48000","-16","experiment","HHSHH","3","odd","163646","15586","166341","NA","100040","3815","NA","NA","166437","3820","164680","NA","167378","166434","166541","166541","Flanker Task HW","75","45071","81","yes","1024"
"92.6829268292683","92.6829268292683","554.4512195121952","554.4512195121952","black","legacy","legacy","legacy","0","congruent","uniform","1","undefined","s","1","81","0","0","0","81","0","81","NA","81","0","0","0","81","81","81","81","Sun Sep 19 23:03:20 2021","600","The main experiment item","yes","FlankerTaskHW.osexp","C:/Users/19565/Desktop","no","mono","no","18","no","white","no","yes","768","legacy","1","79","C:/Users/19565/Desktop/MR-subject-3.csv","legacy","Lentiform Loewenfeld","3.3.9","0","s","NA","s","h","NA","s","394","NA","11765","1660","NA","394","2","legacy","1024","2","48000","-16","experiment","SSSSS","3","odd","167892","15586","166341","NA","100040","3815","167388","NA","169021","3820","164680","NA","169520","169018","169124","169124","Flanker Task HW","76","45465","82","yes","1024"
"92.7710843373494","92.7710843373494","553.0240963855422","553.0240963855422","black","legacy","legacy","legacy","0","congruent","uniform","1","undefined","s","1","82","0","0","0","82","0","82","NA","82","0","0","0","82","82","82","82","Sun Sep 19 23:03:20 2021","600","The main experiment item","yes","FlankerTaskHW.osexp","C:/Users/19565/Desktop","no","mono","no","18","no","white","no","yes","768","legacy","2","79","C:/Users/19565/Desktop/MR-subject-3.csv","legacy","Lentiform Loewenfeld","3.3.9","0","s","NA","s","h","NA","s","436","NA","11765","1660","NA","436","2","legacy","1024","2","48000","-16","experiment","SSSSS","3","odd","169528","15586","166341","NA","100040","3815","167388","NA","170706","3820","164680","NA","171250","170704","170811","170811","Flanker Task HW","77","45901","83","yes","1024"
"92.85714285714286","92.85714285714286","551.5","551.5","black","legacy","legacy","legacy","0","congruent","uniform","1","undefined","s","1","83","0","0","0","83","0","83","NA","83","0","0","0","83","83","83","83","Sun Sep 19 23:03:20 2021","600","The main experiment item","yes","FlankerTaskHW.osexp","C:/Users/19565/Desktop","no","mono","no","18","no","white","no","yes","768","legacy","3","79","C:/Users/19565/Desktop/MR-subject-3.csv","legacy","Lentiform Loewenfeld","3.3.9","0","s","NA","s","h","NA","s","425","NA","11765","1660","NA","425","2","legacy","1024","2","48000","-16","experiment","SSSSS","3","odd","171261","15586","166341","NA","100040","3815","167388","NA","172398","3820","164680","NA","172930","172395","172503","172503","Flanker Task HW","78","46326","84","yes","1024"
"91.76470588235294","91.76470588235294","549","549","black","legacy","legacy","legacy","0","incongruent","uniform","0","undefined","h","0","84","0","0","0","84","0","84","NA","84","0","0","0","84","84","84","84","Sun Sep 19 23:03:20 2021","600","The main experiment item","yes","FlankerTaskHW.osexp","C:/Users/19565/Desktop","no","mono","no","18","no","white","no","yes","768","legacy","4","79","C:/Users/19565/Desktop/MR-subject-3.csv","legacy","Lentiform Loewenfeld","3.3.9","0","s","NA","s","h","NA","s","339","NA","11765","1660","NA","339","2","legacy","1024","2","48000","-16","experiment","SSHSS","3","odd","172941","15586","166341","NA","100040","3815","167388","NA","174104","3820","164680","NA","174553","174101","174209","174208","Flanker Task HW","78","46665","85","yes","1024"
"91.86046511627907","91.86046511627907","547.5581395348837","547.5581395348837","black","legacy","legacy","legacy","0","incongruent","uniform","1","undefined","h","1","85","0","0","0","85","0","85","NA","85","0","0","0","85","85","85","85","Sun Sep 19 23:03:20 2021","600","The main experiment item","yes","FlankerTaskHW.osexp","C:/Users/19565/Desktop","no","mono","no","18","no","white","no","yes","768","legacy","5","79","C:/Users/19565/Desktop/MR-subject-3.csv","legacy","Lentiform Loewenfeld","3.3.9","0","h","NA","s","h","NA","h","425","NA","11765","1660","NA","425","2","legacy","1024","2","48000","-16","experiment","SSHSS","3","odd","175069","15586","166341","NA","174565","3815","167388","NA","176206","3820","164680","NA","176738","176203","176311","176311","Flanker Task HW","79","47090","86","yes","1024"
"91.95402298850574","91.95402298850574","545.5632183908046","545.5632183908046","black","legacy","legacy","legacy","0","congruent","uniform","1","undefined","h","1","86","0","0","0","86","0","86","NA","86","0","0","0","86","86","86","86","Sun Sep 19 23:03:20 2021","600","The main experiment item","yes","FlankerTaskHW.osexp","C:/Users/19565/Desktop","no","mono","no","18","no","white","no","yes","768","legacy","6","79","C:/Users/19565/Desktop/MR-subject-3.csv","legacy","Lentiform Loewenfeld","3.3.9","0","h","NA","s","h","NA","h","374","NA","11765","1660","NA","374","2","legacy","1024","2","48000","-16","experiment","HHHHH","3","odd","176748","15586","166341","NA","174565","3815","167388","NA","177921","3820","164680","NA","178403","177918","178025","178025","Flanker Task HW","80","47464","87","yes","1024"
"90.9090909090909","90.9090909090909","543.7840909090909","543.7840909090909","black","legacy","legacy","legacy","0","incongruent","uniform","0","undefined","s","0","87","0","0","0","87","0","87","NA","87","0","0","0","87","87","87","87","Sun Sep 19 23:03:20 2021","600","The main experiment item","yes","FlankerTaskHW.osexp","C:/Users/19565/Desktop","no","mono","no","18","no","white","no","yes","768","legacy","7","79","C:/Users/19565/Desktop/MR-subject-3.csv","legacy","Lentiform Loewenfeld","3.3.9","0","h","NA","s","h","NA","h","389","NA","11765","1660","NA","389","2","legacy","1024","2","48000","-16","experiment","HHSHH","3","odd","178413","15586","166341","NA","174565","3815","167388","NA","179529","3820","164680","NA","180024","179526","179633","179633","Flanker Task HW","80","47853","88","yes","1024"
"91.01123595505618","91.01123595505618","543.1685393258427","543.1685393258427","black","legacy","legacy","legacy","0","incongruent","uniform","1","undefined","h","1","88","0","0","0","88","0","88","NA","88","0","0","0","88","88","88","88","Sun Sep 19 23:03:20 2021","600","The main experiment item","yes","FlankerTaskHW.osexp","C:/Users/19565/Desktop","no","mono","no","18","no","white","no","yes","768","legacy","8","79","C:/Users/19565/Desktop/MR-subject-3.csv","legacy","Lentiform Loewenfeld","3.3.9","0","h","NA","s","h","NA","h","489","NA","11765","1660","NA","489","2","legacy","1024","2","48000","-16","experiment","SSHSS","3","odd","180540","15586","166341","NA","180036","3815","167388","NA","181680","3820","164680","NA","182278","181677","181786","181786","Flanker Task HW","81","48342","89","yes","1024"
"91.11111111111111","91.11111111111111","542.2333333333333","542.2333333333333","black","legacy","legacy","legacy","0","incongruent","uniform","1","undefined","h","1","89","0","0","0","89","0","89","NA","89","0","0","0","89","89","89","89","Sun Sep 19 23:03:20 2021","600","The main experiment item","yes","FlankerTaskHW.osexp","C:/Users/19565/Desktop","no","mono","no","18","no","white","no","yes","768","legacy","9","79","C:/Users/19565/Desktop/MR-subject-3.csv","legacy","Lentiform Loewenfeld","3.3.9","0","h","NA","s","h","NA","h","459","NA","11765","1660","NA","459","2","legacy","1024","2","48000","-16","experiment","SSHSS","3","odd","182288","15586","166341","NA","180036","3815","167388","NA","183502","3820","164680","NA","184068","183499","183606","183606","Flanker Task HW","82","48801","90","yes","1024"
"91.20879120879121","91.20879120879121","542.054945054945","542.054945054945","black","legacy","legacy","legacy","0","congruent","uniform","1","undefined","s","1","90","0","0","0","90","0","90","NA","90","0","0","0","90","90","90","90","Sun Sep 19 23:03:20 2021","600","The main experiment item","yes","FlankerTaskHW.osexp","C:/Users/19565/Desktop","no","mono","no","18","no","white","no","yes","768","legacy","10","79","C:/Users/19565/Desktop/MR-subject-3.csv","legacy","Lentiform Loewenfeld","3.3.9","0","s","NA","s","h","NA","s","526","NA","11765","1660","NA","526","2","legacy","1024","2","48000","-16","experiment","SSSSS","3","odd","184078","15586","166341","NA","180036","3815","167388","NA","185207","3820","164680","NA","185840","185204","185312","185312","Flanker Task HW","83","49327","91","yes","1024"
"91.30434782608695","91.30434782608695","541.3695652173913","541.3695652173913","black","legacy","legacy","legacy","0","congruent","uniform","1","undefined","s","1","91","0","0","0","91","0","91","NA","91","0","0","0","91","91","91","91","Sun Sep 19 23:03:20 2021","600","The main experiment item","yes","FlankerTaskHW.osexp","C:/Users/19565/Desktop","no","mono","no","18","no","white","no","yes","768","legacy","11","79","C:/Users/19565/Desktop/MR-subject-3.csv","legacy","Lentiform Loewenfeld","3.3.9","0","s","NA","s","h","NA","s","479","NA","11765","1660","NA","479","2","legacy","1024","2","48000","-16","experiment","SSSSS","3","odd","185851","15586","166341","NA","180036","3815","167388","NA","187066","3820","164680","NA","187653","187063","187171","187171","Flanker Task HW","84","49806","92","yes","1024"
"91.39784946236558","91.39784946236558","542.8387096774194","542.8387096774194","black","legacy","legacy","legacy","0","incongruent","uniform","1","undefined","s","1","92","0","0","0","92","0","92","NA","92","0","0","0","92","92","92","92","Sun Sep 19 23:03:20 2021","600","The main experiment item","yes","FlankerTaskHW.osexp","C:/Users/19565/Desktop","no","mono","no","18","no","white","no","yes","768","legacy","12","79","C:/Users/19565/Desktop/MR-subject-3.csv","legacy","Lentiform Loewenfeld","3.3.9","0","s","NA","s","h","NA","s","678","NA","11765","1660","NA","678","2","legacy","1024","2","48000","-16","experiment","HHSHH","3","odd","187659","15586","166341","NA","180036","3815","167388","NA","188843","3820","164680","NA","189629","188840","188947","188947","Flanker Task HW","85","50484","93","yes","1024"
"91.48936170212765","91.48936170212765","542.5106382978723","542.5106382978723","black","legacy","legacy","legacy","0","incongruent","uniform","1","undefined","h","1","93","0","0","0","93","0","93","NA","93","0","0","0","93","93","93","93","Sun Sep 19 23:03:20 2021","600","The main experiment item","yes","FlankerTaskHW.osexp","C:/Users/19565/Desktop","no","mono","no","18","no","white","no","yes","768","legacy","13","79","C:/Users/19565/Desktop/MR-subject-3.csv","legacy","Lentiform Loewenfeld","3.3.9","0","h","NA","s","h","NA","h","512","NA","11765","1660","NA","512","2","legacy","1024","2","48000","-16","experiment","SSHSS","3","odd","190142","15586","166341","NA","180036","3815","189638","NA","191286","3820","164680","NA","191904","191283","191390","191390","Flanker Task HW","86","50996","94","yes","1024"
"91.57894736842105","91.57894736842105","541.6","541.6","black","legacy","legacy","legacy","0","congruent","uniform","1","undefined","h","1","94","0","0","0","94","0","94","NA","94","0","0","0","94","94","94","94","Sun Sep 19 23:03:20 2021","600","The main experiment item","yes","FlankerTaskHW.osexp","C:/Users/19565/Desktop","no","mono","no","18","no","white","no","yes","768","legacy","14","79","C:/Users/19565/Desktop/MR-subject-3.csv","legacy","Lentiform Loewenfeld","3.3.9","0","h","NA","s","h","NA","h","456","NA","11765","1660","NA","456","2","legacy","1024","2","48000","-16","experiment","HHHHH","3","odd","191912","15586","166341","NA","180036","3815","189638","NA","193067","3820","164680","NA","193630","193063","193171","193171","Flanker Task HW","87","51452","95","yes","1024"
"91.66666666666667","91.66666666666667","540.8854166666666","540.8854166666666","black","legacy","legacy","legacy","0","incongruent","uniform","1","undefined","h","1","95","0","0","0","95","0","95","NA","95","0","0","0","95","95","95","95","Sun Sep 19 23:03:20 2021","600","The main experiment item","yes","FlankerTaskHW.osexp","C:/Users/19565/Desktop","no","mono","no","18","no","white","no","yes","768","legacy","15","79","C:/Users/19565/Desktop/MR-subject-3.csv","legacy","Lentiform Loewenfeld","3.3.9","0","h","NA","s","h","NA","h","473","NA","11765","1660","NA","473","2","legacy","1024","2","48000","-16","experiment","SSHSS","3","odd","193639","15586","166341","NA","180036","3815","189638","NA","194788","3820","164680","NA","195369","194786","194893","194893","Flanker Task HW","88","51925","96","yes","1024"
"90.72164948453609","90.72164948453609","540.6494845360825","540.6494845360825","black","legacy","legacy","legacy","0","incongruent","uniform","0","undefined","s","0","96","0","0","0","96","0","96","NA","96","0","0","0","96","96","96","96","Sun Sep 19 23:03:20 2021","600","The main experiment item","yes","FlankerTaskHW.osexp","C:/Users/19565/Desktop","no","mono","no","18","no","white","no","yes","768","legacy","16","79","C:/Users/19565/Desktop/MR-subject-3.csv","legacy","Lentiform Loewenfeld","3.3.9","0","h","NA","s","h","NA","h","518","NA","11765","1660","NA","518","2","legacy","1024","2","48000","-16","experiment","HHSHH","3","odd","195378","15586","166341","NA","180036","3815","189638","NA","196552","3820","164680","NA","197177","196549","196656","196656","Flanker Task HW","88","52443","97","yes","1024"
"90.81632653061224","90.81632653061224","541.6734693877551","541.6734693877551","black","legacy","legacy","legacy","0","incongruent","uniform","1","undefined","h","1","97","0","0","0","97","0","97","NA","97","0","0","0","97","97","97","97","Sun Sep 19 23:03:20 2021","600","The main experiment item","yes","FlankerTaskHW.osexp","C:/Users/19565/Desktop","no","mono","no","18","no","white","no","yes","768","legacy","17","79","C:/Users/19565/Desktop/MR-subject-3.csv","legacy","Lentiform Loewenfeld","3.3.9","0","h","NA","s","h","NA","h","641","NA","11765","1660","NA","641","2","legacy","1024","2","48000","-16","experiment","SSHSS","3","odd","197688","15586","166341","NA","197184","3815","189638","NA","198811","3820","164680","NA","199559","198808","198915","198915","Flanker Task HW","89","53084","98","yes","1024"
"90.9090909090909","90.9090909090909","542.0505050505051","542.0505050505051","black","legacy","legacy","legacy","0","incongruent","uniform","1","undefined","h","1","98","0","0","0","98","0","98","NA","98","0","0","0","98","98","98","98","Sun Sep 19 23:03:20 2021","600","The main experiment item","yes","FlankerTaskHW.osexp","C:/Users/19565/Desktop","no","mono","no","18","no","white","no","yes","768","legacy","18","79","C:/Users/19565/Desktop/MR-subject-3.csv","legacy","Lentiform Loewenfeld","3.3.9","0","h","NA","s","h","NA","h","579","NA","11765","1660","NA","579","2","legacy","1024","2","48000","-16","experiment","SSHSS","3","odd","200071","15586","166341","NA","197184","3815","199567","NA","201184","3820","164680","NA","201868","201182","201288","201288","Flanker Task HW","90","53663","99","yes","1024"
"91","91","541.51","541.51","black","legacy","legacy","legacy","0","congruent","uniform","1","undefined","h","1","99","0","0","0","99","0","99","NA","99","0","0","0","99","99","99","99","Sun Sep 19 23:03:20 2021","600","The main experiment item","yes","FlankerTaskHW.osexp","C:/Users/19565/Desktop","no","mono","no","18","no","white","no","yes","768","legacy","19","79","C:/Users/19565/Desktop/MR-subject-3.csv","legacy","Lentiform Loewenfeld","3.3.9","0","h","NA","s","h","NA","h","488","NA","11765","1660","NA","488","2","legacy","1024","2","48000","-16","experiment","HHHHH","3","odd","201876","15586","166341","NA","197184","3815","199567","NA","202994","3820","164680","NA","203590","202992","203099","203099","Flanker Task HW","91","54151","100","yes","1024"
"91.08910891089108","91.08910891089108","541.0297029702971","541.0297029702971","black","legacy","legacy","legacy","0","incongruent","uniform","1","undefined","s","1","100","0","0","0","100","0","100","NA","100","0","0","0","100","100","100","100","Sun Sep 19 23:03:20 2021","600","The main experiment item","yes","FlankerTaskHW.osexp","C:/Users/19565/Desktop","no","mono","no","18","no","white","no","yes","768","legacy","20","79","C:/Users/19565/Desktop/MR-subject-3.csv","legacy","Lentiform Loewenfeld","3.3.9","0","s","NA","s","h","NA","s","493","NA","11765","1660","NA","493","2","legacy","1024","2","48000","-16","experiment","HHSHH","3","odd","203600","15586","166341","NA","197184","3815","199567","NA","204750","3820","164680","NA","205352","204748","204855","204855","Flanker Task HW","92","54644","101","yes","1024"
"91.17647058823529","91.17647058823529","540.4411764705883","540.4411764705883","black","legacy","legacy","legacy","0","congruent","uniform","1","undefined","h","1","101","0","0","0","101","0","101","NA","101","0","0","0","101","101","101","101","Sun Sep 19 23:03:20 2021","600","The main experiment item","yes","FlankerTaskHW.osexp","C:/Users/19565/Desktop","no","mono","no","18","no","white","no","yes","768","legacy","21","79","C:/Users/19565/Desktop/MR-subject-3.csv","legacy","Lentiform Loewenfeld","3.3.9","0","h","NA","s","h","NA","h","481","NA","11765","1660","NA","481","2","legacy","1024","2","48000","-16","experiment","HHHHH","3","odd","205362","15586","166341","NA","197184","3815","199567","NA","206490","3820","164680","NA","207079","206487","206594","206594","Flanker Task HW","93","55125","102","yes","1024"
"91.2621359223301","91.2621359223301","539.6019417475728","539.6019417475728","black","legacy","legacy","legacy","0","congruent","uniform","1","undefined","s","1","102","0","0","0","102","0","102","NA","102","0","0","0","102","102","102","102","Sun Sep 19 23:03:20 2021","600","The main experiment item","yes","FlankerTaskHW.osexp","C:/Users/19565/Desktop","no","mono","no","18","no","white","no","yes","768","legacy","22","79","C:/Users/19565/Desktop/MR-subject-3.csv","legacy","Lentiform Loewenfeld","3.3.9","0","s","NA","s","h","NA","s","454","NA","11765","1660","NA","454","2","legacy","1024","2","48000","-16","experiment","SSSSS","3","odd","207088","15586","166341","NA","197184","3815","199567","NA","208267","3820","164680","NA","208828","208265","208371","208371","Flanker Task HW","94","55579","103","yes","1024"
"91.34615384615384","91.34615384615384","539.2980769230769","539.2980769230769","black","legacy","legacy","legacy","0","incongruent","uniform","1","undefined","s","1","103","0","0","0","103","0","103","NA","103","0","0","0","103","103","103","103","Sun Sep 19 23:03:20 2021","600","The main experiment item","yes","FlankerTaskHW.osexp","C:/Users/19565/Desktop","no","mono","no","18","no","white","no","yes","768","legacy","23","79","C:/Users/19565/Desktop/MR-subject-3.csv","legacy","Lentiform Loewenfeld","3.3.9","0","s","NA","s","h","NA","s","508","NA","11765","1660","NA","508","2","legacy","1024","2","48000","-16","experiment","HHSHH","3","odd","208837","15586","166341","NA","197184","3815","199567","NA","210020","3820","164680","NA","210635","210018","210125","210125","Flanker Task HW","95","56087","104","yes","1024"
"91.42857142857143","91.42857142857143","538.7619047619048","538.7619047619048","black","legacy","legacy","legacy","0","congruent","uniform","1","undefined","s","1","104","0","0","0","104","0","104","NA","104","0","0","0","104","104","104","104","Sun Sep 19 23:03:20 2021","600","The main experiment item","yes","FlankerTaskHW.osexp","C:/Users/19565/Desktop","no","mono","no","18","no","white","no","yes","768","legacy","24","79","C:/Users/19565/Desktop/MR-subject-3.csv","legacy","Lentiform Loewenfeld","3.3.9","0","s","NA","s","h","NA","s","483","NA","11765","1660","NA","483","2","legacy","1024","2","48000","-16","experiment","SSSSS","3","odd","210642","15586","166341","NA","197184","3815","199567","NA","211808","3820","164680","NA","212398","211805","211912","211911","Flanker Task HW","96","56570","105","yes","1024"
"91.50943396226415","91.50943396226415","538.7547169811321","538.7547169811321","black","legacy","legacy","legacy","0","congruent","uniform","1","undefined","h","1","105","0","0","0","105","0","105","NA","105","0","0","0","105","105","105","105","Sun Sep 19 23:03:20 2021","600","The main experiment item","yes","FlankerTaskHW.osexp","C:/Users/19565/Desktop","no","mono","no","18","no","white","no","yes","768","legacy","25","79","C:/Users/19565/Desktop/MR-subject-3.csv","legacy","Lentiform Loewenfeld","3.3.9","0","h","NA","s","h","NA","h","538","NA","11765","1660","NA","538","2","legacy","1024","2","48000","-16","experiment","HHHHH","3","odd","212407","15586","166341","NA","197184","3815","199567","NA","213535","3820","164680","NA","214182","213532","213641","213640","Flanker Task HW","97","57108","106","yes","1024"
"91.58878504672897","91.58878504672897","538.373831775701","538.373831775701","black","legacy","legacy","legacy","0","congruent","uniform","1","undefined","s","1","106","0","0","0","106","0","106","NA","106","0","0","0","106","106","106","106","Sun Sep 19 23:03:20 2021","600","The main experiment item","yes","FlankerTaskHW.osexp","C:/Users/19565/Desktop","no","mono","no","18","no","white","no","yes","768","legacy","26","79","C:/Users/19565/Desktop/MR-subject-3.csv","legacy","Lentiform Loewenfeld","3.3.9","0","s","NA","s","h","NA","s","498","NA","11765","1660","NA","498","2","legacy","1024","2","48000","-16","experiment","SSSSS","3","odd","214191","15586","166341","NA","197184","3815","199567","NA","215353","3820","164680","NA","215958","215351","215457","215457","Flanker Task HW","98","57606","107","yes","1024"
"91.66666666666667","91.66666666666667","538.0185185185185","538.0185185185185","black","legacy","legacy","legacy","0","congruent","uniform","1","undefined","h","1","107","0","0","0","107","0","107","NA","107","0","0","0","107","107","107","107","Sun Sep 19 23:03:20 2021","600","The main experiment item","yes","FlankerTaskHW.osexp","C:/Users/19565/Desktop","no","mono","no","18","no","white","no","yes","768","legacy","27","79","C:/Users/19565/Desktop/MR-subject-3.csv","legacy","Lentiform Loewenfeld","3.3.9","0","h","NA","s","h","NA","h","500","NA","11765","1660","NA","500","2","legacy","1024","2","48000","-16","experiment","HHHHH","3","odd","215967","15586","166341","NA","197184","3815","199567","NA","217103","3820","164680","NA","217709","217100","217208","217207","Flanker Task HW","99","58106","108","yes","1024"
"91.74311926605505","91.74311926605505","537.2110091743119","537.2110091743119","black","legacy","legacy","legacy","0","incongruent","uniform","1","undefined","h","1","108","0","0","0","108","0","108","NA","108","0","0","0","108","108","108","108","Sun Sep 19 23:03:20 2021","600","The main experiment item","yes","FlankerTaskHW.osexp","C:/Users/19565/Desktop","no","mono","no","18","no","white","no","yes","768","legacy","28","79","C:/Users/19565/Desktop/MR-subject-3.csv","legacy","Lentiform Loewenfeld","3.3.9","0","h","NA","s","h","NA","h","450","NA","11765","1660","NA","450","2","legacy","1024","2","48000","-16","experiment","SSHSS","3","odd","217716","15586","166341","NA","197184","3815","199567","NA","218894","3820","164680","NA","219450","218891","218998","218998","Flanker Task HW","100","58556","109","yes","1024"
"91.81818181818181","91.81818181818181","537.2454545454545","537.2454545454545","black","legacy","legacy","legacy","0","congruent","uniform","1","undefined","s","1","109","0","0","0","109","0","109","NA","109","0","0","0","109","109","109","109","Sun Sep 19 23:03:20 2021","600","The main experiment item","yes","FlankerTaskHW.osexp","C:/Users/19565/Desktop","no","mono","no","18","no","white","no","yes","768","legacy","29","79","C:/Users/19565/Desktop/MR-subject-3.csv","legacy","Lentiform Loewenfeld","3.3.9","0","s","NA","s","h","NA","s","541","NA","11765","1660","NA","541","2","legacy","1024","2","48000","-16","experiment","SSSSS","3","odd","219460","15586","166341","NA","197184","3815","199567","NA","220620","3820","164680","NA","221270","220618","220725","220724","Flanker Task HW","101","59097","110","yes","1024"
"91.89189189189189","91.89189189189189","536.7657657657658","536.7657657657658","black","legacy","legacy","legacy","0","congruent","uniform","1","undefined","h","1","110","0","0","0","110","0","110","NA","110","0","0","0","110","110","110","110","Sun Sep 19 23:03:20 2021","600","The main experiment item","yes","FlankerTaskHW.osexp","C:/Users/19565/Desktop","no","mono","no","18","no","white","no","yes","768","legacy","30","79","C:/Users/19565/Desktop/MR-subject-3.csv","legacy","Lentiform Loewenfeld","3.3.9","0","h","NA","s","h","NA","h","484","NA","11765","1660","NA","484","2","legacy","1024","2","48000","-16","experiment","HHHHH","3","odd","221279","15586","166341","NA","197184","3815","199567","NA","222430","3820","164680","NA","223022","222428","222534","222534","Flanker Task HW","102","59581","111","yes","1024"
"91.96428571428571","91.96428571428571","538.5535714285714","538.5535714285714","black","legacy","legacy","legacy","0","incongruent","uniform","1","undefined","s","1","111","0","0","0","111","0","111","NA","111","0","0","0","111","111","111","111","Sun Sep 19 23:03:20 2021","600","The main experiment item","yes","FlankerTaskHW.osexp","C:/Users/19565/Desktop","no","mono","no","18","no","white","no","yes","768","legacy","31","79","C:/Users/19565/Desktop/MR-subject-3.csv","legacy","Lentiform Loewenfeld","3.3.9","0","s","NA","s","h","NA","s","737","NA","11765","1660","NA","737","2","legacy","1024","2","48000","-16","experiment","HHSHH","3","odd","223034","15586","166341","NA","197184","3815","199567","NA","224198","3820","164680","NA","225043","224195","224303","224303","Flanker Task HW","103","60318","112","yes","1024"
"92.03539823008849","92.03539823008849","538.0796460176991","538.0796460176991","black","legacy","legacy","legacy","0","congruent","uniform","1","undefined","s","1","112","0","0","0","112","0","112","NA","112","0","0","0","112","112","112","112","Sun Sep 19 23:03:20 2021","600","The main experiment item","yes","FlankerTaskHW.osexp","C:/Users/19565/Desktop","no","mono","no","18","no","white","no","yes","768","legacy","32","79","C:/Users/19565/Desktop/MR-subject-3.csv","legacy","Lentiform Loewenfeld","3.3.9","0","s","NA","s","h","NA","s","485","NA","11765","1660","NA","485","2","legacy","1024","2","48000","-16","experiment","SSSSS","3","odd","225556","15586","166341","NA","197184","3815","225052","NA","226685","3820","164680","NA","227277","226682","226790","226790","Flanker Task HW","104","60803","113","yes","1024"
"92.10526315789474","92.10526315789474","537.280701754386","537.280701754386","black","legacy","legacy","legacy","0","congruent","uniform","1","undefined","h","1","113","0","0","0","113","0","113","NA","113","0","0","0","113","113","113","113","Sun Sep 19 23:03:20 2021","600","The main experiment item","yes","FlankerTaskHW.osexp","C:/Users/19565/Desktop","no","mono","no","18","no","white","no","yes","768","legacy","33","79","C:/Users/19565/Desktop/MR-subject-3.csv","legacy","Lentiform Loewenfeld","3.3.9","0","h","NA","s","h","NA","h","447","NA","11765","1660","NA","447","2","legacy","1024","2","48000","-16","experiment","HHHHH","3","odd","227284","15586","166341","NA","197184","3815","225052","NA","228450","3820","164680","NA","229004","228448","228555","228555","Flanker Task HW","105","61250","114","yes","1024"
"92.17391304347827","92.17391304347827","537.9478260869565","537.9478260869565","black","legacy","legacy","legacy","0","incongruent","uniform","1","undefined","s","1","114","0","0","0","114","0","114","NA","114","0","0","0","114","114","114","114","Sun Sep 19 23:03:20 2021","600","The main experiment item","yes","FlankerTaskHW.osexp","C:/Users/19565/Desktop","no","mono","no","18","no","white","no","yes","768","legacy","34","79","C:/Users/19565/Desktop/MR-subject-3.csv","legacy","Lentiform Loewenfeld","3.3.9","0","s","NA","s","h","NA","s","614","NA","11765","1660","NA","614","2","legacy","1024","2","48000","-16","experiment","HHSHH","3","odd","229011","15586","166341","NA","197184","3815","225052","NA","230158","3820","164680","NA","230881","230155","230263","230262","Flanker Task HW","106","61864","115","yes","1024"
"92.24137931034483","92.24137931034483","537.4051724137931","537.4051724137931","black","legacy","legacy","legacy","0","congruent","uniform","1","undefined","h","1","115","0","0","0","115","0","115","NA","115","0","0","0","115","115","115","115","Sun Sep 19 23:03:20 2021","600","The main experiment item","yes","FlankerTaskHW.osexp","C:/Users/19565/Desktop","no","mono","no","18","no","white","no","yes","768","legacy","35","79","C:/Users/19565/Desktop/MR-subject-3.csv","legacy","Lentiform Loewenfeld","3.3.9","0","h","NA","s","h","NA","h","475","NA","11765","1660","NA","475","2","legacy","1024","2","48000","-16","experiment","HHHHH","3","odd","231394","15586","166341","NA","197184","3815","230890","NA","232561","3820","164680","NA","233145","232559","232667","232667","Flanker Task HW","107","62339","116","yes","1024"
"92.3076923076923","92.3076923076923","536.8974358974359","536.8974358974359","black","legacy","legacy","legacy","0","incongruent","uniform","1","undefined","s","1","116","0","0","0","116","0","116","NA","116","0","0","0","116","116","116","116","Sun Sep 19 23:03:20 2021","600","The main experiment item","yes","FlankerTaskHW.osexp","C:/Users/19565/Desktop","no","mono","no","18","no","white","no","yes","768","legacy","36","79","C:/Users/19565/Desktop/MR-subject-3.csv","legacy","Lentiform Loewenfeld","3.3.9","0","s","NA","s","h","NA","s","478","NA","11765","1660","NA","478","2","legacy","1024","2","48000","-16","experiment","HHSHH","3","odd","233155","15586","166341","NA","197184","3815","230890","NA","234290","3820","164680","NA","234875","234288","234395","234394","Flanker Task HW","108","62817","117","yes","1024"
"92.37288135593221","92.37288135593221","536.728813559322","536.728813559322","black","legacy","legacy","legacy","0","incongruent","uniform","1","undefined","s","1","117","0","0","0","117","0","117","NA","117","0","0","0","117","117","117","117","Sun Sep 19 23:03:20 2021","600","The main experiment item","yes","FlankerTaskHW.osexp","C:/Users/19565/Desktop","no","mono","no","18","no","white","no","yes","768","legacy","37","79","C:/Users/19565/Desktop/MR-subject-3.csv","legacy","Lentiform Loewenfeld","3.3.9","0","s","NA","s","h","NA","s","517","NA","11765","1660","NA","517","2","legacy","1024","2","48000","-16","experiment","HHSHH","3","odd","234884","15586","166341","NA","197184","3815","230890","NA","236068","3820","164680","NA","236691","236064","236172","236172","Flanker Task HW","109","63334","118","yes","1024"
"92.43697478991596","92.43697478991596","536.1512605042017","536.1512605042017","black","legacy","legacy","legacy","0","incongruent","uniform","1","undefined","s","1","118","0","0","0","118","0","118","NA","118","0","0","0","118","118","118","118","Sun Sep 19 23:03:20 2021","600","The main experiment item","yes","FlankerTaskHW.osexp","C:/Users/19565/Desktop","no","mono","no","18","no","white","no","yes","768","legacy","38","79","C:/Users/19565/Desktop/MR-subject-3.csv","legacy","Lentiform Loewenfeld","3.3.9","0","s","NA","s","h","NA","s","468","NA","11765","1660","NA","468","2","legacy","1024","2","48000","-16","experiment","HHSHH","3","odd","236700","15586","166341","NA","197184","3815","230890","NA","237889","3820","164680","NA","238461","237886","237992","237992","Flanker Task HW","110","63802","119","yes","1024"
"92.5","92.5","535.1916666666667","535.1916666666667","black","legacy","legacy","legacy","0","incongruent","uniform","1","undefined","s","1","119","0","0","0","119","0","119","NA","119","0","0","0","119","119","119","119","Sun Sep 19 23:03:20 2021","600","The main experiment item","yes","FlankerTaskHW.osexp","C:/Users/19565/Desktop","no","mono","no","18","no","white","no","yes","768","legacy","39","79","C:/Users/19565/Desktop/MR-subject-3.csv","legacy","Lentiform Loewenfeld","3.3.9","0","s","NA","s","h","NA","s","421","NA","11765","1660","NA","421","2","legacy","1024","2","48000","-16","experiment","HHSHH","3","odd","238468","15586","166341","NA","197184","3815","230890","NA","239605","3820","164680","NA","240134","239602","239709","239708","Flanker Task HW","111","64223","120","yes","1024"
"92.56198347107438","92.56198347107438","535.5702479338843","535.5702479338843","black","legacy","legacy","legacy","0","congruent","uniform","1","undefined","h","1","120","0","0","0","120","0","120","NA","120","0","0","0","120","120","120","120","Sun Sep 19 23:03:20 2021","600","The main experiment item","yes","FlankerTaskHW.osexp","C:/Users/19565/Desktop","no","mono","no","18","no","white","no","yes","768","legacy","40","79","C:/Users/19565/Desktop/MR-subject-3.csv","legacy","Lentiform Loewenfeld","3.3.9","0","h","NA","s","h","NA","h","581","NA","11765","1660","NA","581","2","legacy","1024","2","48000","-16","experiment","HHHHH","3","odd","240143","15586","166341","NA","197184","3815","230890","NA","241336","3820","164680","NA","242026","241334","241441","241441","Flanker Task HW","112","64804","121","yes","1024"
"92.62295081967213","92.62295081967213","535.1639344262295","535.1639344262295","black","legacy","legacy","legacy","0","congruent","uniform","1","undefined","s","1","121","0","0","0","121","0","121","NA","121","0","0","0","121","121","121","121","Sun Sep 19 23:03:20 2021","600","The main experiment item","yes","FlankerTaskHW.osexp","C:/Users/19565/Desktop","no","mono","no","18","no","white","no","yes","768","legacy","41","79","C:/Users/19565/Desktop/MR-subject-3.csv","legacy","Lentiform Loewenfeld","3.3.9","0","s","NA","s","h","NA","s","486","NA","11765","1660","NA","486","2","legacy","1024","2","48000","-16","experiment","SSSSS","3","odd","242036","15586","166341","NA","197184","3815","230890","NA","243154","3820","164680","NA","243749","243151","243259","243259","Flanker Task HW","113","65290","122","yes","1024"
"92.6829268292683","92.6829268292683","534.69918699187","534.69918699187","black","legacy","legacy","legacy","0","incongruent","uniform","1","undefined","h","1","122","0","0","0","122","0","122","NA","122","0","0","0","122","122","122","122","Sun Sep 19 23:03:20 2021","600","The main experiment item","yes","FlankerTaskHW.osexp","C:/Users/19565/Desktop","no","mono","no","18","no","white","no","yes","768","legacy","42","79","C:/Users/19565/Desktop/MR-subject-3.csv","legacy","Lentiform Loewenfeld","3.3.9","0","h","NA","s","h","NA","h","478","NA","11765","1660","NA","478","2","legacy","1024","2","48000","-16","experiment","SSHSS","3","odd","243758","15586","166341","NA","197184","3815","230890","NA","244909","3820","164680","NA","245494","244907","245013","245013","Flanker Task HW","114","65768","123","yes","1024"
