acc,accuracy,average_response_time,avg_rt,background,canvas_backend,clock_backend,color_backend,compensation,condition,coordinates,correct,correct_Instructions1,correct_keyboardresponse,correct_response,count_Block1,count_Block2,count_Finish,count_Fixation,count_ISI,count_Instructions1,count_Instructions2,count_Instructions3,count_Sequence,count_Stimulus,count_block3,count_errorFeedback,count_experiment,count_faster,count_getting_started,count_keyboardresponse,count_logger,count_welcome,datetime,deadline,description,disable_garbage_collection,experiment_file,experiment_path,font_bold,font_family,font_italic,font_size,font_underline,foreground,form_clicks,fullscreen,height,keyboard_backend,live_row,live_row_Block1,logfile,mouse_backend,opensesame_codename,opensesame_version,repeat_cycle,response,response_Finish,response_Instructions1,response_Instructions2,response_Instructions3,response_keyboardresponse,response_time,response_time_Finish,response_time_Instructions1,response_time_Instructions2,response_time_Instructions3,response_time_keyboardresponse,response_time_welcome,response_welcome,round_decimals,sampler_backend,sound_buf_size,sound_channels,sound_freq,sound_sample_size,start,stimulus,subject_nr,subject_parity,time_Block1,time_Block2,time_Finish,time_Fixation,time_ISI,time_Instructions1,time_Instructions2,time_Instructions3,time_Sequence,time_Stimulus,time_block3,time_errorFeedback,time_experiment,time_faster,time_getting_started,time_keyboardresponse,time_logger,time_welcome,title,total_correct,total_response_time,total_responses,uniform_coordinates,width
100,100,1042,1042,#000000,legacy,legacy,legacy,0,congruent,uniform,1,undefined,1,s,0,0,0,0,0,0,0,0,0,0,0,0,0,0,NA,0,0,NA,9/25/2021 19:37,1500,The main experiment item,yes,Lab21TestFlankerTask.osexp,C:\Users\mmcel\OneDrive\GRAD SCHOOL\fall 2021\Advanced Quant,no,mono,no,18,no,#ffffff,no,yes,768,legacy,0,0,C:/Users/mmcel/OneDrive/GRAD SCHOOL/fall 2021/Advanced Quant/MM-Subject-2.csv,legacy,Lentiform Loewenfeld,3.3.9,0,s,NA,s,NA,NA,s,1042,NA,26649,NA,NA,1042,NA,NA,2,legacy,1024,2,48000,-16,experiment,SSSSS,2,even,29194,NA,NA,29278,NA,2544,NA,NA,29276,29383,NA,NA,2541,NA,NA,29384,30426,NA,Lab 2.1 Test Flanker Task,1,1042,1,yes,1024
100,100,1003.5,1003.5,#000000,legacy,legacy,legacy,0,incongruent,uniform,1,undefined,1,s,0,0,0,1,1,0,0,0,1,1,0,1,0,1,NA,1,1,NA,9/25/2021 19:37,1500,The main experiment item,yes,Lab21TestFlankerTask.osexp,C:\Users\mmcel\OneDrive\GRAD SCHOOL\fall 2021\Advanced Quant,no,mono,no,18,no,#ffffff,no,yes,768,legacy,1,1,C:/Users/mmcel/OneDrive/GRAD SCHOOL/fall 2021/Advanced Quant/MM-Subject-2.csv,legacy,Lentiform Loewenfeld,3.3.9,0,s,NA,s,NA,NA,s,965,NA,26649,NA,NA,965,NA,NA,2,legacy,1024,2,48000,-16,experiment,HHSHH,2,even,29194,NA,NA,31604,30508,2544,NA,NA,31601,31706,NA,NA,2541,NA,NA,31706,32672,NA,Lab 2.1 Test Flanker Task,2,2007,2,yes,1024
66.66666667,66.66666667,1169,1169,#000000,legacy,legacy,legacy,0,incongruent,uniform,0,undefined,0,s,0,0,0,2,2,0,0,0,2,2,0,2,0,2,NA,2,2,NA,9/25/2021 19:37,1500,The main experiment item,yes,Lab21TestFlankerTask.osexp,C:\Users\mmcel\OneDrive\GRAD SCHOOL\fall 2021\Advanced Quant,no,mono,no,18,no,#ffffff,no,yes,768,legacy,2,2,C:/Users/mmcel/OneDrive/GRAD SCHOOL/fall 2021/Advanced Quant/MM-Subject-2.csv,legacy,Lentiform Loewenfeld,3.3.9,0,None,NA,s,NA,NA,None,1500,NA,26649,NA,NA,1500,NA,NA,2,legacy,1024,2,48000,-16,experiment,HHSHH,2,even,29194,NA,NA,33773,32693,2544,NA,NA,33771,33876,NA,NA,2541,NA,NA,33876,35376,NA,Lab 2.1 Test Flanker Task,2,3507,3,yes,1024
75,75,1146,1146,#000000,legacy,legacy,legacy,0,congruent,uniform,1,undefined,1,h,0,0,0,3,3,0,0,0,3,3,0,3,0,3,NA,3,3,NA,9/25/2021 19:37,1500,The main experiment item,yes,Lab21TestFlankerTask.osexp,C:\Users\mmcel\OneDrive\GRAD SCHOOL\fall 2021\Advanced Quant,no,mono,no,18,no,#ffffff,no,yes,768,legacy,3,3,C:/Users/mmcel/OneDrive/GRAD SCHOOL/fall 2021/Advanced Quant/MM-Subject-2.csv,legacy,Lentiform Loewenfeld,3.3.9,0,h,NA,s,NA,NA,h,1077,NA,26649,NA,NA,1077,NA,NA,2,legacy,1024,2,48000,-16,experiment,HHHHH,2,even,29194,NA,NA,37066,35977,2544,NA,NA,37064,37171,NA,35474,2541,NA,NA,37171,38249,NA,Lab 2.1 Test Flanker Task,3,4584,4,yes,1024
80,80,1064.4,1064.4,#000000,legacy,legacy,legacy,0,congruent,uniform,1,undefined,1,h,0,0,0,4,4,0,0,0,4,4,0,4,0,4,NA,4,4,NA,9/25/2021 19:37,1500,The main experiment item,yes,Lab21TestFlankerTask.osexp,C:\Users\mmcel\OneDrive\GRAD SCHOOL\fall 2021\Advanced Quant,no,mono,no,18,no,#ffffff,no,yes,768,legacy,4,4,C:/Users/mmcel/OneDrive/GRAD SCHOOL/fall 2021/Advanced Quant/MM-Subject-2.csv,legacy,Lentiform Loewenfeld,3.3.9,0,h,NA,s,NA,NA,h,738,NA,26649,NA,NA,738,NA,NA,2,legacy,1024,2,48000,-16,experiment,HHHHH,2,even,29194,NA,NA,39364,38271,2544,NA,NA,39361,39468,NA,35474,2541,NA,NA,39468,40207,NA,Lab 2.1 Test Flanker Task,4,5322,5,yes,1024
83.33333333,83.33333333,1041.5,1041.5,#000000,legacy,legacy,legacy,0,incongruent,uniform,1,undefined,1,s,0,0,0,5,5,0,0,0,5,5,0,5,0,5,NA,5,5,NA,9/25/2021 19:37,1500,The main experiment item,yes,Lab21TestFlankerTask.osexp,C:\Users\mmcel\OneDrive\GRAD SCHOOL\fall 2021\Advanced Quant,no,mono,no,18,no,#ffffff,no,yes,768,legacy,5,5,C:/Users/mmcel/OneDrive/GRAD SCHOOL/fall 2021/Advanced Quant/MM-Subject-2.csv,legacy,Lentiform Loewenfeld,3.3.9,0,s,NA,s,NA,NA,s,927,NA,26649,NA,NA,927,NA,NA,2,legacy,1024,2,48000,-16,experiment,HHSHH,2,even,29194,NA,NA,41320,40227,2544,NA,NA,41318,41424,NA,35474,2541,NA,NA,41424,42351,NA,Lab 2.1 Test Flanker Task,5,6249,6,yes,1024
85.71428571,85.71428571,1013.571429,1013.571429,#000000,legacy,legacy,legacy,0,incongruent,uniform,1,undefined,1,s,0,0,0,6,6,0,0,0,6,6,0,6,0,6,NA,6,6,NA,9/25/2021 19:37,1500,The main experiment item,yes,Lab21TestFlankerTask.osexp,C:\Users\mmcel\OneDrive\GRAD SCHOOL\fall 2021\Advanced Quant,no,mono,no,18,no,#ffffff,no,yes,768,legacy,6,6,C:/Users/mmcel/OneDrive/GRAD SCHOOL/fall 2021/Advanced Quant/MM-Subject-2.csv,legacy,Lentiform Loewenfeld,3.3.9,0,s,NA,s,NA,NA,s,846,NA,26649,NA,NA,846,NA,NA,2,legacy,1024,2,48000,-16,experiment,HHSHH,2,even,29194,NA,NA,43506,42408,2544,NA,NA,43503,43610,NA,35474,2541,NA,NA,43610,44456,NA,Lab 2.1 Test Flanker Task,6,7095,7,yes,1024
87.5,87.5,960.125,960.125,#000000,legacy,legacy,legacy,0,incongruent,uniform,1,undefined,1,s,0,0,0,7,7,0,0,0,7,7,0,7,0,7,NA,7,7,NA,9/25/2021 19:37,1500,The main experiment item,yes,Lab21TestFlankerTask.osexp,C:\Users\mmcel\OneDrive\GRAD SCHOOL\fall 2021\Advanced Quant,no,mono,no,18,no,#ffffff,no,yes,768,legacy,7,7,C:/Users/mmcel/OneDrive/GRAD SCHOOL/fall 2021/Advanced Quant/MM-Subject-2.csv,legacy,Lentiform Loewenfeld,3.3.9,0,s,NA,s,NA,NA,s,586,NA,26649,NA,NA,586,NA,NA,2,legacy,1024,2,48000,-16,experiment,HHSHH,2,even,29194,NA,NA,45604,44504,2544,NA,NA,45601,45709,NA,35474,2541,NA,NA,45709,46295,NA,Lab 2.1 Test Flanker Task,7,7681,8,yes,1024
88.88888889,88.88888889,922.4444444,922.4444444,#000000,legacy,legacy,legacy,0,congruent,uniform,1,undefined,1,s,0,0,0,8,8,0,0,0,8,8,0,8,0,8,NA,8,8,NA,9/25/2021 19:37,1500,The main experiment item,yes,Lab21TestFlankerTask.osexp,C:\Users\mmcel\OneDrive\GRAD SCHOOL\fall 2021\Advanced Quant,no,mono,no,18,no,#ffffff,no,yes,768,legacy,8,8,C:/Users/mmcel/OneDrive/GRAD SCHOOL/fall 2021/Advanced Quant/MM-Subject-2.csv,legacy,Lentiform Loewenfeld,3.3.9,0,s,NA,s,NA,NA,s,621,NA,26649,NA,NA,621,NA,NA,2,legacy,1024,2,48000,-16,experiment,SSSSS,2,even,29194,NA,NA,47444,46353,2544,NA,NA,47442,47548,NA,35474,2541,NA,NA,47548,48169,NA,Lab 2.1 Test Flanker Task,8,8302,9,yes,1024
90,90,922.5,922.5,#000000,legacy,legacy,legacy,0,incongruent,uniform,1,undefined,1,h,0,0,0,9,9,0,0,0,9,9,0,9,0,9,NA,9,9,NA,9/25/2021 19:37,1500,The main experiment item,yes,Lab21TestFlankerTask.osexp,C:\Users\mmcel\OneDrive\GRAD SCHOOL\fall 2021\Advanced Quant,no,mono,no,18,no,#ffffff,no,yes,768,legacy,9,9,C:/Users/mmcel/OneDrive/GRAD SCHOOL/fall 2021/Advanced Quant/MM-Subject-2.csv,legacy,Lentiform Loewenfeld,3.3.9,0,h,NA,s,NA,NA,h,923,NA,26649,NA,NA,923,NA,NA,2,legacy,1024,2,48000,-16,experiment,SSHSS,2,even,29194,NA,NA,49322,48220,2544,NA,NA,49319,49425,NA,35474,2541,NA,NA,49425,50349,NA,Lab 2.1 Test Flanker Task,9,9225,10,yes,1024
90.90909091,90.90909091,887.7272727,887.7272727,#000000,legacy,legacy,legacy,0,congruent,uniform,1,undefined,1,s,0,0,0,10,10,0,0,0,10,10,0,10,0,10,NA,10,10,NA,9/25/2021 19:37,1500,The main experiment item,yes,Lab21TestFlankerTask.osexp,C:\Users\mmcel\OneDrive\GRAD SCHOOL\fall 2021\Advanced Quant,no,mono,no,18,no,#ffffff,no,yes,768,legacy,10,10,C:/Users/mmcel/OneDrive/GRAD SCHOOL/fall 2021/Advanced Quant/MM-Subject-2.csv,legacy,Lentiform Loewenfeld,3.3.9,0,s,NA,s,NA,NA,s,540,NA,26649,NA,NA,540,NA,NA,2,legacy,1024,2,48000,-16,experiment,SSSSS,2,even,29194,NA,NA,51462,50372,2544,NA,NA,51460,51567,NA,35474,2541,NA,NA,51567,52108,NA,Lab 2.1 Test Flanker Task,10,9765,11,yes,1024
91.66666667,91.66666667,872.8333333,872.8333333,#000000,legacy,legacy,legacy,0,incongruent,uniform,1,undefined,1,s,0,0,0,11,11,0,0,0,11,11,0,11,0,11,NA,11,11,NA,9/25/2021 19:37,1500,The main experiment item,yes,Lab21TestFlankerTask.osexp,C:\Users\mmcel\OneDrive\GRAD SCHOOL\fall 2021\Advanced Quant,no,mono,no,18,no,#ffffff,no,yes,768,legacy,11,11,C:/Users/mmcel/OneDrive/GRAD SCHOOL/fall 2021/Advanced Quant/MM-Subject-2.csv,legacy,Lentiform Loewenfeld,3.3.9,0,s,NA,s,NA,NA,s,709,NA,26649,NA,NA,709,NA,NA,2,legacy,1024,2,48000,-16,experiment,HHSHH,2,even,29194,NA,NA,53254,52160,2544,NA,NA,53252,53358,NA,35474,2541,NA,NA,53358,54067,NA,Lab 2.1 Test Flanker Task,11,10474,12,yes,1024
92.30769231,92.30769231,858,858,#000000,legacy,legacy,legacy,0,congruent,uniform,1,undefined,1,s,0,0,0,12,12,0,0,0,12,12,0,12,0,12,NA,12,12,NA,9/25/2021 19:37,1500,The main experiment item,yes,Lab21TestFlankerTask.osexp,C:\Users\mmcel\OneDrive\GRAD SCHOOL\fall 2021\Advanced Quant,no,mono,no,18,no,#ffffff,no,yes,768,legacy,12,12,C:/Users/mmcel/OneDrive/GRAD SCHOOL/fall 2021/Advanced Quant/MM-Subject-2.csv,legacy,Lentiform Loewenfeld,3.3.9,0,s,NA,s,NA,NA,s,680,NA,26649,NA,NA,680,NA,NA,2,legacy,1024,2,48000,-16,experiment,SSSSS,2,even,29194,NA,NA,55186,54094,2544,NA,NA,55183,55290,NA,35474,2541,NA,NA,55290,55971,NA,Lab 2.1 Test Flanker Task,12,11154,13,yes,1024
92.85714286,92.85714286,846.8571429,846.8571429,#000000,legacy,legacy,legacy,0,incongruent,uniform,1,undefined,1,h,0,0,0,13,13,0,0,0,13,13,0,13,0,13,NA,13,13,NA,9/25/2021 19:37,1500,The main experiment item,yes,Lab21TestFlankerTask.osexp,C:\Users\mmcel\OneDrive\GRAD SCHOOL\fall 2021\Advanced Quant,no,mono,no,18,no,#ffffff,no,yes,768,legacy,13,13,C:/Users/mmcel/OneDrive/GRAD SCHOOL/fall 2021/Advanced Quant/MM-Subject-2.csv,legacy,Lentiform Loewenfeld,3.3.9,0,h,NA,s,NA,NA,h,702,NA,26649,NA,NA,702,NA,NA,2,legacy,1024,2,48000,-16,experiment,SSHSS,2,even,29194,NA,NA,57076,55994,2544,NA,NA,57074,57182,NA,35474,2541,NA,NA,57182,57884,NA,Lab 2.1 Test Flanker Task,13,11856,14,yes,1024
93.33333333,93.33333333,854,854,#000000,legacy,legacy,legacy,0,incongruent,uniform,1,undefined,1,s,0,0,0,14,14,0,0,0,14,14,0,14,0,14,NA,14,14,NA,9/25/2021 19:37,1500,The main experiment item,yes,Lab21TestFlankerTask.osexp,C:\Users\mmcel\OneDrive\GRAD SCHOOL\fall 2021\Advanced Quant,no,mono,no,18,no,#ffffff,no,yes,768,legacy,14,14,C:/Users/mmcel/OneDrive/GRAD SCHOOL/fall 2021/Advanced Quant/MM-Subject-2.csv,legacy,Lentiform Loewenfeld,3.3.9,0,s,NA,s,NA,NA,s,954,NA,26649,NA,NA,954,NA,NA,2,legacy,1024,2,48000,-16,experiment,HHSHH,2,even,29194,NA,NA,59043,57942,2544,NA,NA,59041,59148,NA,35474,2541,NA,NA,59148,60103,NA,Lab 2.1 Test Flanker Task,14,12810,15,yes,1024
93.75,93.75,833.375,833.375,#000000,legacy,legacy,legacy,0,congruent,uniform,1,undefined,1,h,0,0,0,15,15,0,0,0,15,15,0,15,0,15,NA,15,15,NA,9/25/2021 19:37,1500,The main experiment item,yes,Lab21TestFlankerTask.osexp,C:\Users\mmcel\OneDrive\GRAD SCHOOL\fall 2021\Advanced Quant,no,mono,no,18,no,#ffffff,no,yes,768,legacy,15,15,C:/Users/mmcel/OneDrive/GRAD SCHOOL/fall 2021/Advanced Quant/MM-Subject-2.csv,legacy,Lentiform Loewenfeld,3.3.9,0,h,NA,s,NA,NA,h,524,NA,26649,NA,NA,524,NA,NA,2,legacy,1024,2,48000,-16,experiment,HHHHH,2,even,29194,NA,NA,61230,60127,2544,NA,NA,61228,61335,NA,35474,2541,NA,NA,61335,61859,NA,Lab 2.1 Test Flanker Task,15,13334,16,yes,1024
94.11764706,94.11764706,832.1176471,832.1176471,#000000,legacy,legacy,legacy,0,incongruent,uniform,1,undefined,1,h,0,0,0,16,16,0,0,0,16,16,0,16,0,16,NA,16,16,NA,9/25/2021 19:37,1500,The main experiment item,yes,Lab21TestFlankerTask.osexp,C:\Users\mmcel\OneDrive\GRAD SCHOOL\fall 2021\Advanced Quant,no,mono,no,18,no,#ffffff,no,yes,768,legacy,16,16,C:/Users/mmcel/OneDrive/GRAD SCHOOL/fall 2021/Advanced Quant/MM-Subject-2.csv,legacy,Lentiform Loewenfeld,3.3.9,0,h,NA,s,NA,NA,h,812,NA,26649,NA,NA,812,NA,NA,2,legacy,1024,2,48000,-16,experiment,SSHSS,2,even,29194,NA,NA,62988,61905,2544,NA,NA,62985,63092,NA,35474,2541,NA,NA,63092,63905,NA,Lab 2.1 Test Flanker Task,16,14146,17,yes,1024
94.44444444,94.44444444,818.2777778,818.2777778,#000000,legacy,legacy,legacy,0,incongruent,uniform,1,undefined,1,h,0,0,0,17,17,0,0,0,17,17,0,17,0,17,NA,17,17,NA,9/25/2021 19:37,1500,The main experiment item,yes,Lab21TestFlankerTask.osexp,C:\Users\mmcel\OneDrive\GRAD SCHOOL\fall 2021\Advanced Quant,no,mono,no,18,no,#ffffff,no,yes,768,legacy,17,17,C:/Users/mmcel/OneDrive/GRAD SCHOOL/fall 2021/Advanced Quant/MM-Subject-2.csv,legacy,Lentiform Loewenfeld,3.3.9,0,h,NA,s,NA,NA,h,583,NA,26649,NA,NA,583,NA,NA,2,legacy,1024,2,48000,-16,experiment,SSHSS,2,even,29194,NA,NA,65033,63950,2544,NA,NA,65030,65138,NA,35474,2541,NA,NA,65138,65722,NA,Lab 2.1 Test Flanker Task,17,14729,18,yes,1024
94.73684211,94.73684211,813.1578947,813.1578947,#000000,legacy,legacy,legacy,0,incongruent,uniform,1,undefined,1,h,0,0,0,18,18,0,0,0,18,18,0,18,0,18,NA,18,18,NA,9/25/2021 19:37,1500,The main experiment item,yes,Lab21TestFlankerTask.osexp,C:\Users\mmcel\OneDrive\GRAD SCHOOL\fall 2021\Advanced Quant,no,mono,no,18,no,#ffffff,no,yes,768,legacy,18,18,C:/Users/mmcel/OneDrive/GRAD SCHOOL/fall 2021/Advanced Quant/MM-Subject-2.csv,legacy,Lentiform Loewenfeld,3.3.9,0,h,NA,s,NA,NA,h,721,NA,26649,NA,NA,721,NA,NA,2,legacy,1024,2,48000,-16,experiment,SSHSS,2,even,29194,NA,NA,66843,65739,2544,NA,NA,66841,66948,NA,35474,2541,NA,NA,66948,67669,NA,Lab 2.1 Test Flanker Task,18,15450,19,yes,1024
95,95,811.2,811.2,#000000,legacy,legacy,legacy,0,incongruent,uniform,1,undefined,1,s,0,0,0,19,19,0,0,0,19,19,0,19,0,19,NA,19,19,NA,9/25/2021 19:37,1500,The main experiment item,yes,Lab21TestFlankerTask.osexp,C:\Users\mmcel\OneDrive\GRAD SCHOOL\fall 2021\Advanced Quant,no,mono,no,18,no,#ffffff,no,yes,768,legacy,19,19,C:/Users/mmcel/OneDrive/GRAD SCHOOL/fall 2021/Advanced Quant/MM-Subject-2.csv,legacy,Lentiform Loewenfeld,3.3.9,0,s,NA,s,NA,NA,s,774,NA,26649,NA,NA,774,NA,NA,2,legacy,1024,2,48000,-16,experiment,HHSHH,2,even,29194,NA,NA,68825,67721,2544,NA,NA,68823,68930,NA,35474,2541,NA,NA,68930,69705,NA,Lab 2.1 Test Flanker Task,19,16224,20,yes,1024
95.23809524,95.23809524,806.2857143,806.2857143,#000000,legacy,legacy,legacy,0,congruent,uniform,1,undefined,1,s,0,0,0,20,20,0,0,0,20,20,0,20,0,20,NA,20,20,NA,9/25/2021 19:37,1500,The main experiment item,yes,Lab21TestFlankerTask.osexp,C:\Users\mmcel\OneDrive\GRAD SCHOOL\fall 2021\Advanced Quant,no,mono,no,18,no,#ffffff,no,yes,768,legacy,20,20,C:/Users/mmcel/OneDrive/GRAD SCHOOL/fall 2021/Advanced Quant/MM-Subject-2.csv,legacy,Lentiform Loewenfeld,3.3.9,0,s,NA,s,NA,NA,s,708,NA,26649,NA,NA,708,NA,NA,2,legacy,1024,2,48000,-16,experiment,SSSSS,2,even,29194,NA,NA,70824,69750,2544,NA,NA,70821,70929,NA,35474,2541,NA,NA,70929,71637,NA,Lab 2.1 Test Flanker Task,20,16932,21,yes,1024
95.45454545,95.45454545,795.9090909,795.9090909,#000000,legacy,legacy,legacy,0,incongruent,uniform,1,undefined,1,s,0,0,0,21,21,0,0,0,21,21,0,21,0,21,NA,21,21,NA,9/25/2021 19:37,1500,The main experiment item,yes,Lab21TestFlankerTask.osexp,C:\Users\mmcel\OneDrive\GRAD SCHOOL\fall 2021\Advanced Quant,no,mono,no,18,no,#ffffff,no,yes,768,legacy,21,21,C:/Users/mmcel/OneDrive/GRAD SCHOOL/fall 2021/Advanced Quant/MM-Subject-2.csv,legacy,Lentiform Loewenfeld,3.3.9,0,s,NA,s,NA,NA,s,578,NA,26649,NA,NA,578,NA,NA,2,legacy,1024,2,48000,-16,experiment,HHSHH,2,even,29194,NA,NA,72768,71683,2544,NA,NA,72766,72873,NA,35474,2541,NA,NA,72874,73452,NA,Lab 2.1 Test Flanker Task,21,17510,22,yes,1024
95.65217391,95.65217391,784.1304348,784.1304348,#000000,legacy,legacy,legacy,0,congruent,uniform,1,undefined,1,h,0,0,0,22,22,0,0,0,22,22,0,22,0,22,NA,22,22,NA,9/25/2021 19:37,1500,The main experiment item,yes,Lab21TestFlankerTask.osexp,C:\Users\mmcel\OneDrive\GRAD SCHOOL\fall 2021\Advanced Quant,no,mono,no,18,no,#ffffff,no,yes,768,legacy,22,22,C:/Users/mmcel/OneDrive/GRAD SCHOOL/fall 2021/Advanced Quant/MM-Subject-2.csv,legacy,Lentiform Loewenfeld,3.3.9,0,h,NA,s,NA,NA,h,525,NA,26649,NA,NA,525,NA,NA,2,legacy,1024,2,48000,-16,experiment,HHHHH,2,even,29194,NA,NA,74617,73508,2544,NA,NA,74615,74722,NA,35474,2541,NA,NA,74722,75248,NA,Lab 2.1 Test Flanker Task,22,18035,23,yes,1024
95.83333333,95.83333333,778.125,778.125,#000000,legacy,legacy,legacy,0,incongruent,uniform,1,undefined,1,s,0,0,0,23,23,0,0,0,23,23,0,23,0,23,NA,23,23,NA,9/25/2021 19:37,1500,The main experiment item,yes,Lab21TestFlankerTask.osexp,C:\Users\mmcel\OneDrive\GRAD SCHOOL\fall 2021\Advanced Quant,no,mono,no,18,no,#ffffff,no,yes,768,legacy,23,23,C:/Users/mmcel/OneDrive/GRAD SCHOOL/fall 2021/Advanced Quant/MM-Subject-2.csv,legacy,Lentiform Loewenfeld,3.3.9,0,s,NA,s,NA,NA,s,640,NA,26649,NA,NA,640,NA,NA,2,legacy,1024,2,48000,-16,experiment,HHSHH,2,even,29194,NA,NA,76366,75272,2544,NA,NA,76364,76471,NA,35474,2541,NA,NA,76472,77113,NA,Lab 2.1 Test Flanker Task,23,18675,24,yes,1024
96,96,771.08,771.08,#000000,legacy,legacy,legacy,0,congruent,uniform,1,undefined,1,s,0,0,0,24,24,0,0,0,24,24,0,24,0,24,NA,24,24,NA,9/25/2021 19:37,1500,The main experiment item,yes,Lab21TestFlankerTask.osexp,C:\Users\mmcel\OneDrive\GRAD SCHOOL\fall 2021\Advanced Quant,no,mono,no,18,no,#ffffff,no,yes,768,legacy,24,24,C:/Users/mmcel/OneDrive/GRAD SCHOOL/fall 2021/Advanced Quant/MM-Subject-2.csv,legacy,Lentiform Loewenfeld,3.3.9,0,s,NA,s,NA,NA,s,602,NA,26649,NA,NA,602,NA,NA,2,legacy,1024,2,48000,-16,experiment,SSSSS,2,even,29194,NA,NA,78254,77166,2544,NA,NA,78251,78358,NA,35474,2541,NA,NA,78359,78961,NA,Lab 2.1 Test Flanker Task,24,19277,25,yes,1024
96.15384615,96.15384615,765.8846154,765.8846154,#000000,legacy,legacy,legacy,0,congruent,uniform,1,undefined,1,s,0,0,0,25,25,0,0,0,25,25,0,25,0,25,NA,25,25,NA,9/25/2021 19:37,1500,The main experiment item,yes,Lab21TestFlankerTask.osexp,C:\Users\mmcel\OneDrive\GRAD SCHOOL\fall 2021\Advanced Quant,no,mono,no,18,no,#ffffff,no,yes,768,legacy,25,25,C:/Users/mmcel/OneDrive/GRAD SCHOOL/fall 2021/Advanced Quant/MM-Subject-2.csv,legacy,Lentiform Loewenfeld,3.3.9,0,s,NA,s,NA,NA,s,636,NA,26649,NA,NA,636,NA,NA,2,legacy,1024,2,48000,-16,experiment,SSSSS,2,even,29194,NA,NA,80102,79006,2544,NA,NA,80100,80206,NA,35474,2541,NA,NA,80206,80843,NA,Lab 2.1 Test Flanker Task,25,19913,26,yes,1024
96.2962963,96.2962963,760.5925926,760.5925926,#000000,legacy,legacy,legacy,0,congruent,uniform,1,undefined,1,s,0,0,0,26,26,0,0,0,26,26,0,26,0,26,NA,26,26,NA,9/25/2021 19:37,1500,The main experiment item,yes,Lab21TestFlankerTask.osexp,C:\Users\mmcel\OneDrive\GRAD SCHOOL\fall 2021\Advanced Quant,no,mono,no,18,no,#ffffff,no,yes,768,legacy,26,26,C:/Users/mmcel/OneDrive/GRAD SCHOOL/fall 2021/Advanced Quant/MM-Subject-2.csv,legacy,Lentiform Loewenfeld,3.3.9,0,s,NA,s,NA,NA,s,623,NA,26649,NA,NA,623,NA,NA,2,legacy,1024,2,48000,-16,experiment,SSSSS,2,even,29194,NA,NA,81980,80899,2544,NA,NA,81978,82085,NA,35474,2541,NA,NA,82085,82709,NA,Lab 2.1 Test Flanker Task,26,20536,27,yes,1024
96.42857143,96.42857143,752.5714286,752.5714286,#000000,legacy,legacy,legacy,0,congruent,uniform,1,undefined,1,h,0,0,0,27,27,0,0,0,27,27,0,27,0,27,NA,27,27,NA,9/25/2021 19:37,1500,The main experiment item,yes,Lab21TestFlankerTask.osexp,C:\Users\mmcel\OneDrive\GRAD SCHOOL\fall 2021\Advanced Quant,no,mono,no,18,no,#ffffff,no,yes,768,legacy,27,27,C:/Users/mmcel/OneDrive/GRAD SCHOOL/fall 2021/Advanced Quant/MM-Subject-2.csv,legacy,Lentiform Loewenfeld,3.3.9,0,h,NA,s,NA,NA,h,536,NA,26649,NA,NA,536,NA,NA,2,legacy,1024,2,48000,-16,experiment,HHHHH,2,even,29194,NA,NA,83854,82762,2544,NA,NA,83852,83958,NA,35474,2541,NA,NA,83958,84495,NA,Lab 2.1 Test Flanker Task,27,21072,28,yes,1024
96.55172414,96.55172414,744.2758621,744.2758621,#000000,legacy,legacy,legacy,0,congruent,uniform,1,undefined,1,h,0,0,0,28,28,0,0,0,28,28,0,28,0,28,NA,28,28,NA,9/25/2021 19:37,1500,The main experiment item,yes,Lab21TestFlankerTask.osexp,C:\Users\mmcel\OneDrive\GRAD SCHOOL\fall 2021\Advanced Quant,no,mono,no,18,no,#ffffff,no,yes,768,legacy,28,28,C:/Users/mmcel/OneDrive/GRAD SCHOOL/fall 2021/Advanced Quant/MM-Subject-2.csv,legacy,Lentiform Loewenfeld,3.3.9,0,h,NA,s,NA,NA,h,512,NA,26649,NA,NA,512,NA,NA,2,legacy,1024,2,48000,-16,experiment,HHHHH,2,even,29194,NA,NA,85621,84518,2544,NA,NA,85619,85725,NA,35474,2541,NA,NA,85725,86238,NA,Lab 2.1 Test Flanker Task,28,21584,29,yes,1024
96.66666667,96.66666667,741.7666667,741.7666667,#000000,legacy,legacy,legacy,0,incongruent,uniform,1,undefined,1,s,0,0,0,29,29,0,0,0,29,29,0,29,0,29,NA,29,29,NA,9/25/2021 19:37,1500,The main experiment item,yes,Lab21TestFlankerTask.osexp,C:\Users\mmcel\OneDrive\GRAD SCHOOL\fall 2021\Advanced Quant,no,mono,no,18,no,#ffffff,no,yes,768,legacy,29,29,C:/Users/mmcel/OneDrive/GRAD SCHOOL/fall 2021/Advanced Quant/MM-Subject-2.csv,legacy,Lentiform Loewenfeld,3.3.9,0,s,NA,s,NA,NA,s,669,NA,26649,NA,NA,669,NA,NA,2,legacy,1024,2,48000,-16,experiment,HHSHH,2,even,29194,NA,NA,87392,86288,2544,NA,NA,87390,87496,NA,35474,2541,NA,NA,87496,88166,NA,Lab 2.1 Test Flanker Task,29,22253,30,yes,1024
93.5483871,93.5483871,742.2580645,742.2580645,#000000,legacy,legacy,legacy,0,incongruent,uniform,0,undefined,0,h,0,0,0,30,30,0,0,0,30,30,0,30,0,30,NA,30,30,NA,9/25/2021 19:37,1500,The main experiment item,yes,Lab21TestFlankerTask.osexp,C:\Users\mmcel\OneDrive\GRAD SCHOOL\fall 2021\Advanced Quant,no,mono,no,18,no,#ffffff,no,yes,768,legacy,30,30,C:/Users/mmcel/OneDrive/GRAD SCHOOL/fall 2021/Advanced Quant/MM-Subject-2.csv,legacy,Lentiform Loewenfeld,3.3.9,0,s,NA,s,NA,NA,s,757,NA,26649,NA,NA,757,NA,NA,2,legacy,1024,2,48000,-16,experiment,SSHSS,2,even,29194,NA,NA,89312,88217,2544,NA,NA,89310,89417,NA,35474,2541,NA,NA,89417,90175,NA,Lab 2.1 Test Flanker Task,29,23010,31,yes,1024
93.75,93.75,750.46875,750.46875,#000000,legacy,legacy,legacy,0,congruent,uniform,1,undefined,1,h,0,0,0,31,31,0,0,0,31,31,0,31,0,31,NA,31,31,NA,9/25/2021 19:37,1500,The main experiment item,yes,Lab21TestFlankerTask.osexp,C:\Users\mmcel\OneDrive\GRAD SCHOOL\fall 2021\Advanced Quant,no,mono,no,18,no,#ffffff,no,yes,768,legacy,31,31,C:/Users/mmcel/OneDrive/GRAD SCHOOL/fall 2021/Advanced Quant/MM-Subject-2.csv,legacy,Lentiform Loewenfeld,3.3.9,0,h,NA,s,NA,NA,h,1005,NA,26649,NA,NA,1005,NA,NA,2,legacy,1024,2,48000,-16,experiment,HHHHH,2,even,29194,NA,NA,91861,90762,2544,NA,NA,91859,91965,NA,90255,2541,NA,NA,91965,92971,NA,Lab 2.1 Test Flanker Task,30,24015,32,yes,1024
93.93939394,93.93939394,744.4242424,744.4242424,#000000,legacy,legacy,legacy,0,congruent,uniform,1,undefined,1,h,0,0,0,32,32,0,0,0,32,32,0,32,0,32,NA,32,32,NA,9/25/2021 19:37,1500,The main experiment item,yes,Lab21TestFlankerTask.osexp,C:\Users\mmcel\OneDrive\GRAD SCHOOL\fall 2021\Advanced Quant,no,mono,no,18,no,#ffffff,no,yes,768,legacy,32,32,C:/Users/mmcel/OneDrive/GRAD SCHOOL/fall 2021/Advanced Quant/MM-Subject-2.csv,legacy,Lentiform Loewenfeld,3.3.9,0,h,NA,s,NA,NA,h,551,NA,26649,NA,NA,551,NA,NA,2,legacy,1024,2,48000,-16,experiment,HHHHH,2,even,29194,NA,NA,94113,93018,2544,NA,NA,94111,94217,NA,90255,2541,NA,NA,94218,94770,NA,Lab 2.1 Test Flanker Task,31,24566,33,yes,1024
94.11764706,94.11764706,736.7647059,736.7647059,#000000,legacy,legacy,legacy,0,congruent,uniform,1,undefined,1,h,0,0,0,33,33,0,0,0,33,33,0,33,0,33,NA,33,33,NA,9/25/2021 19:37,1500,The main experiment item,yes,Lab21TestFlankerTask.osexp,C:\Users\mmcel\OneDrive\GRAD SCHOOL\fall 2021\Advanced Quant,no,mono,no,18,no,#ffffff,no,yes,768,legacy,33,33,C:/Users/mmcel/OneDrive/GRAD SCHOOL/fall 2021/Advanced Quant/MM-Subject-2.csv,legacy,Lentiform Loewenfeld,3.3.9,0,h,NA,s,NA,NA,h,484,NA,26649,NA,NA,484,NA,NA,2,legacy,1024,2,48000,-16,experiment,HHHHH,2,even,29194,NA,NA,95917,94818,2544,NA,NA,95915,96023,NA,90255,2541,NA,NA,96023,96508,NA,Lab 2.1 Test Flanker Task,32,25050,34,yes,1024
94.28571429,94.28571429,736.2285714,736.2285714,#000000,legacy,legacy,legacy,0,congruent,uniform,1,undefined,1,s,0,0,0,34,34,0,0,0,34,34,0,34,0,34,NA,34,34,NA,9/25/2021 19:37,1500,The main experiment item,yes,Lab21TestFlankerTask.osexp,C:\Users\mmcel\OneDrive\GRAD SCHOOL\fall 2021\Advanced Quant,no,mono,no,18,no,#ffffff,no,yes,768,legacy,34,34,C:/Users/mmcel/OneDrive/GRAD SCHOOL/fall 2021/Advanced Quant/MM-Subject-2.csv,legacy,Lentiform Loewenfeld,3.3.9,0,s,NA,s,NA,NA,s,718,NA,26649,NA,NA,718,NA,NA,2,legacy,1024,2,48000,-16,experiment,SSSSS,2,even,29194,NA,NA,97637,96551,2544,NA,NA,97635,97742,NA,90255,2541,NA,NA,97742,98461,NA,Lab 2.1 Test Flanker Task,33,25768,35,yes,1024
94.44444444,94.44444444,741.3333333,741.3333333,#000000,legacy,legacy,legacy,0,incongruent,uniform,1,undefined,1,h,0,0,0,35,35,0,0,0,35,35,0,35,0,35,NA,35,35,NA,9/25/2021 19:37,1500,The main experiment item,yes,Lab21TestFlankerTask.osexp,C:\Users\mmcel\OneDrive\GRAD SCHOOL\fall 2021\Advanced Quant,no,mono,no,18,no,#ffffff,no,yes,768,legacy,35,35,C:/Users/mmcel/OneDrive/GRAD SCHOOL/fall 2021/Advanced Quant/MM-Subject-2.csv,legacy,Lentiform Loewenfeld,3.3.9,0,h,NA,s,NA,NA,h,920,NA,26649,NA,NA,920,NA,NA,2,legacy,1024,2,48000,-16,experiment,SSHSS,2,even,29194,NA,NA,99591,98506,2544,NA,NA,99589,99696,NA,90255,2541,NA,NA,99696,100616,NA,Lab 2.1 Test Flanker Task,34,26688,36,yes,1024
94.59459459,94.59459459,743.8108108,743.8108108,#000000,legacy,legacy,legacy,0,congruent,uniform,1,undefined,1,s,0,0,0,36,36,0,0,0,36,36,0,36,0,36,NA,36,36,NA,9/25/2021 19:37,1500,The main experiment item,yes,Lab21TestFlankerTask.osexp,C:\Users\mmcel\OneDrive\GRAD SCHOOL\fall 2021\Advanced Quant,no,mono,no,18,no,#ffffff,no,yes,768,legacy,36,36,C:/Users/mmcel/OneDrive/GRAD SCHOOL/fall 2021/Advanced Quant/MM-Subject-2.csv,legacy,Lentiform Loewenfeld,3.3.9,0,s,NA,s,NA,NA,s,833,NA,26649,NA,NA,833,NA,NA,2,legacy,1024,2,48000,-16,experiment,SSSSS,2,even,29194,NA,NA,101766,100662,2544,NA,NA,101764,101871,NA,90255,2541,NA,NA,101871,102704,NA,Lab 2.1 Test Flanker Task,35,27521,37,yes,1024
94.73684211,94.73684211,739.2368421,739.2368421,#000000,legacy,legacy,legacy,0,congruent,uniform,1,undefined,1,s,0,0,0,37,37,0,0,0,37,37,0,37,0,37,NA,37,37,NA,9/25/2021 19:37,1500,The main experiment item,yes,Lab21TestFlankerTask.osexp,C:\Users\mmcel\OneDrive\GRAD SCHOOL\fall 2021\Advanced Quant,no,mono,no,18,no,#ffffff,no,yes,768,legacy,37,37,C:/Users/mmcel/OneDrive/GRAD SCHOOL/fall 2021/Advanced Quant/MM-Subject-2.csv,legacy,Lentiform Loewenfeld,3.3.9,0,s,NA,s,NA,NA,s,570,NA,26649,NA,NA,570,NA,NA,2,legacy,1024,2,48000,-16,experiment,SSSSS,2,even,29194,NA,NA,103867,102756,2544,NA,NA,103865,103972,NA,90255,2541,NA,NA,103972,104543,NA,Lab 2.1 Test Flanker Task,36,28091,38,yes,1024
94.87179487,94.87179487,741.4615385,741.4615385,#000000,legacy,legacy,legacy,0,incongruent,uniform,1,undefined,1,s,0,0,0,38,38,0,0,0,38,38,0,38,0,38,NA,38,38,NA,9/25/2021 19:37,1500,The main experiment item,yes,Lab21TestFlankerTask.osexp,C:\Users\mmcel\OneDrive\GRAD SCHOOL\fall 2021\Advanced Quant,no,mono,no,18,no,#ffffff,no,yes,768,legacy,38,38,C:/Users/mmcel/OneDrive/GRAD SCHOOL/fall 2021/Advanced Quant/MM-Subject-2.csv,legacy,Lentiform Loewenfeld,3.3.9,0,s,NA,s,NA,NA,s,826,NA,26649,NA,NA,826,NA,NA,2,legacy,1024,2,48000,-16,experiment,HHSHH,2,even,29194,NA,NA,105670,104573,2544,NA,NA,105667,105775,NA,90255,2541,NA,NA,105775,106601,NA,Lab 2.1 Test Flanker Task,37,28917,39,yes,1024
95,95,734.775,734.775,#000000,legacy,legacy,legacy,0,congruent,uniform,1,undefined,1,h,0,0,0,39,39,0,0,0,39,39,0,39,0,39,NA,39,39,NA,9/25/2021 19:37,1500,The main experiment item,yes,Lab21TestFlankerTask.osexp,C:\Users\mmcel\OneDrive\GRAD SCHOOL\fall 2021\Advanced Quant,no,mono,no,18,no,#ffffff,no,yes,768,legacy,39,39,C:/Users/mmcel/OneDrive/GRAD SCHOOL/fall 2021/Advanced Quant/MM-Subject-2.csv,legacy,Lentiform Loewenfeld,3.3.9,0,h,NA,s,NA,NA,h,474,NA,26649,NA,NA,474,NA,NA,2,legacy,1024,2,48000,-16,experiment,HHHHH,2,even,29194,NA,NA,107759,106654,2544,NA,NA,107757,107863,NA,90255,2541,NA,NA,107863,108338,NA,Lab 2.1 Test Flanker Task,38,29391,40,yes,1024
95.12195122,95.12195122,730.804878,730.804878,#000000,legacy,legacy,legacy,0,incongruent,uniform,1,undefined,1,s,0,0,0,40,40,0,0,0,40,40,0,40,0,40,NA,40,40,NA,9/25/2021 19:37,1500,The main experiment item,yes,Lab21TestFlankerTask.osexp,C:\Users\mmcel\OneDrive\GRAD SCHOOL\fall 2021\Advanced Quant,no,mono,no,18,no,#ffffff,no,yes,768,legacy,40,40,C:/Users/mmcel/OneDrive/GRAD SCHOOL/fall 2021/Advanced Quant/MM-Subject-2.csv,legacy,Lentiform Loewenfeld,3.3.9,0,s,NA,s,NA,NA,s,572,NA,26649,NA,NA,572,NA,NA,2,legacy,1024,2,48000,-16,experiment,HHSHH,2,even,29194,NA,NA,109477,108385,2544,NA,NA,109475,109582,NA,90255,2541,NA,NA,109583,110156,NA,Lab 2.1 Test Flanker Task,39,29963,41,yes,1024
95.23809524,95.23809524,739.4285714,739.4285714,#000000,legacy,legacy,legacy,0,incongruent,uniform,1,undefined,1,h,0,0,0,41,41,0,0,0,41,41,0,41,0,41,NA,41,41,NA,9/25/2021 19:37,1500,The main experiment item,yes,Lab21TestFlankerTask.osexp,C:\Users\mmcel\OneDrive\GRAD SCHOOL\fall 2021\Advanced Quant,no,mono,no,18,no,#ffffff,no,yes,768,legacy,41,41,C:/Users/mmcel/OneDrive/GRAD SCHOOL/fall 2021/Advanced Quant/MM-Subject-2.csv,legacy,Lentiform Loewenfeld,3.3.9,0,h,NA,s,NA,NA,h,1093,NA,26649,NA,NA,1093,NA,NA,2,legacy,1024,2,48000,-16,experiment,SSHSS,2,even,29194,NA,NA,111305,110207,2544,NA,NA,111303,111409,NA,90255,2541,NA,NA,111409,112503,NA,Lab 2.1 Test Flanker Task,40,31056,42,yes,1024
95.34883721,95.34883721,736.8604651,736.8604651,#000000,legacy,legacy,legacy,0,incongruent,uniform,1,undefined,1,h,0,0,0,42,42,0,0,0,42,42,0,42,0,42,NA,42,42,NA,9/25/2021 19:37,1500,The main experiment item,yes,Lab21TestFlankerTask.osexp,C:\Users\mmcel\OneDrive\GRAD SCHOOL\fall 2021\Advanced Quant,no,mono,no,18,no,#ffffff,no,yes,768,legacy,42,42,C:/Users/mmcel/OneDrive/GRAD SCHOOL/fall 2021/Advanced Quant/MM-Subject-2.csv,legacy,Lentiform Loewenfeld,3.3.9,0,h,NA,s,NA,NA,h,629,NA,26649,NA,NA,629,NA,NA,2,legacy,1024,2,48000,-16,experiment,SSHSS,2,even,29194,NA,NA,113645,112552,2544,NA,NA,113643,113750,NA,90255,2541,NA,NA,113750,114380,NA,Lab 2.1 Test Flanker Task,41,31685,43,yes,1024
95.45454545,95.45454545,732.6363636,732.6363636,#000000,legacy,legacy,legacy,0,incongruent,uniform,1,undefined,1,h,0,0,0,43,43,0,0,0,43,43,0,43,0,43,NA,43,43,NA,9/25/2021 19:37,1500,The main experiment item,yes,Lab21TestFlankerTask.osexp,C:\Users\mmcel\OneDrive\GRAD SCHOOL\fall 2021\Advanced Quant,no,mono,no,18,no,#ffffff,no,yes,768,legacy,43,43,C:/Users/mmcel/OneDrive/GRAD SCHOOL/fall 2021/Advanced Quant/MM-Subject-2.csv,legacy,Lentiform Loewenfeld,3.3.9,0,h,NA,s,NA,NA,h,551,NA,26649,NA,NA,551,NA,NA,2,legacy,1024,2,48000,-16,experiment,SSHSS,2,even,29194,NA,NA,115547,114455,2544,NA,NA,115544,115651,NA,90255,2541,NA,NA,115651,116203,NA,Lab 2.1 Test Flanker Task,42,32236,44,yes,1024
95.55555556,95.55555556,734.4222222,734.4222222,#000000,legacy,legacy,legacy,0,incongruent,uniform,1,undefined,1,s,0,0,0,44,44,0,0,0,44,44,0,44,0,44,NA,44,44,NA,9/25/2021 19:37,1500,The main experiment item,yes,Lab21TestFlankerTask.osexp,C:\Users\mmcel\OneDrive\GRAD SCHOOL\fall 2021\Advanced Quant,no,mono,no,18,no,#ffffff,no,yes,768,legacy,44,44,C:/Users/mmcel/OneDrive/GRAD SCHOOL/fall 2021/Advanced Quant/MM-Subject-2.csv,legacy,Lentiform Loewenfeld,3.3.9,0,s,NA,s,NA,NA,s,813,NA,26649,NA,NA,813,NA,NA,2,legacy,1024,2,48000,-16,experiment,HHSHH,2,even,29194,NA,NA,117342,116256,2544,NA,NA,117340,117446,NA,90255,2541,NA,NA,117446,118259,NA,Lab 2.1 Test Flanker Task,43,33049,45,yes,1024
95.65217391,95.65217391,732.0869565,732.0869565,#000000,legacy,legacy,legacy,0,congruent,uniform,1,undefined,1,h,0,0,0,45,45,0,0,0,45,45,0,45,0,45,NA,45,45,NA,9/25/2021 19:37,1500,The main experiment item,yes,Lab21TestFlankerTask.osexp,C:\Users\mmcel\OneDrive\GRAD SCHOOL\fall 2021\Advanced Quant,no,mono,no,18,no,#ffffff,no,yes,768,legacy,45,45,C:/Users/mmcel/OneDrive/GRAD SCHOOL/fall 2021/Advanced Quant/MM-Subject-2.csv,legacy,Lentiform Loewenfeld,3.3.9,0,h,NA,s,NA,NA,h,627,NA,26649,NA,NA,627,NA,NA,2,legacy,1024,2,48000,-16,experiment,HHHHH,2,even,29194,NA,NA,119404,118308,2544,NA,NA,119402,119508,NA,90255,2541,NA,NA,119508,120136,NA,Lab 2.1 Test Flanker Task,44,33676,46,yes,1024
95.74468085,95.74468085,735.3404255,735.3404255,#000000,legacy,legacy,legacy,0,incongruent,uniform,1,undefined,1,h,0,0,0,46,46,0,0,0,46,46,0,46,0,46,NA,46,46,NA,9/25/2021 19:37,1500,The main experiment item,yes,Lab21TestFlankerTask.osexp,C:\Users\mmcel\OneDrive\GRAD SCHOOL\fall 2021\Advanced Quant,no,mono,no,18,no,#ffffff,no,yes,768,legacy,46,46,C:/Users/mmcel/OneDrive/GRAD SCHOOL/fall 2021/Advanced Quant/MM-Subject-2.csv,legacy,Lentiform Loewenfeld,3.3.9,0,h,NA,s,NA,NA,h,885,NA,26649,NA,NA,885,NA,NA,2,legacy,1024,2,48000,-16,experiment,SSHSS,2,even,29194,NA,NA,121245,120152,2544,NA,NA,121242,121349,NA,90255,2541,NA,NA,121349,122234,NA,Lab 2.1 Test Flanker Task,45,34561,47,yes,1024
95.83333333,95.83333333,740.75,740.75,#000000,legacy,legacy,legacy,0,incongruent,uniform,1,undefined,1,s,0,0,0,47,47,0,0,0,47,47,0,47,0,47,NA,47,47,NA,9/25/2021 19:37,1500,The main experiment item,yes,Lab21TestFlankerTask.osexp,C:\Users\mmcel\OneDrive\GRAD SCHOOL\fall 2021\Advanced Quant,no,mono,no,18,no,#ffffff,no,yes,768,legacy,47,47,C:/Users/mmcel/OneDrive/GRAD SCHOOL/fall 2021/Advanced Quant/MM-Subject-2.csv,legacy,Lentiform Loewenfeld,3.3.9,0,s,NA,s,NA,NA,s,995,NA,26649,NA,NA,995,NA,NA,2,legacy,1024,2,48000,-16,experiment,HHSHH,2,even,29194,NA,NA,123378,122289,2544,NA,NA,123376,123483,NA,90255,2541,NA,NA,123483,124478,NA,Lab 2.1 Test Flanker Task,46,35556,48,yes,1024
95.91836735,95.91836735,738.4693878,738.4693878,#000000,legacy,legacy,legacy,0,congruent,uniform,1,undefined,1,s,0,0,0,48,48,0,0,0,48,48,0,48,0,48,NA,48,48,NA,9/25/2021 19:37,1500,The main experiment item,yes,Lab21TestFlankerTask.osexp,C:\Users\mmcel\OneDrive\GRAD SCHOOL\fall 2021\Advanced Quant,no,mono,no,18,no,#ffffff,no,yes,768,legacy,48,48,C:/Users/mmcel/OneDrive/GRAD SCHOOL/fall 2021/Advanced Quant/MM-Subject-2.csv,legacy,Lentiform Loewenfeld,3.3.9,0,s,NA,s,NA,NA,s,629,NA,26649,NA,NA,629,NA,NA,2,legacy,1024,2,48000,-16,experiment,SSSSS,2,even,29194,NA,NA,125642,124536,2544,NA,NA,125640,125747,NA,90255,2541,NA,NA,125748,126377,NA,Lab 2.1 Test Flanker Task,47,36185,49,yes,1024
96,96,736.98,736.98,#000000,legacy,legacy,legacy,0,incongruent,uniform,1,undefined,1,h,0,0,0,49,49,0,0,0,49,49,0,49,0,49,NA,49,49,NA,9/25/2021 19:37,1500,The main experiment item,yes,Lab21TestFlankerTask.osexp,C:\Users\mmcel\OneDrive\GRAD SCHOOL\fall 2021\Advanced Quant,no,mono,no,18,no,#ffffff,no,yes,768,legacy,49,49,C:/Users/mmcel/OneDrive/GRAD SCHOOL/fall 2021/Advanced Quant/MM-Subject-2.csv,legacy,Lentiform Loewenfeld,3.3.9,0,h,NA,s,NA,NA,h,664,NA,26649,NA,NA,664,NA,NA,2,legacy,1024,2,48000,-16,experiment,SSHSS,2,even,29194,NA,NA,127533,126434,2544,NA,NA,127530,127637,NA,90255,2541,NA,NA,127637,128302,NA,Lab 2.1 Test Flanker Task,48,36849,50,yes,1024
96.07843137,96.07843137,733.6470588,733.6470588,#000000,legacy,legacy,legacy,0,congruent,uniform,1,undefined,1,h,0,0,0,50,50,0,0,0,50,50,0,50,0,50,NA,50,50,NA,9/25/2021 19:37,1500,The main experiment item,yes,Lab21TestFlankerTask.osexp,C:\Users\mmcel\OneDrive\GRAD SCHOOL\fall 2021\Advanced Quant,no,mono,no,18,no,#ffffff,no,yes,768,legacy,50,50,C:/Users/mmcel/OneDrive/GRAD SCHOOL/fall 2021/Advanced Quant/MM-Subject-2.csv,legacy,Lentiform Loewenfeld,3.3.9,0,h,NA,s,NA,NA,h,567,NA,26649,NA,NA,567,NA,NA,2,legacy,1024,2,48000,-16,experiment,HHHHH,2,even,29194,NA,NA,129452,128352,2544,NA,NA,129450,129556,NA,90255,2541,NA,NA,129556,130124,NA,Lab 2.1 Test Flanker Task,49,37416,51,yes,1024
96.15384615,96.15384615,729.0384615,729.0384615,#000000,legacy,legacy,legacy,0,congruent,uniform,1,undefined,1,h,0,0,0,51,51,0,0,0,51,51,0,51,0,51,NA,51,51,NA,9/25/2021 19:37,1500,The main experiment item,yes,Lab21TestFlankerTask.osexp,C:\Users\mmcel\OneDrive\GRAD SCHOOL\fall 2021\Advanced Quant,no,mono,no,18,no,#ffffff,no,yes,768,legacy,51,51,C:/Users/mmcel/OneDrive/GRAD SCHOOL/fall 2021/Advanced Quant/MM-Subject-2.csv,legacy,Lentiform Loewenfeld,3.3.9,0,h,NA,s,NA,NA,h,494,NA,26649,NA,NA,494,NA,NA,2,legacy,1024,2,48000,-16,experiment,HHHHH,2,even,29194,NA,NA,131263,130175,2544,NA,NA,131261,131367,NA,90255,2541,NA,NA,131368,131863,NA,Lab 2.1 Test Flanker Task,50,37910,52,yes,1024
96.22641509,96.22641509,730.8113208,730.8113208,#000000,legacy,legacy,legacy,0,congruent,uniform,1,undefined,1,s,0,0,0,52,52,0,0,0,52,52,0,52,0,52,NA,52,52,NA,9/25/2021 19:37,1500,The main experiment item,yes,Lab21TestFlankerTask.osexp,C:\Users\mmcel\OneDrive\GRAD SCHOOL\fall 2021\Advanced Quant,no,mono,no,18,no,#ffffff,no,yes,768,legacy,52,52,C:/Users/mmcel/OneDrive/GRAD SCHOOL/fall 2021/Advanced Quant/MM-Subject-2.csv,legacy,Lentiform Loewenfeld,3.3.9,0,s,NA,s,NA,NA,s,823,NA,26649,NA,NA,823,NA,NA,2,legacy,1024,2,48000,-16,experiment,SSSSS,2,even,29194,NA,NA,132989,131886,2544,NA,NA,132987,133091,NA,90255,2541,NA,NA,133091,133914,NA,Lab 2.1 Test Flanker Task,51,38733,53,yes,1024
96.2962963,96.2962963,731.9074074,731.9074074,#000000,legacy,legacy,legacy,0,incongruent,uniform,1,undefined,1,h,0,0,0,53,53,0,0,0,53,53,0,53,0,53,NA,53,53,NA,9/25/2021 19:37,1500,The main experiment item,yes,Lab21TestFlankerTask.osexp,C:\Users\mmcel\OneDrive\GRAD SCHOOL\fall 2021\Advanced Quant,no,mono,no,18,no,#ffffff,no,yes,768,legacy,53,53,C:/Users/mmcel/OneDrive/GRAD SCHOOL/fall 2021/Advanced Quant/MM-Subject-2.csv,legacy,Lentiform Loewenfeld,3.3.9,0,h,NA,s,NA,NA,h,790,NA,26649,NA,NA,790,NA,NA,2,legacy,1024,2,48000,-16,experiment,SSHSS,2,even,29194,NA,NA,135064,133968,2544,NA,NA,135062,135168,NA,90255,2541,NA,NA,135168,135959,NA,Lab 2.1 Test Flanker Task,52,39523,54,yes,1024
96.36363636,96.36363636,729.8909091,729.8909091,#000000,legacy,legacy,legacy,0,incongruent,uniform,1,undefined,1,s,0,0,0,54,54,0,0,0,54,54,0,54,0,54,NA,54,54,NA,9/25/2021 19:37,1500,The main experiment item,yes,Lab21TestFlankerTask.osexp,C:\Users\mmcel\OneDrive\GRAD SCHOOL\fall 2021\Advanced Quant,no,mono,no,18,no,#ffffff,no,yes,768,legacy,54,54,C:/Users/mmcel/OneDrive/GRAD SCHOOL/fall 2021/Advanced Quant/MM-Subject-2.csv,legacy,Lentiform Loewenfeld,3.3.9,0,s,NA,s,NA,NA,s,621,NA,26649,NA,NA,621,NA,NA,2,legacy,1024,2,48000,-16,experiment,HHSHH,2,even,29194,NA,NA,137087,136000,2544,NA,NA,137085,137192,NA,90255,2541,NA,NA,137192,137814,NA,Lab 2.1 Test Flanker Task,53,40144,55,yes,1024
96.42857143,96.42857143,727.875,727.875,#000000,legacy,legacy,legacy,0,incongruent,uniform,1,undefined,1,h,0,0,0,55,55,0,0,0,55,55,0,55,0,55,NA,55,55,NA,9/25/2021 19:37,1500,The main experiment item,yes,Lab21TestFlankerTask.osexp,C:\Users\mmcel\OneDrive\GRAD SCHOOL\fall 2021\Advanced Quant,no,mono,no,18,no,#ffffff,no,yes,768,legacy,55,55,C:/Users/mmcel/OneDrive/GRAD SCHOOL/fall 2021/Advanced Quant/MM-Subject-2.csv,legacy,Lentiform Loewenfeld,3.3.9,0,h,NA,s,NA,NA,h,617,NA,26649,NA,NA,617,NA,NA,2,legacy,1024,2,48000,-16,experiment,SSHSS,2,even,29194,NA,NA,138935,137842,2544,NA,NA,138933,139039,NA,90255,2541,NA,NA,139040,139658,NA,Lab 2.1 Test Flanker Task,54,40761,56,yes,1024
96.49122807,96.49122807,725.0877193,725.0877193,#000000,legacy,legacy,legacy,0,congruent,uniform,1,undefined,1,s,0,0,0,56,56,0,0,0,56,56,0,56,0,56,NA,56,56,NA,9/25/2021 19:37,1500,The main experiment item,yes,Lab21TestFlankerTask.osexp,C:\Users\mmcel\OneDrive\GRAD SCHOOL\fall 2021\Advanced Quant,no,mono,no,18,no,#ffffff,no,yes,768,legacy,56,56,C:/Users/mmcel/OneDrive/GRAD SCHOOL/fall 2021/Advanced Quant/MM-Subject-2.csv,legacy,Lentiform Loewenfeld,3.3.9,0,s,NA,s,NA,NA,s,569,NA,26649,NA,NA,569,NA,NA,2,legacy,1024,2,48000,-16,experiment,SSSSS,2,even,29194,NA,NA,140800,139711,2544,NA,NA,140798,140904,NA,90255,2541,NA,NA,140904,141473,NA,Lab 2.1 Test Flanker Task,55,41330,57,yes,1024
96.55172414,96.55172414,723.0344828,723.0344828,#000000,legacy,legacy,legacy,0,congruent,uniform,1,undefined,1,h,0,0,0,57,57,0,0,0,57,57,0,57,0,57,NA,57,57,NA,9/25/2021 19:37,1500,The main experiment item,yes,Lab21TestFlankerTask.osexp,C:\Users\mmcel\OneDrive\GRAD SCHOOL\fall 2021\Advanced Quant,no,mono,no,18,no,#ffffff,no,yes,768,legacy,57,57,C:/Users/mmcel/OneDrive/GRAD SCHOOL/fall 2021/Advanced Quant/MM-Subject-2.csv,legacy,Lentiform Loewenfeld,3.3.9,0,h,NA,s,NA,NA,h,606,NA,26649,NA,NA,606,NA,NA,2,legacy,1024,2,48000,-16,experiment,HHHHH,2,even,29194,NA,NA,142622,141523,2544,NA,NA,142620,142725,NA,90255,2541,NA,NA,142725,143332,NA,Lab 2.1 Test Flanker Task,56,41936,58,yes,1024
96.61016949,96.61016949,723.2372881,723.2372881,#000000,legacy,legacy,legacy,0,incongruent,uniform,1,undefined,1,h,0,0,0,58,58,0,0,0,58,58,0,58,0,58,NA,58,58,NA,9/25/2021 19:37,1500,The main experiment item,yes,Lab21TestFlankerTask.osexp,C:\Users\mmcel\OneDrive\GRAD SCHOOL\fall 2021\Advanced Quant,no,mono,no,18,no,#ffffff,no,yes,768,legacy,58,58,C:/Users/mmcel/OneDrive/GRAD SCHOOL/fall 2021/Advanced Quant/MM-Subject-2.csv,legacy,Lentiform Loewenfeld,3.3.9,0,h,NA,s,NA,NA,h,735,NA,26649,NA,NA,735,NA,NA,2,legacy,1024,2,48000,-16,experiment,SSHSS,2,even,29194,NA,NA,144484,143387,2544,NA,NA,144482,144589,NA,90255,2541,NA,NA,144589,145324,NA,Lab 2.1 Test Flanker Task,57,42671,59,yes,1024
96.66666667,96.66666667,718.4666667,718.4666667,#000000,legacy,legacy,legacy,0,congruent,uniform,1,undefined,1,h,0,0,0,59,59,0,0,0,59,59,0,59,0,59,NA,59,59,NA,9/25/2021 19:37,1500,The main experiment item,yes,Lab21TestFlankerTask.osexp,C:\Users\mmcel\OneDrive\GRAD SCHOOL\fall 2021\Advanced Quant,no,mono,no,18,no,#ffffff,no,yes,768,legacy,59,59,C:/Users/mmcel/OneDrive/GRAD SCHOOL/fall 2021/Advanced Quant/MM-Subject-2.csv,legacy,Lentiform Loewenfeld,3.3.9,0,h,NA,s,NA,NA,h,437,NA,26649,NA,NA,437,NA,NA,2,legacy,1024,2,48000,-16,experiment,HHHHH,2,even,29194,NA,NA,146467,145376,2544,NA,NA,146465,146572,NA,90255,2541,NA,NA,146572,147010,NA,Lab 2.1 Test Flanker Task,58,43108,60,yes,1024
96.72131148,96.72131148,716.7213115,716.7213115,#000000,legacy,legacy,legacy,0,incongruent,uniform,1,undefined,1,s,0,0,0,60,60,0,0,0,60,60,0,60,0,60,NA,60,60,NA,9/25/2021 19:37,1500,The main experiment item,yes,Lab21TestFlankerTask.osexp,C:\Users\mmcel\OneDrive\GRAD SCHOOL\fall 2021\Advanced Quant,no,mono,no,18,no,#ffffff,no,yes,768,legacy,60,60,C:/Users/mmcel/OneDrive/GRAD SCHOOL/fall 2021/Advanced Quant/MM-Subject-2.csv,legacy,Lentiform Loewenfeld,3.3.9,0,s,NA,s,NA,NA,s,612,NA,26649,NA,NA,612,NA,NA,2,legacy,1024,2,48000,-16,experiment,HHSHH,2,even,29194,NA,NA,148178,147069,2544,NA,NA,148176,148282,NA,90255,2541,NA,NA,148282,148895,NA,Lab 2.1 Test Flanker Task,59,43720,61,yes,1024
96.77419355,96.77419355,715.1612903,715.1612903,#000000,legacy,legacy,legacy,0,congruent,uniform,1,undefined,1,h,0,0,0,61,61,0,0,0,61,61,0,61,0,61,NA,61,61,NA,9/25/2021 19:37,1500,The main experiment item,yes,Lab21TestFlankerTask.osexp,C:\Users\mmcel\OneDrive\GRAD SCHOOL\fall 2021\Advanced Quant,no,mono,no,18,no,#ffffff,no,yes,768,legacy,61,61,C:/Users/mmcel/OneDrive/GRAD SCHOOL/fall 2021/Advanced Quant/MM-Subject-2.csv,legacy,Lentiform Loewenfeld,3.3.9,0,h,NA,s,NA,NA,h,620,NA,26649,NA,NA,620,NA,NA,2,legacy,1024,2,48000,-16,experiment,HHHHH,2,even,29194,NA,NA,150044,148957,2544,NA,NA,150042,150146,NA,90255,2541,NA,NA,150146,150766,NA,Lab 2.1 Test Flanker Task,60,44340,62,yes,1024
96.82539683,96.82539683,713.984127,713.984127,#000000,legacy,legacy,legacy,0,incongruent,uniform,1,undefined,1,h,0,0,0,62,62,0,0,0,62,62,0,62,0,62,NA,62,62,NA,9/25/2021 19:37,1500,The main experiment item,yes,Lab21TestFlankerTask.osexp,C:\Users\mmcel\OneDrive\GRAD SCHOOL\fall 2021\Advanced Quant,no,mono,no,18,no,#ffffff,no,yes,768,legacy,62,62,C:/Users/mmcel/OneDrive/GRAD SCHOOL/fall 2021/Advanced Quant/MM-Subject-2.csv,legacy,Lentiform Loewenfeld,3.3.9,0,h,NA,s,NA,NA,h,641,NA,26649,NA,NA,641,NA,NA,2,legacy,1024,2,48000,-16,experiment,SSHSS,2,even,29194,NA,NA,151879,150790,2544,NA,NA,151877,151983,NA,90255,2541,NA,NA,151983,152625,NA,Lab 2.1 Test Flanker Task,61,44981,63,yes,1024
96.875,96.875,712.984375,712.984375,#000000,legacy,legacy,legacy,0,incongruent,uniform,1,undefined,1,s,0,0,0,63,63,0,0,0,63,63,0,63,0,63,NA,63,63,NA,9/25/2021 19:37,1500,The main experiment item,yes,Lab21TestFlankerTask.osexp,C:\Users\mmcel\OneDrive\GRAD SCHOOL\fall 2021\Advanced Quant,no,mono,no,18,no,#ffffff,no,yes,768,legacy,63,63,C:/Users/mmcel/OneDrive/GRAD SCHOOL/fall 2021/Advanced Quant/MM-Subject-2.csv,legacy,Lentiform Loewenfeld,3.3.9,0,s,NA,s,NA,NA,s,650,NA,26649,NA,NA,650,NA,NA,2,legacy,1024,2,48000,-16,experiment,HHSHH,2,even,29194,NA,NA,153786,152693,2544,NA,NA,153784,153891,NA,90255,2541,NA,NA,153891,154542,NA,Lab 2.1 Test Flanker Task,62,45631,64,yes,1024
96.92307692,96.92307692,711.4769231,711.4769231,#000000,legacy,legacy,legacy,0,incongruent,uniform,1,undefined,1,h,0,0,0,64,64,0,0,0,64,64,0,64,0,64,NA,64,64,NA,9/25/2021 19:37,1500,The main experiment item,yes,Lab21TestFlankerTask.osexp,C:\Users\mmcel\OneDrive\GRAD SCHOOL\fall 2021\Advanced Quant,no,mono,no,18,no,#ffffff,no,yes,768,legacy,64,64,C:/Users/mmcel/OneDrive/GRAD SCHOOL/fall 2021/Advanced Quant/MM-Subject-2.csv,legacy,Lentiform Loewenfeld,3.3.9,0,h,NA,s,NA,NA,h,615,NA,26649,NA,NA,615,NA,NA,2,legacy,1024,2,48000,-16,experiment,SSHSS,2,even,29194,NA,NA,155653,154567,2544,NA,NA,155651,155757,NA,90255,2541,NA,NA,155757,156372,NA,Lab 2.1 Test Flanker Task,63,46246,65,yes,1024
96.96969697,96.96969697,708.5606061,708.5606061,#000000,legacy,legacy,legacy,0,congruent,uniform,1,undefined,1,h,0,0,0,65,65,0,0,0,65,65,0,65,0,65,NA,65,65,NA,9/25/2021 19:37,1500,The main experiment item,yes,Lab21TestFlankerTask.osexp,C:\Users\mmcel\OneDrive\GRAD SCHOOL\fall 2021\Advanced Quant,no,mono,no,18,no,#ffffff,no,yes,768,legacy,65,65,C:/Users/mmcel/OneDrive/GRAD SCHOOL/fall 2021/Advanced Quant/MM-Subject-2.csv,legacy,Lentiform Loewenfeld,3.3.9,0,h,NA,s,NA,NA,h,519,NA,26649,NA,NA,519,NA,NA,2,legacy,1024,2,48000,-16,experiment,HHHHH,2,even,29194,NA,NA,157515,156423,2544,NA,NA,157513,157620,NA,90255,2541,NA,NA,157620,158140,NA,Lab 2.1 Test Flanker Task,64,46765,66,yes,1024
97.01492537,97.01492537,707.3432836,707.3432836,#000000,legacy,legacy,legacy,0,incongruent,uniform,1,undefined,1,s,0,0,0,66,66,0,0,0,66,66,0,66,0,66,NA,66,66,NA,9/25/2021 19:37,1500,The main experiment item,yes,Lab21TestFlankerTask.osexp,C:\Users\mmcel\OneDrive\GRAD SCHOOL\fall 2021\Advanced Quant,no,mono,no,18,no,#ffffff,no,yes,768,legacy,66,66,C:/Users/mmcel/OneDrive/GRAD SCHOOL/fall 2021/Advanced Quant/MM-Subject-2.csv,legacy,Lentiform Loewenfeld,3.3.9,0,s,NA,s,NA,NA,s,627,NA,26649,NA,NA,627,NA,NA,2,legacy,1024,2,48000,-16,experiment,HHSHH,2,even,29194,NA,NA,159282,158189,2544,NA,NA,159279,159387,NA,90255,2541,NA,NA,159388,160016,NA,Lab 2.1 Test Flanker Task,65,47392,67,yes,1024
97.05882353,97.05882353,705.1029412,705.1029412,#000000,legacy,legacy,legacy,0,congruent,uniform,1,undefined,1,s,0,0,0,67,67,0,0,0,67,67,0,67,0,67,NA,67,67,NA,9/25/2021 19:37,1500,The main experiment item,yes,Lab21TestFlankerTask.osexp,C:\Users\mmcel\OneDrive\GRAD SCHOOL\fall 2021\Advanced Quant,no,mono,no,18,no,#ffffff,no,yes,768,legacy,67,67,C:/Users/mmcel/OneDrive/GRAD SCHOOL/fall 2021/Advanced Quant/MM-Subject-2.csv,legacy,Lentiform Loewenfeld,3.3.9,0,s,NA,s,NA,NA,s,555,NA,26649,NA,NA,555,NA,NA,2,legacy,1024,2,48000,-16,experiment,SSSSS,2,even,29194,NA,NA,161166,160067,2544,NA,NA,161164,161270,NA,90255,2541,NA,NA,161271,161827,NA,Lab 2.1 Test Flanker Task,66,47947,68,yes,1024
97.10144928,97.10144928,703.1014493,703.1014493,#000000,legacy,legacy,legacy,0,congruent,uniform,1,undefined,1,h,0,0,0,68,68,0,0,0,68,68,0,68,0,68,NA,68,68,NA,9/25/2021 19:37,1500,The main experiment item,yes,Lab21TestFlankerTask.osexp,C:\Users\mmcel\OneDrive\GRAD SCHOOL\fall 2021\Advanced Quant,no,mono,no,18,no,#ffffff,no,yes,768,legacy,68,68,C:/Users/mmcel/OneDrive/GRAD SCHOOL/fall 2021/Advanced Quant/MM-Subject-2.csv,legacy,Lentiform Loewenfeld,3.3.9,0,h,NA,s,NA,NA,h,567,NA,26649,NA,NA,567,NA,NA,2,legacy,1024,2,48000,-16,experiment,HHHHH,2,even,29194,NA,NA,162970,161877,2544,NA,NA,162968,163075,NA,90255,2541,NA,NA,163075,163643,NA,Lab 2.1 Test Flanker Task,67,48514,69,yes,1024
97.14285714,97.14285714,700.6142857,700.6142857,#000000,legacy,legacy,legacy,0,incongruent,uniform,1,undefined,1,s,0,0,0,69,69,0,0,0,69,69,0,69,0,69,NA,69,69,NA,9/25/2021 19:37,1500,The main experiment item,yes,Lab21TestFlankerTask.osexp,C:\Users\mmcel\OneDrive\GRAD SCHOOL\fall 2021\Advanced Quant,no,mono,no,18,no,#ffffff,no,yes,768,legacy,69,69,C:/Users/mmcel/OneDrive/GRAD SCHOOL/fall 2021/Advanced Quant/MM-Subject-2.csv,legacy,Lentiform Loewenfeld,3.3.9,0,s,NA,s,NA,NA,s,529,NA,26649,NA,NA,529,NA,NA,2,legacy,1024,2,48000,-16,experiment,HHSHH,2,even,29194,NA,NA,164792,163705,2544,NA,NA,164790,164896,NA,90255,2541,NA,NA,164896,165426,NA,Lab 2.1 Test Flanker Task,68,49043,70,yes,1024
97.18309859,97.18309859,698.0985915,698.0985915,#000000,legacy,legacy,legacy,0,congruent,uniform,1,undefined,1,s,0,0,0,70,70,0,0,0,70,70,0,70,0,70,NA,70,70,NA,9/25/2021 19:37,1500,The main experiment item,yes,Lab21TestFlankerTask.osexp,C:\Users\mmcel\OneDrive\GRAD SCHOOL\fall 2021\Advanced Quant,no,mono,no,18,no,#ffffff,no,yes,768,legacy,70,70,C:/Users/mmcel/OneDrive/GRAD SCHOOL/fall 2021/Advanced Quant/MM-Subject-2.csv,legacy,Lentiform Loewenfeld,3.3.9,0,s,NA,s,NA,NA,s,522,NA,26649,NA,NA,522,NA,NA,2,legacy,1024,2,48000,-16,experiment,SSSSS,2,even,29194,NA,NA,166570,165478,2544,NA,NA,166568,166675,NA,90255,2541,NA,NA,166676,167199,NA,Lab 2.1 Test Flanker Task,69,49565,71,yes,1024
97.22222222,97.22222222,693.8194444,693.8194444,#000000,legacy,legacy,legacy,0,congruent,uniform,1,undefined,1,h,0,0,0,71,71,0,0,0,71,71,0,71,0,71,NA,71,71,NA,9/25/2021 19:37,1500,The main experiment item,yes,Lab21TestFlankerTask.osexp,C:\Users\mmcel\OneDrive\GRAD SCHOOL\fall 2021\Advanced Quant,no,mono,no,18,no,#ffffff,no,yes,768,legacy,71,71,C:/Users/mmcel/OneDrive/GRAD SCHOOL/fall 2021/Advanced Quant/MM-Subject-2.csv,legacy,Lentiform Loewenfeld,3.3.9,0,h,NA,s,NA,NA,h,390,NA,26649,NA,NA,390,NA,NA,2,legacy,1024,2,48000,-16,experiment,HHHHH,2,even,29194,NA,NA,168366,167265,2544,NA,NA,168364,168470,NA,90255,2541,NA,NA,168470,168861,NA,Lab 2.1 Test Flanker Task,70,49955,72,yes,1024
97.26027397,97.26027397,690.8493151,690.8493151,#000000,legacy,legacy,legacy,0,congruent,uniform,1,undefined,1,s,0,0,0,72,72,0,0,0,72,72,0,72,0,72,NA,72,72,NA,9/25/2021 19:37,1500,The main experiment item,yes,Lab21TestFlankerTask.osexp,C:\Users\mmcel\OneDrive\GRAD SCHOOL\fall 2021\Advanced Quant,no,mono,no,18,no,#ffffff,no,yes,768,legacy,72,72,C:/Users/mmcel/OneDrive/GRAD SCHOOL/fall 2021/Advanced Quant/MM-Subject-2.csv,legacy,Lentiform Loewenfeld,3.3.9,0,s,NA,s,NA,NA,s,477,NA,26649,NA,NA,477,NA,NA,2,legacy,1024,2,48000,-16,experiment,SSSSS,2,even,29194,NA,NA,170011,168914,2544,NA,NA,170009,170117,NA,90255,2541,NA,NA,170117,170595,NA,Lab 2.1 Test Flanker Task,71,50432,73,yes,1024
95.94594595,95.94594595,688.2027027,688.2027027,#000000,legacy,legacy,legacy,0,incongruent,uniform,0,undefined,0,h,0,0,0,73,73,0,0,0,73,73,0,73,0,73,NA,73,73,NA,9/25/2021 19:37,1500,The main experiment item,yes,Lab21TestFlankerTask.osexp,C:\Users\mmcel\OneDrive\GRAD SCHOOL\fall 2021\Advanced Quant,no,mono,no,18,no,#ffffff,no,yes,768,legacy,73,73,C:/Users/mmcel/OneDrive/GRAD SCHOOL/fall 2021/Advanced Quant/MM-Subject-2.csv,legacy,Lentiform Loewenfeld,3.3.9,0,s,NA,s,NA,NA,s,495,NA,26649,NA,NA,495,NA,NA,2,legacy,1024,2,48000,-16,experiment,SSHSS,2,even,29194,NA,NA,171724,170621,2544,NA,NA,171721,171828,NA,90255,2541,NA,NA,171828,172324,NA,Lab 2.1 Test Flanker Task,71,50927,74,yes,1024
96,96,687.64,687.64,#000000,legacy,legacy,legacy,0,congruent,uniform,1,undefined,1,s,0,0,0,74,74,0,0,0,74,74,0,74,0,74,NA,74,74,NA,9/25/2021 19:37,1500,The main experiment item,yes,Lab21TestFlankerTask.osexp,C:\Users\mmcel\OneDrive\GRAD SCHOOL\fall 2021\Advanced Quant,no,mono,no,18,no,#ffffff,no,yes,768,legacy,74,74,C:/Users/mmcel/OneDrive/GRAD SCHOOL/fall 2021/Advanced Quant/MM-Subject-2.csv,legacy,Lentiform Loewenfeld,3.3.9,0,s,NA,s,NA,NA,s,646,NA,26649,NA,NA,646,NA,NA,2,legacy,1024,2,48000,-16,experiment,SSSSS,2,even,29194,NA,NA,173977,172884,2544,NA,NA,173974,174081,NA,172378,2541,NA,NA,174081,174728,NA,Lab 2.1 Test Flanker Task,72,51573,75,yes,1024
96.05263158,96.05263158,684.0526316,684.0526316,#000000,legacy,legacy,legacy,0,congruent,uniform,1,undefined,1,h,0,0,0,75,75,0,0,0,75,75,0,75,0,75,NA,75,75,NA,9/25/2021 19:37,1500,The main experiment item,yes,Lab21TestFlankerTask.osexp,C:\Users\mmcel\OneDrive\GRAD SCHOOL\fall 2021\Advanced Quant,no,mono,no,18,no,#ffffff,no,yes,768,legacy,75,75,C:/Users/mmcel/OneDrive/GRAD SCHOOL/fall 2021/Advanced Quant/MM-Subject-2.csv,legacy,Lentiform Loewenfeld,3.3.9,0,h,NA,s,NA,NA,h,415,NA,26649,NA,NA,415,NA,NA,2,legacy,1024,2,48000,-16,experiment,HHHHH,2,even,29194,NA,NA,175843,174755,2544,NA,NA,175840,175946,NA,172378,2541,NA,NA,175947,176363,NA,Lab 2.1 Test Flanker Task,73,51988,76,yes,1024
94.80519481,94.80519481,681.1558442,681.1558442,#000000,legacy,legacy,legacy,0,incongruent,uniform,0,undefined,0,h,0,0,0,76,76,0,0,0,76,76,0,76,0,76,NA,76,76,NA,9/25/2021 19:37,1500,The main experiment item,yes,Lab21TestFlankerTask.osexp,C:\Users\mmcel\OneDrive\GRAD SCHOOL\fall 2021\Advanced Quant,no,mono,no,18,no,#ffffff,no,yes,768,legacy,76,76,C:/Users/mmcel/OneDrive/GRAD SCHOOL/fall 2021/Advanced Quant/MM-Subject-2.csv,legacy,Lentiform Loewenfeld,3.3.9,0,s,NA,s,NA,NA,s,461,NA,26649,NA,NA,461,NA,NA,2,legacy,1024,2,48000,-16,experiment,SSHSS,2,even,29194,NA,NA,177517,176424,2544,NA,NA,177514,177619,NA,172378,2541,NA,NA,177619,178081,NA,Lab 2.1 Test Flanker Task,73,52449,77,yes,1024
94.87179487,94.87179487,679.2820513,679.2820513,#000000,legacy,legacy,legacy,0,congruent,uniform,1,undefined,1,s,0,0,0,77,77,0,0,0,77,77,0,77,0,77,NA,77,77,NA,9/25/2021 19:37,1500,The main experiment item,yes,Lab21TestFlankerTask.osexp,C:\Users\mmcel\OneDrive\GRAD SCHOOL\fall 2021\Advanced Quant,no,mono,no,18,no,#ffffff,no,yes,768,legacy,77,77,C:/Users/mmcel/OneDrive/GRAD SCHOOL/fall 2021/Advanced Quant/MM-Subject-2.csv,legacy,Lentiform Loewenfeld,3.3.9,0,s,NA,s,NA,NA,s,535,NA,26649,NA,NA,535,NA,NA,2,legacy,1024,2,48000,-16,experiment,SSSSS,2,even,29194,NA,NA,179761,178664,2544,NA,NA,179759,179866,NA,178159,2541,NA,NA,179866,180402,NA,Lab 2.1 Test Flanker Task,74,52984,78,yes,1024
94.93670886,94.93670886,678.1392405,678.1392405,#000000,legacy,legacy,legacy,0,congruent,uniform,1,undefined,1,s,0,0,0,78,78,0,0,0,78,78,0,78,0,78,NA,78,78,NA,9/25/2021 19:37,1500,The main experiment item,yes,Lab21TestFlankerTask.osexp,C:\Users\mmcel\OneDrive\GRAD SCHOOL\fall 2021\Advanced Quant,no,mono,no,18,no,#ffffff,no,yes,768,legacy,78,78,C:/Users/mmcel/OneDrive/GRAD SCHOOL/fall 2021/Advanced Quant/MM-Subject-2.csv,legacy,Lentiform Loewenfeld,3.3.9,0,s,NA,s,NA,NA,s,589,NA,26649,NA,NA,589,NA,NA,2,legacy,1024,2,48000,-16,experiment,SSSSS,2,even,29194,NA,NA,181545,180459,2544,NA,NA,181543,181650,NA,178159,2541,NA,NA,181650,182240,NA,Lab 2.1 Test Flanker Task,75,53573,79,yes,1024
95,95,679.675,679.675,#000000,legacy,legacy,legacy,0,incongruent,uniform,1,undefined,1,h,0,0,0,79,79,0,0,0,79,79,0,79,0,79,NA,79,79,NA,9/25/2021 19:37,1500,The main experiment item,yes,Lab21TestFlankerTask.osexp,C:\Users\mmcel\OneDrive\GRAD SCHOOL\fall 2021\Advanced Quant,no,mono,no,18,no,#ffffff,no,yes,768,legacy,79,79,C:/Users/mmcel/OneDrive/GRAD SCHOOL/fall 2021/Advanced Quant/MM-Subject-2.csv,legacy,Lentiform Loewenfeld,3.3.9,0,h,NA,s,NA,NA,h,801,NA,26649,NA,NA,801,NA,NA,2,legacy,1024,2,48000,-16,experiment,SSHSS,2,even,29194,NA,NA,183391,182292,2544,NA,NA,183389,183494,NA,178159,2541,NA,NA,183494,184296,NA,Lab 2.1 Test Flanker Task,76,54374,80,yes,1024
95.0617284,95.0617284,679.3209877,679.3209877,#000000,legacy,legacy,legacy,0,incongruent,uniform,1,undefined,1,h,0,0,0,80,80,0,0,0,80,80,0,80,0,80,NA,80,80,NA,9/25/2021 19:37,600,The main experiment item,yes,Lab21TestFlankerTask.osexp,C:\Users\mmcel\OneDrive\GRAD SCHOOL\fall 2021\Advanced Quant,no,mono,no,18,no,#ffffff,no,yes,768,legacy,0,79,C:/Users/mmcel/OneDrive/GRAD SCHOOL/fall 2021/Advanced Quant/MM-Subject-2.csv,legacy,Lentiform Loewenfeld,3.3.9,0,h,NA,s,s,NA,h,651,NA,26649,10923,NA,651,NA,NA,2,legacy,1024,2,48000,-16,experiment,SSHSS,2,even,29194,196296,NA,196367,184344,2544,185372,NA,196365,196471,NA,178159,2541,NA,NA,196472,197124,NA,Lab 2.1 Test Flanker Task,77,55025,81,yes,1024
95.12195122,95.12195122,676.9756098,676.9756098,#000000,legacy,legacy,legacy,0,congruent,uniform,1,undefined,1,h,0,0,0,81,81,0,0,0,81,81,0,81,0,81,NA,81,81,NA,9/25/2021 19:37,600,The main experiment item,yes,Lab21TestFlankerTask.osexp,C:\Users\mmcel\OneDrive\GRAD SCHOOL\fall 2021\Advanced Quant,no,mono,no,18,no,#ffffff,no,yes,768,legacy,1,79,C:/Users/mmcel/OneDrive/GRAD SCHOOL/fall 2021/Advanced Quant/MM-Subject-2.csv,legacy,Lentiform Loewenfeld,3.3.9,0,h,NA,s,s,NA,h,487,NA,26649,10923,NA,487,NA,NA,2,legacy,1024,2,48000,-16,experiment,HHHHH,2,even,29194,196296,NA,198776,197663,2544,185372,NA,198774,198881,NA,178159,2541,197158,NA,198881,199369,NA,Lab 2.1 Test Flanker Task,78,55512,82,yes,1024
95.18072289,95.18072289,674.4939759,674.4939759,#000000,legacy,legacy,legacy,0,congruent,uniform,1,undefined,1,s,0,0,0,82,82,0,0,0,82,82,0,82,0,82,NA,82,82,NA,9/25/2021 19:37,600,The main experiment item,yes,Lab21TestFlankerTask.osexp,C:\Users\mmcel\OneDrive\GRAD SCHOOL\fall 2021\Advanced Quant,no,mono,no,18,no,#ffffff,no,yes,768,legacy,2,79,C:/Users/mmcel/OneDrive/GRAD SCHOOL/fall 2021/Advanced Quant/MM-Subject-2.csv,legacy,Lentiform Loewenfeld,3.3.9,0,s,NA,s,s,NA,s,471,NA,26649,10923,NA,471,NA,NA,2,legacy,1024,2,48000,-16,experiment,SSSSS,2,even,29194,196296,NA,200537,199447,2544,185372,NA,200534,200642,NA,178159,2541,197158,NA,200642,201114,NA,Lab 2.1 Test Flanker Task,79,55983,83,yes,1024
95.23809524,95.23809524,672.3452381,672.3452381,#000000,legacy,legacy,legacy,0,congruent,uniform,1,undefined,1,s,0,0,0,83,83,0,0,0,83,83,0,83,0,83,NA,83,83,NA,9/25/2021 19:37,600,The main experiment item,yes,Lab21TestFlankerTask.osexp,C:\Users\mmcel\OneDrive\GRAD SCHOOL\fall 2021\Advanced Quant,no,mono,no,18,no,#ffffff,no,yes,768,legacy,3,79,C:/Users/mmcel/OneDrive/GRAD SCHOOL/fall 2021/Advanced Quant/MM-Subject-2.csv,legacy,Lentiform Loewenfeld,3.3.9,0,s,NA,s,s,NA,s,494,NA,26649,10923,NA,494,NA,NA,2,legacy,1024,2,48000,-16,experiment,SSSSS,2,even,29194,196296,NA,202263,201166,2544,185372,NA,202261,202368,NA,178159,2541,197158,NA,202369,202864,NA,Lab 2.1 Test Flanker Task,80,56477,84,yes,1024
95.29411765,95.29411765,670.0823529,670.0823529,#000000,legacy,legacy,legacy,0,incongruent,uniform,1,undefined,1,h,0,0,0,84,84,0,0,0,84,84,0,84,0,84,NA,84,84,NA,9/25/2021 19:37,600,The main experiment item,yes,Lab21TestFlankerTask.osexp,C:\Users\mmcel\OneDrive\GRAD SCHOOL\fall 2021\Advanced Quant,no,mono,no,18,no,#ffffff,no,yes,768,legacy,4,79,C:/Users/mmcel/OneDrive/GRAD SCHOOL/fall 2021/Advanced Quant/MM-Subject-2.csv,legacy,Lentiform Loewenfeld,3.3.9,0,h,NA,s,s,NA,h,480,NA,26649,10923,NA,480,NA,NA,2,legacy,1024,2,48000,-16,experiment,SSHSS,2,even,29194,196296,NA,203986,202901,2544,185372,NA,203984,204091,NA,178159,2541,197158,NA,204091,204571,NA,Lab 2.1 Test Flanker Task,81,56957,85,yes,1024
95.34883721,95.34883721,667.4883721,667.4883721,#000000,legacy,legacy,legacy,0,congruent,uniform,1,undefined,1,s,0,0,0,85,85,0,0,0,85,85,0,85,0,85,NA,85,85,NA,9/25/2021 19:37,600,The main experiment item,yes,Lab21TestFlankerTask.osexp,C:\Users\mmcel\OneDrive\GRAD SCHOOL\fall 2021\Advanced Quant,no,mono,no,18,no,#ffffff,no,yes,768,legacy,5,79,C:/Users/mmcel/OneDrive/GRAD SCHOOL/fall 2021/Advanced Quant/MM-Subject-2.csv,legacy,Lentiform Loewenfeld,3.3.9,0,s,NA,s,s,NA,s,447,NA,26649,10923,NA,447,NA,NA,2,legacy,1024,2,48000,-16,experiment,SSSSS,2,even,29194,196296,NA,205715,204623,2544,185372,NA,205712,205819,NA,178159,2541,197158,NA,205819,206267,NA,Lab 2.1 Test Flanker Task,82,57404,86,yes,1024
95.40229885,95.40229885,665.4712644,665.4712644,#000000,legacy,legacy,legacy,0,congruent,uniform,1,undefined,1,s,0,0,0,86,86,0,0,0,86,86,0,86,0,86,NA,86,86,NA,9/25/2021 19:37,600,The main experiment item,yes,Lab21TestFlankerTask.osexp,C:\Users\mmcel\OneDrive\GRAD SCHOOL\fall 2021\Advanced Quant,no,mono,no,18,no,#ffffff,no,yes,768,legacy,6,79,C:/Users/mmcel/OneDrive/GRAD SCHOOL/fall 2021/Advanced Quant/MM-Subject-2.csv,legacy,Lentiform Loewenfeld,3.3.9,0,s,NA,s,s,NA,s,492,NA,26649,10923,NA,492,NA,NA,2,legacy,1024,2,48000,-16,experiment,SSSSS,2,even,29194,196296,NA,207391,206290,2544,185372,NA,207389,207496,NA,178159,2541,197158,NA,207496,207989,NA,Lab 2.1 Test Flanker Task,83,57896,87,yes,1024
95.45454545,95.45454545,662.4886364,662.4886364,#000000,legacy,legacy,legacy,0,congruent,uniform,1,undefined,1,h,0,0,0,87,87,0,0,0,87,87,0,87,0,87,NA,87,87,NA,9/25/2021 19:37,600,The main experiment item,yes,Lab21TestFlankerTask.osexp,C:\Users\mmcel\OneDrive\GRAD SCHOOL\fall 2021\Advanced Quant,no,mono,no,18,no,#ffffff,no,yes,768,legacy,7,79,C:/Users/mmcel/OneDrive/GRAD SCHOOL/fall 2021/Advanced Quant/MM-Subject-2.csv,legacy,Lentiform Loewenfeld,3.3.9,0,h,NA,s,s,NA,h,403,NA,26649,10923,NA,403,NA,NA,2,legacy,1024,2,48000,-16,experiment,HHHHH,2,even,29194,196296,NA,209132,208033,2544,185372,NA,209130,209237,NA,178159,2541,197158,NA,209237,209641,NA,Lab 2.1 Test Flanker Task,84,58299,88,yes,1024
95.50561798,95.50561798,662.0786517,662.0786517,#000000,legacy,legacy,legacy,0,incongruent,uniform,1,undefined,1,h,0,0,0,88,88,0,0,0,88,88,0,88,0,88,NA,88,88,NA,9/25/2021 19:37,600,The main experiment item,yes,Lab21TestFlankerTask.osexp,C:\Users\mmcel\OneDrive\GRAD SCHOOL\fall 2021\Advanced Quant,no,mono,no,18,no,#ffffff,no,yes,768,legacy,8,79,C:/Users/mmcel/OneDrive/GRAD SCHOOL/fall 2021/Advanced Quant/MM-Subject-2.csv,legacy,Lentiform Loewenfeld,3.3.9,0,h,NA,s,s,NA,h,626,NA,26649,10923,NA,626,NA,NA,2,legacy,1024,2,48000,-16,experiment,SSHSS,2,even,29194,196296,NA,210784,209690,2544,185372,NA,210782,210889,NA,178159,2541,197158,NA,210889,211516,NA,Lab 2.1 Test Flanker Task,85,58925,89,yes,1024
95.55555556,95.55555556,660.8444444,660.8444444,#000000,legacy,legacy,legacy,0,incongruent,uniform,1,undefined,1,s,0,0,0,89,89,0,0,0,89,89,0,89,0,89,NA,89,89,NA,9/25/2021 19:37,600,The main experiment item,yes,Lab21TestFlankerTask.osexp,C:\Users\mmcel\OneDrive\GRAD SCHOOL\fall 2021\Advanced Quant,no,mono,no,18,no,#ffffff,no,yes,768,legacy,9,79,C:/Users/mmcel/OneDrive/GRAD SCHOOL/fall 2021/Advanced Quant/MM-Subject-2.csv,legacy,Lentiform Loewenfeld,3.3.9,0,s,NA,s,s,NA,s,551,NA,26649,10923,NA,551,NA,NA,2,legacy,1024,2,48000,-16,experiment,HHSHH,2,even,29194,196296,NA,213164,212072,2544,185372,NA,213162,213269,NA,178159,2541,211567,NA,213269,213821,NA,Lab 2.1 Test Flanker Task,86,59476,90,yes,1024
95.6043956,95.6043956,657.3186813,657.3186813,#000000,legacy,legacy,legacy,0,congruent,uniform,1,undefined,1,h,0,0,0,90,90,0,0,0,90,90,0,90,0,90,NA,90,90,NA,9/25/2021 19:37,600,The main experiment item,yes,Lab21TestFlankerTask.osexp,C:\Users\mmcel\OneDrive\GRAD SCHOOL\fall 2021\Advanced Quant,no,mono,no,18,no,#ffffff,no,yes,768,legacy,10,79,C:/Users/mmcel/OneDrive/GRAD SCHOOL/fall 2021/Advanced Quant/MM-Subject-2.csv,legacy,Lentiform Loewenfeld,3.3.9,0,h,NA,s,s,NA,h,340,NA,26649,10923,NA,340,NA,NA,2,legacy,1024,2,48000,-16,experiment,HHHHH,2,even,29194,196296,NA,214960,213872,2544,185372,NA,214958,215065,NA,178159,2541,211567,NA,215065,215406,NA,Lab 2.1 Test Flanker Task,87,59816,91,yes,1024
95.65217391,95.65217391,657.7282609,657.7282609,#000000,legacy,legacy,legacy,0,incongruent,uniform,1,undefined,1,s,0,0,0,91,91,0,0,0,91,91,0,91,0,91,NA,91,91,NA,9/25/2021 19:37,600,The main experiment item,yes,Lab21TestFlankerTask.osexp,C:\Users\mmcel\OneDrive\GRAD SCHOOL\fall 2021\Advanced Quant,no,mono,no,18,no,#ffffff,no,yes,768,legacy,11,79,C:/Users/mmcel/OneDrive/GRAD SCHOOL/fall 2021/Advanced Quant/MM-Subject-2.csv,legacy,Lentiform Loewenfeld,3.3.9,0,s,NA,s,s,NA,s,695,NA,26649,10923,NA,695,NA,NA,2,legacy,1024,2,48000,-16,experiment,HHSHH,2,even,29194,196296,NA,216522,215435,2544,185372,NA,216519,216625,NA,178159,2541,211567,NA,216625,217321,NA,Lab 2.1 Test Flanker Task,88,60511,92,yes,1024
94.62365591,94.62365591,655.3655914,655.3655914,#000000,legacy,legacy,legacy,0,incongruent,uniform,0,undefined,0,s,0,0,0,92,92,0,0,0,92,92,0,92,0,92,NA,92,92,NA,9/25/2021 19:37,600,The main experiment item,yes,Lab21TestFlankerTask.osexp,C:\Users\mmcel\OneDrive\GRAD SCHOOL\fall 2021\Advanced Quant,no,mono,no,18,no,#ffffff,no,yes,768,legacy,12,79,C:/Users/mmcel/OneDrive/GRAD SCHOOL/fall 2021/Advanced Quant/MM-Subject-2.csv,legacy,Lentiform Loewenfeld,3.3.9,0,h,NA,s,s,NA,h,438,NA,26649,10923,NA,438,NA,NA,2,legacy,1024,2,48000,-16,experiment,HHSHH,2,even,29194,196296,NA,218972,217873,2544,185372,NA,218970,219076,NA,178159,2541,217368,NA,219076,219515,NA,Lab 2.1 Test Flanker Task,88,60949,93,yes,1024
94.68085106,94.68085106,654.2340426,654.2340426,#000000,legacy,legacy,legacy,0,incongruent,uniform,1,undefined,1,s,0,0,0,93,93,0,0,0,93,93,0,93,0,93,NA,93,93,NA,9/25/2021 19:37,600,The main experiment item,yes,Lab21TestFlankerTask.osexp,C:\Users\mmcel\OneDrive\GRAD SCHOOL\fall 2021\Advanced Quant,no,mono,no,18,no,#ffffff,no,yes,768,legacy,13,79,C:/Users/mmcel/OneDrive/GRAD SCHOOL/fall 2021/Advanced Quant/MM-Subject-2.csv,legacy,Lentiform Loewenfeld,3.3.9,0,s,NA,s,s,NA,s,549,NA,26649,10923,NA,549,NA,NA,2,legacy,1024,2,48000,-16,experiment,HHSHH,2,even,29194,196296,NA,221166,220073,2544,185372,NA,221164,221271,NA,219568,2541,217368,NA,221271,221821,NA,Lab 2.1 Test Flanker Task,89,61498,94,yes,1024
94.73684211,94.73684211,652.0526316,652.0526316,#000000,legacy,legacy,legacy,0,congruent,uniform,1,undefined,1,h,0,0,0,94,94,0,0,0,94,94,0,94,0,94,NA,94,94,NA,9/25/2021 19:37,600,The main experiment item,yes,Lab21TestFlankerTask.osexp,C:\Users\mmcel\OneDrive\GRAD SCHOOL\fall 2021\Advanced Quant,no,mono,no,18,no,#ffffff,no,yes,768,legacy,14,79,C:/Users/mmcel/OneDrive/GRAD SCHOOL/fall 2021/Advanced Quant/MM-Subject-2.csv,legacy,Lentiform Loewenfeld,3.3.9,0,h,NA,s,s,NA,h,447,NA,26649,10923,NA,447,NA,NA,2,legacy,1024,2,48000,-16,experiment,HHHHH,2,even,29194,196296,NA,222963,221867,2544,185372,NA,222961,223068,NA,219568,2541,217368,NA,223068,223516,NA,Lab 2.1 Test Flanker Task,90,61945,95,yes,1024
94.79166667,94.79166667,650.40625,650.40625,#000000,legacy,legacy,legacy,0,incongruent,uniform,1,undefined,1,h,0,0,0,95,95,0,0,0,95,95,0,95,0,95,NA,95,95,NA,9/25/2021 19:37,600,The main experiment item,yes,Lab21TestFlankerTask.osexp,C:\Users\mmcel\OneDrive\GRAD SCHOOL\fall 2021\Advanced Quant,no,mono,no,18,no,#ffffff,no,yes,768,legacy,15,79,C:/Users/mmcel/OneDrive/GRAD SCHOOL/fall 2021/Advanced Quant/MM-Subject-2.csv,legacy,Lentiform Loewenfeld,3.3.9,0,h,NA,s,s,NA,h,494,NA,26649,10923,NA,494,NA,NA,2,legacy,1024,2,48000,-16,experiment,SSHSS,2,even,29194,196296,NA,224657,223568,2544,185372,NA,224654,224761,NA,219568,2541,217368,NA,224762,225257,NA,Lab 2.1 Test Flanker Task,91,62439,96,yes,1024
94.84536082,94.84536082,649.1237113,649.1237113,#000000,legacy,legacy,legacy,0,incongruent,uniform,1,undefined,1,h,0,0,0,96,96,0,0,0,96,96,0,96,0,96,NA,96,96,NA,9/25/2021 19:37,600,The main experiment item,yes,Lab21TestFlankerTask.osexp,C:\Users\mmcel\OneDrive\GRAD SCHOOL\fall 2021\Advanced Quant,no,mono,no,18,no,#ffffff,no,yes,768,legacy,16,79,C:/Users/mmcel/OneDrive/GRAD SCHOOL/fall 2021/Advanced Quant/MM-Subject-2.csv,legacy,Lentiform Loewenfeld,3.3.9,0,h,NA,s,s,NA,h,526,NA,26649,10923,NA,526,NA,NA,2,legacy,1024,2,48000,-16,experiment,SSHSS,2,even,29194,196296,NA,226413,225316,2544,185372,NA,226411,226518,NA,219568,2541,217368,NA,226518,227045,NA,Lab 2.1 Test Flanker Task,92,62965,97,yes,1024
94.89795918,94.89795918,647.8673469,647.8673469,#000000,legacy,legacy,legacy,0,incongruent,uniform,1,undefined,1,h,0,0,0,97,97,0,0,0,97,97,0,97,0,97,NA,97,97,NA,9/25/2021 19:37,600,The main experiment item,yes,Lab21TestFlankerTask.osexp,C:\Users\mmcel\OneDrive\GRAD SCHOOL\fall 2021\Advanced Quant,no,mono,no,18,no,#ffffff,no,yes,768,legacy,17,79,C:/Users/mmcel/OneDrive/GRAD SCHOOL/fall 2021/Advanced Quant/MM-Subject-2.csv,legacy,Lentiform Loewenfeld,3.3.9,0,h,NA,s,s,NA,h,526,NA,26649,10923,NA,526,NA,NA,2,legacy,1024,2,48000,-16,experiment,SSHSS,2,even,29194,196296,NA,228184,227091,2544,185372,NA,228182,228289,NA,219568,2541,217368,NA,228289,228816,NA,Lab 2.1 Test Flanker Task,93,63491,98,yes,1024
93.93939394,93.93939394,647.7878788,647.7878788,#000000,legacy,legacy,legacy,0,congruent,uniform,0,undefined,0,h,0,0,0,98,98,0,0,0,98,98,0,98,0,98,NA,98,98,NA,9/25/2021 19:37,600,The main experiment item,yes,Lab21TestFlankerTask.osexp,C:\Users\mmcel\OneDrive\GRAD SCHOOL\fall 2021\Advanced Quant,no,mono,no,18,no,#ffffff,no,yes,768,legacy,18,79,C:/Users/mmcel/OneDrive/GRAD SCHOOL/fall 2021/Advanced Quant/MM-Subject-2.csv,legacy,Lentiform Loewenfeld,3.3.9,0,s,NA,s,s,NA,s,640,NA,26649,10923,NA,640,NA,NA,2,legacy,1024,2,48000,-16,experiment,HHHHH,2,even,29194,196296,NA,229964,228872,2544,185372,NA,229962,230068,NA,219568,2541,217368,NA,230069,230710,NA,Lab 2.1 Test Flanker Task,93,64131,99,yes,1024
94,94,646.34,646.34,#000000,legacy,legacy,legacy,0,congruent,uniform,1,undefined,1,h,0,0,0,99,99,0,0,0,99,99,0,99,0,99,NA,99,99,NA,9/25/2021 19:37,600,The main experiment item,yes,Lab21TestFlankerTask.osexp,C:\Users\mmcel\OneDrive\GRAD SCHOOL\fall 2021\Advanced Quant,no,mono,no,18,no,#ffffff,no,yes,768,legacy,19,79,C:/Users/mmcel/OneDrive/GRAD SCHOOL/fall 2021/Advanced Quant/MM-Subject-2.csv,legacy,Lentiform Loewenfeld,3.3.9,0,h,NA,s,s,NA,h,503,NA,26649,10923,NA,503,NA,NA,2,legacy,1024,2,48000,-16,experiment,HHHHH,2,even,29194,196296,NA,232865,231772,2544,185372,NA,232863,232969,NA,230761,2541,231267,NA,232969,233473,NA,Lab 2.1 Test Flanker Task,94,64634,100,yes,1024
94.05940594,94.05940594,644.1089109,644.1089109,#000000,legacy,legacy,legacy,0,congruent,uniform,1,undefined,1,h,0,0,0,100,100,0,0,0,100,100,0,100,0,100,NA,100,100,NA,9/25/2021 19:37,600,The main experiment item,yes,Lab21TestFlankerTask.osexp,C:\Users\mmcel\OneDrive\GRAD SCHOOL\fall 2021\Advanced Quant,no,mono,no,18,no,#ffffff,no,yes,768,legacy,20,79,C:/Users/mmcel/OneDrive/GRAD SCHOOL/fall 2021/Advanced Quant/MM-Subject-2.csv,legacy,Lentiform Loewenfeld,3.3.9,0,h,NA,s,s,NA,h,421,NA,26649,10923,NA,421,NA,NA,2,legacy,1024,2,48000,-16,experiment,HHHHH,2,even,29194,196296,NA,234626,233528,2544,185372,NA,234624,234731,NA,230761,2541,231267,NA,234731,235153,NA,Lab 2.1 Test Flanker Task,95,65055,101,yes,1024
94.11764706,94.11764706,642.8823529,642.8823529,#000000,legacy,legacy,legacy,0,congruent,uniform,1,undefined,1,s,0,0,0,101,101,0,0,0,101,101,0,101,0,101,NA,101,101,NA,9/25/2021 19:37,600,The main experiment item,yes,Lab21TestFlankerTask.osexp,C:\Users\mmcel\OneDrive\GRAD SCHOOL\fall 2021\Advanced Quant,no,mono,no,18,no,#ffffff,no,yes,768,legacy,21,79,C:/Users/mmcel/OneDrive/GRAD SCHOOL/fall 2021/Advanced Quant/MM-Subject-2.csv,legacy,Lentiform Loewenfeld,3.3.9,0,s,NA,s,s,NA,s,519,NA,26649,10923,NA,519,NA,NA,2,legacy,1024,2,48000,-16,experiment,SSSSS,2,even,29194,196296,NA,236284,235190,2544,185372,NA,236282,236389,NA,230761,2541,231267,NA,236389,236909,NA,Lab 2.1 Test Flanker Task,96,65574,102,yes,1024
94.17475728,94.17475728,640.368932,640.368932,#000000,legacy,legacy,legacy,0,congruent,uniform,1,undefined,1,s,0,0,0,102,102,0,0,0,102,102,0,102,0,102,NA,102,102,NA,9/25/2021 19:37,600,The main experiment item,yes,Lab21TestFlankerTask.osexp,C:\Users\mmcel\OneDrive\GRAD SCHOOL\fall 2021\Advanced Quant,no,mono,no,18,no,#ffffff,no,yes,768,legacy,22,79,C:/Users/mmcel/OneDrive/GRAD SCHOOL/fall 2021/Advanced Quant/MM-Subject-2.csv,legacy,Lentiform Loewenfeld,3.3.9,0,s,NA,s,s,NA,s,384,NA,26649,10923,NA,384,NA,NA,2,legacy,1024,2,48000,-16,experiment,SSSSS,2,even,29194,196296,NA,238039,236957,2544,185372,NA,238037,238142,NA,230761,2541,231267,NA,238142,238527,NA,Lab 2.1 Test Flanker Task,97,65958,103,yes,1024
94.23076923,94.23076923,638.0288462,638.0288462,#000000,legacy,legacy,legacy,0,congruent,uniform,1,undefined,1,s,0,0,0,103,103,0,0,0,103,103,0,103,0,103,NA,103,103,NA,9/25/2021 19:37,600,The main experiment item,yes,Lab21TestFlankerTask.osexp,C:\Users\mmcel\OneDrive\GRAD SCHOOL\fall 2021\Advanced Quant,no,mono,no,18,no,#ffffff,no,yes,768,legacy,23,79,C:/Users/mmcel/OneDrive/GRAD SCHOOL/fall 2021/Advanced Quant/MM-Subject-2.csv,legacy,Lentiform Loewenfeld,3.3.9,0,s,NA,s,s,NA,s,397,NA,26649,10923,NA,397,NA,NA,2,legacy,1024,2,48000,-16,experiment,SSSSS,2,even,29194,196296,NA,239675,238580,2544,185372,NA,239672,239779,NA,230761,2541,231267,NA,239780,240178,NA,Lab 2.1 Test Flanker Task,98,66355,104,yes,1024
94.28571429,94.28571429,636.2857143,636.2857143,#000000,legacy,legacy,legacy,0,congruent,uniform,1,undefined,1,s,0,0,0,104,104,0,0,0,104,104,0,104,0,104,NA,104,104,NA,9/25/2021 19:37,600,The main experiment item,yes,Lab21TestFlankerTask.osexp,C:\Users\mmcel\OneDrive\GRAD SCHOOL\fall 2021\Advanced Quant,no,mono,no,18,no,#ffffff,no,yes,768,legacy,24,79,C:/Users/mmcel/OneDrive/GRAD SCHOOL/fall 2021/Advanced Quant/MM-Subject-2.csv,legacy,Lentiform Loewenfeld,3.3.9,0,s,NA,s,s,NA,s,455,NA,26649,10923,NA,455,NA,NA,2,legacy,1024,2,48000,-16,experiment,SSSSS,2,even,29194,196296,NA,241309,240224,2544,185372,NA,241306,241414,NA,230761,2541,231267,NA,241414,241870,NA,Lab 2.1 Test Flanker Task,99,66810,105,yes,1024
94.33962264,94.33962264,635.3018868,635.3018868,#000000,legacy,legacy,legacy,0,congruent,uniform,1,undefined,1,s,0,0,0,105,105,0,0,0,105,105,0,105,0,105,NA,105,105,NA,9/25/2021 19:37,600,The main experiment item,yes,Lab21TestFlankerTask.osexp,C:\Users\mmcel\OneDrive\GRAD SCHOOL\fall 2021\Advanced Quant,no,mono,no,18,no,#ffffff,no,yes,768,legacy,25,79,C:/Users/mmcel/OneDrive/GRAD SCHOOL/fall 2021/Advanced Quant/MM-Subject-2.csv,legacy,Lentiform Loewenfeld,3.3.9,0,s,NA,s,s,NA,s,532,NA,26649,10923,NA,532,NA,NA,2,legacy,1024,2,48000,-16,experiment,SSSSS,2,even,29194,196296,NA,243043,241949,2544,185372,NA,243041,243148,NA,230761,2541,231267,NA,243148,243681,NA,Lab 2.1 Test Flanker Task,100,67342,106,yes,1024
94.39252336,94.39252336,633.9439252,633.9439252,#000000,legacy,legacy,legacy,0,incongruent,uniform,1,undefined,1,s,0,0,0,106,106,0,0,0,106,106,0,106,0,106,NA,106,106,NA,9/25/2021 19:37,600,The main experiment item,yes,Lab21TestFlankerTask.osexp,C:\Users\mmcel\OneDrive\GRAD SCHOOL\fall 2021\Advanced Quant,no,mono,no,18,no,#ffffff,no,yes,768,legacy,26,79,C:/Users/mmcel/OneDrive/GRAD SCHOOL/fall 2021/Advanced Quant/MM-Subject-2.csv,legacy,Lentiform Loewenfeld,3.3.9,0,s,NA,s,s,NA,s,490,NA,26649,10923,NA,490,NA,NA,2,legacy,1024,2,48000,-16,experiment,HHSHH,2,even,29194,196296,NA,244837,243739,2544,185372,NA,244834,244941,NA,230761,2541,231267,NA,244941,245432,NA,Lab 2.1 Test Flanker Task,101,67832,107,yes,1024
94.44444444,94.44444444,633.1481481,633.1481481,#000000,legacy,legacy,legacy,0,incongruent,uniform,1,undefined,1,h,0,0,0,107,107,0,0,0,107,107,0,107,0,107,NA,107,107,NA,9/25/2021 19:37,600,The main experiment item,yes,Lab21TestFlankerTask.osexp,C:\Users\mmcel\OneDrive\GRAD SCHOOL\fall 2021\Advanced Quant,no,mono,no,18,no,#ffffff,no,yes,768,legacy,27,79,C:/Users/mmcel/OneDrive/GRAD SCHOOL/fall 2021/Advanced Quant/MM-Subject-2.csv,legacy,Lentiform Loewenfeld,3.3.9,0,h,NA,s,s,NA,h,548,NA,26649,10923,NA,548,NA,NA,2,legacy,1024,2,48000,-16,experiment,SSHSS,2,even,29194,196296,NA,246560,245480,2544,185372,NA,246557,246665,NA,230761,2541,231267,NA,246665,247214,NA,Lab 2.1 Test Flanker Task,102,68380,108,yes,1024
93.57798165,93.57798165,630.733945,630.733945,#000000,legacy,legacy,legacy,0,incongruent,uniform,0,undefined,0,s,0,0,0,108,108,0,0,0,108,108,0,108,0,108,NA,108,108,NA,9/25/2021 19:37,600,The main experiment item,yes,Lab21TestFlankerTask.osexp,C:\Users\mmcel\OneDrive\GRAD SCHOOL\fall 2021\Advanced Quant,no,mono,no,18,no,#ffffff,no,yes,768,legacy,28,79,C:/Users/mmcel/OneDrive/GRAD SCHOOL/fall 2021/Advanced Quant/MM-Subject-2.csv,legacy,Lentiform Loewenfeld,3.3.9,0,h,NA,s,s,NA,h,370,NA,26649,10923,NA,370,NA,NA,2,legacy,1024,2,48000,-16,experiment,HHSHH,2,even,29194,196296,NA,248339,247236,2544,185372,NA,248336,248440,NA,230761,2541,231267,NA,248440,248812,NA,Lab 2.1 Test Flanker Task,102,68750,109,yes,1024
93.63636364,93.63636364,629.5,629.5,#000000,legacy,legacy,legacy,0,congruent,uniform,1,undefined,1,s,0,0,0,109,109,0,0,0,109,109,0,109,0,109,NA,109,109,NA,9/25/2021 19:37,600,The main experiment item,yes,Lab21TestFlankerTask.osexp,C:\Users\mmcel\OneDrive\GRAD SCHOOL\fall 2021\Advanced Quant,no,mono,no,18,no,#ffffff,no,yes,768,legacy,29,79,C:/Users/mmcel/OneDrive/GRAD SCHOOL/fall 2021/Advanced Quant/MM-Subject-2.csv,legacy,Lentiform Loewenfeld,3.3.9,0,s,NA,s,s,NA,s,495,NA,26649,10923,NA,495,NA,NA,2,legacy,1024,2,48000,-16,experiment,SSSSS,2,even,29194,196296,NA,250459,249367,2544,185372,NA,250456,250565,NA,248862,2541,231267,NA,250565,251062,NA,Lab 2.1 Test Flanker Task,103,69245,110,yes,1024
93.69369369,93.69369369,628.8738739,628.8738739,#000000,legacy,legacy,legacy,0,incongruent,uniform,1,undefined,1,s,0,0,0,110,110,0,0,0,110,110,0,110,0,110,NA,110,110,NA,9/25/2021 19:37,600,The main experiment item,yes,Lab21TestFlankerTask.osexp,C:\Users\mmcel\OneDrive\GRAD SCHOOL\fall 2021\Advanced Quant,no,mono,no,18,no,#ffffff,no,yes,768,legacy,30,79,C:/Users/mmcel/OneDrive/GRAD SCHOOL/fall 2021/Advanced Quant/MM-Subject-2.csv,legacy,Lentiform Loewenfeld,3.3.9,0,s,NA,s,s,NA,s,560,NA,26649,10923,NA,560,NA,NA,2,legacy,1024,2,48000,-16,experiment,HHSHH,2,even,29194,196296,NA,252177,251103,2544,185372,NA,252175,252282,NA,248862,2541,231267,NA,252282,252843,NA,Lab 2.1 Test Flanker Task,104,69805,111,yes,1024
93.75,93.75,627.0892857,627.0892857,#000000,legacy,legacy,legacy,0,incongruent,uniform,1,undefined,1,s,0,0,0,111,111,0,0,0,111,111,0,111,0,111,NA,111,111,NA,9/25/2021 19:37,600,The main experiment item,yes,Lab21TestFlankerTask.osexp,C:\Users\mmcel\OneDrive\GRAD SCHOOL\fall 2021\Advanced Quant,no,mono,no,18,no,#ffffff,no,yes,768,legacy,31,79,C:/Users/mmcel/OneDrive/GRAD SCHOOL/fall 2021/Advanced Quant/MM-Subject-2.csv,legacy,Lentiform Loewenfeld,3.3.9,0,s,NA,s,s,NA,s,429,NA,26649,10923,NA,429,NA,NA,2,legacy,1024,2,48000,-16,experiment,HHSHH,2,even,29194,196296,NA,253987,252891,2544,185372,NA,253985,254091,NA,248862,2541,231267,NA,254092,254522,NA,Lab 2.1 Test Flanker Task,105,70234,112,yes,1024
93.80530973,93.80530973,625.0619469,625.0619469,#000000,legacy,legacy,legacy,0,congruent,uniform,1,undefined,1,s,0,0,0,112,112,0,0,0,112,112,0,112,0,112,NA,112,112,NA,9/25/2021 19:37,600,The main experiment item,yes,Lab21TestFlankerTask.osexp,C:\Users\mmcel\OneDrive\GRAD SCHOOL\fall 2021\Advanced Quant,no,mono,no,18,no,#ffffff,no,yes,768,legacy,32,79,C:/Users/mmcel/OneDrive/GRAD SCHOOL/fall 2021/Advanced Quant/MM-Subject-2.csv,legacy,Lentiform Loewenfeld,3.3.9,0,s,NA,s,s,NA,s,398,NA,26649,10923,NA,398,NA,NA,2,legacy,1024,2,48000,-16,experiment,SSSSS,2,even,29194,196296,NA,255663,254569,2544,185372,NA,255661,255768,NA,248862,2541,231267,NA,255768,256167,NA,Lab 2.1 Test Flanker Task,106,70632,113,yes,1024
93.85964912,93.85964912,623.8508772,623.8508772,#000000,legacy,legacy,legacy,0,incongruent,uniform,1,undefined,1,h,0,0,0,113,113,0,0,0,113,113,0,113,0,113,NA,113,113,NA,9/25/2021 19:37,600,The main experiment item,yes,Lab21TestFlankerTask.osexp,C:\Users\mmcel\OneDrive\GRAD SCHOOL\fall 2021\Advanced Quant,no,mono,no,18,no,#ffffff,no,yes,768,legacy,33,79,C:/Users/mmcel/OneDrive/GRAD SCHOOL/fall 2021/Advanced Quant/MM-Subject-2.csv,legacy,Lentiform Loewenfeld,3.3.9,0,h,NA,s,s,NA,h,487,NA,26649,10923,NA,487,NA,NA,2,legacy,1024,2,48000,-16,experiment,SSHSS,2,even,29194,196296,NA,257297,256214,2544,185372,NA,257294,257401,NA,248862,2541,231267,NA,257402,257890,NA,Lab 2.1 Test Flanker Task,107,71119,114,yes,1024
93.91304348,93.91304348,622.0695652,622.0695652,#000000,legacy,legacy,legacy,0,congruent,uniform,1,undefined,1,h,0,0,0,114,114,0,0,0,114,114,0,114,0,114,NA,114,114,NA,9/25/2021 19:37,600,The main experiment item,yes,Lab21TestFlankerTask.osexp,C:\Users\mmcel\OneDrive\GRAD SCHOOL\fall 2021\Advanced Quant,no,mono,no,18,no,#ffffff,no,yes,768,legacy,34,79,C:/Users/mmcel/OneDrive/GRAD SCHOOL/fall 2021/Advanced Quant/MM-Subject-2.csv,legacy,Lentiform Loewenfeld,3.3.9,0,h,NA,s,s,NA,h,419,NA,26649,10923,NA,419,NA,NA,2,legacy,1024,2,48000,-16,experiment,HHHHH,2,even,29194,196296,NA,259029,257937,2544,185372,NA,259027,259133,NA,248862,2541,231267,NA,259133,259553,NA,Lab 2.1 Test Flanker Task,108,71538,115,yes,1024
93.96551724,93.96551724,622.0775862,622.0775862,#000000,legacy,legacy,legacy,0,incongruent,uniform,1,undefined,1,h,0,0,0,115,115,0,0,0,115,115,0,115,0,115,NA,115,115,NA,9/25/2021 19:37,600,The main experiment item,yes,Lab21TestFlankerTask.osexp,C:\Users\mmcel\OneDrive\GRAD SCHOOL\fall 2021\Advanced Quant,no,mono,no,18,no,#ffffff,no,yes,768,legacy,35,79,C:/Users/mmcel/OneDrive/GRAD SCHOOL/fall 2021/Advanced Quant/MM-Subject-2.csv,legacy,Lentiform Loewenfeld,3.3.9,0,h,NA,s,s,NA,h,623,NA,26649,10923,NA,623,NA,NA,2,legacy,1024,2,48000,-16,experiment,SSHSS,2,even,29194,196296,NA,260702,259603,2544,185372,NA,260699,260806,NA,248862,2541,231267,NA,260806,261430,NA,Lab 2.1 Test Flanker Task,109,72161,116,yes,1024
94.01709402,94.01709402,621.1282051,621.1282051,#000000,legacy,legacy,legacy,0,incongruent,uniform,1,undefined,1,s,0,0,0,116,116,0,0,0,116,116,0,116,0,116,NA,116,116,NA,9/25/2021 19:37,600,The main experiment item,yes,Lab21TestFlankerTask.osexp,C:\Users\mmcel\OneDrive\GRAD SCHOOL\fall 2021\Advanced Quant,no,mono,no,18,no,#ffffff,no,yes,768,legacy,36,79,C:/Users/mmcel/OneDrive/GRAD SCHOOL/fall 2021/Advanced Quant/MM-Subject-2.csv,legacy,Lentiform Loewenfeld,3.3.9,0,s,NA,s,s,NA,s,511,NA,26649,10923,NA,511,NA,NA,2,legacy,1024,2,48000,-16,experiment,HHSHH,2,even,29194,196296,NA,263079,261986,2544,185372,NA,263076,263183,NA,248862,2541,261482,NA,263184,263696,NA,Lab 2.1 Test Flanker Task,110,72672,117,yes,1024
94.06779661,94.06779661,619.3898305,619.3898305,#000000,legacy,legacy,legacy,0,incongruent,uniform,1,undefined,1,s,0,0,0,117,117,0,0,0,117,117,0,117,0,117,NA,117,117,NA,9/25/2021 19:37,600,The main experiment item,yes,Lab21TestFlankerTask.osexp,C:\Users\mmcel\OneDrive\GRAD SCHOOL\fall 2021\Advanced Quant,no,mono,no,18,no,#ffffff,no,yes,768,legacy,37,79,C:/Users/mmcel/OneDrive/GRAD SCHOOL/fall 2021/Advanced Quant/MM-Subject-2.csv,legacy,Lentiform Loewenfeld,3.3.9,0,s,NA,s,s,NA,s,416,NA,26649,10923,NA,416,NA,NA,2,legacy,1024,2,48000,-16,experiment,HHSHH,2,even,29194,196296,NA,264847,263749,2544,185372,NA,264845,264951,NA,248862,2541,261482,NA,264951,265368,NA,Lab 2.1 Test Flanker Task,111,73088,118,yes,1024
94.11764706,94.11764706,617.7478992,617.7478992,#000000,legacy,legacy,legacy,0,incongruent,uniform,1,undefined,1,s,0,0,0,118,118,0,0,0,118,118,0,118,0,118,NA,118,118,NA,9/25/2021 19:37,600,The main experiment item,yes,Lab21TestFlankerTask.osexp,C:\Users\mmcel\OneDrive\GRAD SCHOOL\fall 2021\Advanced Quant,no,mono,no,18,no,#ffffff,no,yes,768,legacy,38,79,C:/Users/mmcel/OneDrive/GRAD SCHOOL/fall 2021/Advanced Quant/MM-Subject-2.csv,legacy,Lentiform Loewenfeld,3.3.9,0,s,NA,s,s,NA,s,424,NA,26649,10923,NA,424,NA,NA,2,legacy,1024,2,48000,-16,experiment,HHSHH,2,even,29194,196296,NA,266523,265418,2544,185372,NA,266520,266628,NA,248862,2541,261482,NA,266628,267054,NA,Lab 2.1 Test Flanker Task,112,73512,119,yes,1024
94.16666667,94.16666667,616.8,616.8,#000000,legacy,legacy,legacy,0,congruent,uniform,1,undefined,1,h,0,0,0,119,119,0,0,0,119,119,0,119,0,119,NA,119,119,NA,9/25/2021 19:37,600,The main experiment item,yes,Lab21TestFlankerTask.osexp,C:\Users\mmcel\OneDrive\GRAD SCHOOL\fall 2021\Advanced Quant,no,mono,no,18,no,#ffffff,no,yes,768,legacy,39,79,C:/Users/mmcel/OneDrive/GRAD SCHOOL/fall 2021/Advanced Quant/MM-Subject-2.csv,legacy,Lentiform Loewenfeld,3.3.9,0,h,NA,s,s,NA,h,504,NA,26649,10923,NA,504,NA,NA,2,legacy,1024,2,48000,-16,experiment,HHHHH,2,even,29194,196296,NA,268209,267107,2544,185372,NA,268207,268313,NA,248862,2541,261482,NA,268314,268819,NA,Lab 2.1 Test Flanker Task,113,74016,120,yes,1024
94.21487603,94.21487603,615.9338843,615.9338843,#000000,legacy,legacy,legacy,0,incongruent,uniform,1,undefined,1,h,0,0,0,120,120,0,0,0,120,120,0,120,0,120,NA,120,120,NA,9/25/2021 19:37,600,The main experiment item,yes,Lab21TestFlankerTask.osexp,C:\Users\mmcel\OneDrive\GRAD SCHOOL\fall 2021\Advanced Quant,no,mono,no,18,no,#ffffff,no,yes,768,legacy,40,79,C:/Users/mmcel/OneDrive/GRAD SCHOOL/fall 2021/Advanced Quant/MM-Subject-2.csv,legacy,Lentiform Loewenfeld,3.3.9,0,h,NA,s,s,NA,h,512,NA,26649,10923,NA,512,NA,NA,2,legacy,1024,2,48000,-16,experiment,SSHSS,2,even,29194,196296,NA,269972,268873,2544,185372,NA,269969,270077,NA,248862,2541,261482,NA,270078,270591,NA,Lab 2.1 Test Flanker Task,114,74528,121,yes,1024
94.26229508,94.26229508,615.1065574,615.1065574,#000000,legacy,legacy,legacy,0,congruent,uniform,1,undefined,1,s,0,0,0,121,121,0,0,0,121,121,0,121,0,121,NA,121,121,NA,9/25/2021 19:37,600,The main experiment item,yes,Lab21TestFlankerTask.osexp,C:\Users\mmcel\OneDrive\GRAD SCHOOL\fall 2021\Advanced Quant,no,mono,no,18,no,#ffffff,no,yes,768,legacy,41,79,C:/Users/mmcel/OneDrive/GRAD SCHOOL/fall 2021/Advanced Quant/MM-Subject-2.csv,legacy,Lentiform Loewenfeld,3.3.9,0,s,NA,s,s,NA,s,515,NA,26649,10923,NA,515,NA,NA,2,legacy,1024,2,48000,-16,experiment,SSSSS,2,even,29194,196296,NA,271747,270662,2544,185372,NA,271744,271849,NA,248862,2541,261482,NA,271849,272365,NA,Lab 2.1 Test Flanker Task,115,75043,122,yes,1024
94.30894309,94.30894309,613.601626,613.601626,#000000,legacy,legacy,legacy,0,congruent,uniform,1,undefined,1,h,0,0,0,122,122,0,0,0,122,122,0,122,0,122,NA,122,122,NA,9/25/2021 19:37,600,The main experiment item,yes,Lab21TestFlankerTask.osexp,C:\Users\mmcel\OneDrive\GRAD SCHOOL\fall 2021\Advanced Quant,no,mono,no,18,no,#ffffff,no,yes,768,legacy,42,79,C:/Users/mmcel/OneDrive/GRAD SCHOOL/fall 2021/Advanced Quant/MM-Subject-2.csv,legacy,Lentiform Loewenfeld,3.3.9,0,h,NA,s,s,NA,h,430,NA,26649,10923,NA,430,NA,NA,2,legacy,1024,2,48000,-16,experiment,HHHHH,2,even,29194,196296,NA,273492,272406,2544,185372,NA,273490,273596,NA,248862,2541,261482,NA,273596,274028,NA,Lab 2.1 Test Flanker Task,116,75473,123,yes,1024
94.35483871,94.35483871,613.4677419,613.4677419,#000000,legacy,legacy,legacy,0,incongruent,uniform,1,undefined,1,h,0,0,0,123,123,0,0,0,123,123,0,123,0,123,NA,123,123,NA,9/25/2021 19:37,600,The main experiment item,yes,Lab21TestFlankerTask.osexp,C:\Users\mmcel\OneDrive\GRAD SCHOOL\fall 2021\Advanced Quant,no,mono,no,18,no,#ffffff,no,yes,768,legacy,43,79,C:/Users/mmcel/OneDrive/GRAD SCHOOL/fall 2021/Advanced Quant/MM-Subject-2.csv,legacy,Lentiform Loewenfeld,3.3.9,0,h,NA,s,s,NA,h,597,NA,26649,10923,NA,597,NA,NA,2,legacy,1024,2,48000,-16,experiment,SSHSS,2,even,29194,196296,NA,275174,274081,2544,185372,NA,275172,275278,NA,248862,2541,261482,NA,275278,275877,NA,Lab 2.1 Test Flanker Task,117,76070,124,yes,1024
94.4,94.4,614.016,614.016,#000000,legacy,legacy,legacy,0,congruent,uniform,1,undefined,1,s,0,0,0,124,124,0,0,0,124,124,0,124,0,124,NA,124,124,NA,9/25/2021 19:37,600,The main experiment item,yes,Lab21TestFlankerTask.osexp,C:\Users\mmcel\OneDrive\GRAD SCHOOL\fall 2021\Advanced Quant,no,mono,no,18,no,#ffffff,no,yes,768,legacy,44,79,C:/Users/mmcel/OneDrive/GRAD SCHOOL/fall 2021/Advanced Quant/MM-Subject-2.csv,legacy,Lentiform Loewenfeld,3.3.9,0,s,NA,s,s,NA,s,682,NA,26649,10923,NA,682,NA,NA,2,legacy,1024,2,48000,-16,experiment,SSSSS,2,even,29194,196296,NA,277081,275974,2544,185372,NA,277079,277186,NA,248862,2541,261482,NA,277186,277869,NA,Lab 2.1 Test Flanker Task,118,76752,125,yes,1024
94.44444444,94.44444444,613.515873,613.515873,#000000,legacy,legacy,legacy,0,incongruent,uniform,1,undefined,1,s,0,0,0,125,125,0,0,0,125,125,0,125,0,125,NA,125,125,NA,9/25/2021 19:37,600,The main experiment item,yes,Lab21TestFlankerTask.osexp,C:\Users\mmcel\OneDrive\GRAD SCHOOL\fall 2021\Advanced Quant,no,mono,no,18,no,#ffffff,no,yes,768,legacy,45,79,C:/Users/mmcel/OneDrive/GRAD SCHOOL/fall 2021/Advanced Quant/MM-Subject-2.csv,legacy,Lentiform Loewenfeld,3.3.9,0,s,NA,s,s,NA,s,551,NA,26649,10923,NA,551,NA,NA,2,legacy,1024,2,48000,-16,experiment,HHSHH,2,even,29194,196296,NA,279522,278420,2544,185372,NA,279520,279627,NA,248862,2541,277915,NA,279627,280179,NA,Lab 2.1 Test Flanker Task,119,77303,126,yes,1024
94.48818898,94.48818898,613.4566929,613.4566929,#000000,legacy,legacy,legacy,0,congruent,uniform,1,undefined,1,h,0,0,0,126,126,0,0,0,126,126,0,126,0,126,NA,126,126,NA,9/25/2021 19:37,600,The main experiment item,yes,Lab21TestFlankerTask.osexp,C:\Users\mmcel\OneDrive\GRAD SCHOOL\fall 2021\Advanced Quant,no,mono,no,18,no,#ffffff,no,yes,768,legacy,46,79,C:/Users/mmcel/OneDrive/GRAD SCHOOL/fall 2021/Advanced Quant/MM-Subject-2.csv,legacy,Lentiform Loewenfeld,3.3.9,0,h,NA,s,s,NA,h,606,NA,26649,10923,NA,606,NA,NA,2,legacy,1024,2,48000,-16,experiment,HHHHH,2,even,29194,196296,NA,281298,280215,2544,185372,NA,281296,281403,NA,248862,2541,277915,NA,281403,282011,NA,Lab 2.1 Test Flanker Task,120,77909,127,yes,1024
94.53125,94.53125,612.0234375,612.0234375,#000000,legacy,legacy,legacy,0,incongruent,uniform,1,undefined,1,h,0,0,0,127,127,0,0,0,127,127,0,127,0,127,NA,127,127,NA,9/25/2021 19:37,600,The main experiment item,yes,Lab21TestFlankerTask.osexp,C:\Users\mmcel\OneDrive\GRAD SCHOOL\fall 2021\Advanced Quant,no,mono,no,18,no,#ffffff,no,yes,768,legacy,47,79,C:/Users/mmcel/OneDrive/GRAD SCHOOL/fall 2021/Advanced Quant/MM-Subject-2.csv,legacy,Lentiform Loewenfeld,3.3.9,0,h,NA,s,s,NA,h,430,NA,26649,10923,NA,430,NA,NA,2,legacy,1024,2,48000,-16,experiment,SSHSS,2,even,29194,196296,NA,283663,282570,2544,185372,NA,283661,283768,NA,248862,2541,282063,NA,283769,284201,NA,Lab 2.1 Test Flanker Task,121,78339,128,yes,1024
94.57364341,94.57364341,611.0620155,611.0620155,#000000,legacy,legacy,legacy,0,congruent,uniform,1,undefined,1,s,0,0,0,128,128,0,0,0,128,128,0,128,0,128,NA,128,128,NA,9/25/2021 19:37,600,The main experiment item,yes,Lab21TestFlankerTask.osexp,C:\Users\mmcel\OneDrive\GRAD SCHOOL\fall 2021\Advanced Quant,no,mono,no,18,no,#ffffff,no,yes,768,legacy,48,79,C:/Users/mmcel/OneDrive/GRAD SCHOOL/fall 2021/Advanced Quant/MM-Subject-2.csv,legacy,Lentiform Loewenfeld,3.3.9,0,s,NA,s,s,NA,s,488,NA,26649,10923,NA,488,NA,NA,2,legacy,1024,2,48000,-16,experiment,SSSSS,2,even,29194,196296,NA,285342,284251,2544,185372,NA,285340,285447,NA,248862,2541,282063,NA,285447,285937,NA,Lab 2.1 Test Flanker Task,122,78827,129,yes,1024
94.61538462,94.61538462,610.2538462,610.2538462,#000000,legacy,legacy,legacy,0,incongruent,uniform,1,undefined,1,h,0,0,0,129,129,0,0,0,129,129,0,129,0,129,NA,129,129,NA,9/25/2021 19:37,600,The main experiment item,yes,Lab21TestFlankerTask.osexp,C:\Users\mmcel\OneDrive\GRAD SCHOOL\fall 2021\Advanced Quant,no,mono,no,18,no,#ffffff,no,yes,768,legacy,49,79,C:/Users/mmcel/OneDrive/GRAD SCHOOL/fall 2021/Advanced Quant/MM-Subject-2.csv,legacy,Lentiform Loewenfeld,3.3.9,0,h,NA,s,s,NA,h,506,NA,26649,10923,NA,506,NA,NA,2,legacy,1024,2,48000,-16,experiment,SSHSS,2,even,29194,196296,NA,287071,285971,2544,185372,NA,287069,287174,NA,248862,2541,282063,NA,287174,287681,NA,Lab 2.1 Test Flanker Task,123,79333,130,yes,1024
94.65648855,94.65648855,609.4045802,609.4045802,#000000,legacy,legacy,legacy,0,incongruent,uniform,1,undefined,1,h,0,0,0,130,130,0,0,0,130,130,0,130,0,130,NA,130,130,NA,9/25/2021 19:37,600,The main experiment item,yes,Lab21TestFlankerTask.osexp,C:\Users\mmcel\OneDrive\GRAD SCHOOL\fall 2021\Advanced Quant,no,mono,no,18,no,#ffffff,no,yes,768,legacy,50,79,C:/Users/mmcel/OneDrive/GRAD SCHOOL/fall 2021/Advanced Quant/MM-Subject-2.csv,legacy,Lentiform Loewenfeld,3.3.9,0,h,NA,s,s,NA,h,499,NA,26649,10923,NA,499,NA,NA,2,legacy,1024,2,48000,-16,experiment,SSHSS,2,even,29194,196296,NA,288795,287704,2544,185372,NA,288793,288900,NA,248862,2541,282063,NA,288900,289400,NA,Lab 2.1 Test Flanker Task,124,79832,131,yes,1024
94.6969697,94.6969697,608.5151515,608.5151515,#000000,legacy,legacy,legacy,0,incongruent,uniform,1,undefined,1,h,0,0,0,131,131,0,0,0,131,131,0,131,0,131,NA,131,131,NA,9/25/2021 19:37,600,The main experiment item,yes,Lab21TestFlankerTask.osexp,C:\Users\mmcel\OneDrive\GRAD SCHOOL\fall 2021\Advanced Quant,no,mono,no,18,no,#ffffff,no,yes,768,legacy,51,79,C:/Users/mmcel/OneDrive/GRAD SCHOOL/fall 2021/Advanced Quant/MM-Subject-2.csv,legacy,Lentiform Loewenfeld,3.3.9,0,h,NA,s,s,NA,h,492,NA,26649,10923,NA,492,NA,NA,2,legacy,1024,2,48000,-16,experiment,SSHSS,2,even,29194,196296,NA,290536,289449,2544,185372,NA,290534,290641,NA,248862,2541,282063,NA,290641,291134,NA,Lab 2.1 Test Flanker Task,125,80324,132,yes,1024
94.73684211,94.73684211,608.0676692,608.0676692,#000000,legacy,legacy,legacy,0,incongruent,uniform,1,undefined,1,s,0,0,0,132,132,0,0,0,132,132,0,132,0,132,NA,132,132,NA,9/25/2021 19:37,600,The main experiment item,yes,Lab21TestFlankerTask.osexp,C:\Users\mmcel\OneDrive\GRAD SCHOOL\fall 2021\Advanced Quant,no,mono,no,18,no,#ffffff,no,yes,768,legacy,52,79,C:/Users/mmcel/OneDrive/GRAD SCHOOL/fall 2021/Advanced Quant/MM-Subject-2.csv,legacy,Lentiform Loewenfeld,3.3.9,0,s,NA,s,s,NA,s,549,NA,26649,10923,NA,549,NA,NA,2,legacy,1024,2,48000,-16,experiment,HHSHH,2,even,29194,196296,NA,292289,291185,2544,185372,NA,292287,292393,NA,248862,2541,282063,NA,292394,292945,NA,Lab 2.1 Test Flanker Task,126,80873,133,yes,1024
94.7761194,94.7761194,606.5522388,606.5522388,#000000,legacy,legacy,legacy,0,congruent,uniform,1,undefined,1,h,0,0,0,133,133,0,0,0,133,133,0,133,0,133,NA,133,133,NA,9/25/2021 19:37,600,The main experiment item,yes,Lab21TestFlankerTask.osexp,C:\Users\mmcel\OneDrive\GRAD SCHOOL\fall 2021\Advanced Quant,no,mono,no,18,no,#ffffff,no,yes,768,legacy,53,79,C:/Users/mmcel/OneDrive/GRAD SCHOOL/fall 2021/Advanced Quant/MM-Subject-2.csv,legacy,Lentiform Loewenfeld,3.3.9,0,h,NA,s,s,NA,h,405,NA,26649,10923,NA,405,NA,NA,2,legacy,1024,2,48000,-16,experiment,HHHHH,2,even,29194,196296,NA,294094,292996,2544,185372,NA,294092,294198,NA,248862,2541,282063,NA,294198,294604,NA,Lab 2.1 Test Flanker Task,127,81278,134,yes,1024
94.81481481,94.81481481,605.4740741,605.4740741,#000000,legacy,legacy,legacy,0,congruent,uniform,1,undefined,1,h,0,0,0,134,134,0,0,0,134,134,0,134,0,134,NA,134,134,NA,9/25/2021 19:37,600,The main experiment item,yes,Lab21TestFlankerTask.osexp,C:\Users\mmcel\OneDrive\GRAD SCHOOL\fall 2021\Advanced Quant,no,mono,no,18,no,#ffffff,no,yes,768,legacy,54,79,C:/Users/mmcel/OneDrive/GRAD SCHOOL/fall 2021/Advanced Quant/MM-Subject-2.csv,legacy,Lentiform Loewenfeld,3.3.9,0,h,NA,s,s,NA,h,461,NA,26649,10923,NA,461,NA,NA,2,legacy,1024,2,48000,-16,experiment,HHHHH,2,even,29194,196296,NA,295753,294664,2544,185372,NA,295751,295857,NA,248862,2541,282063,NA,295858,296320,NA,Lab 2.1 Test Flanker Task,128,81739,135,yes,1024
94.85294118,94.85294118,604.6397059,604.6397059,#000000,legacy,legacy,legacy,0,congruent,uniform,1,undefined,1,h,0,0,0,135,135,0,0,0,135,135,0,135,0,135,NA,135,135,NA,9/25/2021 19:37,600,The main experiment item,yes,Lab21TestFlankerTask.osexp,C:\Users\mmcel\OneDrive\GRAD SCHOOL\fall 2021\Advanced Quant,no,mono,no,18,no,#ffffff,no,yes,768,legacy,55,79,C:/Users/mmcel/OneDrive/GRAD SCHOOL/fall 2021/Advanced Quant/MM-Subject-2.csv,legacy,Lentiform Loewenfeld,3.3.9,0,h,NA,s,s,NA,h,492,NA,26649,10923,NA,492,NA,NA,2,legacy,1024,2,48000,-16,experiment,HHHHH,2,even,29194,196296,NA,297464,296375,2544,185372,NA,297462,297567,NA,248862,2541,282063,NA,297567,298060,NA,Lab 2.1 Test Flanker Task,129,82231,136,yes,1024
94.89051095,94.89051095,604.4452555,604.4452555,#000000,legacy,legacy,legacy,0,incongruent,uniform,1,undefined,1,h,0,0,0,136,136,0,0,0,136,136,0,136,0,136,NA,136,136,NA,9/25/2021 19:37,600,The main experiment item,yes,Lab21TestFlankerTask.osexp,C:\Users\mmcel\OneDrive\GRAD SCHOOL\fall 2021\Advanced Quant,no,mono,no,18,no,#ffffff,no,yes,768,legacy,56,79,C:/Users/mmcel/OneDrive/GRAD SCHOOL/fall 2021/Advanced Quant/MM-Subject-2.csv,legacy,Lentiform Loewenfeld,3.3.9,0,h,NA,s,s,NA,h,578,NA,26649,10923,NA,578,NA,NA,2,legacy,1024,2,48000,-16,experiment,SSHSS,2,even,29194,196296,NA,299198,298105,2544,185372,NA,299195,299301,NA,248862,2541,282063,NA,299301,299881,NA,Lab 2.1 Test Flanker Task,130,82809,137,yes,1024
94.92753623,94.92753623,602.8405797,602.8405797,#000000,legacy,legacy,legacy,0,congruent,uniform,1,undefined,1,h,0,0,0,137,137,0,0,0,137,137,0,137,0,137,NA,137,137,NA,9/25/2021 19:37,600,The main experiment item,yes,Lab21TestFlankerTask.osexp,C:\Users\mmcel\OneDrive\GRAD SCHOOL\fall 2021\Advanced Quant,no,mono,no,18,no,#ffffff,no,yes,768,legacy,57,79,C:/Users/mmcel/OneDrive/GRAD SCHOOL/fall 2021/Advanced Quant/MM-Subject-2.csv,legacy,Lentiform Loewenfeld,3.3.9,0,h,NA,s,s,NA,h,383,NA,26649,10923,NA,383,NA,NA,2,legacy,1024,2,48000,-16,experiment,HHHHH,2,even,29194,196296,NA,301027,299927,2544,185372,NA,301024,301132,NA,248862,2541,282063,NA,301132,301517,NA,Lab 2.1 Test Flanker Task,131,83192,138,yes,1024
94.96402878,94.96402878,602.3021583,602.3021583,#000000,legacy,legacy,legacy,0,congruent,uniform,1,undefined,1,s,0,0,0,138,138,0,0,0,138,138,0,138,0,138,NA,138,138,NA,9/25/2021 19:37,600,The main experiment item,yes,Lab21TestFlankerTask.osexp,C:\Users\mmcel\OneDrive\GRAD SCHOOL\fall 2021\Advanced Quant,no,mono,no,18,no,#ffffff,no,yes,768,legacy,58,79,C:/Users/mmcel/OneDrive/GRAD SCHOOL/fall 2021/Advanced Quant/MM-Subject-2.csv,legacy,Lentiform Loewenfeld,3.3.9,0,s,NA,s,s,NA,s,528,NA,26649,10923,NA,528,NA,NA,2,legacy,1024,2,48000,-16,experiment,SSSSS,2,even,29194,196296,NA,302671,301571,2544,185372,NA,302669,302775,NA,248862,2541,282063,NA,302776,303305,NA,Lab 2.1 Test Flanker Task,132,83720,139,yes,1024
95,95,601.4214286,601.4214286,#000000,legacy,legacy,legacy,0,congruent,uniform,1,undefined,1,h,0,0,0,139,139,0,0,0,139,139,0,139,0,139,NA,139,139,NA,9/25/2021 19:37,600,The main experiment item,yes,Lab21TestFlankerTask.osexp,C:\Users\mmcel\OneDrive\GRAD SCHOOL\fall 2021\Advanced Quant,no,mono,no,18,no,#ffffff,no,yes,768,legacy,59,79,C:/Users/mmcel/OneDrive/GRAD SCHOOL/fall 2021/Advanced Quant/MM-Subject-2.csv,legacy,Lentiform Loewenfeld,3.3.9,0,h,NA,s,s,NA,h,479,NA,26649,10923,NA,479,NA,NA,2,legacy,1024,2,48000,-16,experiment,HHHHH,2,even,29194,196296,NA,304453,303364,2544,185372,NA,304450,304559,NA,248862,2541,282063,NA,304559,305039,NA,Lab 2.1 Test Flanker Task,133,84199,140,yes,1024
95.03546099,95.03546099,600.7163121,600.7163121,#000000,legacy,legacy,legacy,0,congruent,uniform,1,undefined,1,s,0,0,0,140,140,0,0,0,140,140,0,140,0,140,NA,140,140,NA,9/25/2021 19:37,600,The main experiment item,yes,Lab21TestFlankerTask.osexp,C:\Users\mmcel\OneDrive\GRAD SCHOOL\fall 2021\Advanced Quant,no,mono,no,18,no,#ffffff,no,yes,768,legacy,60,79,C:/Users/mmcel/OneDrive/GRAD SCHOOL/fall 2021/Advanced Quant/MM-Subject-2.csv,legacy,Lentiform Loewenfeld,3.3.9,0,s,NA,s,s,NA,s,502,NA,26649,10923,NA,502,NA,NA,2,legacy,1024,2,48000,-16,experiment,SSSSS,2,even,29194,196296,NA,306186,305094,2544,185372,NA,306184,306291,NA,248862,2541,282063,NA,306292,306796,NA,Lab 2.1 Test Flanker Task,134,84701,141,yes,1024
