"acc","accuracy","average_response_time","avg_rt","background","canvas_backend","clock_backend","color_backend","compensation","condition","coordinates","correct","correct_Instructions1","correct_keyboard_response","correct_response","count_Block1","count_Block2","count_Block3","count_Closing","count_ISI","count_Instructions1","count_Instructions2","count_Instructions3","count_error_feedback","count_experiment","count_faster","count_fixation","count_keyboard_response","count_logger","count_sequence","count_stimulus","datetime","deadline","description","disable_garbage_collection","experiment_file","experiment_path","font_bold","font_family","font_italic","font_size","font_underline","foreground","form_clicks","fullscreen","height","keyboard_backend","live_row","live_row_Block1","logfile","mouse_backend","opensesame_codename","opensesame_version","repeat_cycle","response","response_Closing","response_Instructions1","response_Instructions2","response_Instructions3","response_keyboard_response","response_time","response_time_Closing","response_time_Instructions1","response_time_Instructions2","response_time_Instructions3","response_time_keyboard_response","round_decimals","sampler_backend","sound_buf_size","sound_channels","sound_freq","sound_sample_size","start","stimulus","subject_nr","subject_parity","time_Block1","time_Block2","time_Block3","time_Closing","time_ISI","time_Instructions1","time_Instructions2","time_Instructions3","time_error_feedback","time_experiment","time_faster","time_fixation","time_keyboard_response","time_logger","time_sequence","time_stimulus","title","total_correct","total_response_time","total_responses","uniform_coordinates","width"
"100","100","969","969","black","legacy","legacy","legacy","0","incongruent","uniform","1","undefined","1","s","0","0","0","0","0","0","0","0","0","0","0","0","0","0","0","0","Sun Sep 19 12:42:36 2021","1500","The main experiment item","yes","FlankerTask.osexp","C:/Users/warne/OneDrive/Documents/Tarleton - MS Applied Psychology/Adv Quantitative Methods and Experimental Design/Labs","no","mono","no","18","no","white","no","yes","768","legacy","0","0","C:/Users/warne/OneDrive/Documents/Tarleton - MS Applied Psychology/Adv Quantitative Methods and Experimental Design/Labs/SH-subject-2.csv","legacy","Lentiform Loewenfeld","3.3.9","0","s","NA","s","NA","NA","s","969","NA","29133","NA","NA","969","2","legacy","1024","2","48000","-16","experiment","HHSHH","2","even","31491","NA","NA","NA","NA","2358","NA","NA","NA","2347","NA","31552","31657","32626","31550","31657","Flanker Task","1","969","1","yes","1024"
"100","100","927.5","927.5","black","legacy","legacy","legacy","0","congruent","uniform","1","undefined","1","s","0","0","0","0","1","0","0","0","1","0","1","1","1","1","1","1","Sun Sep 19 12:42:36 2021","1500","The main experiment item","yes","FlankerTask.osexp","C:/Users/warne/OneDrive/Documents/Tarleton - MS Applied Psychology/Adv Quantitative Methods and Experimental Design/Labs","no","mono","no","18","no","white","no","yes","768","legacy","1","1","C:/Users/warne/OneDrive/Documents/Tarleton - MS Applied Psychology/Adv Quantitative Methods and Experimental Design/Labs/SH-subject-2.csv","legacy","Lentiform Loewenfeld","3.3.9","0","s","NA","s","NA","NA","s","886","NA","29133","NA","NA","886","2","legacy","1024","2","48000","-16","experiment","SSSSS","2","even","31491","NA","NA","NA","32649","2358","NA","NA","NA","2347","NA","33709","33810","34696","33707","33810","Flanker Task","2","1855","2","yes","1024"
"100","100","843.3333333333334","843.3333333333334","black","legacy","legacy","legacy","0","incongruent","uniform","1","undefined","1","h","0","0","0","0","2","0","0","0","2","0","2","2","2","2","2","2","Sun Sep 19 12:42:36 2021","1500","The main experiment item","yes","FlankerTask.osexp","C:/Users/warne/OneDrive/Documents/Tarleton - MS Applied Psychology/Adv Quantitative Methods and Experimental Design/Labs","no","mono","no","18","no","white","no","yes","768","legacy","2","2","C:/Users/warne/OneDrive/Documents/Tarleton - MS Applied Psychology/Adv Quantitative Methods and Experimental Design/Labs/SH-subject-2.csv","legacy","Lentiform Loewenfeld","3.3.9","0","h","NA","s","NA","NA","h","675","NA","29133","NA","NA","675","2","legacy","1024","2","48000","-16","experiment","SSHSS","2","even","31491","NA","NA","NA","34701","2358","NA","NA","NA","2347","NA","35761","35866","36541","35759","35866","Flanker Task","3","2530","3","yes","1024"
"100","100","779","779","black","legacy","legacy","legacy","0","congruent","uniform","1","undefined","1","h","0","0","0","0","3","0","0","0","3","0","3","3","3","3","3","3","Sun Sep 19 12:42:36 2021","1500","The main experiment item","yes","FlankerTask.osexp","C:/Users/warne/OneDrive/Documents/Tarleton - MS Applied Psychology/Adv Quantitative Methods and Experimental Design/Labs","no","mono","no","18","no","white","no","yes","768","legacy","3","3","C:/Users/warne/OneDrive/Documents/Tarleton - MS Applied Psychology/Adv Quantitative Methods and Experimental Design/Labs/SH-subject-2.csv","legacy","Lentiform Loewenfeld","3.3.9","0","h","NA","s","NA","NA","h","586","NA","29133","NA","NA","586","2","legacy","1024","2","48000","-16","experiment","HHHHH","2","even","31491","NA","NA","NA","36546","2358","NA","NA","NA","2347","NA","37605","37710","38297","37602","37710","Flanker Task","4","3116","4","yes","1024"
"100","100","743.2","743.2","black","legacy","legacy","legacy","0","incongruent","uniform","1","undefined","1","s","0","0","0","0","4","0","0","0","4","0","4","4","4","4","4","4","Sun Sep 19 12:42:36 2021","1500","The main experiment item","yes","FlankerTask.osexp","C:/Users/warne/OneDrive/Documents/Tarleton - MS Applied Psychology/Adv Quantitative Methods and Experimental Design/Labs","no","mono","no","18","no","white","no","yes","768","legacy","4","4","C:/Users/warne/OneDrive/Documents/Tarleton - MS Applied Psychology/Adv Quantitative Methods and Experimental Design/Labs/SH-subject-2.csv","legacy","Lentiform Loewenfeld","3.3.9","0","s","NA","s","NA","NA","s","600","NA","29133","NA","NA","600","2","legacy","1024","2","48000","-16","experiment","HHSHH","2","even","31491","NA","NA","NA","38302","2358","NA","NA","NA","2347","NA","39361","39466","40067","39359","39466","Flanker Task","5","3716","5","yes","1024"
"100","100","701.3333333333334","701.3333333333334","black","legacy","legacy","legacy","0","congruent","uniform","1","undefined","1","h","0","0","0","0","5","0","0","0","5","0","5","5","5","5","5","5","Sun Sep 19 12:42:36 2021","1500","The main experiment item","yes","FlankerTask.osexp","C:/Users/warne/OneDrive/Documents/Tarleton - MS Applied Psychology/Adv Quantitative Methods and Experimental Design/Labs","no","mono","no","18","no","white","no","yes","768","legacy","5","5","C:/Users/warne/OneDrive/Documents/Tarleton - MS Applied Psychology/Adv Quantitative Methods and Experimental Design/Labs/SH-subject-2.csv","legacy","Lentiform Loewenfeld","3.3.9","0","h","NA","s","NA","NA","h","492","NA","29133","NA","NA","492","2","legacy","1024","2","48000","-16","experiment","HHHHH","2","even","31491","NA","NA","NA","40072","2358","NA","NA","NA","2347","NA","41150","41255","41747","41148","41255","Flanker Task","6","4208","6","yes","1024"
"85.71428571428571","85.71428571428571","657.5714285714286","657.5714285714286","black","legacy","legacy","legacy","0","incongruent","uniform","0","undefined","0","s","0","0","0","0","6","0","0","0","6","0","6","6","6","6","6","6","Sun Sep 19 12:42:36 2021","1500","The main experiment item","yes","FlankerTask.osexp","C:/Users/warne/OneDrive/Documents/Tarleton - MS Applied Psychology/Adv Quantitative Methods and Experimental Design/Labs","no","mono","no","18","no","white","no","yes","768","legacy","6","6","C:/Users/warne/OneDrive/Documents/Tarleton - MS Applied Psychology/Adv Quantitative Methods and Experimental Design/Labs/SH-subject-2.csv","legacy","Lentiform Loewenfeld","3.3.9","0","h","NA","s","NA","NA","h","395","NA","29133","NA","NA","395","2","legacy","1024","2","48000","-16","experiment","HHSHH","2","even","31491","NA","NA","NA","41752","2358","NA","NA","NA","2347","NA","42811","42912","43307","42809","42912","Flanker Task","6","4603","7","yes","1024"
"87.5","87.5","656","656","black","legacy","legacy","legacy","0","congruent","uniform","1","undefined","1","h","0","0","0","0","7","0","0","0","7","0","7","7","7","7","7","7","Sun Sep 19 12:42:36 2021","1500","The main experiment item","yes","FlankerTask.osexp","C:/Users/warne/OneDrive/Documents/Tarleton - MS Applied Psychology/Adv Quantitative Methods and Experimental Design/Labs","no","mono","no","18","no","white","no","yes","768","legacy","7","7","C:/Users/warne/OneDrive/Documents/Tarleton - MS Applied Psychology/Adv Quantitative Methods and Experimental Design/Labs/SH-subject-2.csv","legacy","Lentiform Loewenfeld","3.3.9","0","h","NA","s","NA","NA","h","645","NA","29133","NA","NA","645","2","legacy","1024","2","48000","-16","experiment","HHHHH","2","even","31491","NA","NA","NA","43813","2358","NA","NA","43312","2347","NA","44872","44976","45621","44870","44976","Flanker Task","7","5248","8","yes","1024"
"88.88888888888889","88.88888888888889","642.7777777777778","642.7777777777778","black","legacy","legacy","legacy","0","congruent","uniform","1","undefined","1","h","0","0","0","0","8","0","0","0","8","0","8","8","8","8","8","8","Sun Sep 19 12:42:36 2021","1500","The main experiment item","yes","FlankerTask.osexp","C:/Users/warne/OneDrive/Documents/Tarleton - MS Applied Psychology/Adv Quantitative Methods and Experimental Design/Labs","no","mono","no","18","no","white","no","yes","768","legacy","8","8","C:/Users/warne/OneDrive/Documents/Tarleton - MS Applied Psychology/Adv Quantitative Methods and Experimental Design/Labs/SH-subject-2.csv","legacy","Lentiform Loewenfeld","3.3.9","0","h","NA","s","NA","NA","h","537","NA","29133","NA","NA","537","2","legacy","1024","2","48000","-16","experiment","HHHHH","2","even","31491","NA","NA","NA","45628","2358","NA","NA","43312","2347","NA","46686","46791","47328","46684","46791","Flanker Task","8","5785","9","yes","1024"
"90","90","635.6","635.6","black","legacy","legacy","legacy","0","incongruent","uniform","1","undefined","1","s","0","0","0","0","9","0","0","0","9","0","9","9","9","9","9","9","Sun Sep 19 12:42:36 2021","1500","The main experiment item","yes","FlankerTask.osexp","C:/Users/warne/OneDrive/Documents/Tarleton - MS Applied Psychology/Adv Quantitative Methods and Experimental Design/Labs","no","mono","no","18","no","white","no","yes","768","legacy","9","9","C:/Users/warne/OneDrive/Documents/Tarleton - MS Applied Psychology/Adv Quantitative Methods and Experimental Design/Labs/SH-subject-2.csv","legacy","Lentiform Loewenfeld","3.3.9","0","s","NA","s","NA","NA","s","571","NA","29133","NA","NA","571","2","legacy","1024","2","48000","-16","experiment","HHSHH","2","even","31491","NA","NA","NA","47333","2358","NA","NA","43312","2347","NA","48392","48497","49068","48390","48497","Flanker Task","9","6356","10","yes","1024"
"81.81818181818181","81.81818181818181","617.1818181818181","617.1818181818181","black","legacy","legacy","legacy","0","incongruent","uniform","0","undefined","0","s","0","0","0","0","10","0","0","0","10","0","10","10","10","10","10","10","Sun Sep 19 12:42:36 2021","1500","The main experiment item","yes","FlankerTask.osexp","C:/Users/warne/OneDrive/Documents/Tarleton - MS Applied Psychology/Adv Quantitative Methods and Experimental Design/Labs","no","mono","no","18","no","white","no","yes","768","legacy","10","10","C:/Users/warne/OneDrive/Documents/Tarleton - MS Applied Psychology/Adv Quantitative Methods and Experimental Design/Labs/SH-subject-2.csv","legacy","Lentiform Loewenfeld","3.3.9","0","h","NA","s","NA","NA","h","433","NA","29133","NA","NA","433","2","legacy","1024","2","48000","-16","experiment","HHSHH","2","even","31491","NA","NA","NA","49073","2358","NA","NA","43312","2347","NA","50150","50255","50688","50148","50255","Flanker Task","9","6789","11","yes","1024"
"83.33333333333333","83.33333333333333","619.4166666666666","619.4166666666666","black","legacy","legacy","legacy","0","incongruent","uniform","1","undefined","1","h","0","0","0","0","11","0","0","0","11","0","11","11","11","11","11","11","Sun Sep 19 12:42:36 2021","1500","The main experiment item","yes","FlankerTask.osexp","C:/Users/warne/OneDrive/Documents/Tarleton - MS Applied Psychology/Adv Quantitative Methods and Experimental Design/Labs","no","mono","no","18","no","white","no","yes","768","legacy","11","11","C:/Users/warne/OneDrive/Documents/Tarleton - MS Applied Psychology/Adv Quantitative Methods and Experimental Design/Labs/SH-subject-2.csv","legacy","Lentiform Loewenfeld","3.3.9","0","h","NA","s","NA","NA","h","644","NA","29133","NA","NA","644","2","legacy","1024","2","48000","-16","experiment","SSHSS","2","even","31491","NA","NA","NA","51193","2358","NA","NA","50692","2347","NA","52252","52357","53002","52250","52357","Flanker Task","10","7433","12","yes","1024"
"84.61538461538461","84.61538461538461","614.6153846153846","614.6153846153846","black","legacy","legacy","legacy","0","incongruent","uniform","1","undefined","1","h","0","0","0","0","12","0","0","0","12","0","12","12","12","12","12","12","Sun Sep 19 12:42:36 2021","1500","The main experiment item","yes","FlankerTask.osexp","C:/Users/warne/OneDrive/Documents/Tarleton - MS Applied Psychology/Adv Quantitative Methods and Experimental Design/Labs","no","mono","no","18","no","white","no","yes","768","legacy","12","12","C:/Users/warne/OneDrive/Documents/Tarleton - MS Applied Psychology/Adv Quantitative Methods and Experimental Design/Labs/SH-subject-2.csv","legacy","Lentiform Loewenfeld","3.3.9","0","h","NA","s","NA","NA","h","557","NA","29133","NA","NA","557","2","legacy","1024","2","48000","-16","experiment","SSHSS","2","even","31491","NA","NA","NA","53007","2358","NA","NA","50692","2347","NA","54076","54181","54739","54074","54181","Flanker Task","11","7990","13","yes","1024"
"85.71428571428571","85.71428571428571","609.5714285714286","609.5714285714286","black","legacy","legacy","legacy","0","incongruent","uniform","1","undefined","1","h","0","0","0","0","13","0","0","0","13","0","13","13","13","13","13","13","Sun Sep 19 12:42:36 2021","1500","The main experiment item","yes","FlankerTask.osexp","C:/Users/warne/OneDrive/Documents/Tarleton - MS Applied Psychology/Adv Quantitative Methods and Experimental Design/Labs","no","mono","no","18","no","white","no","yes","768","legacy","13","13","C:/Users/warne/OneDrive/Documents/Tarleton - MS Applied Psychology/Adv Quantitative Methods and Experimental Design/Labs/SH-subject-2.csv","legacy","Lentiform Loewenfeld","3.3.9","0","h","NA","s","NA","NA","h","544","NA","29133","NA","NA","544","2","legacy","1024","2","48000","-16","experiment","SSHSS","2","even","31491","NA","NA","NA","54742","2358","NA","NA","50692","2347","NA","55800","55905","56450","55798","55905","Flanker Task","12","8534","14","yes","1024"
"86.66666666666667","86.66666666666667","606.9333333333333","606.9333333333333","black","legacy","legacy","legacy","0","incongruent","uniform","1","undefined","1","h","0","0","0","0","14","0","0","0","14","0","14","14","14","14","14","14","Sun Sep 19 12:42:36 2021","1500","The main experiment item","yes","FlankerTask.osexp","C:/Users/warne/OneDrive/Documents/Tarleton - MS Applied Psychology/Adv Quantitative Methods and Experimental Design/Labs","no","mono","no","18","no","white","no","yes","768","legacy","14","14","C:/Users/warne/OneDrive/Documents/Tarleton - MS Applied Psychology/Adv Quantitative Methods and Experimental Design/Labs/SH-subject-2.csv","legacy","Lentiform Loewenfeld","3.3.9","0","h","NA","s","NA","NA","h","570","NA","29133","NA","NA","570","2","legacy","1024","2","48000","-16","experiment","SSHSS","2","even","31491","NA","NA","NA","56455","2358","NA","NA","50692","2347","NA","57514","57619","58190","57512","57619","Flanker Task","13","9104","15","yes","1024"
"87.5","87.5","601","601","black","legacy","legacy","legacy","0","incongruent","uniform","1","undefined","1","h","0","0","0","0","15","0","0","0","15","0","15","15","15","15","15","15","Sun Sep 19 12:42:36 2021","1500","The main experiment item","yes","FlankerTask.osexp","C:/Users/warne/OneDrive/Documents/Tarleton - MS Applied Psychology/Adv Quantitative Methods and Experimental Design/Labs","no","mono","no","18","no","white","no","yes","768","legacy","15","15","C:/Users/warne/OneDrive/Documents/Tarleton - MS Applied Psychology/Adv Quantitative Methods and Experimental Design/Labs/SH-subject-2.csv","legacy","Lentiform Loewenfeld","3.3.9","0","h","NA","s","NA","NA","h","512","NA","29133","NA","NA","512","2","legacy","1024","2","48000","-16","experiment","SSHSS","2","even","31491","NA","NA","NA","58194","2358","NA","NA","50692","2347","NA","59252","59357","59870","59250","59357","Flanker Task","14","9616","16","yes","1024"
"88.23529411764706","88.23529411764706","590.8235294117648","590.8235294117648","black","legacy","legacy","legacy","0","congruent","uniform","1","undefined","1","h","0","0","0","0","16","0","0","0","16","0","16","16","16","16","16","16","Sun Sep 19 12:42:36 2021","1500","The main experiment item","yes","FlankerTask.osexp","C:/Users/warne/OneDrive/Documents/Tarleton - MS Applied Psychology/Adv Quantitative Methods and Experimental Design/Labs","no","mono","no","18","no","white","no","yes","768","legacy","16","16","C:/Users/warne/OneDrive/Documents/Tarleton - MS Applied Psychology/Adv Quantitative Methods and Experimental Design/Labs/SH-subject-2.csv","legacy","Lentiform Loewenfeld","3.3.9","0","h","NA","s","NA","NA","h","428","NA","29133","NA","NA","428","2","legacy","1024","2","48000","-16","experiment","HHHHH","2","even","31491","NA","NA","NA","59873","2358","NA","NA","50692","2347","NA","60931","61032","61460","60929","61032","Flanker Task","15","10044","17","yes","1024"
"88.88888888888889","88.88888888888889","581.6666666666666","581.6666666666666","black","legacy","legacy","legacy","0","congruent","uniform","1","undefined","1","h","0","0","0","0","17","0","0","0","17","0","17","17","17","17","17","17","Sun Sep 19 12:42:36 2021","1500","The main experiment item","yes","FlankerTask.osexp","C:/Users/warne/OneDrive/Documents/Tarleton - MS Applied Psychology/Adv Quantitative Methods and Experimental Design/Labs","no","mono","no","18","no","white","no","yes","768","legacy","17","17","C:/Users/warne/OneDrive/Documents/Tarleton - MS Applied Psychology/Adv Quantitative Methods and Experimental Design/Labs/SH-subject-2.csv","legacy","Lentiform Loewenfeld","3.3.9","0","h","NA","s","NA","NA","h","426","NA","29133","NA","NA","426","2","legacy","1024","2","48000","-16","experiment","HHHHH","2","even","31491","NA","NA","NA","61463","2358","NA","NA","50692","2347","NA","62523","62624","63051","62521","62624","Flanker Task","16","10470","18","yes","1024"
"89.47368421052632","89.47368421052632","575.7894736842105","575.7894736842105","black","legacy","legacy","legacy","0","congruent","uniform","1","undefined","1","s","0","0","0","0","18","0","0","0","18","0","18","18","18","18","18","18","Sun Sep 19 12:42:36 2021","1500","The main experiment item","yes","FlankerTask.osexp","C:/Users/warne/OneDrive/Documents/Tarleton - MS Applied Psychology/Adv Quantitative Methods and Experimental Design/Labs","no","mono","no","18","no","white","no","yes","768","legacy","18","18","C:/Users/warne/OneDrive/Documents/Tarleton - MS Applied Psychology/Adv Quantitative Methods and Experimental Design/Labs/SH-subject-2.csv","legacy","Lentiform Loewenfeld","3.3.9","0","s","NA","s","NA","NA","s","470","NA","29133","NA","NA","470","2","legacy","1024","2","48000","-16","experiment","SSSSS","2","even","31491","NA","NA","NA","63055","2358","NA","NA","50692","2347","NA","64113","64215","64686","64111","64215","Flanker Task","17","10940","19","yes","1024"
"90","90","574.8","574.8","black","legacy","legacy","legacy","0","incongruent","uniform","1","undefined","1","h","0","0","0","0","19","0","0","0","19","0","19","19","19","19","19","19","Sun Sep 19 12:42:36 2021","1500","The main experiment item","yes","FlankerTask.osexp","C:/Users/warne/OneDrive/Documents/Tarleton - MS Applied Psychology/Adv Quantitative Methods and Experimental Design/Labs","no","mono","no","18","no","white","no","yes","768","legacy","19","19","C:/Users/warne/OneDrive/Documents/Tarleton - MS Applied Psychology/Adv Quantitative Methods and Experimental Design/Labs/SH-subject-2.csv","legacy","Lentiform Loewenfeld","3.3.9","0","h","NA","s","NA","NA","h","556","NA","29133","NA","NA","556","2","legacy","1024","2","48000","-16","experiment","SSHSS","2","even","31491","NA","NA","NA","64691","2358","NA","NA","50692","2347","NA","65749","65854","66411","65747","65854","Flanker Task","18","11496","20","yes","1024"
"90.47619047619048","90.47619047619048","574.5714285714286","574.5714285714286","black","legacy","legacy","legacy","0","incongruent","uniform","1","undefined","1","h","0","0","0","0","20","0","0","0","20","0","20","20","20","20","20","20","Sun Sep 19 12:42:36 2021","1500","The main experiment item","yes","FlankerTask.osexp","C:/Users/warne/OneDrive/Documents/Tarleton - MS Applied Psychology/Adv Quantitative Methods and Experimental Design/Labs","no","mono","no","18","no","white","no","yes","768","legacy","20","20","C:/Users/warne/OneDrive/Documents/Tarleton - MS Applied Psychology/Adv Quantitative Methods and Experimental Design/Labs/SH-subject-2.csv","legacy","Lentiform Loewenfeld","3.3.9","0","h","NA","s","NA","NA","h","570","NA","29133","NA","NA","570","2","legacy","1024","2","48000","-16","experiment","SSHSS","2","even","31491","NA","NA","NA","66416","2358","NA","NA","50692","2347","NA","67476","67581","68151","67474","67581","Flanker Task","19","12066","21","yes","1024"
"90.9090909090909","90.9090909090909","574.4545454545455","574.4545454545455","black","legacy","legacy","legacy","0","incongruent","uniform","1","undefined","1","s","0","0","0","0","21","0","0","0","21","0","21","21","21","21","21","21","Sun Sep 19 12:42:36 2021","1500","The main experiment item","yes","FlankerTask.osexp","C:/Users/warne/OneDrive/Documents/Tarleton - MS Applied Psychology/Adv Quantitative Methods and Experimental Design/Labs","no","mono","no","18","no","white","no","yes","768","legacy","21","21","C:/Users/warne/OneDrive/Documents/Tarleton - MS Applied Psychology/Adv Quantitative Methods and Experimental Design/Labs/SH-subject-2.csv","legacy","Lentiform Loewenfeld","3.3.9","0","s","NA","s","NA","NA","s","572","NA","29133","NA","NA","572","2","legacy","1024","2","48000","-16","experiment","HHSHH","2","even","31491","NA","NA","NA","68156","2358","NA","NA","50692","2347","NA","69214","69319","69891","69212","69319","Flanker Task","20","12638","22","yes","1024"
"91.30434782608695","91.30434782608695","572.4347826086956","572.4347826086956","black","legacy","legacy","legacy","0","incongruent","uniform","1","undefined","1","h","0","0","0","0","22","0","0","0","22","0","22","22","22","22","22","22","Sun Sep 19 12:42:36 2021","1500","The main experiment item","yes","FlankerTask.osexp","C:/Users/warne/OneDrive/Documents/Tarleton - MS Applied Psychology/Adv Quantitative Methods and Experimental Design/Labs","no","mono","no","18","no","white","no","yes","768","legacy","22","22","C:/Users/warne/OneDrive/Documents/Tarleton - MS Applied Psychology/Adv Quantitative Methods and Experimental Design/Labs/SH-subject-2.csv","legacy","Lentiform Loewenfeld","3.3.9","0","h","NA","s","NA","NA","h","528","NA","29133","NA","NA","528","2","legacy","1024","2","48000","-16","experiment","SSHSS","2","even","31491","NA","NA","NA","69894","2358","NA","NA","50692","2347","NA","70953","71058","71587","70951","71058","Flanker Task","21","13166","23","yes","1024"
"91.66666666666667","91.66666666666667","572.9583333333334","572.9583333333334","black","legacy","legacy","legacy","0","incongruent","uniform","1","undefined","1","h","0","0","0","0","23","0","0","0","23","0","23","23","23","23","23","23","Sun Sep 19 12:42:36 2021","1500","The main experiment item","yes","FlankerTask.osexp","C:/Users/warne/OneDrive/Documents/Tarleton - MS Applied Psychology/Adv Quantitative Methods and Experimental Design/Labs","no","mono","no","18","no","white","no","yes","768","legacy","23","23","C:/Users/warne/OneDrive/Documents/Tarleton - MS Applied Psychology/Adv Quantitative Methods and Experimental Design/Labs/SH-subject-2.csv","legacy","Lentiform Loewenfeld","3.3.9","0","h","NA","s","NA","NA","h","585","NA","29133","NA","NA","585","2","legacy","1024","2","48000","-16","experiment","SSHSS","2","even","31491","NA","NA","NA","71592","2358","NA","NA","50692","2347","NA","72651","72756","73341","72649","72756","Flanker Task","22","13751","24","yes","1024"
"92","92","566.88","566.88","black","legacy","legacy","legacy","0","incongruent","uniform","1","undefined","1","h","0","0","0","0","24","0","0","0","24","0","24","24","24","24","24","24","Sun Sep 19 12:42:36 2021","1500","The main experiment item","yes","FlankerTask.osexp","C:/Users/warne/OneDrive/Documents/Tarleton - MS Applied Psychology/Adv Quantitative Methods and Experimental Design/Labs","no","mono","no","18","no","white","no","yes","768","legacy","24","24","C:/Users/warne/OneDrive/Documents/Tarleton - MS Applied Psychology/Adv Quantitative Methods and Experimental Design/Labs/SH-subject-2.csv","legacy","Lentiform Loewenfeld","3.3.9","0","h","NA","s","NA","NA","h","421","NA","29133","NA","NA","421","2","legacy","1024","2","48000","-16","experiment","SSHSS","2","even","31491","NA","NA","NA","73346","2358","NA","NA","50692","2347","NA","74405","74510","74932","74403","74510","Flanker Task","23","14172","25","yes","1024"
"92.3076923076923","92.3076923076923","563.6923076923077","563.6923076923077","black","legacy","legacy","legacy","0","incongruent","uniform","1","undefined","1","h","0","0","0","0","25","0","0","0","25","0","25","25","25","25","25","25","Sun Sep 19 12:42:36 2021","1500","The main experiment item","yes","FlankerTask.osexp","C:/Users/warne/OneDrive/Documents/Tarleton - MS Applied Psychology/Adv Quantitative Methods and Experimental Design/Labs","no","mono","no","18","no","white","no","yes","768","legacy","25","25","C:/Users/warne/OneDrive/Documents/Tarleton - MS Applied Psychology/Adv Quantitative Methods and Experimental Design/Labs/SH-subject-2.csv","legacy","Lentiform Loewenfeld","3.3.9","0","h","NA","s","NA","NA","h","484","NA","29133","NA","NA","484","2","legacy","1024","2","48000","-16","experiment","SSHSS","2","even","31491","NA","NA","NA","74935","2358","NA","NA","50692","2347","NA","75995","76097","76582","75993","76097","Flanker Task","24","14656","26","yes","1024"
"92.5925925925926","92.5925925925926","563.6296296296297","563.6296296296297","black","legacy","legacy","legacy","0","congruent","uniform","1","undefined","1","s","0","0","0","0","26","0","0","0","26","0","26","26","26","26","26","26","Sun Sep 19 12:42:36 2021","1500","The main experiment item","yes","FlankerTask.osexp","C:/Users/warne/OneDrive/Documents/Tarleton - MS Applied Psychology/Adv Quantitative Methods and Experimental Design/Labs","no","mono","no","18","no","white","no","yes","768","legacy","26","26","C:/Users/warne/OneDrive/Documents/Tarleton - MS Applied Psychology/Adv Quantitative Methods and Experimental Design/Labs/SH-subject-2.csv","legacy","Lentiform Loewenfeld","3.3.9","0","s","NA","s","NA","NA","s","562","NA","29133","NA","NA","562","2","legacy","1024","2","48000","-16","experiment","SSSSS","2","even","31491","NA","NA","NA","76585","2358","NA","NA","50692","2347","NA","77644","77745","78308","77642","77745","Flanker Task","25","15218","27","yes","1024"
"92.85714285714286","92.85714285714286","560.1071428571429","560.1071428571429","black","legacy","legacy","legacy","0","congruent","uniform","1","undefined","1","h","0","0","0","0","27","0","0","0","27","0","27","27","27","27","27","27","Sun Sep 19 12:42:36 2021","1500","The main experiment item","yes","FlankerTask.osexp","C:/Users/warne/OneDrive/Documents/Tarleton - MS Applied Psychology/Adv Quantitative Methods and Experimental Design/Labs","no","mono","no","18","no","white","no","yes","768","legacy","27","27","C:/Users/warne/OneDrive/Documents/Tarleton - MS Applied Psychology/Adv Quantitative Methods and Experimental Design/Labs/SH-subject-2.csv","legacy","Lentiform Loewenfeld","3.3.9","0","h","NA","s","NA","NA","h","465","NA","29133","NA","NA","465","2","legacy","1024","2","48000","-16","experiment","HHHHH","2","even","31491","NA","NA","NA","78313","2358","NA","NA","50692","2347","NA","79372","79477","79943","79371","79476","Flanker Task","26","15683","28","yes","1024"
"93.10344827586206","93.10344827586206","556.7931034482758","556.7931034482758","black","legacy","legacy","legacy","0","congruent","uniform","1","undefined","1","h","0","0","0","0","28","0","0","0","28","0","28","28","28","28","28","28","Sun Sep 19 12:42:36 2021","1500","The main experiment item","yes","FlankerTask.osexp","C:/Users/warne/OneDrive/Documents/Tarleton - MS Applied Psychology/Adv Quantitative Methods and Experimental Design/Labs","no","mono","no","18","no","white","no","yes","768","legacy","28","28","C:/Users/warne/OneDrive/Documents/Tarleton - MS Applied Psychology/Adv Quantitative Methods and Experimental Design/Labs/SH-subject-2.csv","legacy","Lentiform Loewenfeld","3.3.9","0","h","NA","s","NA","NA","h","464","NA","29133","NA","NA","464","2","legacy","1024","2","48000","-16","experiment","HHHHH","2","even","31491","NA","NA","NA","79946","2358","NA","NA","50692","2347","NA","81023","81128","81593","81021","81128","Flanker Task","27","16147","29","yes","1024"
"93.33333333333333","93.33333333333333","556.2666666666667","556.2666666666667","black","legacy","legacy","legacy","0","congruent","uniform","1","undefined","1","s","0","0","0","0","29","0","0","0","29","0","29","29","29","29","29","29","Sun Sep 19 12:42:36 2021","1500","The main experiment item","yes","FlankerTask.osexp","C:/Users/warne/OneDrive/Documents/Tarleton - MS Applied Psychology/Adv Quantitative Methods and Experimental Design/Labs","no","mono","no","18","no","white","no","yes","768","legacy","29","29","C:/Users/warne/OneDrive/Documents/Tarleton - MS Applied Psychology/Adv Quantitative Methods and Experimental Design/Labs/SH-subject-2.csv","legacy","Lentiform Loewenfeld","3.3.9","0","s","NA","s","NA","NA","s","541","NA","29133","NA","NA","541","2","legacy","1024","2","48000","-16","experiment","SSSSS","2","even","31491","NA","NA","NA","81598","2358","NA","NA","50692","2347","NA","82657","82762","83303","82655","82762","Flanker Task","28","16688","30","yes","1024"
"93.54838709677419","93.54838709677419","552.5483870967741","552.5483870967741","black","legacy","legacy","legacy","0","congruent","uniform","1","undefined","1","h","0","0","0","0","30","0","0","0","30","0","30","30","30","30","30","30","Sun Sep 19 12:42:36 2021","1500","The main experiment item","yes","FlankerTask.osexp","C:/Users/warne/OneDrive/Documents/Tarleton - MS Applied Psychology/Adv Quantitative Methods and Experimental Design/Labs","no","mono","no","18","no","white","no","yes","768","legacy","30","30","C:/Users/warne/OneDrive/Documents/Tarleton - MS Applied Psychology/Adv Quantitative Methods and Experimental Design/Labs/SH-subject-2.csv","legacy","Lentiform Loewenfeld","3.3.9","0","h","NA","s","NA","NA","h","441","NA","29133","NA","NA","441","2","legacy","1024","2","48000","-16","experiment","HHHHH","2","even","31491","NA","NA","NA","83306","2358","NA","NA","50692","2347","NA","84365","84467","84909","84363","84467","Flanker Task","29","17129","31","yes","1024"
"93.75","93.75","549.09375","549.09375","black","legacy","legacy","legacy","0","congruent","uniform","1","undefined","1","s","0","0","0","0","31","0","0","0","31","0","31","31","31","31","31","31","Sun Sep 19 12:42:36 2021","1500","The main experiment item","yes","FlankerTask.osexp","C:/Users/warne/OneDrive/Documents/Tarleton - MS Applied Psychology/Adv Quantitative Methods and Experimental Design/Labs","no","mono","no","18","no","white","no","yes","768","legacy","31","31","C:/Users/warne/OneDrive/Documents/Tarleton - MS Applied Psychology/Adv Quantitative Methods and Experimental Design/Labs/SH-subject-2.csv","legacy","Lentiform Loewenfeld","3.3.9","0","s","NA","s","NA","NA","s","442","NA","29133","NA","NA","442","2","legacy","1024","2","48000","-16","experiment","SSSSS","2","even","31491","NA","NA","NA","84912","2358","NA","NA","50692","2347","NA","85971","86072","86514","85970","86072","Flanker Task","30","17571","32","yes","1024"
"93.93939393939394","93.93939393939394","547","547","black","legacy","legacy","legacy","0","incongruent","uniform","1","undefined","1","h","0","0","0","0","32","0","0","0","32","0","32","32","32","32","32","32","Sun Sep 19 12:42:36 2021","1500","The main experiment item","yes","FlankerTask.osexp","C:/Users/warne/OneDrive/Documents/Tarleton - MS Applied Psychology/Adv Quantitative Methods and Experimental Design/Labs","no","mono","no","18","no","white","no","yes","768","legacy","32","32","C:/Users/warne/OneDrive/Documents/Tarleton - MS Applied Psychology/Adv Quantitative Methods and Experimental Design/Labs/SH-subject-2.csv","legacy","Lentiform Loewenfeld","3.3.9","0","h","NA","s","NA","NA","h","480","NA","29133","NA","NA","480","2","legacy","1024","2","48000","-16","experiment","SSHSS","2","even","31491","NA","NA","NA","86520","2358","NA","NA","50692","2347","NA","87578","87683","88164","87577","87683","Flanker Task","31","18051","33","yes","1024"
"94.11764705882354","94.11764705882354","543.6470588235294","543.6470588235294","black","legacy","legacy","legacy","0","congruent","uniform","1","undefined","1","h","0","0","0","0","33","0","0","0","33","0","33","33","33","33","33","33","Sun Sep 19 12:42:36 2021","1500","The main experiment item","yes","FlankerTask.osexp","C:/Users/warne/OneDrive/Documents/Tarleton - MS Applied Psychology/Adv Quantitative Methods and Experimental Design/Labs","no","mono","no","18","no","white","no","yes","768","legacy","33","33","C:/Users/warne/OneDrive/Documents/Tarleton - MS Applied Psychology/Adv Quantitative Methods and Experimental Design/Labs/SH-subject-2.csv","legacy","Lentiform Loewenfeld","3.3.9","0","h","NA","s","NA","NA","h","433","NA","29133","NA","NA","433","2","legacy","1024","2","48000","-16","experiment","HHHHH","2","even","31491","NA","NA","NA","88171","2358","NA","NA","50692","2347","NA","89231","89336","89769","89229","89336","Flanker Task","32","18484","34","yes","1024"
"94.28571428571429","94.28571428571429","540.6","540.6","black","legacy","legacy","legacy","0","congruent","uniform","1","undefined","1","s","0","0","0","0","34","0","0","0","34","0","34","34","34","34","34","34","Sun Sep 19 12:42:36 2021","1500","The main experiment item","yes","FlankerTask.osexp","C:/Users/warne/OneDrive/Documents/Tarleton - MS Applied Psychology/Adv Quantitative Methods and Experimental Design/Labs","no","mono","no","18","no","white","no","yes","768","legacy","34","34","C:/Users/warne/OneDrive/Documents/Tarleton - MS Applied Psychology/Adv Quantitative Methods and Experimental Design/Labs/SH-subject-2.csv","legacy","Lentiform Loewenfeld","3.3.9","0","s","NA","s","NA","NA","s","437","NA","29133","NA","NA","437","2","legacy","1024","2","48000","-16","experiment","SSSSS","2","even","31491","NA","NA","NA","89774","2358","NA","NA","50692","2347","NA","90832","90937","91375","90831","90937","Flanker Task","33","18921","35","yes","1024"
"94.44444444444444","94.44444444444444","536.8888888888889","536.8888888888889","black","legacy","legacy","legacy","0","incongruent","uniform","1","undefined","1","h","0","0","0","0","35","0","0","0","35","0","35","35","35","35","35","35","Sun Sep 19 12:42:36 2021","1500","The main experiment item","yes","FlankerTask.osexp","C:/Users/warne/OneDrive/Documents/Tarleton - MS Applied Psychology/Adv Quantitative Methods and Experimental Design/Labs","no","mono","no","18","no","white","no","yes","768","legacy","35","35","C:/Users/warne/OneDrive/Documents/Tarleton - MS Applied Psychology/Adv Quantitative Methods and Experimental Design/Labs/SH-subject-2.csv","legacy","Lentiform Loewenfeld","3.3.9","0","h","NA","s","NA","NA","h","407","NA","29133","NA","NA","407","2","legacy","1024","2","48000","-16","experiment","SSHSS","2","even","31491","NA","NA","NA","91379","2358","NA","NA","50692","2347","NA","92453","92558","92965","92451","92558","Flanker Task","34","19328","36","yes","1024"
"91.89189189189189","91.89189189189189","533.1351351351351","533.1351351351351","black","legacy","legacy","legacy","0","incongruent","uniform","0","undefined","0","s","0","0","0","0","36","0","0","0","36","0","36","36","36","36","36","36","Sun Sep 19 12:42:36 2021","1500","The main experiment item","yes","FlankerTask.osexp","C:/Users/warne/OneDrive/Documents/Tarleton - MS Applied Psychology/Adv Quantitative Methods and Experimental Design/Labs","no","mono","no","18","no","white","no","yes","768","legacy","36","36","C:/Users/warne/OneDrive/Documents/Tarleton - MS Applied Psychology/Adv Quantitative Methods and Experimental Design/Labs/SH-subject-2.csv","legacy","Lentiform Loewenfeld","3.3.9","0","h","NA","s","NA","NA","h","398","NA","29133","NA","NA","398","2","legacy","1024","2","48000","-16","experiment","HHSHH","2","even","31491","NA","NA","NA","92968","2358","NA","NA","50692","2347","NA","94026","94127","94525","94024","94127","Flanker Task","34","19726","37","yes","1024"
"92.10526315789474","92.10526315789474","534.421052631579","534.421052631579","black","legacy","legacy","legacy","0","congruent","uniform","1","undefined","1","s","0","0","0","0","37","0","0","0","37","0","37","37","37","37","37","37","Sun Sep 19 12:42:36 2021","1500","The main experiment item","yes","FlankerTask.osexp","C:/Users/warne/OneDrive/Documents/Tarleton - MS Applied Psychology/Adv Quantitative Methods and Experimental Design/Labs","no","mono","no","18","no","white","no","yes","768","legacy","37","37","C:/Users/warne/OneDrive/Documents/Tarleton - MS Applied Psychology/Adv Quantitative Methods and Experimental Design/Labs/SH-subject-2.csv","legacy","Lentiform Loewenfeld","3.3.9","0","s","NA","s","NA","NA","s","582","NA","29133","NA","NA","582","2","legacy","1024","2","48000","-16","experiment","SSSSS","2","even","31491","NA","NA","NA","95031","2358","NA","NA","94530","2347","NA","96091","96196","96778","96089","96196","Flanker Task","35","20308","38","yes","1024"
"92.3076923076923","92.3076923076923","536.7692307692307","536.7692307692307","black","legacy","legacy","legacy","0","congruent","uniform","1","undefined","1","s","0","0","0","0","38","0","0","0","38","0","38","38","38","38","38","38","Sun Sep 19 12:42:36 2021","1500","The main experiment item","yes","FlankerTask.osexp","C:/Users/warne/OneDrive/Documents/Tarleton - MS Applied Psychology/Adv Quantitative Methods and Experimental Design/Labs","no","mono","no","18","no","white","no","yes","768","legacy","38","38","C:/Users/warne/OneDrive/Documents/Tarleton - MS Applied Psychology/Adv Quantitative Methods and Experimental Design/Labs/SH-subject-2.csv","legacy","Lentiform Loewenfeld","3.3.9","0","s","NA","s","NA","NA","s","626","NA","29133","NA","NA","626","2","legacy","1024","2","48000","-16","experiment","SSSSS","2","even","31491","NA","NA","NA","96785","2358","NA","NA","94530","2347","NA","97844","97949","98576","97842","97949","Flanker Task","36","20934","39","yes","1024"
"92.5","92.5","536.85","536.85","black","legacy","legacy","legacy","0","incongruent","uniform","1","undefined","1","h","0","0","0","0","39","0","0","0","39","0","39","39","39","39","39","39","Sun Sep 19 12:42:36 2021","1500","The main experiment item","yes","FlankerTask.osexp","C:/Users/warne/OneDrive/Documents/Tarleton - MS Applied Psychology/Adv Quantitative Methods and Experimental Design/Labs","no","mono","no","18","no","white","no","yes","768","legacy","39","39","C:/Users/warne/OneDrive/Documents/Tarleton - MS Applied Psychology/Adv Quantitative Methods and Experimental Design/Labs/SH-subject-2.csv","legacy","Lentiform Loewenfeld","3.3.9","0","h","NA","s","NA","NA","h","540","NA","29133","NA","NA","540","2","legacy","1024","2","48000","-16","experiment","SSHSS","2","even","31491","NA","NA","NA","98581","2358","NA","NA","94530","2347","NA","99640","99745","100286","99638","99745","Flanker Task","37","21474","40","yes","1024"
"92.6829268292683","92.6829268292683","536.9512195121952","536.9512195121952","black","legacy","legacy","legacy","0","incongruent","uniform","1","undefined","1","s","0","0","0","0","40","0","0","0","40","0","40","40","40","40","40","40","Sun Sep 19 12:42:36 2021","1500","The main experiment item","yes","FlankerTask.osexp","C:/Users/warne/OneDrive/Documents/Tarleton - MS Applied Psychology/Adv Quantitative Methods and Experimental Design/Labs","no","mono","no","18","no","white","no","yes","768","legacy","40","40","C:/Users/warne/OneDrive/Documents/Tarleton - MS Applied Psychology/Adv Quantitative Methods and Experimental Design/Labs/SH-subject-2.csv","legacy","Lentiform Loewenfeld","3.3.9","0","s","NA","s","NA","NA","s","541","NA","29133","NA","NA","541","2","legacy","1024","2","48000","-16","experiment","HHSHH","2","even","31491","NA","NA","NA","100291","2358","NA","NA","94530","2347","NA","101350","101455","101997","101348","101455","Flanker Task","38","22015","41","yes","1024"
"90.47619047619048","90.47619047619048","532.7619047619048","532.7619047619048","black","legacy","legacy","legacy","0","congruent","uniform","0","undefined","0","s","0","0","0","0","41","0","0","0","41","0","41","41","41","41","41","41","Sun Sep 19 12:42:36 2021","1500","The main experiment item","yes","FlankerTask.osexp","C:/Users/warne/OneDrive/Documents/Tarleton - MS Applied Psychology/Adv Quantitative Methods and Experimental Design/Labs","no","mono","no","18","no","white","no","yes","768","legacy","41","41","C:/Users/warne/OneDrive/Documents/Tarleton - MS Applied Psychology/Adv Quantitative Methods and Experimental Design/Labs/SH-subject-2.csv","legacy","Lentiform Loewenfeld","3.3.9","0","h","NA","s","NA","NA","h","361","NA","29133","NA","NA","361","2","legacy","1024","2","48000","-16","experiment","SSSSS","2","even","31491","NA","NA","NA","102001","2358","NA","NA","94530","2347","NA","103060","103165","103526","103058","103165","Flanker Task","38","22376","42","yes","1024"
"90.69767441860465","90.69767441860465","531.8372093023256","531.8372093023256","black","legacy","legacy","legacy","0","congruent","uniform","1","undefined","1","h","0","0","0","0","42","0","0","0","42","0","42","42","42","42","42","42","Sun Sep 19 12:42:36 2021","1500","The main experiment item","yes","FlankerTask.osexp","C:/Users/warne/OneDrive/Documents/Tarleton - MS Applied Psychology/Adv Quantitative Methods and Experimental Design/Labs","no","mono","no","18","no","white","no","yes","768","legacy","42","42","C:/Users/warne/OneDrive/Documents/Tarleton - MS Applied Psychology/Adv Quantitative Methods and Experimental Design/Labs/SH-subject-2.csv","legacy","Lentiform Loewenfeld","3.3.9","0","h","NA","s","NA","NA","h","493","NA","29133","NA","NA","493","2","legacy","1024","2","48000","-16","experiment","HHHHH","2","even","31491","NA","NA","NA","104032","2358","NA","NA","103531","2347","NA","105091","105196","105690","105089","105196","Flanker Task","39","22869","43","yes","1024"
"90.9090909090909","90.9090909090909","534.8181818181819","534.8181818181819","black","legacy","legacy","legacy","0","incongruent","uniform","1","undefined","1","s","0","0","0","0","43","0","0","0","43","0","43","43","43","43","43","43","Sun Sep 19 12:42:36 2021","1500","The main experiment item","yes","FlankerTask.osexp","C:/Users/warne/OneDrive/Documents/Tarleton - MS Applied Psychology/Adv Quantitative Methods and Experimental Design/Labs","no","mono","no","18","no","white","no","yes","768","legacy","43","43","C:/Users/warne/OneDrive/Documents/Tarleton - MS Applied Psychology/Adv Quantitative Methods and Experimental Design/Labs/SH-subject-2.csv","legacy","Lentiform Loewenfeld","3.3.9","0","s","NA","s","NA","NA","s","663","NA","29133","NA","NA","663","2","legacy","1024","2","48000","-16","experiment","HHSHH","2","even","31491","NA","NA","NA","105693","2358","NA","NA","103531","2347","NA","106753","106853","107516","106751","106853","Flanker Task","40","23532","44","yes","1024"
"91.11111111111111","91.11111111111111","533.6444444444444","533.6444444444444","black","legacy","legacy","legacy","0","congruent","uniform","1","undefined","1","h","0","0","0","0","44","0","0","0","44","0","44","44","44","44","44","44","Sun Sep 19 12:42:36 2021","1500","The main experiment item","yes","FlankerTask.osexp","C:/Users/warne/OneDrive/Documents/Tarleton - MS Applied Psychology/Adv Quantitative Methods and Experimental Design/Labs","no","mono","no","18","no","white","no","yes","768","legacy","44","44","C:/Users/warne/OneDrive/Documents/Tarleton - MS Applied Psychology/Adv Quantitative Methods and Experimental Design/Labs/SH-subject-2.csv","legacy","Lentiform Loewenfeld","3.3.9","0","h","NA","s","NA","NA","h","482","NA","29133","NA","NA","482","2","legacy","1024","2","48000","-16","experiment","HHHHH","2","even","31491","NA","NA","NA","107521","2358","NA","NA","103531","2347","NA","108580","108685","109167","108578","108685","Flanker Task","41","24014","45","yes","1024"
"91.30434782608695","91.30434782608695","533.804347826087","533.804347826087","black","legacy","legacy","legacy","0","incongruent","uniform","1","undefined","1","s","0","0","0","0","45","0","0","0","45","0","45","45","45","45","45","45","Sun Sep 19 12:42:36 2021","1500","The main experiment item","yes","FlankerTask.osexp","C:/Users/warne/OneDrive/Documents/Tarleton - MS Applied Psychology/Adv Quantitative Methods and Experimental Design/Labs","no","mono","no","18","no","white","no","yes","768","legacy","45","45","C:/Users/warne/OneDrive/Documents/Tarleton - MS Applied Psychology/Adv Quantitative Methods and Experimental Design/Labs/SH-subject-2.csv","legacy","Lentiform Loewenfeld","3.3.9","0","s","NA","s","NA","NA","s","541","NA","29133","NA","NA","541","2","legacy","1024","2","48000","-16","experiment","HHSHH","2","even","31491","NA","NA","NA","109170","2358","NA","NA","103531","2347","NA","110230","110335","110877","110228","110335","Flanker Task","42","24555","46","yes","1024"
"91.48936170212765","91.48936170212765","534.6808510638298","534.6808510638298","black","legacy","legacy","legacy","0","incongruent","uniform","1","undefined","1","h","0","0","0","0","46","0","0","0","46","0","46","46","46","46","46","46","Sun Sep 19 12:42:36 2021","1500","The main experiment item","yes","FlankerTask.osexp","C:/Users/warne/OneDrive/Documents/Tarleton - MS Applied Psychology/Adv Quantitative Methods and Experimental Design/Labs","no","mono","no","18","no","white","no","yes","768","legacy","46","46","C:/Users/warne/OneDrive/Documents/Tarleton - MS Applied Psychology/Adv Quantitative Methods and Experimental Design/Labs/SH-subject-2.csv","legacy","Lentiform Loewenfeld","3.3.9","0","h","NA","s","NA","NA","h","575","NA","29133","NA","NA","575","2","legacy","1024","2","48000","-16","experiment","SSHSS","2","even","31491","NA","NA","NA","110882","2358","NA","NA","103531","2347","NA","111941","112042","112617","111939","112042","Flanker Task","43","25130","47","yes","1024"
"91.66666666666667","91.66666666666667","533.25","533.25","black","legacy","legacy","legacy","0","incongruent","uniform","1","undefined","1","s","0","0","0","0","47","0","0","0","47","0","47","47","47","47","47","47","Sun Sep 19 12:42:36 2021","1500","The main experiment item","yes","FlankerTask.osexp","C:/Users/warne/OneDrive/Documents/Tarleton - MS Applied Psychology/Adv Quantitative Methods and Experimental Design/Labs","no","mono","no","18","no","white","no","yes","768","legacy","47","47","C:/Users/warne/OneDrive/Documents/Tarleton - MS Applied Psychology/Adv Quantitative Methods and Experimental Design/Labs/SH-subject-2.csv","legacy","Lentiform Loewenfeld","3.3.9","0","s","NA","s","NA","NA","s","466","NA","29133","NA","NA","466","2","legacy","1024","2","48000","-16","experiment","HHSHH","2","even","31491","NA","NA","NA","112623","2358","NA","NA","103531","2347","NA","113681","113786","114253","113679","113786","Flanker Task","44","25596","48","yes","1024"
"91.83673469387755","91.83673469387755","535.265306122449","535.265306122449","black","legacy","legacy","legacy","0","congruent","uniform","1","undefined","1","s","0","0","0","0","48","0","0","0","48","0","48","48","48","48","48","48","Sun Sep 19 12:42:36 2021","1500","The main experiment item","yes","FlankerTask.osexp","C:/Users/warne/OneDrive/Documents/Tarleton - MS Applied Psychology/Adv Quantitative Methods and Experimental Design/Labs","no","mono","no","18","no","white","no","yes","768","legacy","48","48","C:/Users/warne/OneDrive/Documents/Tarleton - MS Applied Psychology/Adv Quantitative Methods and Experimental Design/Labs/SH-subject-2.csv","legacy","Lentiform Loewenfeld","3.3.9","0","s","NA","s","NA","NA","s","632","NA","29133","NA","NA","632","2","legacy","1024","2","48000","-16","experiment","SSSSS","2","even","31491","NA","NA","NA","114258","2358","NA","NA","103531","2347","NA","115316","115421","116054","115314","115421","Flanker Task","45","26228","49","yes","1024"
"92","92","537.02","537.02","black","legacy","legacy","legacy","0","incongruent","uniform","1","undefined","1","s","0","0","0","0","49","0","0","0","49","0","49","49","49","49","49","49","Sun Sep 19 12:42:36 2021","1500","The main experiment item","yes","FlankerTask.osexp","C:/Users/warne/OneDrive/Documents/Tarleton - MS Applied Psychology/Adv Quantitative Methods and Experimental Design/Labs","no","mono","no","18","no","white","no","yes","768","legacy","49","49","C:/Users/warne/OneDrive/Documents/Tarleton - MS Applied Psychology/Adv Quantitative Methods and Experimental Design/Labs/SH-subject-2.csv","legacy","Lentiform Loewenfeld","3.3.9","0","s","NA","s","NA","NA","s","623","NA","29133","NA","NA","623","2","legacy","1024","2","48000","-16","experiment","HHSHH","2","even","31491","NA","NA","NA","116057","2358","NA","NA","103531","2347","NA","117114","117215","117838","117112","117215","Flanker Task","46","26851","50","yes","1024"
"92.15686274509804","92.15686274509804","535.6470588235294","535.6470588235294","black","legacy","legacy","legacy","0","congruent","uniform","1","undefined","1","s","0","0","0","0","50","0","0","0","50","0","50","50","50","50","50","50","Sun Sep 19 12:42:36 2021","1500","The main experiment item","yes","FlankerTask.osexp","C:/Users/warne/OneDrive/Documents/Tarleton - MS Applied Psychology/Adv Quantitative Methods and Experimental Design/Labs","no","mono","no","18","no","white","no","yes","768","legacy","50","50","C:/Users/warne/OneDrive/Documents/Tarleton - MS Applied Psychology/Adv Quantitative Methods and Experimental Design/Labs/SH-subject-2.csv","legacy","Lentiform Loewenfeld","3.3.9","0","s","NA","s","NA","NA","s","467","NA","29133","NA","NA","467","2","legacy","1024","2","48000","-16","experiment","SSSSS","2","even","31491","NA","NA","NA","117843","2358","NA","NA","103531","2347","NA","118902","119006","119474","118900","119006","Flanker Task","47","27318","51","yes","1024"
"92.3076923076923","92.3076923076923","535.4423076923077","535.4423076923077","black","legacy","legacy","legacy","0","incongruent","uniform","1","undefined","1","h","0","0","0","0","51","0","0","0","51","0","51","51","51","51","51","51","Sun Sep 19 12:42:36 2021","1500","The main experiment item","yes","FlankerTask.osexp","C:/Users/warne/OneDrive/Documents/Tarleton - MS Applied Psychology/Adv Quantitative Methods and Experimental Design/Labs","no","mono","no","18","no","white","no","yes","768","legacy","51","51","C:/Users/warne/OneDrive/Documents/Tarleton - MS Applied Psychology/Adv Quantitative Methods and Experimental Design/Labs/SH-subject-2.csv","legacy","Lentiform Loewenfeld","3.3.9","0","h","NA","s","NA","NA","h","525","NA","29133","NA","NA","525","2","legacy","1024","2","48000","-16","experiment","SSHSS","2","even","31491","NA","NA","NA","119479","2358","NA","NA","103531","2347","NA","120538","120643","121169","120536","120643","Flanker Task","48","27843","52","yes","1024"
"92.45283018867924","92.45283018867924","533.2452830188679","533.2452830188679","black","legacy","legacy","legacy","0","congruent","uniform","1","undefined","1","s","0","0","0","0","52","0","0","0","52","0","52","52","52","52","52","52","Sun Sep 19 12:42:36 2021","1500","The main experiment item","yes","FlankerTask.osexp","C:/Users/warne/OneDrive/Documents/Tarleton - MS Applied Psychology/Adv Quantitative Methods and Experimental Design/Labs","no","mono","no","18","no","white","no","yes","768","legacy","52","52","C:/Users/warne/OneDrive/Documents/Tarleton - MS Applied Psychology/Adv Quantitative Methods and Experimental Design/Labs/SH-subject-2.csv","legacy","Lentiform Loewenfeld","3.3.9","0","s","NA","s","NA","NA","s","419","NA","29133","NA","NA","419","2","legacy","1024","2","48000","-16","experiment","SSSSS","2","even","31491","NA","NA","NA","121174","2358","NA","NA","103531","2347","NA","122234","122339","122759","122231","122339","Flanker Task","49","28262","53","yes","1024"
"92.5925925925926","92.5925925925926","532.2962962962963","532.2962962962963","black","legacy","legacy","legacy","0","incongruent","uniform","1","undefined","1","s","0","0","0","0","53","0","0","0","53","0","53","53","53","53","53","53","Sun Sep 19 12:42:36 2021","1500","The main experiment item","yes","FlankerTask.osexp","C:/Users/warne/OneDrive/Documents/Tarleton - MS Applied Psychology/Adv Quantitative Methods and Experimental Design/Labs","no","mono","no","18","no","white","no","yes","768","legacy","53","53","C:/Users/warne/OneDrive/Documents/Tarleton - MS Applied Psychology/Adv Quantitative Methods and Experimental Design/Labs/SH-subject-2.csv","legacy","Lentiform Loewenfeld","3.3.9","0","s","NA","s","NA","NA","s","482","NA","29133","NA","NA","482","2","legacy","1024","2","48000","-16","experiment","HHSHH","2","even","31491","NA","NA","NA","122764","2358","NA","NA","103531","2347","NA","123822","123927","124410","123820","123927","Flanker Task","50","28744","54","yes","1024"
"92.72727272727273","92.72727272727273","531.6","531.6","black","legacy","legacy","legacy","0","incongruent","uniform","1","undefined","1","h","0","0","0","0","54","0","0","0","54","0","54","54","54","54","54","54","Sun Sep 19 12:42:36 2021","1500","The main experiment item","yes","FlankerTask.osexp","C:/Users/warne/OneDrive/Documents/Tarleton - MS Applied Psychology/Adv Quantitative Methods and Experimental Design/Labs","no","mono","no","18","no","white","no","yes","768","legacy","54","54","C:/Users/warne/OneDrive/Documents/Tarleton - MS Applied Psychology/Adv Quantitative Methods and Experimental Design/Labs/SH-subject-2.csv","legacy","Lentiform Loewenfeld","3.3.9","0","h","NA","s","NA","NA","h","494","NA","29133","NA","NA","494","2","legacy","1024","2","48000","-16","experiment","SSHSS","2","even","31491","NA","NA","NA","124416","2358","NA","NA","103531","2347","NA","125475","125580","126075","125473","125580","Flanker Task","51","29238","55","yes","1024"
"92.85714285714286","92.85714285714286","529.9642857142857","529.9642857142857","black","legacy","legacy","legacy","0","congruent","uniform","1","undefined","1","h","0","0","0","0","55","0","0","0","55","0","55","55","55","55","55","55","Sun Sep 19 12:42:36 2021","1500","The main experiment item","yes","FlankerTask.osexp","C:/Users/warne/OneDrive/Documents/Tarleton - MS Applied Psychology/Adv Quantitative Methods and Experimental Design/Labs","no","mono","no","18","no","white","no","yes","768","legacy","55","55","C:/Users/warne/OneDrive/Documents/Tarleton - MS Applied Psychology/Adv Quantitative Methods and Experimental Design/Labs/SH-subject-2.csv","legacy","Lentiform Loewenfeld","3.3.9","0","h","NA","s","NA","NA","h","440","NA","29133","NA","NA","440","2","legacy","1024","2","48000","-16","experiment","HHHHH","2","even","31491","NA","NA","NA","126080","2358","NA","NA","103531","2347","NA","127139","127240","127680","127137","127240","Flanker Task","52","29678","56","yes","1024"
"92.98245614035088","92.98245614035088","527.7894736842105","527.7894736842105","black","legacy","legacy","legacy","0","congruent","uniform","1","undefined","1","h","0","0","0","0","56","0","0","0","56","0","56","56","56","56","56","56","Sun Sep 19 12:42:36 2021","1500","The main experiment item","yes","FlankerTask.osexp","C:/Users/warne/OneDrive/Documents/Tarleton - MS Applied Psychology/Adv Quantitative Methods and Experimental Design/Labs","no","mono","no","18","no","white","no","yes","768","legacy","56","56","C:/Users/warne/OneDrive/Documents/Tarleton - MS Applied Psychology/Adv Quantitative Methods and Experimental Design/Labs/SH-subject-2.csv","legacy","Lentiform Loewenfeld","3.3.9","0","h","NA","s","NA","NA","h","406","NA","29133","NA","NA","406","2","legacy","1024","2","48000","-16","experiment","HHHHH","2","even","31491","NA","NA","NA","127685","2358","NA","NA","103531","2347","NA","128743","128848","129255","128741","128848","Flanker Task","53","30084","57","yes","1024"
"93.10344827586206","93.10344827586206","525.2413793103449","525.2413793103449","black","legacy","legacy","legacy","0","congruent","uniform","1","undefined","1","h","0","0","0","0","57","0","0","0","57","0","57","57","57","57","57","57","Sun Sep 19 12:42:36 2021","1500","The main experiment item","yes","FlankerTask.osexp","C:/Users/warne/OneDrive/Documents/Tarleton - MS Applied Psychology/Adv Quantitative Methods and Experimental Design/Labs","no","mono","no","18","no","white","no","yes","768","legacy","57","57","C:/Users/warne/OneDrive/Documents/Tarleton - MS Applied Psychology/Adv Quantitative Methods and Experimental Design/Labs/SH-subject-2.csv","legacy","Lentiform Loewenfeld","3.3.9","0","h","NA","s","NA","NA","h","380","NA","29133","NA","NA","380","2","legacy","1024","2","48000","-16","experiment","HHHHH","2","even","31491","NA","NA","NA","129260","2358","NA","NA","103531","2347","NA","130319","130420","130800","130317","130420","Flanker Task","54","30464","58","yes","1024"
"93.22033898305085","93.22033898305085","526.0847457627119","526.0847457627119","black","legacy","legacy","legacy","0","incongruent","uniform","1","undefined","1","h","0","0","0","0","58","0","0","0","58","0","58","58","58","58","58","58","Sun Sep 19 12:42:36 2021","1500","The main experiment item","yes","FlankerTask.osexp","C:/Users/warne/OneDrive/Documents/Tarleton - MS Applied Psychology/Adv Quantitative Methods and Experimental Design/Labs","no","mono","no","18","no","white","no","yes","768","legacy","58","58","C:/Users/warne/OneDrive/Documents/Tarleton - MS Applied Psychology/Adv Quantitative Methods and Experimental Design/Labs/SH-subject-2.csv","legacy","Lentiform Loewenfeld","3.3.9","0","h","NA","s","NA","NA","h","575","NA","29133","NA","NA","575","2","legacy","1024","2","48000","-16","experiment","SSHSS","2","even","31491","NA","NA","NA","130805","2358","NA","NA","103531","2347","NA","131864","131965","132540","131862","131965","Flanker Task","55","31039","59","yes","1024"
"93.33333333333333","93.33333333333333","524.0833333333334","524.0833333333334","black","legacy","legacy","legacy","0","congruent","uniform","1","undefined","1","h","0","0","0","0","59","0","0","0","59","0","59","59","59","59","59","59","Sun Sep 19 12:42:36 2021","1500","The main experiment item","yes","FlankerTask.osexp","C:/Users/warne/OneDrive/Documents/Tarleton - MS Applied Psychology/Adv Quantitative Methods and Experimental Design/Labs","no","mono","no","18","no","white","no","yes","768","legacy","59","59","C:/Users/warne/OneDrive/Documents/Tarleton - MS Applied Psychology/Adv Quantitative Methods and Experimental Design/Labs/SH-subject-2.csv","legacy","Lentiform Loewenfeld","3.3.9","0","h","NA","s","NA","NA","h","406","NA","29133","NA","NA","406","2","legacy","1024","2","48000","-16","experiment","HHHHH","2","even","31491","NA","NA","NA","132544","2358","NA","NA","103531","2347","NA","133604","133709","134116","133602","133709","Flanker Task","56","31445","60","yes","1024"
"93.44262295081967","93.44262295081967","523.639344262295","523.639344262295","black","legacy","legacy","legacy","0","congruent","uniform","1","undefined","1","s","0","0","0","0","60","0","0","0","60","0","60","60","60","60","60","60","Sun Sep 19 12:42:36 2021","1500","The main experiment item","yes","FlankerTask.osexp","C:/Users/warne/OneDrive/Documents/Tarleton - MS Applied Psychology/Adv Quantitative Methods and Experimental Design/Labs","no","mono","no","18","no","white","no","yes","768","legacy","60","60","C:/Users/warne/OneDrive/Documents/Tarleton - MS Applied Psychology/Adv Quantitative Methods and Experimental Design/Labs/SH-subject-2.csv","legacy","Lentiform Loewenfeld","3.3.9","0","s","NA","s","NA","NA","s","497","NA","29133","NA","NA","497","2","legacy","1024","2","48000","-16","experiment","SSSSS","2","even","31491","NA","NA","NA","134121","2358","NA","NA","103531","2347","NA","135179","135284","135782","135177","135284","Flanker Task","57","31942","61","yes","1024"
"93.54838709677419","93.54838709677419","522.5322580645161","522.5322580645161","black","legacy","legacy","legacy","0","congruent","uniform","1","undefined","1","s","0","0","0","0","61","0","0","0","61","0","61","61","61","61","61","61","Sun Sep 19 12:42:36 2021","1500","The main experiment item","yes","FlankerTask.osexp","C:/Users/warne/OneDrive/Documents/Tarleton - MS Applied Psychology/Adv Quantitative Methods and Experimental Design/Labs","no","mono","no","18","no","white","no","yes","768","legacy","61","61","C:/Users/warne/OneDrive/Documents/Tarleton - MS Applied Psychology/Adv Quantitative Methods and Experimental Design/Labs/SH-subject-2.csv","legacy","Lentiform Loewenfeld","3.3.9","0","s","NA","s","NA","NA","s","455","NA","29133","NA","NA","455","2","legacy","1024","2","48000","-16","experiment","SSSSS","2","even","31491","NA","NA","NA","135785","2358","NA","NA","103531","2347","NA","136842","136946","137401","136841","136946","Flanker Task","58","32397","62","yes","1024"
"93.65079365079364","93.65079365079364","521.4603174603175","521.4603174603175","black","legacy","legacy","legacy","0","congruent","uniform","1","undefined","1","s","0","0","0","0","62","0","0","0","62","0","62","62","62","62","62","62","Sun Sep 19 12:42:36 2021","1500","The main experiment item","yes","FlankerTask.osexp","C:/Users/warne/OneDrive/Documents/Tarleton - MS Applied Psychology/Adv Quantitative Methods and Experimental Design/Labs","no","mono","no","18","no","white","no","yes","768","legacy","62","62","C:/Users/warne/OneDrive/Documents/Tarleton - MS Applied Psychology/Adv Quantitative Methods and Experimental Design/Labs/SH-subject-2.csv","legacy","Lentiform Loewenfeld","3.3.9","0","s","NA","s","NA","NA","s","455","NA","29133","NA","NA","455","2","legacy","1024","2","48000","-16","experiment","SSSSS","2","even","31491","NA","NA","NA","137406","2358","NA","NA","103531","2347","NA","138465","138566","139022","138463","138566","Flanker Task","59","32852","63","yes","1024"
"93.75","93.75","520.59375","520.59375","black","legacy","legacy","legacy","0","congruent","uniform","1","undefined","1","h","0","0","0","0","63","0","0","0","63","0","63","63","63","63","63","63","Sun Sep 19 12:42:36 2021","1500","The main experiment item","yes","FlankerTask.osexp","C:/Users/warne/OneDrive/Documents/Tarleton - MS Applied Psychology/Adv Quantitative Methods and Experimental Design/Labs","no","mono","no","18","no","white","no","yes","768","legacy","63","63","C:/Users/warne/OneDrive/Documents/Tarleton - MS Applied Psychology/Adv Quantitative Methods and Experimental Design/Labs/SH-subject-2.csv","legacy","Lentiform Loewenfeld","3.3.9","0","h","NA","s","NA","NA","h","466","NA","29133","NA","NA","466","2","legacy","1024","2","48000","-16","experiment","HHHHH","2","even","31491","NA","NA","NA","139026","2358","NA","NA","103531","2347","NA","140085","140190","140656","140083","140190","Flanker Task","60","33318","64","yes","1024"
"93.84615384615384","93.84615384615384","520.2461538461539","520.2461538461539","black","legacy","legacy","legacy","0","congruent","uniform","1","undefined","1","s","0","0","0","0","64","0","0","0","64","0","64","64","64","64","64","64","Sun Sep 19 12:42:36 2021","1500","The main experiment item","yes","FlankerTask.osexp","C:/Users/warne/OneDrive/Documents/Tarleton - MS Applied Psychology/Adv Quantitative Methods and Experimental Design/Labs","no","mono","no","18","no","white","no","yes","768","legacy","64","64","C:/Users/warne/OneDrive/Documents/Tarleton - MS Applied Psychology/Adv Quantitative Methods and Experimental Design/Labs/SH-subject-2.csv","legacy","Lentiform Loewenfeld","3.3.9","0","s","NA","s","NA","NA","s","498","NA","29133","NA","NA","498","2","legacy","1024","2","48000","-16","experiment","SSSSS","2","even","31491","NA","NA","NA","140661","2358","NA","NA","103531","2347","NA","141719","141824","142323","141717","141824","Flanker Task","61","33816","65","yes","1024"
"93.93939393939394","93.93939393939394","521.2424242424242","521.2424242424242","black","legacy","legacy","legacy","0","incongruent","uniform","1","undefined","1","s","0","0","0","0","65","0","0","0","65","0","65","65","65","65","65","65","Sun Sep 19 12:42:36 2021","1500","The main experiment item","yes","FlankerTask.osexp","C:/Users/warne/OneDrive/Documents/Tarleton - MS Applied Psychology/Adv Quantitative Methods and Experimental Design/Labs","no","mono","no","18","no","white","no","yes","768","legacy","65","65","C:/Users/warne/OneDrive/Documents/Tarleton - MS Applied Psychology/Adv Quantitative Methods and Experimental Design/Labs/SH-subject-2.csv","legacy","Lentiform Loewenfeld","3.3.9","0","s","NA","s","NA","NA","s","586","NA","29133","NA","NA","586","2","legacy","1024","2","48000","-16","experiment","HHSHH","2","even","31491","NA","NA","NA","142327","2358","NA","NA","103531","2347","NA","143385","143490","144077","143384","143490","Flanker Task","62","34402","66","yes","1024"
"94.02985074626865","94.02985074626865","521.2985074626865","521.2985074626865","black","legacy","legacy","legacy","0","congruent","uniform","1","undefined","1","s","0","0","0","0","66","0","0","0","66","0","66","66","66","66","66","66","Sun Sep 19 12:42:36 2021","1500","The main experiment item","yes","FlankerTask.osexp","C:/Users/warne/OneDrive/Documents/Tarleton - MS Applied Psychology/Adv Quantitative Methods and Experimental Design/Labs","no","mono","no","18","no","white","no","yes","768","legacy","66","66","C:/Users/warne/OneDrive/Documents/Tarleton - MS Applied Psychology/Adv Quantitative Methods and Experimental Design/Labs/SH-subject-2.csv","legacy","Lentiform Loewenfeld","3.3.9","0","s","NA","s","NA","NA","s","525","NA","29133","NA","NA","525","2","legacy","1024","2","48000","-16","experiment","SSSSS","2","even","31491","NA","NA","NA","144083","2358","NA","NA","103531","2347","NA","145141","145246","145772","145140","145246","Flanker Task","63","34927","67","yes","1024"
"94.11764705882354","94.11764705882354","520.4852941176471","520.4852941176471","black","legacy","legacy","legacy","0","congruent","uniform","1","undefined","1","s","0","0","0","0","67","0","0","0","67","0","67","67","67","67","67","67","Sun Sep 19 12:42:36 2021","1500","The main experiment item","yes","FlankerTask.osexp","C:/Users/warne/OneDrive/Documents/Tarleton - MS Applied Psychology/Adv Quantitative Methods and Experimental Design/Labs","no","mono","no","18","no","white","no","yes","768","legacy","67","67","C:/Users/warne/OneDrive/Documents/Tarleton - MS Applied Psychology/Adv Quantitative Methods and Experimental Design/Labs/SH-subject-2.csv","legacy","Lentiform Loewenfeld","3.3.9","0","s","NA","s","NA","NA","s","466","NA","29133","NA","NA","466","2","legacy","1024","2","48000","-16","experiment","SSSSS","2","even","31491","NA","NA","NA","145777","2358","NA","NA","103531","2347","NA","146852","146956","147422","146850","146956","Flanker Task","64","35393","68","yes","1024"
"94.20289855072464","94.20289855072464","521.6811594202899","521.6811594202899","black","legacy","legacy","legacy","0","incongruent","uniform","1","undefined","1","s","0","0","0","0","68","0","0","0","68","0","68","68","68","68","68","68","Sun Sep 19 12:42:36 2021","1500","The main experiment item","yes","FlankerTask.osexp","C:/Users/warne/OneDrive/Documents/Tarleton - MS Applied Psychology/Adv Quantitative Methods and Experimental Design/Labs","no","mono","no","18","no","white","no","yes","768","legacy","68","68","C:/Users/warne/OneDrive/Documents/Tarleton - MS Applied Psychology/Adv Quantitative Methods and Experimental Design/Labs/SH-subject-2.csv","legacy","Lentiform Loewenfeld","3.3.9","0","s","NA","s","NA","NA","s","603","NA","29133","NA","NA","603","2","legacy","1024","2","48000","-16","experiment","HHSHH","2","even","31491","NA","NA","NA","147426","2358","NA","NA","103531","2347","NA","148485","148589","149193","148483","148589","Flanker Task","65","35996","69","yes","1024"
"94.28571428571429","94.28571428571429","521.0857142857143","521.0857142857143","black","legacy","legacy","legacy","0","congruent","uniform","1","undefined","1","s","0","0","0","0","69","0","0","0","69","0","69","69","69","69","69","69","Sun Sep 19 12:42:36 2021","1500","The main experiment item","yes","FlankerTask.osexp","C:/Users/warne/OneDrive/Documents/Tarleton - MS Applied Psychology/Adv Quantitative Methods and Experimental Design/Labs","no","mono","no","18","no","white","no","yes","768","legacy","69","69","C:/Users/warne/OneDrive/Documents/Tarleton - MS Applied Psychology/Adv Quantitative Methods and Experimental Design/Labs/SH-subject-2.csv","legacy","Lentiform Loewenfeld","3.3.9","0","s","NA","s","NA","NA","s","480","NA","29133","NA","NA","480","2","legacy","1024","2","48000","-16","experiment","SSSSS","2","even","31491","NA","NA","NA","149198","2358","NA","NA","103531","2347","NA","150257","150362","150843","150255","150362","Flanker Task","66","36476","70","yes","1024"
"94.36619718309859","94.36619718309859","520.943661971831","520.943661971831","black","legacy","legacy","legacy","0","congruent","uniform","1","undefined","1","h","0","0","0","0","70","0","0","0","70","0","70","70","70","70","70","70","Sun Sep 19 12:42:36 2021","1500","The main experiment item","yes","FlankerTask.osexp","C:/Users/warne/OneDrive/Documents/Tarleton - MS Applied Psychology/Adv Quantitative Methods and Experimental Design/Labs","no","mono","no","18","no","white","no","yes","768","legacy","70","70","C:/Users/warne/OneDrive/Documents/Tarleton - MS Applied Psychology/Adv Quantitative Methods and Experimental Design/Labs/SH-subject-2.csv","legacy","Lentiform Loewenfeld","3.3.9","0","h","NA","s","NA","NA","h","511","NA","29133","NA","NA","511","2","legacy","1024","2","48000","-16","experiment","HHHHH","2","even","31491","NA","NA","NA","150848","2358","NA","NA","103531","2347","NA","151907","152012","152523","151905","152012","Flanker Task","67","36987","71","yes","1024"
"94.44444444444444","94.44444444444444","521.625","521.625","black","legacy","legacy","legacy","0","incongruent","uniform","1","undefined","1","s","0","0","0","0","71","0","0","0","71","0","71","71","71","71","71","71","Sun Sep 19 12:42:36 2021","1500","The main experiment item","yes","FlankerTask.osexp","C:/Users/warne/OneDrive/Documents/Tarleton - MS Applied Psychology/Adv Quantitative Methods and Experimental Design/Labs","no","mono","no","18","no","white","no","yes","768","legacy","71","71","C:/Users/warne/OneDrive/Documents/Tarleton - MS Applied Psychology/Adv Quantitative Methods and Experimental Design/Labs/SH-subject-2.csv","legacy","Lentiform Loewenfeld","3.3.9","0","s","NA","s","NA","NA","s","570","NA","29133","NA","NA","570","2","legacy","1024","2","48000","-16","experiment","HHSHH","2","even","31491","NA","NA","NA","152528","2358","NA","NA","103531","2347","NA","153587","153693","154264","153586","153693","Flanker Task","68","37557","72","yes","1024"
"94.52054794520548","94.52054794520548","523.986301369863","523.986301369863","black","legacy","legacy","legacy","0","incongruent","uniform","1","undefined","1","s","0","0","0","0","72","0","0","0","72","0","72","72","72","72","72","72","Sun Sep 19 12:42:36 2021","1500","The main experiment item","yes","FlankerTask.osexp","C:/Users/warne/OneDrive/Documents/Tarleton - MS Applied Psychology/Adv Quantitative Methods and Experimental Design/Labs","no","mono","no","18","no","white","no","yes","768","legacy","72","72","C:/Users/warne/OneDrive/Documents/Tarleton - MS Applied Psychology/Adv Quantitative Methods and Experimental Design/Labs/SH-subject-2.csv","legacy","Lentiform Loewenfeld","3.3.9","0","s","NA","s","NA","NA","s","694","NA","29133","NA","NA","694","2","legacy","1024","2","48000","-16","experiment","HHSHH","2","even","31491","NA","NA","NA","154267","2358","NA","NA","103531","2347","NA","155325","155430","156125","155323","155430","Flanker Task","69","38251","73","yes","1024"
"94.5945945945946","94.5945945945946","526.2837837837837","526.2837837837837","black","legacy","legacy","legacy","0","incongruent","uniform","1","undefined","1","s","0","0","0","0","73","0","0","0","73","0","73","73","73","73","73","73","Sun Sep 19 12:42:36 2021","1500","The main experiment item","yes","FlankerTask.osexp","C:/Users/warne/OneDrive/Documents/Tarleton - MS Applied Psychology/Adv Quantitative Methods and Experimental Design/Labs","no","mono","no","18","no","white","no","yes","768","legacy","73","73","C:/Users/warne/OneDrive/Documents/Tarleton - MS Applied Psychology/Adv Quantitative Methods and Experimental Design/Labs/SH-subject-2.csv","legacy","Lentiform Loewenfeld","3.3.9","0","s","NA","s","NA","NA","s","694","NA","29133","NA","NA","694","2","legacy","1024","2","48000","-16","experiment","HHSHH","2","even","31491","NA","NA","NA","156128","2358","NA","NA","103531","2347","NA","157204","157305","158000","157202","157305","Flanker Task","70","38945","74","yes","1024"
"94.66666666666667","94.66666666666667","525.28","525.28","black","legacy","legacy","legacy","0","incongruent","uniform","1","undefined","1","h","0","0","0","0","74","0","0","0","74","0","74","74","74","74","74","74","Sun Sep 19 12:42:36 2021","1500","The main experiment item","yes","FlankerTask.osexp","C:/Users/warne/OneDrive/Documents/Tarleton - MS Applied Psychology/Adv Quantitative Methods and Experimental Design/Labs","no","mono","no","18","no","white","no","yes","768","legacy","74","74","C:/Users/warne/OneDrive/Documents/Tarleton - MS Applied Psychology/Adv Quantitative Methods and Experimental Design/Labs/SH-subject-2.csv","legacy","Lentiform Loewenfeld","3.3.9","0","h","NA","s","NA","NA","h","451","NA","29133","NA","NA","451","2","legacy","1024","2","48000","-16","experiment","SSHSS","2","even","31491","NA","NA","NA","158005","2358","NA","NA","103531","2347","NA","159063","159168","159619","159061","159168","Flanker Task","71","39396","75","yes","1024"
"94.73684210526316","94.73684210526316","524.078947368421","524.078947368421","black","legacy","legacy","legacy","0","incongruent","uniform","1","undefined","1","s","0","0","0","0","75","0","0","0","75","0","75","75","75","75","75","75","Sun Sep 19 12:42:36 2021","1500","The main experiment item","yes","FlankerTask.osexp","C:/Users/warne/OneDrive/Documents/Tarleton - MS Applied Psychology/Adv Quantitative Methods and Experimental Design/Labs","no","mono","no","18","no","white","no","yes","768","legacy","75","75","C:/Users/warne/OneDrive/Documents/Tarleton - MS Applied Psychology/Adv Quantitative Methods and Experimental Design/Labs/SH-subject-2.csv","legacy","Lentiform Loewenfeld","3.3.9","0","s","NA","s","NA","NA","s","434","NA","29133","NA","NA","434","2","legacy","1024","2","48000","-16","experiment","HHSHH","2","even","31491","NA","NA","NA","159624","2358","NA","NA","103531","2347","NA","160684","160789","161224","160682","160789","Flanker Task","72","39830","76","yes","1024"
"94.8051948051948","94.8051948051948","522.5844155844156","522.5844155844156","black","legacy","legacy","legacy","0","congruent","uniform","1","undefined","1","h","0","0","0","0","76","0","0","0","76","0","76","76","76","76","76","76","Sun Sep 19 12:42:36 2021","1500","The main experiment item","yes","FlankerTask.osexp","C:/Users/warne/OneDrive/Documents/Tarleton - MS Applied Psychology/Adv Quantitative Methods and Experimental Design/Labs","no","mono","no","18","no","white","no","yes","768","legacy","76","76","C:/Users/warne/OneDrive/Documents/Tarleton - MS Applied Psychology/Adv Quantitative Methods and Experimental Design/Labs/SH-subject-2.csv","legacy","Lentiform Loewenfeld","3.3.9","0","h","NA","s","NA","NA","h","409","NA","29133","NA","NA","409","2","legacy","1024","2","48000","-16","experiment","HHHHH","2","even","31491","NA","NA","NA","161229","2358","NA","NA","103531","2347","NA","162285","162390","162800","162284","162390","Flanker Task","73","40239","77","yes","1024"
"94.87179487179488","94.87179487179488","521.4871794871794","521.4871794871794","black","legacy","legacy","legacy","0","congruent","uniform","1","undefined","1","s","0","0","0","0","77","0","0","0","77","0","77","77","77","77","77","77","Sun Sep 19 12:42:36 2021","1500","The main experiment item","yes","FlankerTask.osexp","C:/Users/warne/OneDrive/Documents/Tarleton - MS Applied Psychology/Adv Quantitative Methods and Experimental Design/Labs","no","mono","no","18","no","white","no","yes","768","legacy","77","77","C:/Users/warne/OneDrive/Documents/Tarleton - MS Applied Psychology/Adv Quantitative Methods and Experimental Design/Labs/SH-subject-2.csv","legacy","Lentiform Loewenfeld","3.3.9","0","s","NA","s","NA","NA","s","437","NA","29133","NA","NA","437","2","legacy","1024","2","48000","-16","experiment","SSSSS","2","even","31491","NA","NA","NA","162804","2358","NA","NA","103531","2347","NA","163864","163969","164407","163862","163969","Flanker Task","74","40676","78","yes","1024"
"94.9367088607595","94.9367088607595","521.7215189873418","521.7215189873418","black","legacy","legacy","legacy","0","incongruent","uniform","1","undefined","1","s","0","0","0","0","78","0","0","0","78","0","78","78","78","78","78","78","Sun Sep 19 12:42:36 2021","1500","The main experiment item","yes","FlankerTask.osexp","C:/Users/warne/OneDrive/Documents/Tarleton - MS Applied Psychology/Adv Quantitative Methods and Experimental Design/Labs","no","mono","no","18","no","white","no","yes","768","legacy","78","78","C:/Users/warne/OneDrive/Documents/Tarleton - MS Applied Psychology/Adv Quantitative Methods and Experimental Design/Labs/SH-subject-2.csv","legacy","Lentiform Loewenfeld","3.3.9","0","s","NA","s","NA","NA","s","540","NA","29133","NA","NA","540","2","legacy","1024","2","48000","-16","experiment","HHSHH","2","even","31491","NA","NA","NA","164411","2358","NA","NA","103531","2347","NA","165470","165575","166116","165468","165575","Flanker Task","75","41216","79","yes","1024"
"95","95","519.7","519.7","black","legacy","legacy","legacy","0","congruent","uniform","1","undefined","1","h","0","0","0","0","79","0","0","0","79","0","79","79","79","79","79","79","Sun Sep 19 12:42:36 2021","1500","The main experiment item","yes","FlankerTask.osexp","C:/Users/warne/OneDrive/Documents/Tarleton - MS Applied Psychology/Adv Quantitative Methods and Experimental Design/Labs","no","mono","no","18","no","white","no","yes","768","legacy","79","79","C:/Users/warne/OneDrive/Documents/Tarleton - MS Applied Psychology/Adv Quantitative Methods and Experimental Design/Labs/SH-subject-2.csv","legacy","Lentiform Loewenfeld","3.3.9","0","h","NA","s","NA","NA","h","360","NA","29133","NA","NA","360","2","legacy","1024","2","48000","-16","experiment","HHHHH","2","even","31491","NA","NA","NA","166121","2358","NA","NA","103531","2347","NA","167180","167285","167645","167178","167285","Flanker Task","76","41576","80","yes","1024"
"95.06172839506173","95.06172839506173","519.4320987654321","519.4320987654321","black","legacy","legacy","legacy","0","congruent","uniform","1","undefined","1","h","0","0","0","0","80","0","0","0","80","0","80","80","80","80","80","80","Sun Sep 19 12:42:36 2021","600","The main experiment item","yes","FlankerTask.osexp","C:/Users/warne/OneDrive/Documents/Tarleton - MS Applied Psychology/Adv Quantitative Methods and Experimental Design/Labs","no","mono","no","18","no","white","no","yes","768","legacy","0","79","C:/Users/warne/OneDrive/Documents/Tarleton - MS Applied Psychology/Adv Quantitative Methods and Experimental Design/Labs/SH-subject-2.csv","legacy","Lentiform Loewenfeld","3.3.9","0","h","NA","s","s","NA","h","498","NA","29133","17193","NA","498","2","legacy","1024","2","48000","-16","experiment","HHHHH","2","even","31491","185862","NA","NA","167650","2358","168669","NA","103531","2347","NA","185914","186020","186519","185913","186019","Flanker Task","77","42074","81","yes","1024"
"95.1219512195122","95.1219512195122","518.2073170731708","518.2073170731708","black","legacy","legacy","legacy","0","congruent","uniform","1","undefined","1","h","0","0","0","0","81","0","0","0","81","0","81","81","81","81","81","81","Sun Sep 19 12:42:36 2021","600","The main experiment item","yes","FlankerTask.osexp","C:/Users/warne/OneDrive/Documents/Tarleton - MS Applied Psychology/Adv Quantitative Methods and Experimental Design/Labs","no","mono","no","18","no","white","no","yes","768","legacy","1","79","C:/Users/warne/OneDrive/Documents/Tarleton - MS Applied Psychology/Adv Quantitative Methods and Experimental Design/Labs/SH-subject-2.csv","legacy","Lentiform Loewenfeld","3.3.9","0","h","NA","s","s","NA","h","419","NA","29133","17193","NA","419","2","legacy","1024","2","48000","-16","experiment","HHHHH","2","even","31491","185862","NA","NA","186524","2358","168669","NA","103531","2347","NA","187583","187688","188108","187581","187688","Flanker Task","78","42493","82","yes","1024"
"93.97590361445783","93.97590361445783","516.3132530120482","516.3132530120482","black","legacy","legacy","legacy","0","incongruent","uniform","0","undefined","0","h","0","0","0","0","82","0","0","0","82","0","82","82","82","82","82","82","Sun Sep 19 12:42:36 2021","600","The main experiment item","yes","FlankerTask.osexp","C:/Users/warne/OneDrive/Documents/Tarleton - MS Applied Psychology/Adv Quantitative Methods and Experimental Design/Labs","no","mono","no","18","no","white","no","yes","768","legacy","2","79","C:/Users/warne/OneDrive/Documents/Tarleton - MS Applied Psychology/Adv Quantitative Methods and Experimental Design/Labs/SH-subject-2.csv","legacy","Lentiform Loewenfeld","3.3.9","0","s","NA","s","s","NA","s","361","NA","29133","17193","NA","361","2","legacy","1024","2","48000","-16","experiment","SSHSS","2","even","31491","185862","NA","NA","188113","2358","168669","NA","103531","2347","NA","189172","189277","189639","189170","189277","Flanker Task","78","42854","83","yes","1024"
"94.04761904761905","94.04761904761905","516.9404761904761","516.9404761904761","black","legacy","legacy","legacy","0","incongruent","uniform","1","undefined","1","s","0","0","0","0","83","0","0","0","83","0","83","83","83","83","83","83","Sun Sep 19 12:42:36 2021","600","The main experiment item","yes","FlankerTask.osexp","C:/Users/warne/OneDrive/Documents/Tarleton - MS Applied Psychology/Adv Quantitative Methods and Experimental Design/Labs","no","mono","no","18","no","white","no","yes","768","legacy","3","79","C:/Users/warne/OneDrive/Documents/Tarleton - MS Applied Psychology/Adv Quantitative Methods and Experimental Design/Labs/SH-subject-2.csv","legacy","Lentiform Loewenfeld","3.3.9","0","s","NA","s","s","NA","s","569","NA","29133","17193","NA","569","2","legacy","1024","2","48000","-16","experiment","HHSHH","2","even","31491","185862","NA","NA","190145","2358","168669","NA","189644","2347","NA","191204","191309","191878","191202","191309","Flanker Task","79","43423","84","yes","1024"
"94.11764705882354","94.11764705882354","515.5882352941177","515.5882352941177","black","legacy","legacy","legacy","0","congruent","uniform","1","undefined","1","s","0","0","0","0","84","0","0","0","84","0","84","84","84","84","84","84","Sun Sep 19 12:42:36 2021","600","The main experiment item","yes","FlankerTask.osexp","C:/Users/warne/OneDrive/Documents/Tarleton - MS Applied Psychology/Adv Quantitative Methods and Experimental Design/Labs","no","mono","no","18","no","white","no","yes","768","legacy","4","79","C:/Users/warne/OneDrive/Documents/Tarleton - MS Applied Psychology/Adv Quantitative Methods and Experimental Design/Labs/SH-subject-2.csv","legacy","Lentiform Loewenfeld","3.3.9","0","s","NA","s","s","NA","s","402","NA","29133","17193","NA","402","2","legacy","1024","2","48000","-16","experiment","SSSSS","2","even","31491","185862","NA","NA","191883","2358","168669","NA","189644","2347","NA","192941","193046","193449","192939","193046","Flanker Task","80","43825","85","yes","1024"
"93.02325581395348","93.02325581395348","514.8720930232558","514.8720930232558","black","legacy","legacy","legacy","0","incongruent","uniform","0","undefined","0","h","0","0","0","0","85","0","0","0","85","0","85","85","85","85","85","85","Sun Sep 19 12:42:36 2021","600","The main experiment item","yes","FlankerTask.osexp","C:/Users/warne/OneDrive/Documents/Tarleton - MS Applied Psychology/Adv Quantitative Methods and Experimental Design/Labs","no","mono","no","18","no","white","no","yes","768","legacy","5","79","C:/Users/warne/OneDrive/Documents/Tarleton - MS Applied Psychology/Adv Quantitative Methods and Experimental Design/Labs/SH-subject-2.csv","legacy","Lentiform Loewenfeld","3.3.9","0","s","NA","s","s","NA","s","454","NA","29133","17193","NA","454","2","legacy","1024","2","48000","-16","experiment","SSHSS","2","even","31491","185862","NA","NA","193454","2358","168669","NA","189644","2347","NA","194514","194615","195070","194512","194615","Flanker Task","80","44279","86","yes","1024"
"93.10344827586206","93.10344827586206","516.528735632184","516.528735632184","black","legacy","legacy","legacy","0","incongruent","uniform","1","undefined","1","h","0","0","0","0","86","0","0","0","86","0","86","86","86","86","86","86","Sun Sep 19 12:42:36 2021","600","The main experiment item","yes","FlankerTask.osexp","C:/Users/warne/OneDrive/Documents/Tarleton - MS Applied Psychology/Adv Quantitative Methods and Experimental Design/Labs","no","mono","no","18","no","white","no","yes","768","legacy","6","79","C:/Users/warne/OneDrive/Documents/Tarleton - MS Applied Psychology/Adv Quantitative Methods and Experimental Design/Labs/SH-subject-2.csv","legacy","Lentiform Loewenfeld","3.3.9","0","h","NA","s","s","NA","h","659","NA","29133","17193","NA","659","2","legacy","1024","2","48000","-16","experiment","SSHSS","2","even","31491","185862","NA","NA","195574","2358","168669","NA","195073","2347","NA","196633","196738","197399","196631","196738","Flanker Task","81","44938","87","yes","1024"
"93.18181818181819","93.18181818181819","520.8068181818181","520.8068181818181","black","legacy","legacy","legacy","0","congruent","uniform","1","undefined","1","s","0","0","0","0","87","0","0","0","87","0","87","87","87","87","87","87","Sun Sep 19 12:42:36 2021","600","The main experiment item","yes","FlankerTask.osexp","C:/Users/warne/OneDrive/Documents/Tarleton - MS Applied Psychology/Adv Quantitative Methods and Experimental Design/Labs","no","mono","no","18","no","white","no","yes","768","legacy","7","79","C:/Users/warne/OneDrive/Documents/Tarleton - MS Applied Psychology/Adv Quantitative Methods and Experimental Design/Labs/SH-subject-2.csv","legacy","Lentiform Loewenfeld","3.3.9","0","s","NA","s","s","NA","s","893","NA","29133","17193","NA","893","2","legacy","1024","2","48000","-16","experiment","SSSSS","2","even","31491","185862","NA","NA","197906","2358","168669","NA","195073","2347","197405","198964","199069","199962","198963","199069","Flanker Task","82","45831","88","yes","1024"
"93.25842696629213","93.25842696629213","520.5168539325842","520.5168539325842","black","legacy","legacy","legacy","0","incongruent","uniform","1","undefined","1","s","0","0","0","0","88","0","0","0","88","0","88","88","88","88","88","88","Sun Sep 19 12:42:36 2021","600","The main experiment item","yes","FlankerTask.osexp","C:/Users/warne/OneDrive/Documents/Tarleton - MS Applied Psychology/Adv Quantitative Methods and Experimental Design/Labs","no","mono","no","18","no","white","no","yes","768","legacy","8","79","C:/Users/warne/OneDrive/Documents/Tarleton - MS Applied Psychology/Adv Quantitative Methods and Experimental Design/Labs/SH-subject-2.csv","legacy","Lentiform Loewenfeld","3.3.9","0","s","NA","s","s","NA","s","495","NA","29133","17193","NA","495","2","legacy","1024","2","48000","-16","experiment","HHSHH","2","even","31491","185862","NA","NA","200468","2358","168669","NA","195073","2347","199967","201527","201631","202126","201525","201631","Flanker Task","83","46326","89","yes","1024"
"93.33333333333333","93.33333333333333","519.5","519.5","black","legacy","legacy","legacy","0","congruent","uniform","1","undefined","1","h","0","0","0","0","89","0","0","0","89","0","89","89","89","89","89","89","Sun Sep 19 12:42:36 2021","600","The main experiment item","yes","FlankerTask.osexp","C:/Users/warne/OneDrive/Documents/Tarleton - MS Applied Psychology/Adv Quantitative Methods and Experimental Design/Labs","no","mono","no","18","no","white","no","yes","768","legacy","9","79","C:/Users/warne/OneDrive/Documents/Tarleton - MS Applied Psychology/Adv Quantitative Methods and Experimental Design/Labs/SH-subject-2.csv","legacy","Lentiform Loewenfeld","3.3.9","0","h","NA","s","s","NA","h","429","NA","29133","17193","NA","429","2","legacy","1024","2","48000","-16","experiment","HHHHH","2","even","31491","185862","NA","NA","202131","2358","168669","NA","195073","2347","199967","203191","203296","203726","203188","203296","Flanker Task","84","46755","90","yes","1024"
"93.4065934065934","93.4065934065934","518.5934065934066","518.5934065934066","black","legacy","legacy","legacy","0","incongruent","uniform","1","undefined","1","h","0","0","0","0","90","0","0","0","90","0","90","90","90","90","90","90","Sun Sep 19 12:42:36 2021","600","The main experiment item","yes","FlankerTask.osexp","C:/Users/warne/OneDrive/Documents/Tarleton - MS Applied Psychology/Adv Quantitative Methods and Experimental Design/Labs","no","mono","no","18","no","white","no","yes","768","legacy","10","79","C:/Users/warne/OneDrive/Documents/Tarleton - MS Applied Psychology/Adv Quantitative Methods and Experimental Design/Labs/SH-subject-2.csv","legacy","Lentiform Loewenfeld","3.3.9","0","h","NA","s","s","NA","h","437","NA","29133","17193","NA","437","2","legacy","1024","2","48000","-16","experiment","SSHSS","2","even","31491","185862","NA","NA","203731","2358","168669","NA","195073","2347","199967","204790","204894","205332","204788","204894","Flanker Task","85","47192","91","yes","1024"
"93.47826086956522","93.47826086956522","517.5108695652174","517.5108695652174","black","legacy","legacy","legacy","0","congruent","uniform","1","undefined","1","s","0","0","0","0","91","0","0","0","91","0","91","91","91","91","91","91","Sun Sep 19 12:42:36 2021","600","The main experiment item","yes","FlankerTask.osexp","C:/Users/warne/OneDrive/Documents/Tarleton - MS Applied Psychology/Adv Quantitative Methods and Experimental Design/Labs","no","mono","no","18","no","white","no","yes","768","legacy","11","79","C:/Users/warne/OneDrive/Documents/Tarleton - MS Applied Psychology/Adv Quantitative Methods and Experimental Design/Labs/SH-subject-2.csv","legacy","Lentiform Loewenfeld","3.3.9","0","s","NA","s","s","NA","s","419","NA","29133","17193","NA","419","2","legacy","1024","2","48000","-16","experiment","SSSSS","2","even","31491","185862","NA","NA","205337","2358","168669","NA","195073","2347","199967","206396","206501","206921","206394","206501","Flanker Task","86","47611","92","yes","1024"
"93.54838709677419","93.54838709677419","515.3440860215054","515.3440860215054","black","legacy","legacy","legacy","0","congruent","uniform","1","undefined","1","h","0","0","0","0","92","0","0","0","92","0","92","92","92","92","92","92","Sun Sep 19 12:42:36 2021","600","The main experiment item","yes","FlankerTask.osexp","C:/Users/warne/OneDrive/Documents/Tarleton - MS Applied Psychology/Adv Quantitative Methods and Experimental Design/Labs","no","mono","no","18","no","white","no","yes","768","legacy","12","79","C:/Users/warne/OneDrive/Documents/Tarleton - MS Applied Psychology/Adv Quantitative Methods and Experimental Design/Labs/SH-subject-2.csv","legacy","Lentiform Loewenfeld","3.3.9","0","h","NA","s","s","NA","h","316","NA","29133","17193","NA","316","2","legacy","1024","2","48000","-16","experiment","HHHHH","2","even","31491","185862","NA","NA","206926","2358","168669","NA","195073","2347","199967","207985","208090","208407","207983","208090","Flanker Task","87","47927","93","yes","1024"
"93.61702127659575","93.61702127659575","514.4893617021277","514.4893617021277","black","legacy","legacy","legacy","0","incongruent","uniform","1","undefined","1","s","0","0","0","0","93","0","0","0","93","0","93","93","93","93","93","93","Sun Sep 19 12:42:36 2021","600","The main experiment item","yes","FlankerTask.osexp","C:/Users/warne/OneDrive/Documents/Tarleton - MS Applied Psychology/Adv Quantitative Methods and Experimental Design/Labs","no","mono","no","18","no","white","no","yes","768","legacy","13","79","C:/Users/warne/OneDrive/Documents/Tarleton - MS Applied Psychology/Adv Quantitative Methods and Experimental Design/Labs/SH-subject-2.csv","legacy","Lentiform Loewenfeld","3.3.9","0","s","NA","s","s","NA","s","435","NA","29133","17193","NA","435","2","legacy","1024","2","48000","-16","experiment","HHSHH","2","even","31491","185862","NA","NA","208412","2358","168669","NA","195073","2347","199967","209471","209576","210012","209469","209576","Flanker Task","88","48362","94","yes","1024"
"93.6842105263158","93.6842105263158","513.1789473684211","513.1789473684211","black","legacy","legacy","legacy","0","incongruent","uniform","1","undefined","1","h","0","0","0","0","94","0","0","0","94","0","94","94","94","94","94","94","Sun Sep 19 12:42:36 2021","600","The main experiment item","yes","FlankerTask.osexp","C:/Users/warne/OneDrive/Documents/Tarleton - MS Applied Psychology/Adv Quantitative Methods and Experimental Design/Labs","no","mono","no","18","no","white","no","yes","768","legacy","14","79","C:/Users/warne/OneDrive/Documents/Tarleton - MS Applied Psychology/Adv Quantitative Methods and Experimental Design/Labs/SH-subject-2.csv","legacy","Lentiform Loewenfeld","3.3.9","0","h","NA","s","s","NA","h","390","NA","29133","17193","NA","390","2","legacy","1024","2","48000","-16","experiment","SSHSS","2","even","31491","185862","NA","NA","210017","2358","168669","NA","195073","2347","199967","211076","211181","211572","211074","211181","Flanker Task","89","48752","95","yes","1024"
"93.75","93.75","511.6041666666667","511.6041666666667","black","legacy","legacy","legacy","0","congruent","uniform","1","undefined","1","s","0","0","0","0","95","0","0","0","95","0","95","95","95","95","95","95","Sun Sep 19 12:42:36 2021","600","The main experiment item","yes","FlankerTask.osexp","C:/Users/warne/OneDrive/Documents/Tarleton - MS Applied Psychology/Adv Quantitative Methods and Experimental Design/Labs","no","mono","no","18","no","white","no","yes","768","legacy","15","79","C:/Users/warne/OneDrive/Documents/Tarleton - MS Applied Psychology/Adv Quantitative Methods and Experimental Design/Labs/SH-subject-2.csv","legacy","Lentiform Loewenfeld","3.3.9","0","s","NA","s","s","NA","s","362","NA","29133","17193","NA","362","2","legacy","1024","2","48000","-16","experiment","SSSSS","2","even","31491","185862","NA","NA","211576","2358","168669","NA","195073","2347","199967","212635","212740","213103","212633","212740","Flanker Task","90","49114","96","yes","1024"
"93.81443298969072","93.81443298969072","509.74226804123714","509.74226804123714","black","legacy","legacy","legacy","0","congruent","uniform","1","undefined","1","h","0","0","0","0","96","0","0","0","96","0","96","96","96","96","96","96","Sun Sep 19 12:42:36 2021","600","The main experiment item","yes","FlankerTask.osexp","C:/Users/warne/OneDrive/Documents/Tarleton - MS Applied Psychology/Adv Quantitative Methods and Experimental Design/Labs","no","mono","no","18","no","white","no","yes","768","legacy","16","79","C:/Users/warne/OneDrive/Documents/Tarleton - MS Applied Psychology/Adv Quantitative Methods and Experimental Design/Labs/SH-subject-2.csv","legacy","Lentiform Loewenfeld","3.3.9","0","h","NA","s","s","NA","h","331","NA","29133","17193","NA","331","2","legacy","1024","2","48000","-16","experiment","HHHHH","2","even","31491","185862","NA","NA","213108","2358","168669","NA","195073","2347","199967","214166","214271","214603","214164","214271","Flanker Task","91","49445","97","yes","1024"
"93.87755102040816","93.87755102040816","508.9795918367347","508.9795918367347","black","legacy","legacy","legacy","0","congruent","uniform","1","undefined","1","h","0","0","0","0","97","0","0","0","97","0","97","97","97","97","97","97","Sun Sep 19 12:42:36 2021","600","The main experiment item","yes","FlankerTask.osexp","C:/Users/warne/OneDrive/Documents/Tarleton - MS Applied Psychology/Adv Quantitative Methods and Experimental Design/Labs","no","mono","no","18","no","white","no","yes","768","legacy","17","79","C:/Users/warne/OneDrive/Documents/Tarleton - MS Applied Psychology/Adv Quantitative Methods and Experimental Design/Labs/SH-subject-2.csv","legacy","Lentiform Loewenfeld","3.3.9","0","h","NA","s","s","NA","h","435","NA","29133","17193","NA","435","2","legacy","1024","2","48000","-16","experiment","HHHHH","2","even","31491","185862","NA","NA","214608","2358","168669","NA","195073","2347","199967","215667","215772","216208","215665","215772","Flanker Task","92","49880","98","yes","1024"
"93.93939393939394","93.93939393939394","508.2323232323232","508.2323232323232","black","legacy","legacy","legacy","0","congruent","uniform","1","undefined","1","s","0","0","0","0","98","0","0","0","98","0","98","98","98","98","98","98","Sun Sep 19 12:42:36 2021","600","The main experiment item","yes","FlankerTask.osexp","C:/Users/warne/OneDrive/Documents/Tarleton - MS Applied Psychology/Adv Quantitative Methods and Experimental Design/Labs","no","mono","no","18","no","white","no","yes","768","legacy","18","79","C:/Users/warne/OneDrive/Documents/Tarleton - MS Applied Psychology/Adv Quantitative Methods and Experimental Design/Labs/SH-subject-2.csv","legacy","Lentiform Loewenfeld","3.3.9","0","s","NA","s","s","NA","s","435","NA","29133","17193","NA","435","2","legacy","1024","2","48000","-16","experiment","SSSSS","2","even","31491","185862","NA","NA","216213","2358","168669","NA","195073","2347","199967","217272","217377","217813","217270","217376","Flanker Task","93","50315","99","yes","1024"
