"acc","accuracy","average_response_time","avg_rt","background","canvas_backend","clock_backend","color_backend","compensation","condition","coordinates","correct","correct_Instructions1","correct_keyboard_response","correct_response","count_Block1","count_Block2","count_Block3","count_Finish","count_ISI","count_Instructions1","count_Instructions2","count_Instructions3","count_errorFeedback","count_experiment","count_faster","count_fixation","count_keyboard_response","count_logger","count_sequence","count_stimulus","datetime","deadline","description","disable_garbage_collection","experiment_file","experiment_path","font_bold","font_family","font_italic","font_size","font_underline","foreground","form_clicks","fullscreen","height","keyboard_backend","live_row","live_row_Block1","logfile","mouse_backend","opensesame_codename","opensesame_version","repeat_cycle","response","response_Finish","response_Instructions1","response_Instructions2","response_Instructions3","response_keyboard_response","response_time","response_time_Finish","response_time_Instructions1","response_time_Instructions2","response_time_Instructions3","response_time_keyboard_response","round_decimals","sampler_backend","sound_buf_size","sound_channels","sound_freq","sound_sample_size","start","stimulus","subject_nr","subject_parity","time_Block1","time_Block2","time_Block3","time_Finish","time_ISI","time_Instructions1","time_Instructions2","time_Instructions3","time_errorFeedback","time_experiment","time_faster","time_fixation","time_keyboard_response","time_logger","time_sequence","time_stimulus","title","total_correct","total_response_time","total_responses","uniform_coordinates","width"
"100","100","1361","1361","black","legacy","legacy","legacy","0","congruent","uniform","1","undefined","1","h","0","0","0","0","0","0","0","0","0","0","0","0","0","0","0","0","09/23/21 15:29:26","1500","The main experiment item","yes","FlankerTask.osexp","C:\Users\bryan\OneDrive\Documents\School\PSYC 5316  (Quant Methods)\Lab 2","no","mono","no","18","no","white","no","yes","768","legacy","0","0","C:/Users/bryan/OneDrive/Documents/School/PSYC 5316  (Quant Methods)/Lab 2/BS-subject-4.csv","legacy","Lentiform Loewenfeld","3.3.9","0","h","NA","s","NA","NA","h","1361","NA","33222","NA","NA","1361","2","legacy","1024","2","48000","-16","experiment","HHHHH","4","even","36123","NA","NA","NA","NA","2899","NA","NA","NA","2895","NA","36239","36348","37710","36235","36347","Flanker Task","1","1361","1","yes","1024"
"100","100","1042","1042","black","legacy","legacy","legacy","0","incongruent","uniform","1","undefined","1","h","0","0","0","0","1","0","0","0","1","0","1","1","1","1","1","1","09/23/21 15:29:26","1500","The main experiment item","yes","FlankerTask.osexp","C:\Users\bryan\OneDrive\Documents\School\PSYC 5316  (Quant Methods)\Lab 2","no","mono","no","18","no","white","no","yes","768","legacy","1","1","C:/Users/bryan/OneDrive/Documents/School/PSYC 5316  (Quant Methods)/Lab 2/BS-subject-4.csv","legacy","Lentiform Loewenfeld","3.3.9","0","h","NA","s","NA","NA","h","723","NA","33222","NA","NA","723","2","legacy","1024","2","48000","-16","experiment","SSHSS","4","even","36123","NA","NA","NA","37723","2899","NA","NA","NA","2895","NA","38852","38956","39679","38848","38956","Flanker Task","2","2084","2","yes","1024"
"100","100","911.333333333","911.333333333","black","legacy","legacy","legacy","0","incongruent","uniform","1","undefined","1","s","0","0","0","0","2","0","0","0","2","0","2","2","2","2","2","2","09/23/21 15:29:26","1500","The main experiment item","yes","FlankerTask.osexp","C:\Users\bryan\OneDrive\Documents\School\PSYC 5316  (Quant Methods)\Lab 2","no","mono","no","18","no","white","no","yes","768","legacy","2","2","C:/Users/bryan/OneDrive/Documents/School/PSYC 5316  (Quant Methods)/Lab 2/BS-subject-4.csv","legacy","Lentiform Loewenfeld","3.3.9","0","s","NA","s","NA","NA","s","650","NA","33222","NA","NA","650","2","legacy","1024","2","48000","-16","experiment","HHSHH","4","even","36123","NA","NA","NA","39686","2899","NA","NA","NA","2895","NA","40797","40904","41555","40792","40904","Flanker Task","3","2734","3","yes","1024"
"100","100","818.5","818.5","black","legacy","legacy","legacy","0","incongruent","uniform","1","undefined","1","s","0","0","0","0","3","0","0","0","3","0","3","3","3","3","3","3","09/23/21 15:29:26","1500","The main experiment item","yes","FlankerTask.osexp","C:\Users\bryan\OneDrive\Documents\School\PSYC 5316  (Quant Methods)\Lab 2","no","mono","no","18","no","white","no","yes","768","legacy","3","3","C:/Users/bryan/OneDrive/Documents/School/PSYC 5316  (Quant Methods)/Lab 2/BS-subject-4.csv","legacy","Lentiform Loewenfeld","3.3.9","0","s","NA","s","NA","NA","s","540","NA","33222","NA","NA","540","2","legacy","1024","2","48000","-16","experiment","HHSHH","4","even","36123","NA","NA","NA","41566","2899","NA","NA","NA","2895","NA","42680","42789","43330","42676","42788","Flanker Task","4","3274","4","yes","1024"
"100","100","758.6","758.6","black","legacy","legacy","legacy","0","congruent","uniform","1","undefined","1","h","0","0","0","0","4","0","0","0","4","0","4","4","4","4","4","4","09/23/21 15:29:26","1500","The main experiment item","yes","FlankerTask.osexp","C:\Users\bryan\OneDrive\Documents\School\PSYC 5316  (Quant Methods)\Lab 2","no","mono","no","18","no","white","no","yes","768","legacy","4","4","C:/Users/bryan/OneDrive/Documents/School/PSYC 5316  (Quant Methods)/Lab 2/BS-subject-4.csv","legacy","Lentiform Loewenfeld","3.3.9","0","h","NA","s","NA","NA","h","519","NA","33222","NA","NA","519","2","legacy","1024","2","48000","-16","experiment","HHHHH","4","even","36123","NA","NA","NA","43340","2899","NA","NA","NA","2895","NA","44447","44555","45075","44443","44554","Flanker Task","5","3793","5","yes","1024"
"100","100","703","703","black","legacy","legacy","legacy","0","congruent","uniform","1","undefined","1","s","0","0","0","0","5","0","0","0","5","0","5","5","5","5","5","5","09/23/21 15:29:26","1500","The main experiment item","yes","FlankerTask.osexp","C:\Users\bryan\OneDrive\Documents\School\PSYC 5316  (Quant Methods)\Lab 2","no","mono","no","18","no","white","no","yes","768","legacy","5","5","C:/Users/bryan/OneDrive/Documents/School/PSYC 5316  (Quant Methods)/Lab 2/BS-subject-4.csv","legacy","Lentiform Loewenfeld","3.3.9","0","s","NA","s","NA","NA","s","425","NA","33222","NA","NA","425","2","legacy","1024","2","48000","-16","experiment","SSSSS","4","even","36123","NA","NA","NA","45085","2899","NA","NA","NA","2895","NA","46204","46313","46739","46199","46313","Flanker Task","6","4218","6","yes","1024"
"100","100","668.285714286","668.285714286","black","legacy","legacy","legacy","0","congruent","uniform","1","undefined","1","s","0","0","0","0","6","0","0","0","6","0","6","6","6","6","6","6","09/23/21 15:29:26","1500","The main experiment item","yes","FlankerTask.osexp","C:\Users\bryan\OneDrive\Documents\School\PSYC 5316  (Quant Methods)\Lab 2","no","mono","no","18","no","white","no","yes","768","legacy","6","6","C:/Users/bryan/OneDrive/Documents/School/PSYC 5316  (Quant Methods)/Lab 2/BS-subject-4.csv","legacy","Lentiform Loewenfeld","3.3.9","0","s","NA","s","NA","NA","s","460","NA","33222","NA","NA","460","2","legacy","1024","2","48000","-16","experiment","SSSSS","4","even","36123","NA","NA","NA","46745","2899","NA","NA","NA","2895","NA","47860","47968","48429","47855","47968","Flanker Task","7","4678","7","yes","1024"
"100","100","638.75","638.75","black","legacy","legacy","legacy","0","congruent","uniform","1","undefined","1","h","0","0","0","0","7","0","0","0","7","0","7","7","7","7","7","7","09/23/21 15:29:26","1500","The main experiment item","yes","FlankerTask.osexp","C:\Users\bryan\OneDrive\Documents\School\PSYC 5316  (Quant Methods)\Lab 2","no","mono","no","18","no","white","no","yes","768","legacy","7","7","C:/Users/bryan/OneDrive/Documents/School/PSYC 5316  (Quant Methods)/Lab 2/BS-subject-4.csv","legacy","Lentiform Loewenfeld","3.3.9","0","h","NA","s","NA","NA","h","432","NA","33222","NA","NA","432","2","legacy","1024","2","48000","-16","experiment","HHHHH","4","even","36123","NA","NA","NA","48436","2899","NA","NA","NA","2895","NA","49546","49655","50087","49541","49654","Flanker Task","8","5110","8","yes","1024"
"100","100","612.777777778","612.777777778","black","legacy","legacy","legacy","0","congruent","uniform","1","undefined","1","s","0","0","0","0","8","0","0","0","8","0","8","8","8","8","8","8","09/23/21 15:29:26","1500","The main experiment item","yes","FlankerTask.osexp","C:\Users\bryan\OneDrive\Documents\School\PSYC 5316  (Quant Methods)\Lab 2","no","mono","no","18","no","white","no","yes","768","legacy","8","8","C:/Users/bryan/OneDrive/Documents/School/PSYC 5316  (Quant Methods)/Lab 2/BS-subject-4.csv","legacy","Lentiform Loewenfeld","3.3.9","0","s","NA","s","NA","NA","s","405","NA","33222","NA","NA","405","2","legacy","1024","2","48000","-16","experiment","SSSSS","4","even","36123","NA","NA","NA","50094","2899","NA","NA","NA","2895","NA","51213","51320","51726","51208","51320","Flanker Task","9","5515","9","yes","1024"
"100","100","581.6","581.6","black","legacy","legacy","legacy","0","congruent","uniform","1","undefined","1","h","0","0","0","0","9","0","0","0","9","0","9","9","9","9","9","9","09/23/21 15:29:26","1500","The main experiment item","yes","FlankerTask.osexp","C:\Users\bryan\OneDrive\Documents\School\PSYC 5316  (Quant Methods)\Lab 2","no","mono","no","18","no","white","no","yes","768","legacy","9","9","C:/Users/bryan/OneDrive/Documents/School/PSYC 5316  (Quant Methods)/Lab 2/BS-subject-4.csv","legacy","Lentiform Loewenfeld","3.3.9","0","h","NA","s","NA","NA","h","301","NA","33222","NA","NA","301","2","legacy","1024","2","48000","-16","experiment","HHHHH","4","even","36123","NA","NA","NA","51737","2899","NA","NA","NA","2895","NA","52844","52953","53255","52840","52952","Flanker Task","10","5816","10","yes","1024"
"90.9090909091","90.9090909091","558.727272727","558.727272727","black","legacy","legacy","legacy","0","incongruent","uniform","0","undefined","0","h","0","0","0","0","10","0","0","0","10","0","10","10","10","10","10","10","09/23/21 15:29:26","1500","The main experiment item","yes","FlankerTask.osexp","C:\Users\bryan\OneDrive\Documents\School\PSYC 5316  (Quant Methods)\Lab 2","no","mono","no","18","no","white","no","yes","768","legacy","10","10","C:/Users/bryan/OneDrive/Documents/School/PSYC 5316  (Quant Methods)/Lab 2/BS-subject-4.csv","legacy","Lentiform Loewenfeld","3.3.9","0","s","NA","s","NA","NA","s","330","NA","33222","NA","NA","330","2","legacy","1024","2","48000","-16","experiment","SSHSS","4","even","36123","NA","NA","NA","53265","2899","NA","NA","NA","2895","NA","54388","54497","54828","54383","54496","Flanker Task","10","6146","11","yes","1024"
"91.6666666667","91.6666666667","547.666666667","547.666666667","black","legacy","legacy","legacy","0","congruent","uniform","1","undefined","1","s","0","0","0","0","11","0","0","0","11","0","11","11","11","11","11","11","09/23/21 15:29:26","1500","The main experiment item","yes","FlankerTask.osexp","C:\Users\bryan\OneDrive\Documents\School\PSYC 5316  (Quant Methods)\Lab 2","no","mono","no","18","no","white","no","yes","768","legacy","11","11","C:/Users/bryan/OneDrive/Documents/School/PSYC 5316  (Quant Methods)/Lab 2/BS-subject-4.csv","legacy","Lentiform Loewenfeld","3.3.9","0","s","NA","s","NA","NA","s","426","NA","33222","NA","NA","426","2","legacy","1024","2","48000","-16","experiment","SSSSS","4","even","36123","NA","NA","NA","55343","2899","NA","NA","54835","2895","NA","56468","56576","57002","56463","56576","Flanker Task","11","6572","12","yes","1024"
"92.3076923077","92.3076923077","542.153846154","542.153846154","black","legacy","legacy","legacy","0","congruent","uniform","1","undefined","1","s","0","0","0","0","12","0","0","0","12","0","12","12","12","12","12","12","09/23/21 15:29:26","1500","The main experiment item","yes","FlankerTask.osexp","C:\Users\bryan\OneDrive\Documents\School\PSYC 5316  (Quant Methods)\Lab 2","no","mono","no","18","no","white","no","yes","768","legacy","12","12","C:/Users/bryan/OneDrive/Documents/School/PSYC 5316  (Quant Methods)/Lab 2/BS-subject-4.csv","legacy","Lentiform Loewenfeld","3.3.9","0","s","NA","s","NA","NA","s","476","NA","33222","NA","NA","476","2","legacy","1024","2","48000","-16","experiment","SSSSS","4","even","36123","NA","NA","NA","57008","2899","NA","NA","54835","2895","NA","58122","58231","58708","58118","58230","Flanker Task","12","7048","13","yes","1024"
"92.8571428571","92.8571428571","542.428571429","542.428571429","black","legacy","legacy","legacy","0","incongruent","uniform","1","undefined","1","s","0","0","0","0","13","0","0","0","13","0","13","13","13","13","13","13","09/23/21 15:29:26","1500","The main experiment item","yes","FlankerTask.osexp","C:\Users\bryan\OneDrive\Documents\School\PSYC 5316  (Quant Methods)\Lab 2","no","mono","no","18","no","white","no","yes","768","legacy","13","13","C:/Users/bryan/OneDrive/Documents/School/PSYC 5316  (Quant Methods)/Lab 2/BS-subject-4.csv","legacy","Lentiform Loewenfeld","3.3.9","0","s","NA","s","NA","NA","s","546","NA","33222","NA","NA","546","2","legacy","1024","2","48000","-16","experiment","HHSHH","4","even","36123","NA","NA","NA","58717","2899","NA","NA","54835","2895","NA","59833","59942","60488","59829","59941","Flanker Task","13","7594","14","yes","1024"
"93.3333333333","93.3333333333","540.266666667","540.266666667","black","legacy","legacy","legacy","0","incongruent","uniform","1","undefined","1","h","0","0","0","0","14","0","0","0","14","0","14","14","14","14","14","14","09/23/21 15:29:26","1500","The main experiment item","yes","FlankerTask.osexp","C:\Users\bryan\OneDrive\Documents\School\PSYC 5316  (Quant Methods)\Lab 2","no","mono","no","18","no","white","no","yes","768","legacy","14","14","C:/Users/bryan/OneDrive/Documents/School/PSYC 5316  (Quant Methods)/Lab 2/BS-subject-4.csv","legacy","Lentiform Loewenfeld","3.3.9","0","h","NA","s","NA","NA","h","510","NA","33222","NA","NA","510","2","legacy","1024","2","48000","-16","experiment","SSHSS","4","even","36123","NA","NA","NA","60496","2899","NA","NA","54835","2895","NA","61617","61726","62237","61613","61725","Flanker Task","14","8104","15","yes","1024"
"93.75","93.75","527.3125","527.3125","black","legacy","legacy","legacy","0","incongruent","uniform","1","undefined","1","s","0","0","0","0","15","0","0","0","15","0","15","15","15","15","15","15","09/23/21 15:29:26","1500","The main experiment item","yes","FlankerTask.osexp","C:\Users\bryan\OneDrive\Documents\School\PSYC 5316  (Quant Methods)\Lab 2","no","mono","no","18","no","white","no","yes","768","legacy","15","15","C:/Users/bryan/OneDrive/Documents/School/PSYC 5316  (Quant Methods)/Lab 2/BS-subject-4.csv","legacy","Lentiform Loewenfeld","3.3.9","0","s","NA","s","NA","NA","s","333","NA","33222","NA","NA","333","2","legacy","1024","2","48000","-16","experiment","HHSHH","4","even","36123","NA","NA","NA","62247","2899","NA","NA","54835","2895","NA","63356","63464","63798","63352","63464","Flanker Task","15","8437","16","yes","1024"
"94.1176470588","94.1176470588","514.176470588","514.176470588","black","legacy","legacy","legacy","0","congruent","uniform","1","undefined","1","s","0","0","0","0","16","0","0","0","16","0","16","16","16","16","16","16","09/23/21 15:29:26","1500","The main experiment item","yes","FlankerTask.osexp","C:\Users\bryan\OneDrive\Documents\School\PSYC 5316  (Quant Methods)\Lab 2","no","mono","no","18","no","white","no","yes","768","legacy","16","16","C:/Users/bryan/OneDrive/Documents/School/PSYC 5316  (Quant Methods)/Lab 2/BS-subject-4.csv","legacy","Lentiform Loewenfeld","3.3.9","0","s","NA","s","NA","NA","s","304","NA","33222","NA","NA","304","2","legacy","1024","2","48000","-16","experiment","SSSSS","4","even","36123","NA","NA","NA","63806","2899","NA","NA","54835","2895","NA","64921","65029","65334","64917","65028","Flanker Task","16","8741","17","yes","1024"
"94.4444444444","94.4444444444","509.5","509.5","black","legacy","legacy","legacy","0","incongruent","uniform","1","undefined","1","h","0","0","0","0","17","0","0","0","17","0","17","17","17","17","17","17","09/23/21 15:29:26","1500","The main experiment item","yes","FlankerTask.osexp","C:\Users\bryan\OneDrive\Documents\School\PSYC 5316  (Quant Methods)\Lab 2","no","mono","no","18","no","white","no","yes","768","legacy","17","17","C:/Users/bryan/OneDrive/Documents/School/PSYC 5316  (Quant Methods)/Lab 2/BS-subject-4.csv","legacy","Lentiform Loewenfeld","3.3.9","0","h","NA","s","NA","NA","h","430","NA","33222","NA","NA","430","2","legacy","1024","2","48000","-16","experiment","SSHSS","4","even","36123","NA","NA","NA","65344","2899","NA","NA","54835","2895","NA","66459","66567","66998","66454","66567","Flanker Task","17","9171","18","yes","1024"
"94.7368421053","94.7368421053","501.473684211","501.473684211","black","legacy","legacy","legacy","0","congruent","uniform","1","undefined","1","h","0","0","0","0","18","0","0","0","18","0","18","18","18","18","18","18","09/23/21 15:29:26","1500","The main experiment item","yes","FlankerTask.osexp","C:\Users\bryan\OneDrive\Documents\School\PSYC 5316  (Quant Methods)\Lab 2","no","mono","no","18","no","white","no","yes","768","legacy","18","18","C:/Users/bryan/OneDrive/Documents/School/PSYC 5316  (Quant Methods)/Lab 2/BS-subject-4.csv","legacy","Lentiform Loewenfeld","3.3.9","0","h","NA","s","NA","NA","h","357","NA","33222","NA","NA","357","2","legacy","1024","2","48000","-16","experiment","HHHHH","4","even","36123","NA","NA","NA","67007","2899","NA","NA","54835","2895","NA","68115","68224","68582","68111","68223","Flanker Task","18","9528","19","yes","1024"
"95","95","496.65","496.65","black","legacy","legacy","legacy","0","incongruent","uniform","1","undefined","1","h","0","0","0","0","19","0","0","0","19","0","19","19","19","19","19","19","09/23/21 15:29:26","1500","The main experiment item","yes","FlankerTask.osexp","C:\Users\bryan\OneDrive\Documents\School\PSYC 5316  (Quant Methods)\Lab 2","no","mono","no","18","no","white","no","yes","768","legacy","19","19","C:/Users/bryan/OneDrive/Documents/School/PSYC 5316  (Quant Methods)/Lab 2/BS-subject-4.csv","legacy","Lentiform Loewenfeld","3.3.9","0","h","NA","s","NA","NA","h","405","NA","33222","NA","NA","405","2","legacy","1024","2","48000","-16","experiment","SSHSS","4","even","36123","NA","NA","NA","68589","2899","NA","NA","54835","2895","NA","69702","69812","70217","69698","69811","Flanker Task","19","9933","20","yes","1024"
"95.2380952381","95.2380952381","491.761904762","491.761904762","black","legacy","legacy","legacy","0","incongruent","uniform","1","undefined","1","s","0","0","0","0","20","0","0","0","20","0","20","20","20","20","20","20","09/23/21 15:29:26","1500","The main experiment item","yes","FlankerTask.osexp","C:\Users\bryan\OneDrive\Documents\School\PSYC 5316  (Quant Methods)\Lab 2","no","mono","no","18","no","white","no","yes","768","legacy","20","20","C:/Users/bryan/OneDrive/Documents/School/PSYC 5316  (Quant Methods)/Lab 2/BS-subject-4.csv","legacy","Lentiform Loewenfeld","3.3.9","0","s","NA","s","NA","NA","s","394","NA","33222","NA","NA","394","2","legacy","1024","2","48000","-16","experiment","HHSHH","4","even","36123","NA","NA","NA","70223","2899","NA","NA","54835","2895","NA","71341","71448","71843","71337","71448","Flanker Task","20","10327","21","yes","1024"
"95.4545454545","95.4545454545","486.727272727","486.727272727","black","legacy","legacy","legacy","0","incongruent","uniform","1","undefined","1","h","0","0","0","0","21","0","0","0","21","0","21","21","21","21","21","21","09/23/21 15:29:26","1500","The main experiment item","yes","FlankerTask.osexp","C:\Users\bryan\OneDrive\Documents\School\PSYC 5316  (Quant Methods)\Lab 2","no","mono","no","18","no","white","no","yes","768","legacy","21","21","C:/Users/bryan/OneDrive/Documents/School/PSYC 5316  (Quant Methods)/Lab 2/BS-subject-4.csv","legacy","Lentiform Loewenfeld","3.3.9","0","h","NA","s","NA","NA","h","381","NA","33222","NA","NA","381","2","legacy","1024","2","48000","-16","experiment","SSHSS","4","even","36123","NA","NA","NA","71853","2899","NA","NA","54835","2895","NA","72961","73070","73452","72956","73069","Flanker Task","21","10708","22","yes","1024"
"95.652173913","95.652173913","481.652173913","481.652173913","black","legacy","legacy","legacy","0","incongruent","uniform","1","undefined","1","s","0","0","0","0","22","0","0","0","22","0","22","22","22","22","22","22","09/23/21 15:29:26","1500","The main experiment item","yes","FlankerTask.osexp","C:\Users\bryan\OneDrive\Documents\School\PSYC 5316  (Quant Methods)\Lab 2","no","mono","no","18","no","white","no","yes","768","legacy","22","22","C:/Users/bryan/OneDrive/Documents/School/PSYC 5316  (Quant Methods)/Lab 2/BS-subject-4.csv","legacy","Lentiform Loewenfeld","3.3.9","0","s","NA","s","NA","NA","s","370","NA","33222","NA","NA","370","2","legacy","1024","2","48000","-16","experiment","HHSHH","4","even","36123","NA","NA","NA","73462","2899","NA","NA","54835","2895","NA","74597","74700","75071","74593","74700","Flanker Task","22","11078","23","yes","1024"
"95.8333333333","95.8333333333","477.708333333","477.708333333","black","legacy","legacy","legacy","0","congruent","uniform","1","undefined","1","s","0","0","0","0","23","0","0","0","23","0","23","23","23","23","23","23","09/23/21 15:29:26","1500","The main experiment item","yes","FlankerTask.osexp","C:\Users\bryan\OneDrive\Documents\School\PSYC 5316  (Quant Methods)\Lab 2","no","mono","no","18","no","white","no","yes","768","legacy","23","23","C:/Users/bryan/OneDrive/Documents/School/PSYC 5316  (Quant Methods)/Lab 2/BS-subject-4.csv","legacy","Lentiform Loewenfeld","3.3.9","0","s","NA","s","NA","NA","s","387","NA","33222","NA","NA","387","2","legacy","1024","2","48000","-16","experiment","SSSSS","4","even","36123","NA","NA","NA","75078","2899","NA","NA","54835","2895","NA","76201","76310","76697","76196","76309","Flanker Task","23","11465","24","yes","1024"
"96","96","482.72","482.72","black","legacy","legacy","legacy","0","incongruent","uniform","1","undefined","1","s","0","0","0","0","24","0","0","0","24","0","24","24","24","24","24","24","09/23/21 15:29:26","1500","The main experiment item","yes","FlankerTask.osexp","C:\Users\bryan\OneDrive\Documents\School\PSYC 5316  (Quant Methods)\Lab 2","no","mono","no","18","no","white","no","yes","768","legacy","24","24","C:/Users/bryan/OneDrive/Documents/School/PSYC 5316  (Quant Methods)/Lab 2/BS-subject-4.csv","legacy","Lentiform Loewenfeld","3.3.9","0","s","NA","s","NA","NA","s","603","NA","33222","NA","NA","603","2","legacy","1024","2","48000","-16","experiment","HHSHH","4","even","36123","NA","NA","NA","76704","2899","NA","NA","54835","2895","NA","77824","77932","78537","77819","77932","Flanker Task","24","12068","25","yes","1024"
"96.1538461538","96.1538461538","480.653846154","480.653846154","black","legacy","legacy","legacy","0","congruent","uniform","1","undefined","1","s","0","0","0","0","25","0","0","0","25","0","25","25","25","25","25","25","09/23/21 15:29:26","1500","The main experiment item","yes","FlankerTask.osexp","C:\Users\bryan\OneDrive\Documents\School\PSYC 5316  (Quant Methods)\Lab 2","no","mono","no","18","no","white","no","yes","768","legacy","25","25","C:/Users/bryan/OneDrive/Documents/School/PSYC 5316  (Quant Methods)/Lab 2/BS-subject-4.csv","legacy","Lentiform Loewenfeld","3.3.9","0","s","NA","s","NA","NA","s","429","NA","33222","NA","NA","429","2","legacy","1024","2","48000","-16","experiment","SSSSS","4","even","36123","NA","NA","NA","78543","2899","NA","NA","54835","2895","NA","79660","79763","80193","79655","79763","Flanker Task","25","12497","26","yes","1024"
"96.2962962963","96.2962962963","477.740740741","477.740740741","black","legacy","legacy","legacy","0","congruent","uniform","1","undefined","1","h","0","0","0","0","26","0","0","0","26","0","26","26","26","26","26","26","09/23/21 15:29:26","1500","The main experiment item","yes","FlankerTask.osexp","C:\Users\bryan\OneDrive\Documents\School\PSYC 5316  (Quant Methods)\Lab 2","no","mono","no","18","no","white","no","yes","768","legacy","26","26","C:/Users/bryan/OneDrive/Documents/School/PSYC 5316  (Quant Methods)/Lab 2/BS-subject-4.csv","legacy","Lentiform Loewenfeld","3.3.9","0","h","NA","s","NA","NA","h","402","NA","33222","NA","NA","402","2","legacy","1024","2","48000","-16","experiment","HHHHH","4","even","36123","NA","NA","NA","80199","2899","NA","NA","54835","2895","NA","81325","81435","81838","81321","81434","Flanker Task","26","12899","27","yes","1024"
"92.8571428571","92.8571428571","473.5","473.5","black","legacy","legacy","legacy","0","incongruent","uniform","0","undefined","0","h","0","0","0","0","27","0","0","0","27","0","27","27","27","27","27","27","09/23/21 15:29:26","1500","The main experiment item","yes","FlankerTask.osexp","C:\Users\bryan\OneDrive\Documents\School\PSYC 5316  (Quant Methods)\Lab 2","no","mono","no","18","no","white","no","yes","768","legacy","27","27","C:/Users/bryan/OneDrive/Documents/School/PSYC 5316  (Quant Methods)/Lab 2/BS-subject-4.csv","legacy","Lentiform Loewenfeld","3.3.9","0","s","NA","s","NA","NA","s","359","NA","33222","NA","NA","359","2","legacy","1024","2","48000","-16","experiment","SSHSS","4","even","36123","NA","NA","NA","81848","2899","NA","NA","54835","2895","NA","82957","83067","83427","82952","83066","Flanker Task","26","13258","28","yes","1024"
"93.1034482759","93.1034482759","475.551724138","475.551724138","black","legacy","legacy","legacy","0","incongruent","uniform","1","undefined","1","s","0","0","0","0","28","0","0","0","28","0","28","28","28","28","28","28","09/23/21 15:29:26","1500","The main experiment item","yes","FlankerTask.osexp","C:\Users\bryan\OneDrive\Documents\School\PSYC 5316  (Quant Methods)\Lab 2","no","mono","no","18","no","white","no","yes","768","legacy","28","28","C:/Users/bryan/OneDrive/Documents/School/PSYC 5316  (Quant Methods)/Lab 2/BS-subject-4.csv","legacy","Lentiform Loewenfeld","3.3.9","0","s","NA","s","NA","NA","s","533","NA","33222","NA","NA","533","2","legacy","1024","2","48000","-16","experiment","HHSHH","4","even","36123","NA","NA","NA","83945","2899","NA","NA","83437","2895","NA","85072","85180","85714","85067","85180","Flanker Task","27","13791","29","yes","1024"
"93.3333333333","93.3333333333","473.633333333","473.633333333","black","legacy","legacy","legacy","0","incongruent","uniform","1","undefined","1","s","0","0","0","0","29","0","0","0","29","0","29","29","29","29","29","29","09/23/21 15:29:26","1500","The main experiment item","yes","FlankerTask.osexp","C:\Users\bryan\OneDrive\Documents\School\PSYC 5316  (Quant Methods)\Lab 2","no","mono","no","18","no","white","no","yes","768","legacy","29","29","C:/Users/bryan/OneDrive/Documents/School/PSYC 5316  (Quant Methods)/Lab 2/BS-subject-4.csv","legacy","Lentiform Loewenfeld","3.3.9","0","s","NA","s","NA","NA","s","418","NA","33222","NA","NA","418","2","legacy","1024","2","48000","-16","experiment","HHSHH","4","even","36123","NA","NA","NA","85721","2899","NA","NA","83437","2895","NA","86828","86937","87356","86823","86936","Flanker Task","28","14209","30","yes","1024"
"93.5483870968","93.5483870968","472.677419355","472.677419355","black","legacy","legacy","legacy","0","congruent","uniform","1","undefined","1","s","0","0","0","0","30","0","0","0","30","0","30","30","30","30","30","30","09/23/21 15:29:26","1500","The main experiment item","yes","FlankerTask.osexp","C:\Users\bryan\OneDrive\Documents\School\PSYC 5316  (Quant Methods)\Lab 2","no","mono","no","18","no","white","no","yes","768","legacy","30","30","C:/Users/bryan/OneDrive/Documents/School/PSYC 5316  (Quant Methods)/Lab 2/BS-subject-4.csv","legacy","Lentiform Loewenfeld","3.3.9","0","s","NA","s","NA","NA","s","444","NA","33222","NA","NA","444","2","legacy","1024","2","48000","-16","experiment","SSSSS","4","even","36123","NA","NA","NA","87363","2899","NA","NA","83437","2895","NA","88467","88576","89021","88463","88575","Flanker Task","29","14653","31","yes","1024"
"93.75","93.75","474.71875","474.71875","black","legacy","legacy","legacy","0","congruent","uniform","1","undefined","1","h","0","0","0","0","31","0","0","0","31","0","31","31","31","31","31","31","09/23/21 15:29:26","1500","The main experiment item","yes","FlankerTask.osexp","C:\Users\bryan\OneDrive\Documents\School\PSYC 5316  (Quant Methods)\Lab 2","no","mono","no","18","no","white","no","yes","768","legacy","31","31","C:/Users/bryan/OneDrive/Documents/School/PSYC 5316  (Quant Methods)/Lab 2/BS-subject-4.csv","legacy","Lentiform Loewenfeld","3.3.9","0","h","NA","s","NA","NA","h","538","NA","33222","NA","NA","538","2","legacy","1024","2","48000","-16","experiment","HHHHH","4","even","36123","NA","NA","NA","89028","2899","NA","NA","83437","2895","NA","90159","90266","90805","90155","90266","Flanker Task","30","15191","32","yes","1024"
"93.9393939394","93.9393939394","478.848484848","478.848484848","black","legacy","legacy","legacy","0","congruent","uniform","1","undefined","1","h","0","0","0","0","32","0","0","0","32","0","32","32","32","32","32","32","09/23/21 15:29:26","1500","The main experiment item","yes","FlankerTask.osexp","C:\Users\bryan\OneDrive\Documents\School\PSYC 5316  (Quant Methods)\Lab 2","no","mono","no","18","no","white","no","yes","768","legacy","32","32","C:/Users/bryan/OneDrive/Documents/School/PSYC 5316  (Quant Methods)/Lab 2/BS-subject-4.csv","legacy","Lentiform Loewenfeld","3.3.9","0","h","NA","s","NA","NA","h","611","NA","33222","NA","NA","611","2","legacy","1024","2","48000","-16","experiment","HHHHH","4","even","36123","NA","NA","NA","90815","2899","NA","NA","83437","2895","NA","91927","92035","92647","91923","92034","Flanker Task","31","15802","33","yes","1024"
"94.1176470588","94.1176470588","480.735294118","480.735294118","black","legacy","legacy","legacy","0","congruent","uniform","1","undefined","1","s","0","0","0","0","33","0","0","0","33","0","33","33","33","33","33","33","09/23/21 15:29:26","1500","The main experiment item","yes","FlankerTask.osexp","C:\Users\bryan\OneDrive\Documents\School\PSYC 5316  (Quant Methods)\Lab 2","no","mono","no","18","no","white","no","yes","768","legacy","33","33","C:/Users/bryan/OneDrive/Documents/School/PSYC 5316  (Quant Methods)/Lab 2/BS-subject-4.csv","legacy","Lentiform Loewenfeld","3.3.9","0","s","NA","s","NA","NA","s","543","NA","33222","NA","NA","543","2","legacy","1024","2","48000","-16","experiment","SSSSS","4","even","36123","NA","NA","NA","92657","2899","NA","NA","83437","2895","NA","93780","93889","94433","93776","93888","Flanker Task","32","16345","34","yes","1024"
"94.2857142857","94.2857142857","479.4","479.4","black","legacy","legacy","legacy","0","incongruent","uniform","1","undefined","1","h","0","0","0","0","34","0","0","0","34","0","34","34","34","34","34","34","09/23/21 15:29:26","1500","The main experiment item","yes","FlankerTask.osexp","C:\Users\bryan\OneDrive\Documents\School\PSYC 5316  (Quant Methods)\Lab 2","no","mono","no","18","no","white","no","yes","768","legacy","34","34","C:/Users/bryan/OneDrive/Documents/School/PSYC 5316  (Quant Methods)/Lab 2/BS-subject-4.csv","legacy","Lentiform Loewenfeld","3.3.9","0","h","NA","s","NA","NA","h","434","NA","33222","NA","NA","434","2","legacy","1024","2","48000","-16","experiment","SSHSS","4","even","36123","NA","NA","NA","94440","2899","NA","NA","83437","2895","NA","95560","95669","96105","95555","95668","Flanker Task","33","16779","35","yes","1024"
"94.4444444444","94.4444444444","480.388888889","480.388888889","black","legacy","legacy","legacy","0","congruent","uniform","1","undefined","1","h","0","0","0","0","35","0","0","0","35","0","35","35","35","35","35","35","09/23/21 15:29:26","1500","The main experiment item","yes","FlankerTask.osexp","C:\Users\bryan\OneDrive\Documents\School\PSYC 5316  (Quant Methods)\Lab 2","no","mono","no","18","no","white","no","yes","768","legacy","35","35","C:/Users/bryan/OneDrive/Documents/School/PSYC 5316  (Quant Methods)/Lab 2/BS-subject-4.csv","legacy","Lentiform Loewenfeld","3.3.9","0","h","NA","s","NA","NA","h","515","NA","33222","NA","NA","515","2","legacy","1024","2","48000","-16","experiment","HHHHH","4","even","36123","NA","NA","NA","96113","2899","NA","NA","83437","2895","NA","97221","97329","97845","97216","97329","Flanker Task","34","17294","36","yes","1024"
"94.5945945946","94.5945945946","479","479","black","legacy","legacy","legacy","0","congruent","uniform","1","undefined","1","s","0","0","0","0","36","0","0","0","36","0","36","36","36","36","36","36","09/23/21 15:29:26","1500","The main experiment item","yes","FlankerTask.osexp","C:\Users\bryan\OneDrive\Documents\School\PSYC 5316  (Quant Methods)\Lab 2","no","mono","no","18","no","white","no","yes","768","legacy","36","36","C:/Users/bryan/OneDrive/Documents/School/PSYC 5316  (Quant Methods)/Lab 2/BS-subject-4.csv","legacy","Lentiform Loewenfeld","3.3.9","0","s","NA","s","NA","NA","s","429","NA","33222","NA","NA","429","2","legacy","1024","2","48000","-16","experiment","SSSSS","4","even","36123","NA","NA","NA","97852","2899","NA","NA","83437","2895","NA","98973","99081","99512","98969","99080","Flanker Task","35","17723","37","yes","1024"
"94.7368421053","94.7368421053","476.789473684","476.789473684","black","legacy","legacy","legacy","0","congruent","uniform","1","undefined","1","s","0","0","0","0","37","0","0","0","37","0","37","37","37","37","37","37","09/23/21 15:29:26","1500","The main experiment item","yes","FlankerTask.osexp","C:\Users\bryan\OneDrive\Documents\School\PSYC 5316  (Quant Methods)\Lab 2","no","mono","no","18","no","white","no","yes","768","legacy","37","37","C:/Users/bryan/OneDrive/Documents/School/PSYC 5316  (Quant Methods)/Lab 2/BS-subject-4.csv","legacy","Lentiform Loewenfeld","3.3.9","0","s","NA","s","NA","NA","s","395","NA","33222","NA","NA","395","2","legacy","1024","2","48000","-16","experiment","SSSSS","4","even","36123","NA","NA","NA","99521","2899","NA","NA","83437","2895","NA","100646","100754","101150","100641","100754","Flanker Task","36","18118","38","yes","1024"
"94.8717948718","94.8717948718","476.871794872","476.871794872","black","legacy","legacy","legacy","0","incongruent","uniform","1","undefined","1","h","0","0","0","0","38","0","0","0","38","0","38","38","38","38","38","38","09/23/21 15:29:26","1500","The main experiment item","yes","FlankerTask.osexp","C:\Users\bryan\OneDrive\Documents\School\PSYC 5316  (Quant Methods)\Lab 2","no","mono","no","18","no","white","no","yes","768","legacy","38","38","C:/Users/bryan/OneDrive/Documents/School/PSYC 5316  (Quant Methods)/Lab 2/BS-subject-4.csv","legacy","Lentiform Loewenfeld","3.3.9","0","h","NA","s","NA","NA","h","480","NA","33222","NA","NA","480","2","legacy","1024","2","48000","-16","experiment","SSHSS","4","even","36123","NA","NA","NA","101155","2899","NA","NA","83437","2895","NA","102274","102381","102862","102269","102381","Flanker Task","37","18598","39","yes","1024"
"95","95","478.15","478.15","black","legacy","legacy","legacy","0","incongruent","uniform","1","undefined","1","h","0","0","0","0","39","0","0","0","39","0","39","39","39","39","39","39","09/23/21 15:29:26","1500","The main experiment item","yes","FlankerTask.osexp","C:\Users\bryan\OneDrive\Documents\School\PSYC 5316  (Quant Methods)\Lab 2","no","mono","no","18","no","white","no","yes","768","legacy","39","39","C:/Users/bryan/OneDrive/Documents/School/PSYC 5316  (Quant Methods)/Lab 2/BS-subject-4.csv","legacy","Lentiform Loewenfeld","3.3.9","0","h","NA","s","NA","NA","h","528","NA","33222","NA","NA","528","2","legacy","1024","2","48000","-16","experiment","SSHSS","4","even","36123","NA","NA","NA","102872","2899","NA","NA","83437","2895","NA","103987","104096","104625","103983","104096","Flanker Task","38","19126","40","yes","1024"
"95.1219512195","95.1219512195","479.024390244","479.024390244","black","legacy","legacy","legacy","0","incongruent","uniform","1","undefined","1","s","0","0","0","0","40","0","0","0","40","0","40","40","40","40","40","40","09/23/21 15:29:26","1500","The main experiment item","yes","FlankerTask.osexp","C:\Users\bryan\OneDrive\Documents\School\PSYC 5316  (Quant Methods)\Lab 2","no","mono","no","18","no","white","no","yes","768","legacy","40","40","C:/Users/bryan/OneDrive/Documents/School/PSYC 5316  (Quant Methods)/Lab 2/BS-subject-4.csv","legacy","Lentiform Loewenfeld","3.3.9","0","s","NA","s","NA","NA","s","514","NA","33222","NA","NA","514","2","legacy","1024","2","48000","-16","experiment","HHSHH","4","even","36123","NA","NA","NA","104632","2899","NA","NA","83437","2895","NA","105741","105850","106365","105736","105849","Flanker Task","39","19640","41","yes","1024"
"95.2380952381","95.2380952381","478.357142857","478.357142857","black","legacy","legacy","legacy","0","incongruent","uniform","1","undefined","1","s","0","0","0","0","41","0","0","0","41","0","41","41","41","41","41","41","09/23/21 15:29:26","1500","The main experiment item","yes","FlankerTask.osexp","C:\Users\bryan\OneDrive\Documents\School\PSYC 5316  (Quant Methods)\Lab 2","no","mono","no","18","no","white","no","yes","768","legacy","41","41","C:/Users/bryan/OneDrive/Documents/School/PSYC 5316  (Quant Methods)/Lab 2/BS-subject-4.csv","legacy","Lentiform Loewenfeld","3.3.9","0","s","NA","s","NA","NA","s","451","NA","33222","NA","NA","451","2","legacy","1024","2","48000","-16","experiment","HHSHH","4","even","36123","NA","NA","NA","106376","2899","NA","NA","83437","2895","NA","107490","107593","108046","107485","107593","Flanker Task","40","20091","42","yes","1024"
"95.3488372093","95.3488372093","479.046511628","479.046511628","black","legacy","legacy","legacy","0","congruent","uniform","1","undefined","1","s","0","0","0","0","42","0","0","0","42","0","42","42","42","42","42","42","09/23/21 15:29:26","1500","The main experiment item","yes","FlankerTask.osexp","C:\Users\bryan\OneDrive\Documents\School\PSYC 5316  (Quant Methods)\Lab 2","no","mono","no","18","no","white","no","yes","768","legacy","42","42","C:/Users/bryan/OneDrive/Documents/School/PSYC 5316  (Quant Methods)/Lab 2/BS-subject-4.csv","legacy","Lentiform Loewenfeld","3.3.9","0","s","NA","s","NA","NA","s","508","NA","33222","NA","NA","508","2","legacy","1024","2","48000","-16","experiment","SSSSS","4","even","36123","NA","NA","NA","108052","2899","NA","NA","83437","2895","NA","109174","109283","109793","109169","109283","Flanker Task","41","20599","43","yes","1024"
"95.4545454545","95.4545454545","481.113636364","481.113636364","black","legacy","legacy","legacy","0","congruent","uniform","1","undefined","1","h","0","0","0","0","43","0","0","0","43","0","43","43","43","43","43","43","09/23/21 15:29:26","1500","The main experiment item","yes","FlankerTask.osexp","C:\Users\bryan\OneDrive\Documents\School\PSYC 5316  (Quant Methods)\Lab 2","no","mono","no","18","no","white","no","yes","768","legacy","43","43","C:/Users/bryan/OneDrive/Documents/School/PSYC 5316  (Quant Methods)/Lab 2/BS-subject-4.csv","legacy","Lentiform Loewenfeld","3.3.9","0","h","NA","s","NA","NA","h","570","NA","33222","NA","NA","570","2","legacy","1024","2","48000","-16","experiment","HHHHH","4","even","36123","NA","NA","NA","109799","2899","NA","NA","83437","2895","NA","110914","111023","111594","110909","111022","Flanker Task","42","21169","44","yes","1024"
"93.3333333333","93.3333333333","479.822222222","479.822222222","black","legacy","legacy","legacy","0","incongruent","uniform","0","undefined","0","h","0","0","0","0","44","0","0","0","44","0","44","44","44","44","44","44","09/23/21 15:29:26","1500","The main experiment item","yes","FlankerTask.osexp","C:\Users\bryan\OneDrive\Documents\School\PSYC 5316  (Quant Methods)\Lab 2","no","mono","no","18","no","white","no","yes","768","legacy","44","44","C:/Users/bryan/OneDrive/Documents/School/PSYC 5316  (Quant Methods)/Lab 2/BS-subject-4.csv","legacy","Lentiform Loewenfeld","3.3.9","0","s","NA","s","NA","NA","s","423","NA","33222","NA","NA","423","2","legacy","1024","2","48000","-16","experiment","SSHSS","4","even","36123","NA","NA","NA","111605","2899","NA","NA","83437","2895","NA","112719","112827","113251","112716","112827","Flanker Task","42","21592","45","yes","1024"
"93.4782608696","93.4782608696","479.456521739","479.456521739","black","legacy","legacy","legacy","0","incongruent","uniform","1","undefined","1","s","0","0","0","0","45","0","0","0","45","0","45","45","45","45","45","45","09/23/21 15:29:26","1500","The main experiment item","yes","FlankerTask.osexp","C:\Users\bryan\OneDrive\Documents\School\PSYC 5316  (Quant Methods)\Lab 2","no","mono","no","18","no","white","no","yes","768","legacy","45","45","C:/Users/bryan/OneDrive/Documents/School/PSYC 5316  (Quant Methods)/Lab 2/BS-subject-4.csv","legacy","Lentiform Loewenfeld","3.3.9","0","s","NA","s","NA","NA","s","463","NA","33222","NA","NA","463","2","legacy","1024","2","48000","-16","experiment","HHSHH","4","even","36123","NA","NA","NA","113768","2899","NA","NA","113259","2895","NA","114895","115003","115467","114891","115003","Flanker Task","43","22055","46","yes","1024"
"93.6170212766","93.6170212766","481.638297872","481.638297872","black","legacy","legacy","legacy","0","incongruent","uniform","1","undefined","1","s","0","0","0","0","46","0","0","0","46","0","46","46","46","46","46","46","09/23/21 15:29:26","1500","The main experiment item","yes","FlankerTask.osexp","C:\Users\bryan\OneDrive\Documents\School\PSYC 5316  (Quant Methods)\Lab 2","no","mono","no","18","no","white","no","yes","768","legacy","46","46","C:/Users/bryan/OneDrive/Documents/School/PSYC 5316  (Quant Methods)/Lab 2/BS-subject-4.csv","legacy","Lentiform Loewenfeld","3.3.9","0","s","NA","s","NA","NA","s","582","NA","33222","NA","NA","582","2","legacy","1024","2","48000","-16","experiment","HHSHH","4","even","36123","NA","NA","NA","115474","2899","NA","NA","113259","2895","NA","116588","116696","117279","116583","116696","Flanker Task","44","22637","47","yes","1024"
"93.75","93.75","484.229166667","484.229166667","black","legacy","legacy","legacy","0","incongruent","uniform","1","undefined","1","s","0","0","0","0","47","0","0","0","47","0","47","47","47","47","47","47","09/23/21 15:29:26","1500","The main experiment item","yes","FlankerTask.osexp","C:\Users\bryan\OneDrive\Documents\School\PSYC 5316  (Quant Methods)\Lab 2","no","mono","no","18","no","white","no","yes","768","legacy","47","47","C:/Users/bryan/OneDrive/Documents/School/PSYC 5316  (Quant Methods)/Lab 2/BS-subject-4.csv","legacy","Lentiform Loewenfeld","3.3.9","0","s","NA","s","NA","NA","s","606","NA","33222","NA","NA","606","2","legacy","1024","2","48000","-16","experiment","HHSHH","4","even","36123","NA","NA","NA","117288","2899","NA","NA","113259","2895","NA","118395","118504","119111","118390","118503","Flanker Task","45","23243","48","yes","1024"
"93.8775510204","93.8775510204","482.551020408","482.551020408","black","legacy","legacy","legacy","0","incongruent","uniform","1","undefined","1","s","0","0","0","0","48","0","0","0","48","0","48","48","48","48","48","48","09/23/21 15:29:26","1500","The main experiment item","yes","FlankerTask.osexp","C:\Users\bryan\OneDrive\Documents\School\PSYC 5316  (Quant Methods)\Lab 2","no","mono","no","18","no","white","no","yes","768","legacy","48","48","C:/Users/bryan/OneDrive/Documents/School/PSYC 5316  (Quant Methods)/Lab 2/BS-subject-4.csv","legacy","Lentiform Loewenfeld","3.3.9","0","s","NA","s","NA","NA","s","402","NA","33222","NA","NA","402","2","legacy","1024","2","48000","-16","experiment","HHSHH","4","even","36123","NA","NA","NA","119118","2899","NA","NA","113259","2895","NA","120242","120345","120748","120237","120345","Flanker Task","46","23645","49","yes","1024"
"92","92","483","483","black","legacy","legacy","legacy","0","incongruent","uniform","0","undefined","0","h","0","0","0","0","49","0","0","0","49","0","49","49","49","49","49","49","09/23/21 15:29:26","1500","The main experiment item","yes","FlankerTask.osexp","C:\Users\bryan\OneDrive\Documents\School\PSYC 5316  (Quant Methods)\Lab 2","no","mono","no","18","no","white","no","yes","768","legacy","49","49","C:/Users/bryan/OneDrive/Documents/School/PSYC 5316  (Quant Methods)/Lab 2/BS-subject-4.csv","legacy","Lentiform Loewenfeld","3.3.9","0","s","NA","s","NA","NA","s","505","NA","33222","NA","NA","505","2","legacy","1024","2","48000","-16","experiment","SSHSS","4","even","36123","NA","NA","NA","120757","2899","NA","NA","113259","2895","NA","121863","121971","122477","121859","121970","Flanker Task","46","24150","50","yes","1024"
"92.1568627451","92.1568627451","483.37254902","483.37254902","black","legacy","legacy","legacy","0","congruent","uniform","1","undefined","1","h","0","0","0","0","50","0","0","0","50","0","50","50","50","50","50","50","09/23/21 15:29:26","1500","The main experiment item","yes","FlankerTask.osexp","C:\Users\bryan\OneDrive\Documents\School\PSYC 5316  (Quant Methods)\Lab 2","no","mono","no","18","no","white","no","yes","768","legacy","50","50","C:/Users/bryan/OneDrive/Documents/School/PSYC 5316  (Quant Methods)/Lab 2/BS-subject-4.csv","legacy","Lentiform Loewenfeld","3.3.9","0","h","NA","s","NA","NA","h","502","NA","33222","NA","NA","502","2","legacy","1024","2","48000","-16","experiment","HHHHH","4","even","36123","NA","NA","NA","122995","2899","NA","NA","122487","2895","NA","124114","124223","124726","124109","124222","Flanker Task","47","24652","51","yes","1024"
"92.3076923077","92.3076923077","485.461538462","485.461538462","black","legacy","legacy","legacy","0","incongruent","uniform","1","undefined","1","s","0","0","0","0","51","0","0","0","51","0","51","51","51","51","51","51","09/23/21 15:29:26","1500","The main experiment item","yes","FlankerTask.osexp","C:\Users\bryan\OneDrive\Documents\School\PSYC 5316  (Quant Methods)\Lab 2","no","mono","no","18","no","white","no","yes","768","legacy","51","51","C:/Users/bryan/OneDrive/Documents/School/PSYC 5316  (Quant Methods)/Lab 2/BS-subject-4.csv","legacy","Lentiform Loewenfeld","3.3.9","0","s","NA","s","NA","NA","s","592","NA","33222","NA","NA","592","2","legacy","1024","2","48000","-16","experiment","HHSHH","4","even","36123","NA","NA","NA","124737","2899","NA","NA","122487","2895","NA","125870","125979","126572","125866","125979","Flanker Task","48","25244","52","yes","1024"
"92.4528301887","92.4528301887","484","484","black","legacy","legacy","legacy","0","congruent","uniform","1","undefined","1","h","0","0","0","0","52","0","0","0","52","0","52","52","52","52","52","52","09/23/21 15:29:26","1500","The main experiment item","yes","FlankerTask.osexp","C:\Users\bryan\OneDrive\Documents\School\PSYC 5316  (Quant Methods)\Lab 2","no","mono","no","18","no","white","no","yes","768","legacy","52","52","C:/Users/bryan/OneDrive/Documents/School/PSYC 5316  (Quant Methods)/Lab 2/BS-subject-4.csv","legacy","Lentiform Loewenfeld","3.3.9","0","h","NA","s","NA","NA","h","408","NA","33222","NA","NA","408","2","legacy","1024","2","48000","-16","experiment","HHHHH","4","even","36123","NA","NA","NA","126582","2899","NA","NA","122487","2895","NA","127710","127813","128223","127705","127813","Flanker Task","49","25652","53","yes","1024"
"92.5925925926","92.5925925926","482.555555556","482.555555556","black","legacy","legacy","legacy","0","incongruent","uniform","1","undefined","1","s","0","0","0","0","53","0","0","0","53","0","53","53","53","53","53","53","09/23/21 15:29:26","1500","The main experiment item","yes","FlankerTask.osexp","C:\Users\bryan\OneDrive\Documents\School\PSYC 5316  (Quant Methods)\Lab 2","no","mono","no","18","no","white","no","yes","768","legacy","53","53","C:/Users/bryan/OneDrive/Documents/School/PSYC 5316  (Quant Methods)/Lab 2/BS-subject-4.csv","legacy","Lentiform Loewenfeld","3.3.9","0","s","NA","s","NA","NA","s","406","NA","33222","NA","NA","406","2","legacy","1024","2","48000","-16","experiment","HHSHH","4","even","36123","NA","NA","NA","128229","2899","NA","NA","122487","2895","NA","129343","129450","129857","129339","129450","Flanker Task","50","26058","54","yes","1024"
"92.7272727273","92.7272727273","482","482","black","legacy","legacy","legacy","0","congruent","uniform","1","undefined","1","h","0","0","0","0","54","0","0","0","54","0","54","54","54","54","54","54","09/23/21 15:29:26","1500","The main experiment item","yes","FlankerTask.osexp","C:\Users\bryan\OneDrive\Documents\School\PSYC 5316  (Quant Methods)\Lab 2","no","mono","no","18","no","white","no","yes","768","legacy","54","54","C:/Users/bryan/OneDrive/Documents/School/PSYC 5316  (Quant Methods)/Lab 2/BS-subject-4.csv","legacy","Lentiform Loewenfeld","3.3.9","0","h","NA","s","NA","NA","h","452","NA","33222","NA","NA","452","2","legacy","1024","2","48000","-16","experiment","HHHHH","4","even","36123","NA","NA","NA","129864","2899","NA","NA","122487","2895","NA","130973","131080","131533","130968","131080","Flanker Task","51","26510","55","yes","1024"
"92.8571428571","92.8571428571","479.785714286","479.785714286","black","legacy","legacy","legacy","0","congruent","uniform","1","undefined","1","s","0","0","0","0","55","0","0","0","55","0","55","55","55","55","55","55","09/23/21 15:29:26","1500","The main experiment item","yes","FlankerTask.osexp","C:\Users\bryan\OneDrive\Documents\School\PSYC 5316  (Quant Methods)\Lab 2","no","mono","no","18","no","white","no","yes","768","legacy","55","55","C:/Users/bryan/OneDrive/Documents/School/PSYC 5316  (Quant Methods)/Lab 2/BS-subject-4.csv","legacy","Lentiform Loewenfeld","3.3.9","0","s","NA","s","NA","NA","s","358","NA","33222","NA","NA","358","2","legacy","1024","2","48000","-16","experiment","SSSSS","4","even","36123","NA","NA","NA","131542","2899","NA","NA","122487","2895","NA","132664","132773","133133","132660","132772","Flanker Task","52","26868","56","yes","1024"
"92.9824561404","92.9824561404","477.912280702","477.912280702","black","legacy","legacy","legacy","0","congruent","uniform","1","undefined","1","s","0","0","0","0","56","0","0","0","56","0","56","56","56","56","56","56","09/23/21 15:29:26","1500","The main experiment item","yes","FlankerTask.osexp","C:\Users\bryan\OneDrive\Documents\School\PSYC 5316  (Quant Methods)\Lab 2","no","mono","no","18","no","white","no","yes","768","legacy","56","56","C:/Users/bryan/OneDrive/Documents/School/PSYC 5316  (Quant Methods)/Lab 2/BS-subject-4.csv","legacy","Lentiform Loewenfeld","3.3.9","0","s","NA","s","NA","NA","s","373","NA","33222","NA","NA","373","2","legacy","1024","2","48000","-16","experiment","SSSSS","4","even","36123","NA","NA","NA","133142","2899","NA","NA","122487","2895","NA","134258","134366","134741","134253","134366","Flanker Task","53","27241","57","yes","1024"
"93.1034482759","93.1034482759","476.482758621","476.482758621","black","legacy","legacy","legacy","0","congruent","uniform","1","undefined","1","h","0","0","0","0","57","0","0","0","57","0","57","57","57","57","57","57","09/23/21 15:29:26","1500","The main experiment item","yes","FlankerTask.osexp","C:\Users\bryan\OneDrive\Documents\School\PSYC 5316  (Quant Methods)\Lab 2","no","mono","no","18","no","white","no","yes","768","legacy","57","57","C:/Users/bryan/OneDrive/Documents/School/PSYC 5316  (Quant Methods)/Lab 2/BS-subject-4.csv","legacy","Lentiform Loewenfeld","3.3.9","0","h","NA","s","NA","NA","h","395","NA","33222","NA","NA","395","2","legacy","1024","2","48000","-16","experiment","HHHHH","4","even","36123","NA","NA","NA","134749","2899","NA","NA","122487","2895","NA","135872","135981","136378","135867","135980","Flanker Task","54","27636","58","yes","1024"
"93.2203389831","93.2203389831","475.966101695","475.966101695","black","legacy","legacy","legacy","0","congruent","uniform","1","undefined","1","s","0","0","0","0","58","0","0","0","58","0","58","58","58","58","58","58","09/23/21 15:29:26","1500","The main experiment item","yes","FlankerTask.osexp","C:\Users\bryan\OneDrive\Documents\School\PSYC 5316  (Quant Methods)\Lab 2","no","mono","no","18","no","white","no","yes","768","legacy","58","58","C:/Users/bryan/OneDrive/Documents/School/PSYC 5316  (Quant Methods)/Lab 2/BS-subject-4.csv","legacy","Lentiform Loewenfeld","3.3.9","0","s","NA","s","NA","NA","s","446","NA","33222","NA","NA","446","2","legacy","1024","2","48000","-16","experiment","SSSSS","4","even","36123","NA","NA","NA","136389","2899","NA","NA","122487","2895","NA","137501","137608","138055","137496","137608","Flanker Task","55","28082","59","yes","1024"
"93.3333333333","93.3333333333","475.583333333","475.583333333","black","legacy","legacy","legacy","0","incongruent","uniform","1","undefined","1","h","0","0","0","0","59","0","0","0","59","0","59","59","59","59","59","59","09/23/21 15:29:26","1500","The main experiment item","yes","FlankerTask.osexp","C:\Users\bryan\OneDrive\Documents\School\PSYC 5316  (Quant Methods)\Lab 2","no","mono","no","18","no","white","no","yes","768","legacy","59","59","C:/Users/bryan/OneDrive/Documents/School/PSYC 5316  (Quant Methods)/Lab 2/BS-subject-4.csv","legacy","Lentiform Loewenfeld","3.3.9","0","h","NA","s","NA","NA","h","453","NA","33222","NA","NA","453","2","legacy","1024","2","48000","-16","experiment","SSHSS","4","even","36123","NA","NA","NA","138062","2899","NA","NA","122487","2895","NA","139186","139291","139746","139182","139291","Flanker Task","56","28535","60","yes","1024"
"93.4426229508","93.4426229508","473.213114754","473.213114754","black","legacy","legacy","legacy","0","congruent","uniform","1","undefined","1","s","0","0","0","0","60","0","0","0","60","0","60","60","60","60","60","60","09/23/21 15:29:26","1500","The main experiment item","yes","FlankerTask.osexp","C:\Users\bryan\OneDrive\Documents\School\PSYC 5316  (Quant Methods)\Lab 2","no","mono","no","18","no","white","no","yes","768","legacy","60","60","C:/Users/bryan/OneDrive/Documents/School/PSYC 5316  (Quant Methods)/Lab 2/BS-subject-4.csv","legacy","Lentiform Loewenfeld","3.3.9","0","s","NA","s","NA","NA","s","331","NA","33222","NA","NA","331","2","legacy","1024","2","48000","-16","experiment","SSSSS","4","even","36123","NA","NA","NA","139752","2899","NA","NA","122487","2895","NA","140877","140985","141317","140872","140984","Flanker Task","57","28866","61","yes","1024"
"91.935483871","91.935483871","470.5","470.5","black","legacy","legacy","legacy","0","incongruent","uniform","0","undefined","0","h","0","0","0","0","61","0","0","0","61","0","61","61","61","61","61","61","09/23/21 15:29:26","1500","The main experiment item","yes","FlankerTask.osexp","C:\Users\bryan\OneDrive\Documents\School\PSYC 5316  (Quant Methods)\Lab 2","no","mono","no","18","no","white","no","yes","768","legacy","61","61","C:/Users/bryan/OneDrive/Documents/School/PSYC 5316  (Quant Methods)/Lab 2/BS-subject-4.csv","legacy","Lentiform Loewenfeld","3.3.9","0","s","NA","s","NA","NA","s","305","NA","33222","NA","NA","305","2","legacy","1024","2","48000","-16","experiment","SSHSS","4","even","36123","NA","NA","NA","141324","2899","NA","NA","122487","2895","NA","142442","142550","142856","142437","142550","Flanker Task","57","29171","62","yes","1024"
"92.0634920635","92.0634920635","471.492063492","471.492063492","black","legacy","legacy","legacy","0","incongruent","uniform","1","undefined","1","h","0","0","0","0","62","0","0","0","62","0","62","62","62","62","62","62","09/23/21 15:29:26","1500","The main experiment item","yes","FlankerTask.osexp","C:\Users\bryan\OneDrive\Documents\School\PSYC 5316  (Quant Methods)\Lab 2","no","mono","no","18","no","white","no","yes","768","legacy","62","62","C:/Users/bryan/OneDrive/Documents/School/PSYC 5316  (Quant Methods)/Lab 2/BS-subject-4.csv","legacy","Lentiform Loewenfeld","3.3.9","0","h","NA","s","NA","NA","h","533","NA","33222","NA","NA","533","2","legacy","1024","2","48000","-16","experiment","SSHSS","4","even","36123","NA","NA","NA","143376","2899","NA","NA","142867","2895","NA","144487","144596","145130","144483","144596","Flanker Task","58","29704","63","yes","1024"
"92.1875","92.1875","470.546875","470.546875","black","legacy","legacy","legacy","0","congruent","uniform","1","undefined","1","s","0","0","0","0","63","0","0","0","63","0","63","63","63","63","63","63","09/23/21 15:29:26","1500","The main experiment item","yes","FlankerTask.osexp","C:\Users\bryan\OneDrive\Documents\School\PSYC 5316  (Quant Methods)\Lab 2","no","mono","no","18","no","white","no","yes","768","legacy","63","63","C:/Users/bryan/OneDrive/Documents/School/PSYC 5316  (Quant Methods)/Lab 2/BS-subject-4.csv","legacy","Lentiform Loewenfeld","3.3.9","0","s","NA","s","NA","NA","s","411","NA","33222","NA","NA","411","2","legacy","1024","2","48000","-16","experiment","SSSSS","4","even","36123","NA","NA","NA","145140","2899","NA","NA","142867","2895","NA","146260","146368","146780","146256","146368","Flanker Task","59","30115","64","yes","1024"
"92.3076923077","92.3076923077","471.369230769","471.369230769","black","legacy","legacy","legacy","0","incongruent","uniform","1","undefined","1","h","0","0","0","0","64","0","0","0","64","0","64","64","64","64","64","64","09/23/21 15:29:26","1500","The main experiment item","yes","FlankerTask.osexp","C:\Users\bryan\OneDrive\Documents\School\PSYC 5316  (Quant Methods)\Lab 2","no","mono","no","18","no","white","no","yes","768","legacy","64","64","C:/Users/bryan/OneDrive/Documents/School/PSYC 5316  (Quant Methods)/Lab 2/BS-subject-4.csv","legacy","Lentiform Loewenfeld","3.3.9","0","h","NA","s","NA","NA","h","524","NA","33222","NA","NA","524","2","legacy","1024","2","48000","-16","experiment","SSHSS","4","even","36123","NA","NA","NA","146787","2899","NA","NA","142867","2895","NA","147904","148007","148533","147899","148007","Flanker Task","60","30639","65","yes","1024"
"92.4242424242","92.4242424242","470.560606061","470.560606061","black","legacy","legacy","legacy","0","incongruent","uniform","1","undefined","1","s","0","0","0","0","65","0","0","0","65","0","65","65","65","65","65","65","09/23/21 15:29:26","1500","The main experiment item","yes","FlankerTask.osexp","C:\Users\bryan\OneDrive\Documents\School\PSYC 5316  (Quant Methods)\Lab 2","no","mono","no","18","no","white","no","yes","768","legacy","65","65","C:/Users/bryan/OneDrive/Documents/School/PSYC 5316  (Quant Methods)/Lab 2/BS-subject-4.csv","legacy","Lentiform Loewenfeld","3.3.9","0","s","NA","s","NA","NA","s","418","NA","33222","NA","NA","418","2","legacy","1024","2","48000","-16","experiment","HHSHH","4","even","36123","NA","NA","NA","148544","2899","NA","NA","142867","2895","NA","149650","149759","150179","149646","149758","Flanker Task","61","31057","66","yes","1024"
"92.5373134328","92.5373134328","470.611940299","470.611940299","black","legacy","legacy","legacy","0","congruent","uniform","1","undefined","1","s","0","0","0","0","66","0","0","0","66","0","66","66","66","66","66","66","09/23/21 15:29:26","1500","The main experiment item","yes","FlankerTask.osexp","C:\Users\bryan\OneDrive\Documents\School\PSYC 5316  (Quant Methods)\Lab 2","no","mono","no","18","no","white","no","yes","768","legacy","66","66","C:/Users/bryan/OneDrive/Documents/School/PSYC 5316  (Quant Methods)/Lab 2/BS-subject-4.csv","legacy","Lentiform Loewenfeld","3.3.9","0","s","NA","s","NA","NA","s","474","NA","33222","NA","NA","474","2","legacy","1024","2","48000","-16","experiment","SSSSS","4","even","36123","NA","NA","NA","150187","2899","NA","NA","142867","2895","NA","151298","151406","151882","151294","151406","Flanker Task","62","31531","67","yes","1024"
"92.6470588235","92.6470588235","469.676470588","469.676470588","black","legacy","legacy","legacy","0","congruent","uniform","1","undefined","1","s","0","0","0","0","67","0","0","0","67","0","67","67","67","67","67","67","09/23/21 15:29:26","1500","The main experiment item","yes","FlankerTask.osexp","C:\Users\bryan\OneDrive\Documents\School\PSYC 5316  (Quant Methods)\Lab 2","no","mono","no","18","no","white","no","yes","768","legacy","67","67","C:/Users/bryan/OneDrive/Documents/School/PSYC 5316  (Quant Methods)/Lab 2/BS-subject-4.csv","legacy","Lentiform Loewenfeld","3.3.9","0","s","NA","s","NA","NA","s","407","NA","33222","NA","NA","407","2","legacy","1024","2","48000","-16","experiment","SSSSS","4","even","36123","NA","NA","NA","151890","2899","NA","NA","142867","2895","NA","153011","153120","153529","153007","153119","Flanker Task","63","31938","68","yes","1024"
"92.7536231884","92.7536231884","469.971014493","469.971014493","black","legacy","legacy","legacy","0","incongruent","uniform","1","undefined","1","h","0","0","0","0","68","0","0","0","68","0","68","68","68","68","68","68","09/23/21 15:29:26","1500","The main experiment item","yes","FlankerTask.osexp","C:\Users\bryan\OneDrive\Documents\School\PSYC 5316  (Quant Methods)\Lab 2","no","mono","no","18","no","white","no","yes","768","legacy","68","68","C:/Users/bryan/OneDrive/Documents/School/PSYC 5316  (Quant Methods)/Lab 2/BS-subject-4.csv","legacy","Lentiform Loewenfeld","3.3.9","0","h","NA","s","NA","NA","h","490","NA","33222","NA","NA","490","2","legacy","1024","2","48000","-16","experiment","SSHSS","4","even","36123","NA","NA","NA","153535","2899","NA","NA","142867","2895","NA","154655","154764","155255","154651","154763","Flanker Task","64","32428","69","yes","1024"
"92.8571428571","92.8571428571","471.928571429","471.928571429","black","legacy","legacy","legacy","0","congruent","uniform","1","undefined","1","h","0","0","0","0","69","0","0","0","69","0","69","69","69","69","69","69","09/23/21 15:29:26","1500","The main experiment item","yes","FlankerTask.osexp","C:\Users\bryan\OneDrive\Documents\School\PSYC 5316  (Quant Methods)\Lab 2","no","mono","no","18","no","white","no","yes","768","legacy","69","69","C:/Users/bryan/OneDrive/Documents/School/PSYC 5316  (Quant Methods)/Lab 2/BS-subject-4.csv","legacy","Lentiform Loewenfeld","3.3.9","0","h","NA","s","NA","NA","h","607","NA","33222","NA","NA","607","2","legacy","1024","2","48000","-16","experiment","HHHHH","4","even","36123","NA","NA","NA","155265","2899","NA","NA","142867","2895","NA","156387","156496","157105","156382","156495","Flanker Task","65","33035","70","yes","1024"
"92.9577464789","92.9577464789","471.352112676","471.352112676","black","legacy","legacy","legacy","0","congruent","uniform","1","undefined","1","h","0","0","0","0","70","0","0","0","70","0","70","70","70","70","70","70","09/23/21 15:29:26","1500","The main experiment item","yes","FlankerTask.osexp","C:\Users\bryan\OneDrive\Documents\School\PSYC 5316  (Quant Methods)\Lab 2","no","mono","no","18","no","white","no","yes","768","legacy","70","70","C:/Users/bryan/OneDrive/Documents/School/PSYC 5316  (Quant Methods)/Lab 2/BS-subject-4.csv","legacy","Lentiform Loewenfeld","3.3.9","0","h","NA","s","NA","NA","h","431","NA","33222","NA","NA","431","2","legacy","1024","2","48000","-16","experiment","HHHHH","4","even","36123","NA","NA","NA","157111","2899","NA","NA","142867","2895","NA","158231","158339","158772","158226","158339","Flanker Task","66","33466","71","yes","1024"
"93.0555555556","93.0555555556","470.861111111","470.861111111","black","legacy","legacy","legacy","0","congruent","uniform","1","undefined","1","h","0","0","0","0","71","0","0","0","71","0","71","71","71","71","71","71","09/23/21 15:29:26","1500","The main experiment item","yes","FlankerTask.osexp","C:\Users\bryan\OneDrive\Documents\School\PSYC 5316  (Quant Methods)\Lab 2","no","mono","no","18","no","white","no","yes","768","legacy","71","71","C:/Users/bryan/OneDrive/Documents/School/PSYC 5316  (Quant Methods)/Lab 2/BS-subject-4.csv","legacy","Lentiform Loewenfeld","3.3.9","0","h","NA","s","NA","NA","h","436","NA","33222","NA","NA","436","2","legacy","1024","2","48000","-16","experiment","HHHHH","4","even","36123","NA","NA","NA","158778","2899","NA","NA","142867","2895","NA","159888","159996","160434","159883","159996","Flanker Task","67","33902","72","yes","1024"
"93.1506849315","93.1506849315","470.698630137","470.698630137","black","legacy","legacy","legacy","0","congruent","uniform","1","undefined","1","h","0","0","0","0","72","0","0","0","72","0","72","72","72","72","72","72","09/23/21 15:29:26","1500","The main experiment item","yes","FlankerTask.osexp","C:\Users\bryan\OneDrive\Documents\School\PSYC 5316  (Quant Methods)\Lab 2","no","mono","no","18","no","white","no","yes","768","legacy","72","72","C:/Users/bryan/OneDrive/Documents/School/PSYC 5316  (Quant Methods)/Lab 2/BS-subject-4.csv","legacy","Lentiform Loewenfeld","3.3.9","0","h","NA","s","NA","NA","h","459","NA","33222","NA","NA","459","2","legacy","1024","2","48000","-16","experiment","HHHHH","4","even","36123","NA","NA","NA","160444","2899","NA","NA","142867","2895","NA","161557","161665","162125","161553","161665","Flanker Task","68","34361","73","yes","1024"
"93.2432432432","93.2432432432","471.391891892","471.391891892","black","legacy","legacy","legacy","0","incongruent","uniform","1","undefined","1","h","0","0","0","0","73","0","0","0","73","0","73","73","73","73","73","73","09/23/21 15:29:26","1500","The main experiment item","yes","FlankerTask.osexp","C:\Users\bryan\OneDrive\Documents\School\PSYC 5316  (Quant Methods)\Lab 2","no","mono","no","18","no","white","no","yes","768","legacy","73","73","C:/Users/bryan/OneDrive/Documents/School/PSYC 5316  (Quant Methods)/Lab 2/BS-subject-4.csv","legacy","Lentiform Loewenfeld","3.3.9","0","h","NA","s","NA","NA","h","522","NA","33222","NA","NA","522","2","legacy","1024","2","48000","-16","experiment","SSHSS","4","even","36123","NA","NA","NA","162135","2899","NA","NA","142867","2895","NA","163260","163368","163891","163256","163367","Flanker Task","69","34883","74","yes","1024"
"93.3333333333","93.3333333333","471.053333333","471.053333333","black","legacy","legacy","legacy","0","incongruent","uniform","1","undefined","1","h","0","0","0","0","74","0","0","0","74","0","74","74","74","74","74","74","09/23/21 15:29:26","1500","The main experiment item","yes","FlankerTask.osexp","C:\Users\bryan\OneDrive\Documents\School\PSYC 5316  (Quant Methods)\Lab 2","no","mono","no","18","no","white","no","yes","768","legacy","74","74","C:/Users/bryan/OneDrive/Documents/School/PSYC 5316  (Quant Methods)/Lab 2/BS-subject-4.csv","legacy","Lentiform Loewenfeld","3.3.9","0","h","NA","s","NA","NA","h","446","NA","33222","NA","NA","446","2","legacy","1024","2","48000","-16","experiment","SSHSS","4","even","36123","NA","NA","NA","163901","2899","NA","NA","142867","2895","NA","165024","165132","165580","165019","165132","Flanker Task","70","35329","75","yes","1024"
"93.4210526316","93.4210526316","470.223684211","470.223684211","black","legacy","legacy","legacy","0","congruent","uniform","1","undefined","1","h","0","0","0","0","75","0","0","0","75","0","75","75","75","75","75","75","09/23/21 15:29:26","1500","The main experiment item","yes","FlankerTask.osexp","C:\Users\bryan\OneDrive\Documents\School\PSYC 5316  (Quant Methods)\Lab 2","no","mono","no","18","no","white","no","yes","768","legacy","75","75","C:/Users/bryan/OneDrive/Documents/School/PSYC 5316  (Quant Methods)/Lab 2/BS-subject-4.csv","legacy","Lentiform Loewenfeld","3.3.9","0","h","NA","s","NA","NA","h","408","NA","33222","NA","NA","408","2","legacy","1024","2","48000","-16","experiment","HHHHH","4","even","36123","NA","NA","NA","165590","2899","NA","NA","142867","2895","NA","166713","166822","167232","166708","166821","Flanker Task","71","35737","76","yes","1024"
"93.5064935065","93.5064935065","469.636363636","469.636363636","black","legacy","legacy","legacy","0","incongruent","uniform","1","undefined","1","h","0","0","0","0","76","0","0","0","76","0","76","76","76","76","76","76","09/23/21 15:29:26","1500","The main experiment item","yes","FlankerTask.osexp","C:\Users\bryan\OneDrive\Documents\School\PSYC 5316  (Quant Methods)\Lab 2","no","mono","no","18","no","white","no","yes","768","legacy","76","76","C:/Users/bryan/OneDrive/Documents/School/PSYC 5316  (Quant Methods)/Lab 2/BS-subject-4.csv","legacy","Lentiform Loewenfeld","3.3.9","0","h","NA","s","NA","NA","h","425","NA","33222","NA","NA","425","2","legacy","1024","2","48000","-16","experiment","SSHSS","4","even","36123","NA","NA","NA","167239","2899","NA","NA","142867","2895","NA","168359","168467","168893","168355","168467","Flanker Task","72","36162","77","yes","1024"
"93.5897435897","93.5897435897","468.269230769","468.269230769","black","legacy","legacy","legacy","0","congruent","uniform","1","undefined","1","h","0","0","0","0","77","0","0","0","77","0","77","77","77","77","77","77","09/23/21 15:29:26","1500","The main experiment item","yes","FlankerTask.osexp","C:\Users\bryan\OneDrive\Documents\School\PSYC 5316  (Quant Methods)\Lab 2","no","mono","no","18","no","white","no","yes","768","legacy","77","77","C:/Users/bryan/OneDrive/Documents/School/PSYC 5316  (Quant Methods)/Lab 2/BS-subject-4.csv","legacy","Lentiform Loewenfeld","3.3.9","0","h","NA","s","NA","NA","h","363","NA","33222","NA","NA","363","2","legacy","1024","2","48000","-16","experiment","HHHHH","4","even","36123","NA","NA","NA","168902","2899","NA","NA","142867","2895","NA","170036","170145","170510","170031","170144","Flanker Task","73","36525","78","yes","1024"
"93.6708860759","93.6708860759","468.240506329","468.240506329","black","legacy","legacy","legacy","0","incongruent","uniform","1","undefined","1","s","0","0","0","0","78","0","0","0","78","0","78","78","78","78","78","78","09/23/21 15:29:26","1500","The main experiment item","yes","FlankerTask.osexp","C:\Users\bryan\OneDrive\Documents\School\PSYC 5316  (Quant Methods)\Lab 2","no","mono","no","18","no","white","no","yes","768","legacy","78","78","C:/Users/bryan/OneDrive/Documents/School/PSYC 5316  (Quant Methods)/Lab 2/BS-subject-4.csv","legacy","Lentiform Loewenfeld","3.3.9","0","s","NA","s","NA","NA","s","466","NA","33222","NA","NA","466","2","legacy","1024","2","48000","-16","experiment","HHSHH","4","even","36123","NA","NA","NA","170520","2899","NA","NA","142867","2895","NA","171633","171742","172210","171628","171741","Flanker Task","74","36991","79","yes","1024"
"93.75","93.75","467.6125","467.6125","black","legacy","legacy","legacy","0","incongruent","uniform","1","undefined","1","s","0","0","0","0","79","0","0","0","79","0","79","79","79","79","79","79","09/23/21 15:29:26","1500","The main experiment item","yes","FlankerTask.osexp","C:\Users\bryan\OneDrive\Documents\School\PSYC 5316  (Quant Methods)\Lab 2","no","mono","no","18","no","white","no","yes","768","legacy","79","79","C:/Users/bryan/OneDrive/Documents/School/PSYC 5316  (Quant Methods)/Lab 2/BS-subject-4.csv","legacy","Lentiform Loewenfeld","3.3.9","0","s","NA","s","NA","NA","s","418","NA","33222","NA","NA","418","2","legacy","1024","2","48000","-16","experiment","HHSHH","4","even","36123","NA","NA","NA","172217","2899","NA","NA","142867","2895","NA","173343","173452","173872","173339","173451","Flanker Task","75","37409","80","yes","1024"
"93.8271604938","93.8271604938","468.148148148","468.148148148","black","legacy","legacy","legacy","0","congruent","uniform","1","undefined","1","h","0","0","0","0","80","0","0","0","80","0","80","80","80","80","80","80","09/23/21 15:29:26","600","The main experiment item","yes","FlankerTask.osexp","C:\Users\bryan\OneDrive\Documents\School\PSYC 5316  (Quant Methods)\Lab 2","no","mono","no","18","no","white","no","yes","768","legacy","0","79","C:/Users/bryan/OneDrive/Documents/School/PSYC 5316  (Quant Methods)/Lab 2/BS-subject-4.csv","legacy","Lentiform Loewenfeld","3.3.9","0","h","NA","s","s","NA","h","511","NA","33222","17272","NA","511","2","legacy","1024","2","48000","-16","experiment","HHHHH","4","even","36123","192185","NA","NA","173880","2899","174912","NA","142867","2895","NA","192291","192400","192912","192287","192399","Flanker Task","76","37920","81","yes","1024"
"93.9024390244","93.9024390244","466.963414634","466.963414634","black","legacy","legacy","legacy","0","incongruent","uniform","1","undefined","1","s","0","0","0","0","81","0","0","0","81","0","81","81","81","81","81","81","09/23/21 15:29:26","600","The main experiment item","yes","FlankerTask.osexp","C:\Users\bryan\OneDrive\Documents\School\PSYC 5316  (Quant Methods)\Lab 2","no","mono","no","18","no","white","no","yes","768","legacy","1","79","C:/Users/bryan/OneDrive/Documents/School/PSYC 5316  (Quant Methods)/Lab 2/BS-subject-4.csv","legacy","Lentiform Loewenfeld","3.3.9","0","s","NA","s","s","NA","s","371","NA","33222","17272","NA","371","2","legacy","1024","2","48000","-16","experiment","HHSHH","4","even","36123","192185","NA","NA","192922","2899","174912","NA","142867","2895","NA","194046","194150","194523","194042","194150","Flanker Task","77","38291","82","yes","1024"
"93.9759036145","93.9759036145","467.180722892","467.180722892","black","legacy","legacy","legacy","0","incongruent","uniform","1","undefined","1","h","0","0","0","0","82","0","0","0","82","0","82","82","82","82","82","82","09/23/21 15:29:26","600","The main experiment item","yes","FlankerTask.osexp","C:\Users\bryan\OneDrive\Documents\School\PSYC 5316  (Quant Methods)\Lab 2","no","mono","no","18","no","white","no","yes","768","legacy","2","79","C:/Users/bryan/OneDrive/Documents/School/PSYC 5316  (Quant Methods)/Lab 2/BS-subject-4.csv","legacy","Lentiform Loewenfeld","3.3.9","0","h","NA","s","s","NA","h","485","NA","33222","17272","NA","485","2","legacy","1024","2","48000","-16","experiment","SSHSS","4","even","36123","192185","NA","NA","194533","2899","174912","NA","142867","2895","NA","195658","195766","196252","195653","195766","Flanker Task","78","38776","83","yes","1024"
"92.8571428571","92.8571428571","465.869047619","465.869047619","black","legacy","legacy","legacy","0","incongruent","uniform","0","undefined","0","h","0","0","0","0","83","0","0","0","83","0","83","83","83","83","83","83","09/23/21 15:29:26","600","The main experiment item","yes","FlankerTask.osexp","C:\Users\bryan\OneDrive\Documents\School\PSYC 5316  (Quant Methods)\Lab 2","no","mono","no","18","no","white","no","yes","768","legacy","3","79","C:/Users/bryan/OneDrive/Documents/School/PSYC 5316  (Quant Methods)/Lab 2/BS-subject-4.csv","legacy","Lentiform Loewenfeld","3.3.9","0","s","NA","s","s","NA","s","357","NA","33222","17272","NA","357","2","legacy","1024","2","48000","-16","experiment","SSHSS","4","even","36123","192185","NA","NA","196259","2899","174912","NA","142867","2895","NA","197378","197486","197845","197374","197486","Flanker Task","78","39133","84","yes","1024"
"92.9411764706","92.9411764706","466.564705882","466.564705882","black","legacy","legacy","legacy","0","congruent","uniform","1","undefined","1","s","0","0","0","0","84","0","0","0","84","0","84","84","84","84","84","84","09/23/21 15:29:26","600","The main experiment item","yes","FlankerTask.osexp","C:\Users\bryan\OneDrive\Documents\School\PSYC 5316  (Quant Methods)\Lab 2","no","mono","no","18","no","white","no","yes","768","legacy","4","79","C:/Users/bryan/OneDrive/Documents/School/PSYC 5316  (Quant Methods)/Lab 2/BS-subject-4.csv","legacy","Lentiform Loewenfeld","3.3.9","0","s","NA","s","s","NA","s","525","NA","33222","17272","NA","525","2","legacy","1024","2","48000","-16","experiment","SSSSS","4","even","36123","192185","NA","NA","198360","2899","174912","NA","197852","2895","NA","199467","199576","200103","199463","199576","Flanker Task","79","39658","85","yes","1024"
"93.023255814","93.023255814","465.88372093","465.88372093","black","legacy","legacy","legacy","0","incongruent","uniform","1","undefined","1","h","0","0","0","0","85","0","0","0","85","0","85","85","85","85","85","85","09/23/21 15:29:26","600","The main experiment item","yes","FlankerTask.osexp","C:\Users\bryan\OneDrive\Documents\School\PSYC 5316  (Quant Methods)\Lab 2","no","mono","no","18","no","white","no","yes","768","legacy","5","79","C:/Users/bryan/OneDrive/Documents/School/PSYC 5316  (Quant Methods)/Lab 2/BS-subject-4.csv","legacy","Lentiform Loewenfeld","3.3.9","0","h","NA","s","s","NA","h","408","NA","33222","17272","NA","408","2","legacy","1024","2","48000","-16","experiment","SSHSS","4","even","36123","192185","NA","NA","200114","2899","174912","NA","197852","2895","NA","201242","201351","201761","201238","201351","Flanker Task","80","40066","86","yes","1024"
"93.1034482759","93.1034482759","466.505747126","466.505747126","black","legacy","legacy","legacy","0","incongruent","uniform","1","undefined","1","s","0","0","0","0","86","0","0","0","86","0","86","86","86","86","86","86","09/23/21 15:29:26","600","The main experiment item","yes","FlankerTask.osexp","C:\Users\bryan\OneDrive\Documents\School\PSYC 5316  (Quant Methods)\Lab 2","no","mono","no","18","no","white","no","yes","768","legacy","6","79","C:/Users/bryan/OneDrive/Documents/School/PSYC 5316  (Quant Methods)/Lab 2/BS-subject-4.csv","legacy","Lentiform Loewenfeld","3.3.9","0","s","NA","s","s","NA","s","520","NA","33222","17272","NA","520","2","legacy","1024","2","48000","-16","experiment","HHSHH","4","even","36123","192185","NA","NA","201767","2899","174912","NA","197852","2895","NA","202891","202998","203519","202886","202998","Flanker Task","81","40586","87","yes","1024"
"93.1818181818","93.1818181818","467.602272727","467.602272727","black","legacy","legacy","legacy","0","incongruent","uniform","1","undefined","1","s","0","0","0","0","87","0","0","0","87","0","87","87","87","87","87","87","09/23/21 15:29:26","600","The main experiment item","yes","FlankerTask.osexp","C:\Users\bryan\OneDrive\Documents\School\PSYC 5316  (Quant Methods)\Lab 2","no","mono","no","18","no","white","no","yes","768","legacy","7","79","C:/Users/bryan/OneDrive/Documents/School/PSYC 5316  (Quant Methods)/Lab 2/BS-subject-4.csv","legacy","Lentiform Loewenfeld","3.3.9","0","s","NA","s","s","NA","s","563","NA","33222","17272","NA","563","2","legacy","1024","2","48000","-16","experiment","HHSHH","4","even","36123","192185","NA","NA","203526","2899","174912","NA","197852","2895","NA","204637","204745","205310","204632","204744","Flanker Task","82","41149","88","yes","1024"
"93.2584269663","93.2584269663","468.314606742","468.314606742","black","legacy","legacy","legacy","0","congruent","uniform","1","undefined","1","h","0","0","0","0","88","0","0","0","88","0","88","88","88","88","88","88","09/23/21 15:29:26","600","The main experiment item","yes","FlankerTask.osexp","C:\Users\bryan\OneDrive\Documents\School\PSYC 5316  (Quant Methods)\Lab 2","no","mono","no","18","no","white","no","yes","768","legacy","8","79","C:/Users/bryan/OneDrive/Documents/School/PSYC 5316  (Quant Methods)/Lab 2/BS-subject-4.csv","legacy","Lentiform Loewenfeld","3.3.9","0","h","NA","s","s","NA","h","531","NA","33222","17272","NA","531","2","legacy","1024","2","48000","-16","experiment","HHHHH","4","even","36123","192185","NA","NA","205320","2899","174912","NA","197852","2895","NA","206442","206550","207083","206437","206549","Flanker Task","83","41680","89","yes","1024"
"93.3333333333","93.3333333333","468.5","468.5","black","legacy","legacy","legacy","0","congruent","uniform","1","undefined","1","h","0","0","0","0","89","0","0","0","89","0","89","89","89","89","89","89","09/23/21 15:29:26","600","The main experiment item","yes","FlankerTask.osexp","C:\Users\bryan\OneDrive\Documents\School\PSYC 5316  (Quant Methods)\Lab 2","no","mono","no","18","no","white","no","yes","768","legacy","9","79","C:/Users/bryan/OneDrive/Documents/School/PSYC 5316  (Quant Methods)/Lab 2/BS-subject-4.csv","legacy","Lentiform Loewenfeld","3.3.9","0","h","NA","s","s","NA","h","485","NA","33222","17272","NA","485","2","legacy","1024","2","48000","-16","experiment","HHHHH","4","even","36123","192185","NA","NA","207093","2899","174912","NA","197852","2895","NA","208209","208318","208805","208204","208317","Flanker Task","84","42165","90","yes","1024"
"93.4065934066","93.4065934066","469.967032967","469.967032967","black","legacy","legacy","legacy","0","congruent","uniform","1","undefined","1","s","0","0","0","0","90","0","0","0","90","0","90","90","90","90","90","90","09/23/21 15:29:26","600","The main experiment item","yes","FlankerTask.osexp","C:\Users\bryan\OneDrive\Documents\School\PSYC 5316  (Quant Methods)\Lab 2","no","mono","no","18","no","white","no","yes","768","legacy","10","79","C:/Users/bryan/OneDrive/Documents/School/PSYC 5316  (Quant Methods)/Lab 2/BS-subject-4.csv","legacy","Lentiform Loewenfeld","3.3.9","0","s","NA","s","s","NA","s","602","NA","33222","17272","NA","602","2","legacy","1024","2","48000","-16","experiment","SSSSS","4","even","36123","192185","NA","NA","208812","2899","174912","NA","197852","2895","NA","209925","210034","210638","209920","210033","Flanker Task","85","42767","91","yes","1024"
"93.4782608696","93.4782608696","473.793478261","473.793478261","black","legacy","legacy","legacy","0","incongruent","uniform","1","undefined","1","h","0","0","0","0","91","0","0","0","91","0","91","91","91","91","91","91","09/23/21 15:29:26","600","The main experiment item","yes","FlankerTask.osexp","C:\Users\bryan\OneDrive\Documents\School\PSYC 5316  (Quant Methods)\Lab 2","no","mono","no","18","no","white","no","yes","768","legacy","11","79","C:/Users/bryan/OneDrive/Documents/School/PSYC 5316  (Quant Methods)/Lab 2/BS-subject-4.csv","legacy","Lentiform Loewenfeld","3.3.9","0","h","NA","s","s","NA","h","822","NA","33222","17272","NA","822","2","legacy","1024","2","48000","-16","experiment","SSHSS","4","even","36123","192185","NA","NA","211157","2899","174912","NA","197852","2895","210649","212278","212386","213210","212274","212386","Flanker Task","86","43589","92","yes","1024"
"93.5483870968","93.5483870968","473.279569892","473.279569892","black","legacy","legacy","legacy","0","incongruent","uniform","1","undefined","1","h","0","0","0","0","92","0","0","0","92","0","92","92","92","92","92","92","09/23/21 15:29:26","600","The main experiment item","yes","FlankerTask.osexp","C:\Users\bryan\OneDrive\Documents\School\PSYC 5316  (Quant Methods)\Lab 2","no","mono","no","18","no","white","no","yes","768","legacy","12","79","C:/Users/bryan/OneDrive/Documents/School/PSYC 5316  (Quant Methods)/Lab 2/BS-subject-4.csv","legacy","Lentiform Loewenfeld","3.3.9","0","h","NA","s","s","NA","h","426","NA","33222","17272","NA","426","2","legacy","1024","2","48000","-16","experiment","SSHSS","4","even","36123","192185","NA","NA","213723","2899","174912","NA","197852","2895","213219","214836","214945","215373","214831","214944","Flanker Task","87","44015","93","yes","1024"
"93.6170212766","93.6170212766","472.787234043","472.787234043","black","legacy","legacy","legacy","0","incongruent","uniform","1","undefined","1","s","0","0","0","0","93","0","0","0","93","0","93","93","93","93","93","93","09/23/21 15:29:26","600","The main experiment item","yes","FlankerTask.osexp","C:\Users\bryan\OneDrive\Documents\School\PSYC 5316  (Quant Methods)\Lab 2","no","mono","no","18","no","white","no","yes","768","legacy","13","79","C:/Users/bryan/OneDrive/Documents/School/PSYC 5316  (Quant Methods)/Lab 2/BS-subject-4.csv","legacy","Lentiform Loewenfeld","3.3.9","0","s","NA","s","s","NA","s","427","NA","33222","17272","NA","427","2","legacy","1024","2","48000","-16","experiment","HHSHH","4","even","36123","192185","NA","NA","215381","2899","174912","NA","197852","2895","213219","216517","216625","217053","216513","216625","Flanker Task","88","44442","94","yes","1024"
"93.6842105263","93.6842105263","471.957894737","471.957894737","black","legacy","legacy","legacy","0","congruent","uniform","1","undefined","1","h","0","0","0","0","94","0","0","0","94","0","94","94","94","94","94","94","09/23/21 15:29:26","600","The main experiment item","yes","FlankerTask.osexp","C:\Users\bryan\OneDrive\Documents\School\PSYC 5316  (Quant Methods)\Lab 2","no","mono","no","18","no","white","no","yes","768","legacy","14","79","C:/Users/bryan/OneDrive/Documents/School/PSYC 5316  (Quant Methods)/Lab 2/BS-subject-4.csv","legacy","Lentiform Loewenfeld","3.3.9","0","h","NA","s","s","NA","h","394","NA","33222","17272","NA","394","2","legacy","1024","2","48000","-16","experiment","HHHHH","4","even","36123","192185","NA","NA","217061","2899","174912","NA","197852","2895","213219","218185","218295","218691","218181","218294","Flanker Task","89","44836","95","yes","1024"
"93.75","93.75","471.25","471.25","black","legacy","legacy","legacy","0","incongruent","uniform","1","undefined","1","s","0","0","0","0","95","0","0","0","95","0","95","95","95","95","95","95","09/23/21 15:29:26","600","The main experiment item","yes","FlankerTask.osexp","C:\Users\bryan\OneDrive\Documents\School\PSYC 5316  (Quant Methods)\Lab 2","no","mono","no","18","no","white","no","yes","768","legacy","15","79","C:/Users/bryan/OneDrive/Documents/School/PSYC 5316  (Quant Methods)/Lab 2/BS-subject-4.csv","legacy","Lentiform Loewenfeld","3.3.9","0","s","NA","s","s","NA","s","404","NA","33222","17272","NA","404","2","legacy","1024","2","48000","-16","experiment","HHSHH","4","even","36123","192185","NA","NA","218702","2899","174912","NA","197852","2895","213219","219819","219927","220333","219814","219926","Flanker Task","90","45240","96","yes","1024"
"93.8144329897","93.8144329897","470.113402062","470.113402062","black","legacy","legacy","legacy","0","incongruent","uniform","1","undefined","1","h","0","0","0","0","96","0","0","0","96","0","96","96","96","96","96","96","09/23/21 15:29:26","600","The main experiment item","yes","FlankerTask.osexp","C:\Users\bryan\OneDrive\Documents\School\PSYC 5316  (Quant Methods)\Lab 2","no","mono","no","18","no","white","no","yes","768","legacy","16","79","C:/Users/bryan/OneDrive/Documents/School/PSYC 5316  (Quant Methods)/Lab 2/BS-subject-4.csv","legacy","Lentiform Loewenfeld","3.3.9","0","h","NA","s","s","NA","h","361","NA","33222","17272","NA","361","2","legacy","1024","2","48000","-16","experiment","SSHSS","4","even","36123","192185","NA","NA","220343","2899","174912","NA","197852","2895","213219","221460","221569","221931","221455","221568","Flanker Task","91","45601","97","yes","1024"
"93.8775510204","93.8775510204","469.969387755","469.969387755","black","legacy","legacy","legacy","0","incongruent","uniform","1","undefined","1","h","0","0","0","0","97","0","0","0","97","0","97","97","97","97","97","97","09/23/21 15:29:26","600","The main experiment item","yes","FlankerTask.osexp","C:\Users\bryan\OneDrive\Documents\School\PSYC 5316  (Quant Methods)\Lab 2","no","mono","no","18","no","white","no","yes","768","legacy","17","79","C:/Users/bryan/OneDrive/Documents/School/PSYC 5316  (Quant Methods)/Lab 2/BS-subject-4.csv","legacy","Lentiform Loewenfeld","3.3.9","0","h","NA","s","s","NA","h","456","NA","33222","17272","NA","456","2","legacy","1024","2","48000","-16","experiment","SSHSS","4","even","36123","192185","NA","NA","221938","2899","174912","NA","197852","2895","213219","223056","223165","223623","223052","223165","Flanker Task","92","46057","98","yes","1024"
"93.9393939394","93.9393939394","469.414141414","469.414141414","black","legacy","legacy","legacy","0","congruent","uniform","1","undefined","1","h","0","0","0","0","98","0","0","0","98","0","98","98","98","98","98","98","09/23/21 15:29:26","600","The main experiment item","yes","FlankerTask.osexp","C:\Users\bryan\OneDrive\Documents\School\PSYC 5316  (Quant Methods)\Lab 2","no","mono","no","18","no","white","no","yes","768","legacy","18","79","C:/Users/bryan/OneDrive/Documents/School/PSYC 5316  (Quant Methods)/Lab 2/BS-subject-4.csv","legacy","Lentiform Loewenfeld","3.3.9","0","h","NA","s","s","NA","h","415","NA","33222","17272","NA","415","2","legacy","1024","2","48000","-16","experiment","HHHHH","4","even","36123","192185","NA","NA","223633","2899","174912","NA","197852","2895","213219","224755","224864","225281","224751","224863","Flanker Task","93","46472","99","yes","1024"
"94","94","469.26","469.26","black","legacy","legacy","legacy","0","congruent","uniform","1","undefined","1","h","0","0","0","0","99","0","0","0","99","0","99","99","99","99","99","99","09/23/21 15:29:26","600","The main experiment item","yes","FlankerTask.osexp","C:\Users\bryan\OneDrive\Documents\School\PSYC 5316  (Quant Methods)\Lab 2","no","mono","no","18","no","white","no","yes","768","legacy","19","79","C:/Users/bryan/OneDrive/Documents/School/PSYC 5316  (Quant Methods)/Lab 2/BS-subject-4.csv","legacy","Lentiform Loewenfeld","3.3.9","0","h","NA","s","s","NA","h","454","NA","33222","17272","NA","454","2","legacy","1024","2","48000","-16","experiment","HHHHH","4","even","36123","192185","NA","NA","225286","2899","174912","NA","197852","2895","213219","226412","226520","226976","226408","226520","Flanker Task","94","46926","100","yes","1024"
"94.0594059406","94.0594059406","469.059405941","469.059405941","black","legacy","legacy","legacy","0","congruent","uniform","1","undefined","1","s","0","0","0","0","100","0","0","0","100","0","100","100","100","100","100","100","09/23/21 15:29:26","600","The main experiment item","yes","FlankerTask.osexp","C:\Users\bryan\OneDrive\Documents\School\PSYC 5316  (Quant Methods)\Lab 2","no","mono","no","18","no","white","no","yes","768","legacy","20","79","C:/Users/bryan/OneDrive/Documents/School/PSYC 5316  (Quant Methods)/Lab 2/BS-subject-4.csv","legacy","Lentiform Loewenfeld","3.3.9","0","s","NA","s","s","NA","s","449","NA","33222","17272","NA","449","2","legacy","1024","2","48000","-16","experiment","SSSSS","4","even","36123","192185","NA","NA","226986","2899","174912","NA","197852","2895","213219","228113","228217","228668","228109","228217","Flanker Task","95","47375","101","yes","1024"
"94.1176470588","94.1176470588","469.098039216","469.098039216","black","legacy","legacy","legacy","0","incongruent","uniform","1","undefined","1","h","0","0","0","0","101","0","0","0","101","0","101","101","101","101","101","101","09/23/21 15:29:26","600","The main experiment item","yes","FlankerTask.osexp","C:\Users\bryan\OneDrive\Documents\School\PSYC 5316  (Quant Methods)\Lab 2","no","mono","no","18","no","white","no","yes","768","legacy","21","79","C:/Users/bryan/OneDrive/Documents/School/PSYC 5316  (Quant Methods)/Lab 2/BS-subject-4.csv","legacy","Lentiform Loewenfeld","3.3.9","0","h","NA","s","s","NA","h","473","NA","33222","17272","NA","473","2","legacy","1024","2","48000","-16","experiment","SSHSS","4","even","36123","192185","NA","NA","228678","2899","174912","NA","197852","2895","213219","229801","229905","230380","229796","229905","Flanker Task","96","47848","102","yes","1024"
"94.1747572816","94.1747572816","468.970873786","468.970873786","black","legacy","legacy","legacy","0","incongruent","uniform","1","undefined","1","s","0","0","0","0","102","0","0","0","102","0","102","102","102","102","102","102","09/23/21 15:29:26","600","The main experiment item","yes","FlankerTask.osexp","C:\Users\bryan\OneDrive\Documents\School\PSYC 5316  (Quant Methods)\Lab 2","no","mono","no","18","no","white","no","yes","768","legacy","22","79","C:/Users/bryan/OneDrive/Documents/School/PSYC 5316  (Quant Methods)/Lab 2/BS-subject-4.csv","legacy","Lentiform Loewenfeld","3.3.9","0","s","NA","s","s","NA","s","456","NA","33222","17272","NA","456","2","legacy","1024","2","48000","-16","experiment","HHSHH","4","even","36123","192185","NA","NA","230386","2899","174912","NA","197852","2895","213219","231508","231616","232074","231503","231615","Flanker Task","97","48304","103","yes","1024"
"94.2307692308","94.2307692308","469.009615385","469.009615385","black","legacy","legacy","legacy","0","incongruent","uniform","1","undefined","1","s","0","0","0","0","103","0","0","0","103","0","103","103","103","103","103","103","09/23/21 15:29:26","600","The main experiment item","yes","FlankerTask.osexp","C:\Users\bryan\OneDrive\Documents\School\PSYC 5316  (Quant Methods)\Lab 2","no","mono","no","18","no","white","no","yes","768","legacy","23","79","C:/Users/bryan/OneDrive/Documents/School/PSYC 5316  (Quant Methods)/Lab 2/BS-subject-4.csv","legacy","Lentiform Loewenfeld","3.3.9","0","s","NA","s","s","NA","s","473","NA","33222","17272","NA","473","2","legacy","1024","2","48000","-16","experiment","HHSHH","4","even","36123","192185","NA","NA","232080","2899","174912","NA","197852","2895","213219","233197","233305","233780","233192","233305","Flanker Task","98","48777","104","yes","1024"
"94.2857142857","94.2857142857","469.647619048","469.647619048","black","legacy","legacy","legacy","0","congruent","uniform","1","undefined","1","h","0","0","0","0","104","0","0","0","104","0","104","104","104","104","104","104","09/23/21 15:29:26","600","The main experiment item","yes","FlankerTask.osexp","C:\Users\bryan\OneDrive\Documents\School\PSYC 5316  (Quant Methods)\Lab 2","no","mono","no","18","no","white","no","yes","768","legacy","24","79","C:/Users/bryan/OneDrive/Documents/School/PSYC 5316  (Quant Methods)/Lab 2/BS-subject-4.csv","legacy","Lentiform Loewenfeld","3.3.9","0","h","NA","s","s","NA","h","536","NA","33222","17272","NA","536","2","legacy","1024","2","48000","-16","experiment","HHHHH","4","even","36123","192185","NA","NA","233786","2899","174912","NA","197852","2895","213219","234903","235011","235548","234898","235010","Flanker Task","99","49313","105","yes","1024"
"94.3396226415","94.3396226415","469.396226415","469.396226415","black","legacy","legacy","legacy","0","congruent","uniform","1","undefined","1","h","0","0","0","0","105","0","0","0","105","0","105","105","105","105","105","105","09/23/21 15:29:26","600","The main experiment item","yes","FlankerTask.osexp","C:\Users\bryan\OneDrive\Documents\School\PSYC 5316  (Quant Methods)\Lab 2","no","mono","no","18","no","white","no","yes","768","legacy","25","79","C:/Users/bryan/OneDrive/Documents/School/PSYC 5316  (Quant Methods)/Lab 2/BS-subject-4.csv","legacy","Lentiform Loewenfeld","3.3.9","0","h","NA","s","s","NA","h","443","NA","33222","17272","NA","443","2","legacy","1024","2","48000","-16","experiment","HHHHH","4","even","36123","192185","NA","NA","235557","2899","174912","NA","197852","2895","213219","236694","236803","237248","236690","236803","Flanker Task","100","49756","106","yes","1024"
"94.3925233645","94.3925233645","468.691588785","468.691588785","black","legacy","legacy","legacy","0","congruent","uniform","1","undefined","1","h","0","0","0","0","106","0","0","0","106","0","106","106","106","106","106","106","09/23/21 15:29:26","600","The main experiment item","yes","FlankerTask.osexp","C:\Users\bryan\OneDrive\Documents\School\PSYC 5316  (Quant Methods)\Lab 2","no","mono","no","18","no","white","no","yes","768","legacy","26","79","C:/Users/bryan/OneDrive/Documents/School/PSYC 5316  (Quant Methods)/Lab 2/BS-subject-4.csv","legacy","Lentiform Loewenfeld","3.3.9","0","h","NA","s","s","NA","h","394","NA","33222","17272","NA","394","2","legacy","1024","2","48000","-16","experiment","HHHHH","4","even","36123","192185","NA","NA","237258","2899","174912","NA","197852","2895","213219","238381","238490","238886","238376","238489","Flanker Task","101","50150","107","yes","1024"
"93.5185185185","93.5185185185","467.759259259","467.759259259","black","legacy","legacy","legacy","0","incongruent","uniform","0","undefined","0","h","0","0","0","0","107","0","0","0","107","0","107","107","107","107","107","107","09/23/21 15:29:26","600","The main experiment item","yes","FlankerTask.osexp","C:\Users\bryan\OneDrive\Documents\School\PSYC 5316  (Quant Methods)\Lab 2","no","mono","no","18","no","white","no","yes","768","legacy","27","79","C:/Users/bryan/OneDrive/Documents/School/PSYC 5316  (Quant Methods)/Lab 2/BS-subject-4.csv","legacy","Lentiform Loewenfeld","3.3.9","0","s","NA","s","s","NA","s","368","NA","33222","17272","NA","368","2","legacy","1024","2","48000","-16","experiment","SSHSS","4","even","36123","192185","NA","NA","238893","2899","174912","NA","197852","2895","213219","240010","240119","240489","240005","240118","Flanker Task","101","50518","108","yes","1024"
"93.5779816514","93.5779816514","468.917431193","468.917431193","black","legacy","legacy","legacy","0","incongruent","uniform","1","undefined","1","s","0","0","0","0","108","0","0","0","108","0","108","108","108","108","108","108","09/23/21 15:29:26","600","The main experiment item","yes","FlankerTask.osexp","C:\Users\bryan\OneDrive\Documents\School\PSYC 5316  (Quant Methods)\Lab 2","no","mono","no","18","no","white","no","yes","768","legacy","28","79","C:/Users/bryan/OneDrive/Documents/School/PSYC 5316  (Quant Methods)/Lab 2/BS-subject-4.csv","legacy","Lentiform Loewenfeld","3.3.9","0","s","NA","s","s","NA","s","594","NA","33222","17272","NA","594","2","legacy","1024","2","48000","-16","experiment","HHSHH","4","even","36123","192185","NA","NA","241007","2899","174912","NA","240499","2895","213219","242128","242236","242832","242124","242236","Flanker Task","102","51112","109","yes","1024"
"93.6363636364","93.6363636364","468.990909091","468.990909091","black","legacy","legacy","legacy","0","congruent","uniform","1","undefined","1","h","0","0","0","0","109","0","0","0","109","0","109","109","109","109","109","109","09/23/21 15:29:26","600","The main experiment item","yes","FlankerTask.osexp","C:\Users\bryan\OneDrive\Documents\School\PSYC 5316  (Quant Methods)\Lab 2","no","mono","no","18","no","white","no","yes","768","legacy","29","79","C:/Users/bryan/OneDrive/Documents/School/PSYC 5316  (Quant Methods)/Lab 2/BS-subject-4.csv","legacy","Lentiform Loewenfeld","3.3.9","0","h","NA","s","s","NA","h","477","NA","33222","17272","NA","477","2","legacy","1024","2","48000","-16","experiment","HHHHH","4","even","36123","192185","NA","NA","242842","2899","174912","NA","240499","2895","213219","243952","244061","244540","243948","244060","Flanker Task","103","51589","110","yes","1024"
"93.6936936937","93.6936936937","469.369369369","469.369369369","black","legacy","legacy","legacy","0","incongruent","uniform","1","undefined","1","h","0","0","0","0","110","0","0","0","110","0","110","110","110","110","110","110","09/23/21 15:29:26","600","The main experiment item","yes","FlankerTask.osexp","C:\Users\bryan\OneDrive\Documents\School\PSYC 5316  (Quant Methods)\Lab 2","no","mono","no","18","no","white","no","yes","768","legacy","30","79","C:/Users/bryan/OneDrive/Documents/School/PSYC 5316  (Quant Methods)/Lab 2/BS-subject-4.csv","legacy","Lentiform Loewenfeld","3.3.9","0","h","NA","s","s","NA","h","511","NA","33222","17272","NA","511","2","legacy","1024","2","48000","-16","experiment","SSHSS","4","even","36123","192185","NA","NA","244546","2899","174912","NA","240499","2895","213219","245667","245775","246288","245662","245775","Flanker Task","104","52100","111","yes","1024"
"93.75","93.75","470.116071429","470.116071429","black","legacy","legacy","legacy","0","congruent","uniform","1","undefined","1","h","0","0","0","0","111","0","0","0","111","0","111","111","111","111","111","111","09/23/21 15:29:26","600","The main experiment item","yes","FlankerTask.osexp","C:\Users\bryan\OneDrive\Documents\School\PSYC 5316  (Quant Methods)\Lab 2","no","mono","no","18","no","white","no","yes","768","legacy","31","79","C:/Users/bryan/OneDrive/Documents/School/PSYC 5316  (Quant Methods)/Lab 2/BS-subject-4.csv","legacy","Lentiform Loewenfeld","3.3.9","0","h","NA","s","s","NA","h","553","NA","33222","17272","NA","553","2","legacy","1024","2","48000","-16","experiment","HHHHH","4","even","36123","192185","NA","NA","246298","2899","174912","NA","240499","2895","213219","247416","247525","248080","247411","247524","Flanker Task","105","52653","112","yes","1024"
