"acc","accuracy","average_response_time","avg_rt","background","canvas_backend","clock_backend","color_backend","compensation","condition","coordinates","correct","correct_instructions1","correct_keyboard_response","correct_response","count_ISI","count_Sequence","count_block1","count_block2","count_block3","count_errorFeedback","count_experiment","count_faster","count_finish","count_fixation","count_instructions1","count_instructions2","count_instructions3","count_keyboard_response","count_logger","count_stimulus","datetime","deadline","description","disable_garbage_collection","experiment_file","experiment_path","font_bold","font_family","font_italic","font_size","font_underline","foreground","form_clicks","fullscreen","height","keyboard_backend","live_row","live_row_block1","logfile","mouse_backend","opensesame_codename","opensesame_version","repeat_cycle","response","response_finish","response_instructions1","response_instructions2","response_instructions3","response_keyboard_response","response_time","response_time_finish","response_time_instructions1","response_time_instructions2","response_time_instructions3","response_time_keyboard_response","round_decimals","sampler_backend","sound_buf_size","sound_channels","sound_freq","sound_sample_size","start","stimulus","subject_nr","subject_parity","time_ISI","time_Sequence","time_block1","time_block2","time_block3","time_errorFeedback","time_experiment","time_faster","time_finish","time_fixation","time_instructions1","time_instructions2","time_instructions3","time_keyboard_response","time_logger","time_stimulus","title","total_correct","total_response_time","total_responses","uniform_coordinates","width"
"100","100","1325","1325","black","legacy","legacy","legacy","0","incongruent","uniform","1","undefined","1","h","0","0","0","0","0","0","0","0","0","0","0","0","0","0","0","0","Sat Sep 25 16:42:57 2021","1500","The main experiment item","yes","FlankerTask.osexp","C:/Users/User/Desktop/School/Research Methods","no","mono","no","18","no","white","no","yes","768","legacy","0","0","C:/Users/User/Desktop/School/Research Methods/LW-subject-2.csv","legacy","Lentiform Loewenfeld","3.3.9","0","h","NA","s","NA","NA","h","1325","NA","134675","NA","NA","1325","2","legacy","1024","2","48000","-16","experiment","SSHSS","2","even","NA","136898","136789","NA","NA","NA","2105","NA","NA","136901","2113","NA","NA","137003","138329","137003","Flanker Task","1","1325","1","yes","1024"
"100","100","974.5","974.5","black","legacy","legacy","legacy","0","congruent","uniform","1","undefined","1","h","1","1","0","0","0","1","0","1","0","1","0","0","0","1","1","1","Sat Sep 25 16:42:57 2021","1500","The main experiment item","yes","FlankerTask.osexp","C:/Users/User/Desktop/School/Research Methods","no","mono","no","18","no","white","no","yes","768","legacy","1","1","C:/Users/User/Desktop/School/Research Methods/LW-subject-2.csv","legacy","Lentiform Loewenfeld","3.3.9","0","h","NA","s","NA","NA","h","624","NA","134675","NA","NA","624","2","legacy","1024","2","48000","-16","experiment","HHHHH","2","even","138340","139414","136789","NA","NA","NA","2105","NA","NA","139416","2113","NA","NA","139519","140144","139519","Flanker Task","2","1949","2","yes","1024"
"100","100","883","883","black","legacy","legacy","legacy","0","incongruent","uniform","1","undefined","1","s","2","2","0","0","0","2","0","2","0","2","0","0","0","2","2","2","Sat Sep 25 16:42:57 2021","1500","The main experiment item","yes","FlankerTask.osexp","C:/Users/User/Desktop/School/Research Methods","no","mono","no","18","no","white","no","yes","768","legacy","2","2","C:/Users/User/Desktop/School/Research Methods/LW-subject-2.csv","legacy","Lentiform Loewenfeld","3.3.9","0","s","NA","s","NA","NA","s","700","NA","134675","NA","NA","700","2","legacy","1024","2","48000","-16","experiment","HHSHH","2","even","140148","141222","136789","NA","NA","NA","2105","NA","NA","141225","2113","NA","NA","141327","142028","141327","Flanker Task","3","2649","3","yes","1024"
"100","100","771","771","black","legacy","legacy","legacy","0","incongruent","uniform","1","undefined","1","s","3","3","0","0","0","3","0","3","0","3","0","0","0","3","3","3","Sat Sep 25 16:42:57 2021","1500","The main experiment item","yes","FlankerTask.osexp","C:/Users/User/Desktop/School/Research Methods","no","mono","no","18","no","white","no","yes","768","legacy","3","3","C:/Users/User/Desktop/School/Research Methods/LW-subject-2.csv","legacy","Lentiform Loewenfeld","3.3.9","0","s","NA","s","NA","NA","s","435","NA","134675","NA","NA","435","2","legacy","1024","2","48000","-16","experiment","HHSHH","2","even","142032","143106","136789","NA","NA","NA","2105","NA","NA","143108","2113","NA","NA","143210","143646","143210","Flanker Task","4","3084","4","yes","1024"
"100","100","700.4","700.4","black","legacy","legacy","legacy","0","incongruent","uniform","1","undefined","1","s","4","4","0","0","0","4","0","4","0","4","0","0","0","4","4","4","Sat Sep 25 16:42:57 2021","1500","The main experiment item","yes","FlankerTask.osexp","C:/Users/User/Desktop/School/Research Methods","no","mono","no","18","no","white","no","yes","768","legacy","4","4","C:/Users/User/Desktop/School/Research Methods/LW-subject-2.csv","legacy","Lentiform Loewenfeld","3.3.9","0","s","NA","s","NA","NA","s","418","NA","134675","NA","NA","418","2","legacy","1024","2","48000","-16","experiment","HHSHH","2","even","143650","144724","136789","NA","NA","NA","2105","NA","NA","144726","2113","NA","NA","144828","145247","144827","Flanker Task","5","3502","5","yes","1024"
"83.33333333333333","83.33333333333333","661.8333333333334","661.8333333333334","black","legacy","legacy","legacy","0","congruent","uniform","0","undefined","0","h","5","5","0","0","0","5","0","5","0","5","0","0","0","5","5","5","Sat Sep 25 16:42:57 2021","1500","The main experiment item","yes","FlankerTask.osexp","C:/Users/User/Desktop/School/Research Methods","no","mono","no","18","no","white","no","yes","768","legacy","5","5","C:/Users/User/Desktop/School/Research Methods/LW-subject-2.csv","legacy","Lentiform Loewenfeld","3.3.9","0","s","NA","s","NA","NA","s","469","NA","134675","NA","NA","469","2","legacy","1024","2","48000","-16","experiment","HHHHH","2","even","145251","146325","136789","NA","NA","NA","2105","NA","NA","146327","2113","NA","NA","146429","146899","146429","Flanker Task","5","3971","6","yes","1024"
"85.71428571428571","85.71428571428571","656","656","black","legacy","legacy","legacy","0","congruent","uniform","1","undefined","1","s","6","6","0","0","0","6","0","6","0","6","0","0","0","6","6","6","Sat Sep 25 16:42:57 2021","1500","The main experiment item","yes","FlankerTask.osexp","C:/Users/User/Desktop/School/Research Methods","no","mono","no","18","no","white","no","yes","768","legacy","6","6","C:/Users/User/Desktop/School/Research Methods/LW-subject-2.csv","legacy","Lentiform Loewenfeld","3.3.9","0","s","NA","s","NA","NA","s","621","NA","134675","NA","NA","621","2","legacy","1024","2","48000","-16","experiment","SSSSS","2","even","147405","148478","136789","NA","NA","146902","2105","NA","NA","148481","2113","NA","NA","148583","149205","148583","Flanker Task","6","4592","7","yes","1024"
"87.5","87.5","631.25","631.25","black","legacy","legacy","legacy","0","congruent","uniform","1","undefined","1","s","7","7","0","0","0","7","0","7","0","7","0","0","0","7","7","7","Sat Sep 25 16:42:57 2021","1500","The main experiment item","yes","FlankerTask.osexp","C:/Users/User/Desktop/School/Research Methods","no","mono","no","18","no","white","no","yes","768","legacy","7","7","C:/Users/User/Desktop/School/Research Methods/LW-subject-2.csv","legacy","Lentiform Loewenfeld","3.3.9","0","s","NA","s","NA","NA","s","458","NA","134675","NA","NA","458","2","legacy","1024","2","48000","-16","experiment","SSSSS","2","even","149209","150283","136789","NA","NA","146902","2105","NA","NA","150285","2113","NA","NA","150387","150845","150387","Flanker Task","7","5050","8","yes","1024"
"88.88888888888889","88.88888888888889","624.1111111111111","624.1111111111111","black","legacy","legacy","legacy","0","incongruent","uniform","1","undefined","1","h","8","8","0","0","0","8","0","8","0","8","0","0","0","8","8","8","Sat Sep 25 16:42:57 2021","1500","The main experiment item","yes","FlankerTask.osexp","C:/Users/User/Desktop/School/Research Methods","no","mono","no","18","no","white","no","yes","768","legacy","8","8","C:/Users/User/Desktop/School/Research Methods/LW-subject-2.csv","legacy","Lentiform Loewenfeld","3.3.9","0","h","NA","s","NA","NA","h","567","NA","134675","NA","NA","567","2","legacy","1024","2","48000","-16","experiment","SSHSS","2","even","150850","151924","136789","NA","NA","146902","2105","NA","NA","151926","2113","NA","NA","152028","152596","152028","Flanker Task","8","5617","9","yes","1024"
"90","90","611.2","611.2","black","legacy","legacy","legacy","0","congruent","uniform","1","undefined","1","h","9","9","0","0","0","9","0","9","0","9","0","0","0","9","9","9","Sat Sep 25 16:42:57 2021","1500","The main experiment item","yes","FlankerTask.osexp","C:/Users/User/Desktop/School/Research Methods","no","mono","no","18","no","white","no","yes","768","legacy","9","9","C:/Users/User/Desktop/School/Research Methods/LW-subject-2.csv","legacy","Lentiform Loewenfeld","3.3.9","0","h","NA","s","NA","NA","h","495","NA","134675","NA","NA","495","2","legacy","1024","2","48000","-16","experiment","HHHHH","2","even","152600","153675","136789","NA","NA","146902","2105","NA","NA","153678","2113","NA","NA","153780","154276","153780","Flanker Task","9","6112","10","yes","1024"
"90.9090909090909","90.9090909090909","607.8181818181819","607.8181818181819","black","legacy","legacy","legacy","0","incongruent","uniform","1","undefined","1","h","10","10","0","0","0","10","0","10","0","10","0","0","0","10","10","10","Sat Sep 25 16:42:57 2021","1500","The main experiment item","yes","FlankerTask.osexp","C:/Users/User/Desktop/School/Research Methods","no","mono","no","18","no","white","no","yes","768","legacy","10","10","C:/Users/User/Desktop/School/Research Methods/LW-subject-2.csv","legacy","Lentiform Loewenfeld","3.3.9","0","h","NA","s","NA","NA","h","574","NA","134675","NA","NA","574","2","legacy","1024","2","48000","-16","experiment","SSHSS","2","even","154280","155354","136789","NA","NA","146902","2105","NA","NA","155356","2113","NA","NA","155458","156033","155458","Flanker Task","10","6686","11","yes","1024"
"91.66666666666667","91.66666666666667","605.1666666666666","605.1666666666666","black","legacy","legacy","legacy","0","incongruent","uniform","1","undefined","1","s","11","11","0","0","0","11","0","11","0","11","0","0","0","11","11","11","Sat Sep 25 16:42:57 2021","1500","The main experiment item","yes","FlankerTask.osexp","C:/Users/User/Desktop/School/Research Methods","no","mono","no","18","no","white","no","yes","768","legacy","11","11","C:/Users/User/Desktop/School/Research Methods/LW-subject-2.csv","legacy","Lentiform Loewenfeld","3.3.9","0","s","NA","s","NA","NA","s","576","NA","134675","NA","NA","576","2","legacy","1024","2","48000","-16","experiment","HHSHH","2","even","156037","157112","136789","NA","NA","146902","2105","NA","NA","157115","2113","NA","NA","157217","157794","157217","Flanker Task","11","7262","12","yes","1024"
"92.3076923076923","92.3076923076923","597","597","black","legacy","legacy","legacy","0","congruent","uniform","1","undefined","1","h","12","12","0","0","0","12","0","12","0","12","0","0","0","12","12","12","Sat Sep 25 16:42:57 2021","1500","The main experiment item","yes","FlankerTask.osexp","C:/Users/User/Desktop/School/Research Methods","no","mono","no","18","no","white","no","yes","768","legacy","12","12","C:/Users/User/Desktop/School/Research Methods/LW-subject-2.csv","legacy","Lentiform Loewenfeld","3.3.9","0","h","NA","s","NA","NA","h","499","NA","134675","NA","NA","499","2","legacy","1024","2","48000","-16","experiment","HHHHH","2","even","157798","158872","136789","NA","NA","146902","2105","NA","NA","158874","2113","NA","NA","158976","159476","158976","Flanker Task","12","7761","13","yes","1024"
"92.85714285714286","92.85714285714286","598.2857142857143","598.2857142857143","black","legacy","legacy","legacy","0","congruent","uniform","1","undefined","1","h","13","13","0","0","0","13","0","13","0","13","0","0","0","13","13","13","Sat Sep 25 16:42:57 2021","1500","The main experiment item","yes","FlankerTask.osexp","C:/Users/User/Desktop/School/Research Methods","no","mono","no","18","no","white","no","yes","768","legacy","13","13","C:/Users/User/Desktop/School/Research Methods/LW-subject-2.csv","legacy","Lentiform Loewenfeld","3.3.9","0","h","NA","s","NA","NA","h","615","NA","134675","NA","NA","615","2","legacy","1024","2","48000","-16","experiment","HHHHH","2","even","159480","160553","136789","NA","NA","146902","2105","NA","NA","160556","2113","NA","NA","160658","161274","160658","Flanker Task","13","8376","14","yes","1024"
"93.33333333333333","93.33333333333333","591.8","591.8","black","legacy","legacy","legacy","0","congruent","uniform","1","undefined","1","h","14","14","0","0","0","14","0","14","0","14","0","0","0","14","14","14","Sat Sep 25 16:42:57 2021","1500","The main experiment item","yes","FlankerTask.osexp","C:/Users/User/Desktop/School/Research Methods","no","mono","no","18","no","white","no","yes","768","legacy","14","14","C:/Users/User/Desktop/School/Research Methods/LW-subject-2.csv","legacy","Lentiform Loewenfeld","3.3.9","0","h","NA","s","NA","NA","h","501","NA","134675","NA","NA","501","2","legacy","1024","2","48000","-16","experiment","HHHHH","2","even","161278","162351","136789","NA","NA","146902","2105","NA","NA","162353","2113","NA","NA","162456","162958","162456","Flanker Task","14","8877","15","yes","1024"
"93.75","93.75","589.875","589.875","black","legacy","legacy","legacy","0","congruent","uniform","1","undefined","1","s","15","15","0","0","0","15","0","15","0","15","0","0","0","15","15","15","Sat Sep 25 16:42:57 2021","1500","The main experiment item","yes","FlankerTask.osexp","C:/Users/User/Desktop/School/Research Methods","no","mono","no","18","no","white","no","yes","768","legacy","15","15","C:/Users/User/Desktop/School/Research Methods/LW-subject-2.csv","legacy","Lentiform Loewenfeld","3.3.9","0","s","NA","s","NA","NA","s","561","NA","134675","NA","NA","561","2","legacy","1024","2","48000","-16","experiment","SSSSS","2","even","162962","164036","136789","NA","NA","146902","2105","NA","NA","164038","2113","NA","NA","164140","164702","164140","Flanker Task","15","9438","16","yes","1024"
"94.11764705882354","94.11764705882354","594","594","black","legacy","legacy","legacy","0","incongruent","uniform","1","undefined","1","h","16","16","0","0","0","16","0","16","0","16","0","0","0","16","16","16","Sat Sep 25 16:42:57 2021","1500","The main experiment item","yes","FlankerTask.osexp","C:/Users/User/Desktop/School/Research Methods","no","mono","no","18","no","white","no","yes","768","legacy","16","16","C:/Users/User/Desktop/School/Research Methods/LW-subject-2.csv","legacy","Lentiform Loewenfeld","3.3.9","0","h","NA","s","NA","NA","h","660","NA","134675","NA","NA","660","2","legacy","1024","2","48000","-16","experiment","SSHSS","2","even","164707","165780","136789","NA","NA","146902","2105","NA","NA","165782","2113","NA","NA","165884","166545","165884","Flanker Task","16","10098","17","yes","1024"
"94.44444444444444","94.44444444444444","595.2777777777778","595.2777777777778","black","legacy","legacy","legacy","0","incongruent","uniform","1","undefined","1","s","17","17","0","0","0","17","0","17","0","17","0","0","0","17","17","17","Sat Sep 25 16:42:57 2021","1500","The main experiment item","yes","FlankerTask.osexp","C:/Users/User/Desktop/School/Research Methods","no","mono","no","18","no","white","no","yes","768","legacy","17","17","C:/Users/User/Desktop/School/Research Methods/LW-subject-2.csv","legacy","Lentiform Loewenfeld","3.3.9","0","s","NA","s","NA","NA","s","617","NA","134675","NA","NA","617","2","legacy","1024","2","48000","-16","experiment","HHSHH","2","even","166549","167623","136789","NA","NA","146902","2105","NA","NA","167625","2113","NA","NA","167727","168344","167727","Flanker Task","17","10715","18","yes","1024"
"94.73684210526316","94.73684210526316","588.6842105263158","588.6842105263158","black","legacy","legacy","legacy","0","congruent","uniform","1","undefined","1","h","18","18","0","0","0","18","0","18","0","18","0","0","0","18","18","18","Sat Sep 25 16:42:57 2021","1500","The main experiment item","yes","FlankerTask.osexp","C:/Users/User/Desktop/School/Research Methods","no","mono","no","18","no","white","no","yes","768","legacy","18","18","C:/Users/User/Desktop/School/Research Methods/LW-subject-2.csv","legacy","Lentiform Loewenfeld","3.3.9","0","h","NA","s","NA","NA","h","470","NA","134675","NA","NA","470","2","legacy","1024","2","48000","-16","experiment","HHHHH","2","even","168348","169428","136789","NA","NA","146902","2105","NA","NA","169430","2113","NA","NA","169532","170003","169532","Flanker Task","18","11185","19","yes","1024"
"95","95","584.7","584.7","black","legacy","legacy","legacy","0","congruent","uniform","1","undefined","1","s","19","19","0","0","0","19","0","19","0","19","0","0","0","19","19","19","Sat Sep 25 16:42:57 2021","1500","The main experiment item","yes","FlankerTask.osexp","C:/Users/User/Desktop/School/Research Methods","no","mono","no","18","no","white","no","yes","768","legacy","19","19","C:/Users/User/Desktop/School/Research Methods/LW-subject-2.csv","legacy","Lentiform Loewenfeld","3.3.9","0","s","NA","s","NA","NA","s","509","NA","134675","NA","NA","509","2","legacy","1024","2","48000","-16","experiment","SSSSS","2","even","170008","171081","136789","NA","NA","146902","2105","NA","NA","171084","2113","NA","NA","171186","171696","171186","Flanker Task","19","11694","20","yes","1024"
"95.23809523809524","95.23809523809524","580.1904761904761","580.1904761904761","black","legacy","legacy","legacy","0","congruent","uniform","1","undefined","1","s","20","20","0","0","0","20","0","20","0","20","0","0","0","20","20","20","Sat Sep 25 16:42:57 2021","1500","The main experiment item","yes","FlankerTask.osexp","C:/Users/User/Desktop/School/Research Methods","no","mono","no","18","no","white","no","yes","768","legacy","20","20","C:/Users/User/Desktop/School/Research Methods/LW-subject-2.csv","legacy","Lentiform Loewenfeld","3.3.9","0","s","NA","s","NA","NA","s","490","NA","134675","NA","NA","490","2","legacy","1024","2","48000","-16","experiment","SSSSS","2","even","171700","172773","136789","NA","NA","146902","2105","NA","NA","172776","2113","NA","NA","172878","173369","172878","Flanker Task","20","12184","21","yes","1024"
"95.45454545454545","95.45454545454545","576.2727272727273","576.2727272727273","black","legacy","legacy","legacy","0","incongruent","uniform","1","undefined","1","h","21","21","0","0","0","21","0","21","0","21","0","0","0","21","21","21","Sat Sep 25 16:42:57 2021","1500","The main experiment item","yes","FlankerTask.osexp","C:/Users/User/Desktop/School/Research Methods","no","mono","no","18","no","white","no","yes","768","legacy","21","21","C:/Users/User/Desktop/School/Research Methods/LW-subject-2.csv","legacy","Lentiform Loewenfeld","3.3.9","0","h","NA","s","NA","NA","h","494","NA","134675","NA","NA","494","2","legacy","1024","2","48000","-16","experiment","SSHSS","2","even","173373","174447","136789","NA","NA","146902","2105","NA","NA","174449","2113","NA","NA","174551","175045","174551","Flanker Task","21","12678","22","yes","1024"
"95.65217391304348","95.65217391304348","570.7391304347826","570.7391304347826","black","legacy","legacy","legacy","0","congruent","uniform","1","undefined","1","h","22","22","0","0","0","22","0","22","0","22","0","0","0","22","22","22","Sat Sep 25 16:42:57 2021","1500","The main experiment item","yes","FlankerTask.osexp","C:/Users/User/Desktop/School/Research Methods","no","mono","no","18","no","white","no","yes","768","legacy","22","22","C:/Users/User/Desktop/School/Research Methods/LW-subject-2.csv","legacy","Lentiform Loewenfeld","3.3.9","0","h","NA","s","NA","NA","h","449","NA","134675","NA","NA","449","2","legacy","1024","2","48000","-16","experiment","HHHHH","2","even","175049","176123","136789","NA","NA","146902","2105","NA","NA","176126","2113","NA","NA","176228","176678","176228","Flanker Task","22","13127","23","yes","1024"
"95.83333333333333","95.83333333333333","567.4583333333334","567.4583333333334","black","legacy","legacy","legacy","0","incongruent","uniform","1","undefined","1","h","23","23","0","0","0","23","0","23","0","23","0","0","0","23","23","23","Sat Sep 25 16:42:57 2021","1500","The main experiment item","yes","FlankerTask.osexp","C:/Users/User/Desktop/School/Research Methods","no","mono","no","18","no","white","no","yes","768","legacy","23","23","C:/Users/User/Desktop/School/Research Methods/LW-subject-2.csv","legacy","Lentiform Loewenfeld","3.3.9","0","h","NA","s","NA","NA","h","492","NA","134675","NA","NA","492","2","legacy","1024","2","48000","-16","experiment","SSHSS","2","even","176682","177756","136789","NA","NA","146902","2105","NA","NA","177759","2113","NA","NA","177861","178353","177861","Flanker Task","23","13619","24","yes","1024"
"96","96","561.32","561.32","black","legacy","legacy","legacy","0","congruent","uniform","1","undefined","1","h","24","24","0","0","0","24","0","24","0","24","0","0","0","24","24","24","Sat Sep 25 16:42:57 2021","1500","The main experiment item","yes","FlankerTask.osexp","C:/Users/User/Desktop/School/Research Methods","no","mono","no","18","no","white","no","yes","768","legacy","24","24","C:/Users/User/Desktop/School/Research Methods/LW-subject-2.csv","legacy","Lentiform Loewenfeld","3.3.9","0","h","NA","s","NA","NA","h","414","NA","134675","NA","NA","414","2","legacy","1024","2","48000","-16","experiment","HHHHH","2","even","178358","179432","136789","NA","NA","146902","2105","NA","NA","179435","2113","NA","NA","179537","179952","179536","Flanker Task","24","14033","25","yes","1024"
"96.15384615384616","96.15384615384616","557.6153846153846","557.6153846153846","black","legacy","legacy","legacy","0","incongruent","uniform","1","undefined","1","s","25","25","0","0","0","25","0","25","0","25","0","0","0","25","25","25","Sat Sep 25 16:42:57 2021","1500","The main experiment item","yes","FlankerTask.osexp","C:/Users/User/Desktop/School/Research Methods","no","mono","no","18","no","white","no","yes","768","legacy","25","25","C:/Users/User/Desktop/School/Research Methods/LW-subject-2.csv","legacy","Lentiform Loewenfeld","3.3.9","0","s","NA","s","NA","NA","s","465","NA","134675","NA","NA","465","2","legacy","1024","2","48000","-16","experiment","HHSHH","2","even","179956","181030","136789","NA","NA","146902","2105","NA","NA","181032","2113","NA","NA","181134","181600","181134","Flanker Task","25","14498","26","yes","1024"
"96.29629629629629","96.29629629629629","557.6666666666666","557.6666666666666","black","legacy","legacy","legacy","0","incongruent","uniform","1","undefined","1","h","26","26","0","0","0","26","0","26","0","26","0","0","0","26","26","26","Sat Sep 25 16:42:57 2021","1500","The main experiment item","yes","FlankerTask.osexp","C:/Users/User/Desktop/School/Research Methods","no","mono","no","18","no","white","no","yes","768","legacy","26","26","C:/Users/User/Desktop/School/Research Methods/LW-subject-2.csv","legacy","Lentiform Loewenfeld","3.3.9","0","h","NA","s","NA","NA","h","559","NA","134675","NA","NA","559","2","legacy","1024","2","48000","-16","experiment","SSHSS","2","even","181604","182677","136789","NA","NA","146902","2105","NA","NA","182680","2113","NA","NA","182782","183343","182782","Flanker Task","26","15057","27","yes","1024"
"96.42857142857143","96.42857142857143","552.25","552.25","black","legacy","legacy","legacy","0","congruent","uniform","1","undefined","1","s","27","27","0","0","0","27","0","27","0","27","0","0","0","27","27","27","Sat Sep 25 16:42:57 2021","1500","The main experiment item","yes","FlankerTask.osexp","C:/Users/User/Desktop/School/Research Methods","no","mono","no","18","no","white","no","yes","768","legacy","27","27","C:/Users/User/Desktop/School/Research Methods/LW-subject-2.csv","legacy","Lentiform Loewenfeld","3.3.9","0","s","NA","s","NA","NA","s","406","NA","134675","NA","NA","406","2","legacy","1024","2","48000","-16","experiment","SSSSS","2","even","183347","184421","136789","NA","NA","146902","2105","NA","NA","184423","2113","NA","NA","184525","184932","184525","Flanker Task","27","15463","28","yes","1024"
"96.55172413793103","96.55172413793103","552.9655172413793","552.9655172413793","black","legacy","legacy","legacy","0","incongruent","uniform","1","undefined","1","s","28","28","0","0","0","28","0","28","0","28","0","0","0","28","28","28","Sat Sep 25 16:42:57 2021","1500","The main experiment item","yes","FlankerTask.osexp","C:/Users/User/Desktop/School/Research Methods","no","mono","no","18","no","white","no","yes","768","legacy","28","28","C:/Users/User/Desktop/School/Research Methods/LW-subject-2.csv","legacy","Lentiform Loewenfeld","3.3.9","0","s","NA","s","NA","NA","s","573","NA","134675","NA","NA","573","2","legacy","1024","2","48000","-16","experiment","HHSHH","2","even","184936","186010","136789","NA","NA","146902","2105","NA","NA","186012","2113","NA","NA","186114","186688","186113","Flanker Task","28","16036","29","yes","1024"
"96.66666666666667","96.66666666666667","550.0666666666667","550.0666666666667","black","legacy","legacy","legacy","0","congruent","uniform","1","undefined","1","s","29","29","0","0","0","29","0","29","0","29","0","0","0","29","29","29","Sat Sep 25 16:42:57 2021","1500","The main experiment item","yes","FlankerTask.osexp","C:/Users/User/Desktop/School/Research Methods","no","mono","no","18","no","white","no","yes","768","legacy","29","29","C:/Users/User/Desktop/School/Research Methods/LW-subject-2.csv","legacy","Lentiform Loewenfeld","3.3.9","0","s","NA","s","NA","NA","s","466","NA","134675","NA","NA","466","2","legacy","1024","2","48000","-16","experiment","SSSSS","2","even","186692","187765","136789","NA","NA","146902","2105","NA","NA","187768","2113","NA","NA","187870","188337","187870","Flanker Task","29","16502","30","yes","1024"
"96.7741935483871","96.7741935483871","549.2903225806451","549.2903225806451","black","legacy","legacy","legacy","0","incongruent","uniform","1","undefined","1","h","30","30","0","0","0","30","0","30","0","30","0","0","0","30","30","30","Sat Sep 25 16:42:57 2021","1500","The main experiment item","yes","FlankerTask.osexp","C:/Users/User/Desktop/School/Research Methods","no","mono","no","18","no","white","no","yes","768","legacy","30","30","C:/Users/User/Desktop/School/Research Methods/LW-subject-2.csv","legacy","Lentiform Loewenfeld","3.3.9","0","h","NA","s","NA","NA","h","526","NA","134675","NA","NA","526","2","legacy","1024","2","48000","-16","experiment","SSHSS","2","even","188341","189415","136789","NA","NA","146902","2105","NA","NA","189417","2113","NA","NA","189519","190045","189519","Flanker Task","30","17028","31","yes","1024"
"96.875","96.875","546.4375","546.4375","black","legacy","legacy","legacy","0","incongruent","uniform","1","undefined","1","h","31","31","0","0","0","31","0","31","0","31","0","0","0","31","31","31","Sat Sep 25 16:42:57 2021","1500","The main experiment item","yes","FlankerTask.osexp","C:/Users/User/Desktop/School/Research Methods","no","mono","no","18","no","white","no","yes","768","legacy","31","31","C:/Users/User/Desktop/School/Research Methods/LW-subject-2.csv","legacy","Lentiform Loewenfeld","3.3.9","0","h","NA","s","NA","NA","h","458","NA","134675","NA","NA","458","2","legacy","1024","2","48000","-16","experiment","SSHSS","2","even","190050","191124","136789","NA","NA","146902","2105","NA","NA","191126","2113","NA","NA","191228","191687","191228","Flanker Task","31","17486","32","yes","1024"
"96.96969696969697","96.96969696969697","543.3030303030303","543.3030303030303","black","legacy","legacy","legacy","0","incongruent","uniform","1","undefined","1","s","32","32","0","0","0","32","0","32","0","32","0","0","0","32","32","32","Sat Sep 25 16:42:57 2021","1500","The main experiment item","yes","FlankerTask.osexp","C:/Users/User/Desktop/School/Research Methods","no","mono","no","18","no","white","no","yes","768","legacy","32","32","C:/Users/User/Desktop/School/Research Methods/LW-subject-2.csv","legacy","Lentiform Loewenfeld","3.3.9","0","s","NA","s","NA","NA","s","443","NA","134675","NA","NA","443","2","legacy","1024","2","48000","-16","experiment","HHSHH","2","even","191691","192764","136789","NA","NA","146902","2105","NA","NA","192767","2113","NA","NA","192869","193313","192868","Flanker Task","32","17929","33","yes","1024"
"97.05882352941177","97.05882352941177","539.9117647058823","539.9117647058823","black","legacy","legacy","legacy","0","incongruent","uniform","1","undefined","1","s","33","33","0","0","0","33","0","33","0","33","0","0","0","33","33","33","Sat Sep 25 16:42:57 2021","1500","The main experiment item","yes","FlankerTask.osexp","C:/Users/User/Desktop/School/Research Methods","no","mono","no","18","no","white","no","yes","768","legacy","33","33","C:/Users/User/Desktop/School/Research Methods/LW-subject-2.csv","legacy","Lentiform Loewenfeld","3.3.9","0","s","NA","s","NA","NA","s","428","NA","134675","NA","NA","428","2","legacy","1024","2","48000","-16","experiment","HHSHH","2","even","193317","194390","136789","NA","NA","146902","2105","NA","NA","194393","2113","NA","NA","194495","194924","194495","Flanker Task","33","18357","34","yes","1024"
"97.14285714285714","97.14285714285714","538.6571428571428","538.6571428571428","black","legacy","legacy","legacy","0","congruent","uniform","1","undefined","1","s","34","34","0","0","0","34","0","34","0","34","0","0","0","34","34","34","Sat Sep 25 16:42:57 2021","1500","The main experiment item","yes","FlankerTask.osexp","C:/Users/User/Desktop/School/Research Methods","no","mono","no","18","no","white","no","yes","768","legacy","34","34","C:/Users/User/Desktop/School/Research Methods/LW-subject-2.csv","legacy","Lentiform Loewenfeld","3.3.9","0","s","NA","s","NA","NA","s","496","NA","134675","NA","NA","496","2","legacy","1024","2","48000","-16","experiment","SSSSS","2","even","194928","196001","136789","NA","NA","146902","2105","NA","NA","196003","2113","NA","NA","196106","196603","196106","Flanker Task","34","18853","35","yes","1024"
"97.22222222222223","97.22222222222223","537.4444444444445","537.4444444444445","black","legacy","legacy","legacy","0","congruent","uniform","1","undefined","1","h","35","35","0","0","0","35","0","35","0","35","0","0","0","35","35","35","Sat Sep 25 16:42:57 2021","1500","The main experiment item","yes","FlankerTask.osexp","C:/Users/User/Desktop/School/Research Methods","no","mono","no","18","no","white","no","yes","768","legacy","35","35","C:/Users/User/Desktop/School/Research Methods/LW-subject-2.csv","legacy","Lentiform Loewenfeld","3.3.9","0","h","NA","s","NA","NA","h","495","NA","134675","NA","NA","495","2","legacy","1024","2","48000","-16","experiment","HHHHH","2","even","196607","197681","136789","NA","NA","146902","2105","NA","NA","197683","2113","NA","NA","197785","198281","197785","Flanker Task","35","19348","36","yes","1024"
"97.29729729729729","97.29729729729729","533.1081081081081","533.1081081081081","black","legacy","legacy","legacy","0","congruent","uniform","1","undefined","1","h","36","36","0","0","0","36","0","36","0","36","0","0","0","36","36","36","Sat Sep 25 16:42:57 2021","1500","The main experiment item","yes","FlankerTask.osexp","C:/Users/User/Desktop/School/Research Methods","no","mono","no","18","no","white","no","yes","768","legacy","36","36","C:/Users/User/Desktop/School/Research Methods/LW-subject-2.csv","legacy","Lentiform Loewenfeld","3.3.9","0","h","NA","s","NA","NA","h","377","NA","134675","NA","NA","377","2","legacy","1024","2","48000","-16","experiment","HHHHH","2","even","198285","199358","136789","NA","NA","146902","2105","NA","NA","199361","2113","NA","NA","199463","199841","199463","Flanker Task","36","19725","37","yes","1024"
"97.36842105263158","97.36842105263158","532.7105263157895","532.7105263157895","black","legacy","legacy","legacy","0","incongruent","uniform","1","undefined","1","s","37","37","0","0","0","37","0","37","0","37","0","0","0","37","37","37","Sat Sep 25 16:42:57 2021","1500","The main experiment item","yes","FlankerTask.osexp","C:/Users/User/Desktop/School/Research Methods","no","mono","no","18","no","white","no","yes","768","legacy","37","37","C:/Users/User/Desktop/School/Research Methods/LW-subject-2.csv","legacy","Lentiform Loewenfeld","3.3.9","0","s","NA","s","NA","NA","s","518","NA","134675","NA","NA","518","2","legacy","1024","2","48000","-16","experiment","HHSHH","2","even","199845","200921","136789","NA","NA","146902","2105","NA","NA","200923","2113","NA","NA","201025","201544","201025","Flanker Task","37","20243","38","yes","1024"
"97.43589743589743","97.43589743589743","530.8461538461538","530.8461538461538","black","legacy","legacy","legacy","0","incongruent","uniform","1","undefined","1","s","38","38","0","0","0","38","0","38","0","38","0","0","0","38","38","38","Sat Sep 25 16:42:57 2021","1500","The main experiment item","yes","FlankerTask.osexp","C:/Users/User/Desktop/School/Research Methods","no","mono","no","18","no","white","no","yes","768","legacy","38","38","C:/Users/User/Desktop/School/Research Methods/LW-subject-2.csv","legacy","Lentiform Loewenfeld","3.3.9","0","s","NA","s","NA","NA","s","460","NA","134675","NA","NA","460","2","legacy","1024","2","48000","-16","experiment","HHSHH","2","even","201548","202622","136789","NA","NA","146902","2105","NA","NA","202625","2113","NA","NA","202727","203188","202727","Flanker Task","38","20703","39","yes","1024"
"97.5","97.5","526.775","526.775","black","legacy","legacy","legacy","0","incongruent","uniform","1","undefined","1","s","39","39","0","0","0","39","0","39","0","39","0","0","0","39","39","39","Sat Sep 25 16:42:57 2021","1500","The main experiment item","yes","FlankerTask.osexp","C:/Users/User/Desktop/School/Research Methods","no","mono","no","18","no","white","no","yes","768","legacy","39","39","C:/Users/User/Desktop/School/Research Methods/LW-subject-2.csv","legacy","Lentiform Loewenfeld","3.3.9","0","s","NA","s","NA","NA","s","368","NA","134675","NA","NA","368","2","legacy","1024","2","48000","-16","experiment","HHSHH","2","even","203192","204266","136789","NA","NA","146902","2105","NA","NA","204269","2113","NA","NA","204371","204740","204371","Flanker Task","39","21071","40","yes","1024"
"97.5609756097561","97.5609756097561","524.560975609756","524.560975609756","black","legacy","legacy","legacy","0","congruent","uniform","1","undefined","1","s","40","40","0","0","0","40","0","40","0","40","0","0","0","40","40","40","Sat Sep 25 16:42:57 2021","1500","The main experiment item","yes","FlankerTask.osexp","C:/Users/User/Desktop/School/Research Methods","no","mono","no","18","no","white","no","yes","768","legacy","40","40","C:/Users/User/Desktop/School/Research Methods/LW-subject-2.csv","legacy","Lentiform Loewenfeld","3.3.9","0","s","NA","s","NA","NA","s","436","NA","134675","NA","NA","436","2","legacy","1024","2","48000","-16","experiment","SSSSS","2","even","204744","205817","136789","NA","NA","146902","2105","NA","NA","205820","2113","NA","NA","205922","206359","205922","Flanker Task","40","21507","41","yes","1024"
"97.61904761904762","97.61904761904762","523.6904761904761","523.6904761904761","black","legacy","legacy","legacy","0","incongruent","uniform","1","undefined","1","s","41","41","0","0","0","41","0","41","0","41","0","0","0","41","41","41","Sat Sep 25 16:42:57 2021","1500","The main experiment item","yes","FlankerTask.osexp","C:/Users/User/Desktop/School/Research Methods","no","mono","no","18","no","white","no","yes","768","legacy","41","41","C:/Users/User/Desktop/School/Research Methods/LW-subject-2.csv","legacy","Lentiform Loewenfeld","3.3.9","0","s","NA","s","NA","NA","s","488","NA","134675","NA","NA","488","2","legacy","1024","2","48000","-16","experiment","HHSHH","2","even","206363","207437","136789","NA","NA","146902","2105","NA","NA","207439","2113","NA","NA","207541","208030","207541","Flanker Task","41","21995","42","yes","1024"
"97.67441860465117","97.67441860465117","520.6279069767442","520.6279069767442","black","legacy","legacy","legacy","0","incongruent","uniform","1","undefined","1","s","42","42","0","0","0","42","0","42","0","42","0","0","0","42","42","42","Sat Sep 25 16:42:57 2021","1500","The main experiment item","yes","FlankerTask.osexp","C:/Users/User/Desktop/School/Research Methods","no","mono","no","18","no","white","no","yes","768","legacy","42","42","C:/Users/User/Desktop/School/Research Methods/LW-subject-2.csv","legacy","Lentiform Loewenfeld","3.3.9","0","s","NA","s","NA","NA","s","392","NA","134675","NA","NA","392","2","legacy","1024","2","48000","-16","experiment","HHSHH","2","even","208035","209110","136789","NA","NA","146902","2105","NA","NA","209112","2113","NA","NA","209214","209608","209214","Flanker Task","42","22387","43","yes","1024"
"97.72727272727273","97.72727272727273","518.2954545454545","518.2954545454545","black","legacy","legacy","legacy","0","incongruent","uniform","1","undefined","1","s","43","43","0","0","0","43","0","43","0","43","0","0","0","43","43","43","Sat Sep 25 16:42:57 2021","1500","The main experiment item","yes","FlankerTask.osexp","C:/Users/User/Desktop/School/Research Methods","no","mono","no","18","no","white","no","yes","768","legacy","43","43","C:/Users/User/Desktop/School/Research Methods/LW-subject-2.csv","legacy","Lentiform Loewenfeld","3.3.9","0","s","NA","s","NA","NA","s","418","NA","134675","NA","NA","418","2","legacy","1024","2","48000","-16","experiment","HHSHH","2","even","209612","210686","136789","NA","NA","146902","2105","NA","NA","210688","2113","NA","NA","210790","211210","210790","Flanker Task","43","22805","44","yes","1024"
"97.77777777777777","97.77777777777777","518.4888888888889","518.4888888888889","black","legacy","legacy","legacy","0","incongruent","uniform","1","undefined","1","h","44","44","0","0","0","44","0","44","0","44","0","0","0","44","44","44","Sat Sep 25 16:42:57 2021","1500","The main experiment item","yes","FlankerTask.osexp","C:/Users/User/Desktop/School/Research Methods","no","mono","no","18","no","white","no","yes","768","legacy","44","44","C:/Users/User/Desktop/School/Research Methods/LW-subject-2.csv","legacy","Lentiform Loewenfeld","3.3.9","0","h","NA","s","NA","NA","h","527","NA","134675","NA","NA","527","2","legacy","1024","2","48000","-16","experiment","SSHSS","2","even","211214","212287","136789","NA","NA","146902","2105","NA","NA","212289","2113","NA","NA","212392","212920","212391","Flanker Task","44","23332","45","yes","1024"
"97.82608695652173","97.82608695652173","516.6521739130435","516.6521739130435","black","legacy","legacy","legacy","0","incongruent","uniform","1","undefined","1","h","45","45","0","0","0","45","0","45","0","45","0","0","0","45","45","45","Sat Sep 25 16:42:57 2021","1500","The main experiment item","yes","FlankerTask.osexp","C:/Users/User/Desktop/School/Research Methods","no","mono","no","18","no","white","no","yes","768","legacy","45","45","C:/Users/User/Desktop/School/Research Methods/LW-subject-2.csv","legacy","Lentiform Loewenfeld","3.3.9","0","h","NA","s","NA","NA","h","434","NA","134675","NA","NA","434","2","legacy","1024","2","48000","-16","experiment","SSHSS","2","even","212924","213999","136789","NA","NA","146902","2105","NA","NA","214001","2113","NA","NA","214103","214538","214103","Flanker Task","45","23766","46","yes","1024"
"97.87234042553192","97.87234042553192","515.2553191489362","515.2553191489362","black","legacy","legacy","legacy","0","incongruent","uniform","1","undefined","1","h","46","46","0","0","0","46","0","46","0","46","0","0","0","46","46","46","Sat Sep 25 16:42:57 2021","1500","The main experiment item","yes","FlankerTask.osexp","C:/Users/User/Desktop/School/Research Methods","no","mono","no","18","no","white","no","yes","768","legacy","46","46","C:/Users/User/Desktop/School/Research Methods/LW-subject-2.csv","legacy","Lentiform Loewenfeld","3.3.9","0","h","NA","s","NA","NA","h","451","NA","134675","NA","NA","451","2","legacy","1024","2","48000","-16","experiment","SSHSS","2","even","214542","215616","136789","NA","NA","146902","2105","NA","NA","215618","2113","NA","NA","215720","216172","215720","Flanker Task","46","24217","47","yes","1024"
"97.91666666666667","97.91666666666667","511.8958333333333","511.8958333333333","black","legacy","legacy","legacy","0","congruent","uniform","1","undefined","1","h","47","47","0","0","0","47","0","47","0","47","0","0","0","47","47","47","Sat Sep 25 16:42:57 2021","1500","The main experiment item","yes","FlankerTask.osexp","C:/Users/User/Desktop/School/Research Methods","no","mono","no","18","no","white","no","yes","768","legacy","47","47","C:/Users/User/Desktop/School/Research Methods/LW-subject-2.csv","legacy","Lentiform Loewenfeld","3.3.9","0","h","NA","s","NA","NA","h","354","NA","134675","NA","NA","354","2","legacy","1024","2","48000","-16","experiment","HHHHH","2","even","216176","217249","136789","NA","NA","146902","2105","NA","NA","217252","2113","NA","NA","217354","217710","217354","Flanker Task","47","24571","48","yes","1024"
"97.95918367346938","97.95918367346938","513.1020408163265","513.1020408163265","black","legacy","legacy","legacy","0","incongruent","uniform","1","undefined","1","s","48","48","0","0","0","48","0","48","0","48","0","0","0","48","48","48","Sat Sep 25 16:42:57 2021","1500","The main experiment item","yes","FlankerTask.osexp","C:/Users/User/Desktop/School/Research Methods","no","mono","no","18","no","white","no","yes","768","legacy","48","48","C:/Users/User/Desktop/School/Research Methods/LW-subject-2.csv","legacy","Lentiform Loewenfeld","3.3.9","0","s","NA","s","NA","NA","s","571","NA","134675","NA","NA","571","2","legacy","1024","2","48000","-16","experiment","HHSHH","2","even","217713","218787","136789","NA","NA","146902","2105","NA","NA","218789","2113","NA","NA","218891","219463","218891","Flanker Task","48","25142","49","yes","1024"
"98","98","513.02","513.02","black","legacy","legacy","legacy","0","incongruent","uniform","1","undefined","1","s","49","49","0","0","0","49","0","49","0","49","0","0","0","49","49","49","Sat Sep 25 16:42:57 2021","1500","The main experiment item","yes","FlankerTask.osexp","C:/Users/User/Desktop/School/Research Methods","no","mono","no","18","no","white","no","yes","768","legacy","49","49","C:/Users/User/Desktop/School/Research Methods/LW-subject-2.csv","legacy","Lentiform Loewenfeld","3.3.9","0","s","NA","s","NA","NA","s","509","NA","134675","NA","NA","509","2","legacy","1024","2","48000","-16","experiment","HHSHH","2","even","219467","220541","136789","NA","NA","146902","2105","NA","NA","220543","2113","NA","NA","220645","221155","220645","Flanker Task","49","25651","50","yes","1024"
"98.03921568627452","98.03921568627452","511.1372549019608","511.1372549019608","black","legacy","legacy","legacy","0","congruent","uniform","1","undefined","1","h","50","50","0","0","0","50","0","50","0","50","0","0","0","50","50","50","Sat Sep 25 16:42:57 2021","1500","The main experiment item","yes","FlankerTask.osexp","C:/Users/User/Desktop/School/Research Methods","no","mono","no","18","no","white","no","yes","768","legacy","50","50","C:/Users/User/Desktop/School/Research Methods/LW-subject-2.csv","legacy","Lentiform Loewenfeld","3.3.9","0","h","NA","s","NA","NA","h","417","NA","134675","NA","NA","417","2","legacy","1024","2","48000","-16","experiment","HHHHH","2","even","221160","222234","136789","NA","NA","146902","2105","NA","NA","222236","2113","NA","NA","222338","222756","222338","Flanker Task","50","26068","51","yes","1024"
"98.07692307692308","98.07692307692308","509.78846153846155","509.78846153846155","black","legacy","legacy","legacy","0","congruent","uniform","1","undefined","1","s","51","51","0","0","0","51","0","51","0","51","0","0","0","51","51","51","Sat Sep 25 16:42:57 2021","1500","The main experiment item","yes","FlankerTask.osexp","C:/Users/User/Desktop/School/Research Methods","no","mono","no","18","no","white","no","yes","768","legacy","51","51","C:/Users/User/Desktop/School/Research Methods/LW-subject-2.csv","legacy","Lentiform Loewenfeld","3.3.9","0","s","NA","s","NA","NA","s","441","NA","134675","NA","NA","441","2","legacy","1024","2","48000","-16","experiment","SSSSS","2","even","222760","223833","136789","NA","NA","146902","2105","NA","NA","223836","2113","NA","NA","223938","224380","223938","Flanker Task","51","26509","52","yes","1024"
"98.11320754716981","98.11320754716981","508.62264150943395","508.62264150943395","black","legacy","legacy","legacy","0","congruent","uniform","1","undefined","1","h","52","52","0","0","0","52","0","52","0","52","0","0","0","52","52","52","Sat Sep 25 16:42:57 2021","1500","The main experiment item","yes","FlankerTask.osexp","C:/Users/User/Desktop/School/Research Methods","no","mono","no","18","no","white","no","yes","768","legacy","52","52","C:/Users/User/Desktop/School/Research Methods/LW-subject-2.csv","legacy","Lentiform Loewenfeld","3.3.9","0","h","NA","s","NA","NA","h","448","NA","134675","NA","NA","448","2","legacy","1024","2","48000","-16","experiment","HHHHH","2","even","224384","225457","136789","NA","NA","146902","2105","NA","NA","225460","2113","NA","NA","225562","226011","225562","Flanker Task","52","26957","53","yes","1024"
"98.14814814814815","98.14814814814815","507.2037037037037","507.2037037037037","black","legacy","legacy","legacy","0","congruent","uniform","1","undefined","1","h","53","53","0","0","0","53","0","53","0","53","0","0","0","53","53","53","Sat Sep 25 16:42:57 2021","1500","The main experiment item","yes","FlankerTask.osexp","C:/Users/User/Desktop/School/Research Methods","no","mono","no","18","no","white","no","yes","768","legacy","53","53","C:/Users/User/Desktop/School/Research Methods/LW-subject-2.csv","legacy","Lentiform Loewenfeld","3.3.9","0","h","NA","s","NA","NA","h","432","NA","134675","NA","NA","432","2","legacy","1024","2","48000","-16","experiment","HHHHH","2","even","226015","227089","136789","NA","NA","146902","2105","NA","NA","227091","2113","NA","NA","227193","227626","227193","Flanker Task","53","27389","54","yes","1024"
"98.18181818181819","98.18181818181819","505.0181818181818","505.0181818181818","black","legacy","legacy","legacy","0","congruent","uniform","1","undefined","1","h","54","54","0","0","0","54","0","54","0","54","0","0","0","54","54","54","Sat Sep 25 16:42:57 2021","1500","The main experiment item","yes","FlankerTask.osexp","C:/Users/User/Desktop/School/Research Methods","no","mono","no","18","no","white","no","yes","768","legacy","54","54","C:/Users/User/Desktop/School/Research Methods/LW-subject-2.csv","legacy","Lentiform Loewenfeld","3.3.9","0","h","NA","s","NA","NA","h","387","NA","134675","NA","NA","387","2","legacy","1024","2","48000","-16","experiment","HHHHH","2","even","227630","228706","136789","NA","NA","146902","2105","NA","NA","228708","2113","NA","NA","228810","229198","228810","Flanker Task","54","27776","55","yes","1024"
"98.21428571428571","98.21428571428571","503.60714285714283","503.60714285714283","black","legacy","legacy","legacy","0","incongruent","uniform","1","undefined","1","s","55","55","0","0","0","55","0","55","0","55","0","0","0","55","55","55","Sat Sep 25 16:42:57 2021","1500","The main experiment item","yes","FlankerTask.osexp","C:/Users/User/Desktop/School/Research Methods","no","mono","no","18","no","white","no","yes","768","legacy","55","55","C:/Users/User/Desktop/School/Research Methods/LW-subject-2.csv","legacy","Lentiform Loewenfeld","3.3.9","0","s","NA","s","NA","NA","s","426","NA","134675","NA","NA","426","2","legacy","1024","2","48000","-16","experiment","HHSHH","2","even","229202","230277","136789","NA","NA","146902","2105","NA","NA","230279","2113","NA","NA","230381","230808","230380","Flanker Task","55","28202","56","yes","1024"
"98.24561403508773","98.24561403508773","503.6140350877193","503.6140350877193","black","legacy","legacy","legacy","0","congruent","uniform","1","undefined","1","s","56","56","0","0","0","56","0","56","0","56","0","0","0","56","56","56","Sat Sep 25 16:42:57 2021","1500","The main experiment item","yes","FlankerTask.osexp","C:/Users/User/Desktop/School/Research Methods","no","mono","no","18","no","white","no","yes","768","legacy","56","56","C:/Users/User/Desktop/School/Research Methods/LW-subject-2.csv","legacy","Lentiform Loewenfeld","3.3.9","0","s","NA","s","NA","NA","s","504","NA","134675","NA","NA","504","2","legacy","1024","2","48000","-16","experiment","SSSSS","2","even","230812","231887","136789","NA","NA","146902","2105","NA","NA","231890","2113","NA","NA","231992","232497","231992","Flanker Task","56","28706","57","yes","1024"
"98.27586206896552","98.27586206896552","502.62068965517244","502.62068965517244","black","legacy","legacy","legacy","0","congruent","uniform","1","undefined","1","s","57","57","0","0","0","57","0","57","0","57","0","0","0","57","57","57","Sat Sep 25 16:42:57 2021","1500","The main experiment item","yes","FlankerTask.osexp","C:/Users/User/Desktop/School/Research Methods","no","mono","no","18","no","white","no","yes","768","legacy","57","57","C:/Users/User/Desktop/School/Research Methods/LW-subject-2.csv","legacy","Lentiform Loewenfeld","3.3.9","0","s","NA","s","NA","NA","s","446","NA","134675","NA","NA","446","2","legacy","1024","2","48000","-16","experiment","SSSSS","2","even","232502","233589","136789","NA","NA","146902","2105","NA","NA","233592","2113","NA","NA","233694","234141","233694","Flanker Task","57","29152","58","yes","1024"
"98.30508474576271","98.30508474576271","502.4237288135593","502.4237288135593","black","legacy","legacy","legacy","0","congruent","uniform","1","undefined","1","h","58","58","0","0","0","58","0","58","0","58","0","0","0","58","58","58","Sat Sep 25 16:42:57 2021","1500","The main experiment item","yes","FlankerTask.osexp","C:/Users/User/Desktop/School/Research Methods","no","mono","no","18","no","white","no","yes","768","legacy","58","58","C:/Users/User/Desktop/School/Research Methods/LW-subject-2.csv","legacy","Lentiform Loewenfeld","3.3.9","0","h","NA","s","NA","NA","h","491","NA","134675","NA","NA","491","2","legacy","1024","2","48000","-16","experiment","HHHHH","2","even","234145","235221","136789","NA","NA","146902","2105","NA","NA","235223","2113","NA","NA","235325","235817","235325","Flanker Task","58","29643","59","yes","1024"
"98.33333333333333","98.33333333333333","500.3333333333333","500.3333333333333","black","legacy","legacy","legacy","0","congruent","uniform","1","undefined","1","s","59","59","0","0","0","59","0","59","0","59","0","0","0","59","59","59","Sat Sep 25 16:42:57 2021","1500","The main experiment item","yes","FlankerTask.osexp","C:/Users/User/Desktop/School/Research Methods","no","mono","no","18","no","white","no","yes","768","legacy","59","59","C:/Users/User/Desktop/School/Research Methods/LW-subject-2.csv","legacy","Lentiform Loewenfeld","3.3.9","0","s","NA","s","NA","NA","s","377","NA","134675","NA","NA","377","2","legacy","1024","2","48000","-16","experiment","SSSSS","2","even","235821","236895","136789","NA","NA","146902","2105","NA","NA","236898","2113","NA","NA","237000","237378","237000","Flanker Task","59","30020","60","yes","1024"
"98.36065573770492","98.36065573770492","499.60655737704917","499.60655737704917","black","legacy","legacy","legacy","0","incongruent","uniform","1","undefined","1","s","60","60","0","0","0","60","0","60","0","60","0","0","0","60","60","60","Sat Sep 25 16:42:57 2021","1500","The main experiment item","yes","FlankerTask.osexp","C:/Users/User/Desktop/School/Research Methods","no","mono","no","18","no","white","no","yes","768","legacy","60","60","C:/Users/User/Desktop/School/Research Methods/LW-subject-2.csv","legacy","Lentiform Loewenfeld","3.3.9","0","s","NA","s","NA","NA","s","456","NA","134675","NA","NA","456","2","legacy","1024","2","48000","-16","experiment","HHSHH","2","even","237383","238457","136789","NA","NA","146902","2105","NA","NA","238459","2113","NA","NA","238561","239018","238561","Flanker Task","60","30476","61","yes","1024"
"98.38709677419355","98.38709677419355","499.5","499.5","black","legacy","legacy","legacy","0","incongruent","uniform","1","undefined","1","h","61","61","0","0","0","61","0","61","0","61","0","0","0","61","61","61","Sat Sep 25 16:42:57 2021","1500","The main experiment item","yes","FlankerTask.osexp","C:/Users/User/Desktop/School/Research Methods","no","mono","no","18","no","white","no","yes","768","legacy","61","61","C:/Users/User/Desktop/School/Research Methods/LW-subject-2.csv","legacy","Lentiform Loewenfeld","3.3.9","0","h","NA","s","NA","NA","h","493","NA","134675","NA","NA","493","2","legacy","1024","2","48000","-16","experiment","SSHSS","2","even","239022","240095","136789","NA","NA","146902","2105","NA","NA","240098","2113","NA","NA","240200","240694","240200","Flanker Task","61","30969","62","yes","1024"
"98.41269841269842","98.41269841269842","499.1904761904762","499.1904761904762","black","legacy","legacy","legacy","0","incongruent","uniform","1","undefined","1","h","62","62","0","0","0","62","0","62","0","62","0","0","0","62","62","62","Sat Sep 25 16:42:57 2021","1500","The main experiment item","yes","FlankerTask.osexp","C:/Users/User/Desktop/School/Research Methods","no","mono","no","18","no","white","no","yes","768","legacy","62","62","C:/Users/User/Desktop/School/Research Methods/LW-subject-2.csv","legacy","Lentiform Loewenfeld","3.3.9","0","h","NA","s","NA","NA","h","480","NA","134675","NA","NA","480","2","legacy","1024","2","48000","-16","experiment","SSHSS","2","even","240699","241774","136789","NA","NA","146902","2105","NA","NA","241776","2113","NA","NA","241878","242359","241878","Flanker Task","62","31449","63","yes","1024"
"98.4375","98.4375","500.109375","500.109375","black","legacy","legacy","legacy","0","incongruent","uniform","1","undefined","1","s","63","63","0","0","0","63","0","63","0","63","0","0","0","63","63","63","Sat Sep 25 16:42:57 2021","1500","The main experiment item","yes","FlankerTask.osexp","C:/Users/User/Desktop/School/Research Methods","no","mono","no","18","no","white","no","yes","768","legacy","63","63","C:/Users/User/Desktop/School/Research Methods/LW-subject-2.csv","legacy","Lentiform Loewenfeld","3.3.9","0","s","NA","s","NA","NA","s","558","NA","134675","NA","NA","558","2","legacy","1024","2","48000","-16","experiment","HHSHH","2","even","242363","243437","136789","NA","NA","146902","2105","NA","NA","243440","2113","NA","NA","243542","244101","243542","Flanker Task","63","32007","64","yes","1024"
"98.46153846153847","98.46153846153847","500.89230769230767","500.89230769230767","black","legacy","legacy","legacy","0","incongruent","uniform","1","undefined","1","h","64","64","0","0","0","64","0","64","0","64","0","0","0","64","64","64","Sat Sep 25 16:42:57 2021","1500","The main experiment item","yes","FlankerTask.osexp","C:/Users/User/Desktop/School/Research Methods","no","mono","no","18","no","white","no","yes","768","legacy","64","64","C:/Users/User/Desktop/School/Research Methods/LW-subject-2.csv","legacy","Lentiform Loewenfeld","3.3.9","0","h","NA","s","NA","NA","h","551","NA","134675","NA","NA","551","2","legacy","1024","2","48000","-16","experiment","SSHSS","2","even","244105","245178","136789","NA","NA","146902","2105","NA","NA","245181","2113","NA","NA","245283","245836","245283","Flanker Task","64","32558","65","yes","1024"
"98.48484848484848","98.48484848484848","499.27272727272725","499.27272727272725","black","legacy","legacy","legacy","0","congruent","uniform","1","undefined","1","h","65","65","0","0","0","65","0","65","0","65","0","0","0","65","65","65","Sat Sep 25 16:42:57 2021","1500","The main experiment item","yes","FlankerTask.osexp","C:/Users/User/Desktop/School/Research Methods","no","mono","no","18","no","white","no","yes","768","legacy","65","65","C:/Users/User/Desktop/School/Research Methods/LW-subject-2.csv","legacy","Lentiform Loewenfeld","3.3.9","0","h","NA","s","NA","NA","h","394","NA","134675","NA","NA","394","2","legacy","1024","2","48000","-16","experiment","HHHHH","2","even","245840","246913","136789","NA","NA","146902","2105","NA","NA","246916","2113","NA","NA","247018","247413","247018","Flanker Task","65","32952","66","yes","1024"
"98.50746268656717","98.50746268656717","498.2238805970149","498.2238805970149","black","legacy","legacy","legacy","0","congruent","uniform","1","undefined","1","s","66","66","0","0","0","66","0","66","0","66","0","0","0","66","66","66","Sat Sep 25 16:42:57 2021","1500","The main experiment item","yes","FlankerTask.osexp","C:/Users/User/Desktop/School/Research Methods","no","mono","no","18","no","white","no","yes","768","legacy","66","66","C:/Users/User/Desktop/School/Research Methods/LW-subject-2.csv","legacy","Lentiform Loewenfeld","3.3.9","0","s","NA","s","NA","NA","s","429","NA","134675","NA","NA","429","2","legacy","1024","2","48000","-16","experiment","SSSSS","2","even","247417","248491","136789","NA","NA","146902","2105","NA","NA","248493","2113","NA","NA","248595","249025","248594","Flanker Task","66","33381","67","yes","1024"
"98.52941176470588","98.52941176470588","497.80882352941177","497.80882352941177","black","legacy","legacy","legacy","0","incongruent","uniform","1","undefined","1","h","67","67","0","0","0","67","0","67","0","67","0","0","0","67","67","67","Sat Sep 25 16:42:57 2021","1500","The main experiment item","yes","FlankerTask.osexp","C:/Users/User/Desktop/School/Research Methods","no","mono","no","18","no","white","no","yes","768","legacy","67","67","C:/Users/User/Desktop/School/Research Methods/LW-subject-2.csv","legacy","Lentiform Loewenfeld","3.3.9","0","h","NA","s","NA","NA","h","470","NA","134675","NA","NA","470","2","legacy","1024","2","48000","-16","experiment","SSHSS","2","even","249029","250103","136789","NA","NA","146902","2105","NA","NA","250105","2113","NA","NA","250207","250679","250207","Flanker Task","67","33851","68","yes","1024"
"98.55072463768116","98.55072463768116","496.8985507246377","496.8985507246377","black","legacy","legacy","legacy","0","congruent","uniform","1","undefined","1","s","68","68","0","0","0","68","0","68","0","68","0","0","0","68","68","68","Sat Sep 25 16:42:57 2021","1500","The main experiment item","yes","FlankerTask.osexp","C:/Users/User/Desktop/School/Research Methods","no","mono","no","18","no","white","no","yes","768","legacy","68","68","C:/Users/User/Desktop/School/Research Methods/LW-subject-2.csv","legacy","Lentiform Loewenfeld","3.3.9","0","s","NA","s","NA","NA","s","435","NA","134675","NA","NA","435","2","legacy","1024","2","48000","-16","experiment","SSSSS","2","even","250683","251756","136789","NA","NA","146902","2105","NA","NA","251759","2113","NA","NA","251861","252297","251861","Flanker Task","68","34286","69","yes","1024"
"98.57142857142857","98.57142857142857","495.24285714285713","495.24285714285713","black","legacy","legacy","legacy","0","congruent","uniform","1","undefined","1","s","69","69","0","0","0","69","0","69","0","69","0","0","0","69","69","69","Sat Sep 25 16:42:57 2021","1500","The main experiment item","yes","FlankerTask.osexp","C:/Users/User/Desktop/School/Research Methods","no","mono","no","18","no","white","no","yes","768","legacy","69","69","C:/Users/User/Desktop/School/Research Methods/LW-subject-2.csv","legacy","Lentiform Loewenfeld","3.3.9","0","s","NA","s","NA","NA","s","381","NA","134675","NA","NA","381","2","legacy","1024","2","48000","-16","experiment","SSSSS","2","even","252301","253375","136789","NA","NA","146902","2105","NA","NA","253378","2113","NA","NA","253480","253862","253480","Flanker Task","69","34667","70","yes","1024"
"98.59154929577464","98.59154929577464","495.77464788732397","495.77464788732397","black","legacy","legacy","legacy","0","incongruent","uniform","1","undefined","1","h","70","70","0","0","0","70","0","70","0","70","0","0","0","70","70","70","Sat Sep 25 16:42:57 2021","1500","The main experiment item","yes","FlankerTask.osexp","C:/Users/User/Desktop/School/Research Methods","no","mono","no","18","no","white","no","yes","768","legacy","70","70","C:/Users/User/Desktop/School/Research Methods/LW-subject-2.csv","legacy","Lentiform Loewenfeld","3.3.9","0","h","NA","s","NA","NA","h","533","NA","134675","NA","NA","533","2","legacy","1024","2","48000","-16","experiment","SSHSS","2","even","253866","254940","136789","NA","NA","146902","2105","NA","NA","254942","2113","NA","NA","255044","255578","255044","Flanker Task","70","35200","71","yes","1024"
"98.61111111111111","98.61111111111111","496.375","496.375","black","legacy","legacy","legacy","0","congruent","uniform","1","undefined","1","s","71","71","0","0","0","71","0","71","0","71","0","0","0","71","71","71","Sat Sep 25 16:42:57 2021","1500","The main experiment item","yes","FlankerTask.osexp","C:/Users/User/Desktop/School/Research Methods","no","mono","no","18","no","white","no","yes","768","legacy","71","71","C:/Users/User/Desktop/School/Research Methods/LW-subject-2.csv","legacy","Lentiform Loewenfeld","3.3.9","0","s","NA","s","NA","NA","s","539","NA","134675","NA","NA","539","2","legacy","1024","2","48000","-16","experiment","SSSSS","2","even","255582","256655","136789","NA","NA","146902","2105","NA","NA","256658","2113","NA","NA","256760","257300","256760","Flanker Task","71","35739","72","yes","1024"
"98.63013698630137","98.63013698630137","495.2328767123288","495.2328767123288","black","legacy","legacy","legacy","0","congruent","uniform","1","undefined","1","h","72","72","0","0","0","72","0","72","0","72","0","0","0","72","72","72","Sat Sep 25 16:42:57 2021","1500","The main experiment item","yes","FlankerTask.osexp","C:/Users/User/Desktop/School/Research Methods","no","mono","no","18","no","white","no","yes","768","legacy","72","72","C:/Users/User/Desktop/School/Research Methods/LW-subject-2.csv","legacy","Lentiform Loewenfeld","3.3.9","0","h","NA","s","NA","NA","h","413","NA","134675","NA","NA","413","2","legacy","1024","2","48000","-16","experiment","HHHHH","2","even","257304","258387","136789","NA","NA","146902","2105","NA","NA","258389","2113","NA","NA","258491","258905","258491","Flanker Task","72","36152","73","yes","1024"
"98.64864864864865","98.64864864864865","494.4189189189189","494.4189189189189","black","legacy","legacy","legacy","0","congruent","uniform","1","undefined","1","s","73","73","0","0","0","73","0","73","0","73","0","0","0","73","73","73","Sat Sep 25 16:42:57 2021","1500","The main experiment item","yes","FlankerTask.osexp","C:/Users/User/Desktop/School/Research Methods","no","mono","no","18","no","white","no","yes","768","legacy","73","73","C:/Users/User/Desktop/School/Research Methods/LW-subject-2.csv","legacy","Lentiform Loewenfeld","3.3.9","0","s","NA","s","NA","NA","s","435","NA","134675","NA","NA","435","2","legacy","1024","2","48000","-16","experiment","SSSSS","2","even","258909","259982","136789","NA","NA","146902","2105","NA","NA","259985","2113","NA","NA","260087","260524","260087","Flanker Task","73","36587","74","yes","1024"
"98.66666666666667","98.66666666666667","493.9066666666667","493.9066666666667","black","legacy","legacy","legacy","0","congruent","uniform","1","undefined","1","s","74","74","0","0","0","74","0","74","0","74","0","0","0","74","74","74","Sat Sep 25 16:42:57 2021","1500","The main experiment item","yes","FlankerTask.osexp","C:/Users/User/Desktop/School/Research Methods","no","mono","no","18","no","white","no","yes","768","legacy","74","74","C:/Users/User/Desktop/School/Research Methods/LW-subject-2.csv","legacy","Lentiform Loewenfeld","3.3.9","0","s","NA","s","NA","NA","s","456","NA","134675","NA","NA","456","2","legacy","1024","2","48000","-16","experiment","SSSSS","2","even","260528","261601","136789","NA","NA","146902","2105","NA","NA","261604","2113","NA","NA","261706","262163","261706","Flanker Task","74","37043","75","yes","1024"
"98.6842105263158","98.6842105263158","493.10526315789474","493.10526315789474","black","legacy","legacy","legacy","0","incongruent","uniform","1","undefined","1","h","75","75","0","0","0","75","0","75","0","75","0","0","0","75","75","75","Sat Sep 25 16:42:57 2021","1500","The main experiment item","yes","FlankerTask.osexp","C:/Users/User/Desktop/School/Research Methods","no","mono","no","18","no","white","no","yes","768","legacy","75","75","C:/Users/User/Desktop/School/Research Methods/LW-subject-2.csv","legacy","Lentiform Loewenfeld","3.3.9","0","h","NA","s","NA","NA","h","433","NA","134675","NA","NA","433","2","legacy","1024","2","48000","-16","experiment","SSHSS","2","even","262167","263240","136789","NA","NA","146902","2105","NA","NA","263243","2113","NA","NA","263345","263780","263345","Flanker Task","75","37476","76","yes","1024"
"98.7012987012987","98.7012987012987","494.42857142857144","494.42857142857144","black","legacy","legacy","legacy","0","incongruent","uniform","1","undefined","1","h","76","76","0","0","0","76","0","76","0","76","0","0","0","76","76","76","Sat Sep 25 16:42:57 2021","1500","The main experiment item","yes","FlankerTask.osexp","C:/Users/User/Desktop/School/Research Methods","no","mono","no","18","no","white","no","yes","768","legacy","76","76","C:/Users/User/Desktop/School/Research Methods/LW-subject-2.csv","legacy","Lentiform Loewenfeld","3.3.9","0","h","NA","s","NA","NA","h","595","NA","134675","NA","NA","595","2","legacy","1024","2","48000","-16","experiment","SSHSS","2","even","263784","264857","136789","NA","NA","146902","2105","NA","NA","264860","2113","NA","NA","264962","265558","264962","Flanker Task","76","38071","77","yes","1024"
"98.71794871794872","98.71794871794872","493.94871794871796","493.94871794871796","black","legacy","legacy","legacy","0","incongruent","uniform","1","undefined","1","h","77","77","0","0","0","77","0","77","0","77","0","0","0","77","77","77","Sat Sep 25 16:42:57 2021","1500","The main experiment item","yes","FlankerTask.osexp","C:/Users/User/Desktop/School/Research Methods","no","mono","no","18","no","white","no","yes","768","legacy","77","77","C:/Users/User/Desktop/School/Research Methods/LW-subject-2.csv","legacy","Lentiform Loewenfeld","3.3.9","0","h","NA","s","NA","NA","h","457","NA","134675","NA","NA","457","2","legacy","1024","2","48000","-16","experiment","SSHSS","2","even","265562","266636","136789","NA","NA","146902","2105","NA","NA","266638","2113","NA","NA","266740","267199","266740","Flanker Task","77","38528","78","yes","1024"
"98.73417721518987","98.73417721518987","493.55696202531647","493.55696202531647","black","legacy","legacy","legacy","0","congruent","uniform","1","undefined","1","s","78","78","0","0","0","78","0","78","0","78","0","0","0","78","78","78","Sat Sep 25 16:42:57 2021","1500","The main experiment item","yes","FlankerTask.osexp","C:/Users/User/Desktop/School/Research Methods","no","mono","no","18","no","white","no","yes","768","legacy","78","78","C:/Users/User/Desktop/School/Research Methods/LW-subject-2.csv","legacy","Lentiform Loewenfeld","3.3.9","0","s","NA","s","NA","NA","s","463","NA","134675","NA","NA","463","2","legacy","1024","2","48000","-16","experiment","SSSSS","2","even","267203","268276","136789","NA","NA","146902","2105","NA","NA","268279","2113","NA","NA","268381","268846","268381","Flanker Task","78","38991","79","yes","1024"
"98.75","98.75","492.475","492.475","black","legacy","legacy","legacy","0","congruent","uniform","1","undefined","1","h","79","79","0","0","0","79","0","79","0","79","0","0","0","79","79","79","Sat Sep 25 16:42:57 2021","1500","The main experiment item","yes","FlankerTask.osexp","C:/Users/User/Desktop/School/Research Methods","no","mono","no","18","no","white","no","yes","768","legacy","79","79","C:/Users/User/Desktop/School/Research Methods/LW-subject-2.csv","legacy","Lentiform Loewenfeld","3.3.9","0","h","NA","s","NA","NA","h","407","NA","134675","NA","NA","407","2","legacy","1024","2","48000","-16","experiment","HHHHH","2","even","268850","269930","136789","NA","NA","146902","2105","NA","NA","269933","2113","NA","NA","270035","270443","270035","Flanker Task","79","39398","80","yes","1024"
"98.76543209876543","98.76543209876543","496.1111111111111","496.1111111111111","black","legacy","legacy","legacy","0","incongruent","uniform","1","undefined","1","s","80","80","0","0","0","80","0","80","0","80","0","0","0","80","80","80","Sat Sep 25 16:42:57 2021","600","The main experiment item","yes","FlankerTask.osexp","C:/Users/User/Desktop/School/Research Methods","no","mono","no","18","no","white","no","yes","768","legacy","0","79","C:/Users/User/Desktop/School/Research Methods/LW-subject-2.csv","legacy","Lentiform Loewenfeld","3.3.9","0","s","NA","s","h","NA","s","787","NA","134675","13341","NA","787","2","legacy","1024","2","48000","-16","experiment","HHSHH","2","even","270447","284873","136789","284814","NA","146902","2105","NA","NA","284875","2113","271472","NA","284977","285765","284977","Flanker Task","80","40185","81","yes","1024"
"97.5609756097561","97.5609756097561","494.2560975609756","494.2560975609756","black","legacy","legacy","legacy","0","incongruent","uniform","0","undefined","0","s","81","81","0","0","0","81","0","81","0","81","0","0","0","81","81","81","Sat Sep 25 16:42:57 2021","600","The main experiment item","yes","FlankerTask.osexp","C:/Users/User/Desktop/School/Research Methods","no","mono","no","18","no","white","no","yes","768","legacy","1","79","C:/Users/User/Desktop/School/Research Methods/LW-subject-2.csv","legacy","Lentiform Loewenfeld","3.3.9","0","h","NA","s","h","NA","h","344","NA","134675","13341","NA","344","2","legacy","1024","2","48000","-16","experiment","HHSHH","2","even","286271","287345","136789","284814","NA","146902","2105","285769","NA","287347","2113","271472","NA","287449","287794","287449","Flanker Task","80","40529","82","yes","1024"
"97.59036144578313","97.59036144578313","493.2530120481928","493.2530120481928","black","legacy","legacy","legacy","0","congruent","uniform","1","undefined","1","s","82","82","0","0","0","82","0","82","0","82","0","0","0","82","82","82","Sat Sep 25 16:42:57 2021","600","The main experiment item","yes","FlankerTask.osexp","C:/Users/User/Desktop/School/Research Methods","no","mono","no","18","no","white","no","yes","768","legacy","2","79","C:/Users/User/Desktop/School/Research Methods/LW-subject-2.csv","legacy","Lentiform Loewenfeld","3.3.9","0","s","NA","s","h","NA","s","411","NA","134675","13341","NA","411","2","legacy","1024","2","48000","-16","experiment","SSSSS","2","even","288300","289374","136789","284814","NA","287798","2105","285769","NA","289377","2113","271472","NA","289479","289892","289479","Flanker Task","81","40940","83","yes","1024"
"97.61904761904762","97.61904761904762","492.0357142857143","492.0357142857143","black","legacy","legacy","legacy","0","congruent","uniform","1","undefined","1","h","83","83","0","0","0","83","0","83","0","83","0","0","0","83","83","83","Sat Sep 25 16:42:57 2021","600","The main experiment item","yes","FlankerTask.osexp","C:/Users/User/Desktop/School/Research Methods","no","mono","no","18","no","white","no","yes","768","legacy","3","79","C:/Users/User/Desktop/School/Research Methods/LW-subject-2.csv","legacy","Lentiform Loewenfeld","3.3.9","0","h","NA","s","h","NA","h","391","NA","134675","13341","NA","391","2","legacy","1024","2","48000","-16","experiment","HHHHH","2","even","289896","290970","136789","284814","NA","287798","2105","285769","NA","290973","2113","271472","NA","291075","291467","291075","Flanker Task","82","41331","84","yes","1024"
"97.6470588235294","97.6470588235294","490.3058823529412","490.3058823529412","black","legacy","legacy","legacy","0","congruent","uniform","1","undefined","1","h","84","84","0","0","0","84","0","84","0","84","0","0","0","84","84","84","Sat Sep 25 16:42:57 2021","600","The main experiment item","yes","FlankerTask.osexp","C:/Users/User/Desktop/School/Research Methods","no","mono","no","18","no","white","no","yes","768","legacy","4","79","C:/Users/User/Desktop/School/Research Methods/LW-subject-2.csv","legacy","Lentiform Loewenfeld","3.3.9","0","h","NA","s","h","NA","h","345","NA","134675","13341","NA","345","2","legacy","1024","2","48000","-16","experiment","HHHHH","2","even","291472","292545","136789","284814","NA","287798","2105","285769","NA","292548","2113","271472","NA","292650","292997","292649","Flanker Task","83","41676","85","yes","1024"
"96.51162790697674","96.51162790697674","489.1744186046512","489.1744186046512","black","legacy","legacy","legacy","0","incongruent","uniform","0","undefined","0","h","85","85","0","0","0","85","0","85","0","85","0","0","0","85","85","85","Sat Sep 25 16:42:57 2021","600","The main experiment item","yes","FlankerTask.osexp","C:/Users/User/Desktop/School/Research Methods","no","mono","no","18","no","white","no","yes","768","legacy","5","79","C:/Users/User/Desktop/School/Research Methods/LW-subject-2.csv","legacy","Lentiform Loewenfeld","3.3.9","0","s","NA","s","h","NA","s","393","NA","134675","13341","NA","393","2","legacy","1024","2","48000","-16","experiment","SSHSS","2","even","293001","294075","136789","284814","NA","287798","2105","285769","NA","294078","2113","271472","NA","294180","294574","294180","Flanker Task","83","42069","86","yes","1024"
"96.55172413793103","96.55172413793103","488.2988505747126","488.2988505747126","black","legacy","legacy","legacy","0","congruent","uniform","1","undefined","1","s","86","86","0","0","0","86","0","86","0","86","0","0","0","86","86","86","Sat Sep 25 16:42:57 2021","600","The main experiment item","yes","FlankerTask.osexp","C:/Users/User/Desktop/School/Research Methods","no","mono","no","18","no","white","no","yes","768","legacy","6","79","C:/Users/User/Desktop/School/Research Methods/LW-subject-2.csv","legacy","Lentiform Loewenfeld","3.3.9","0","s","NA","s","h","NA","s","413","NA","134675","13341","NA","413","2","legacy","1024","2","48000","-16","experiment","SSSSS","2","even","295081","296155","136789","284814","NA","294578","2105","285769","NA","296157","2113","271472","NA","296259","296674","296259","Flanker Task","84","42482","87","yes","1024"
"96.5909090909091","96.5909090909091","487.60227272727275","487.60227272727275","black","legacy","legacy","legacy","0","congruent","uniform","1","undefined","1","h","87","87","0","0","0","87","0","87","0","87","0","0","0","87","87","87","Sat Sep 25 16:42:57 2021","600","The main experiment item","yes","FlankerTask.osexp","C:/Users/User/Desktop/School/Research Methods","no","mono","no","18","no","white","no","yes","768","legacy","7","79","C:/Users/User/Desktop/School/Research Methods/LW-subject-2.csv","legacy","Lentiform Loewenfeld","3.3.9","0","h","NA","s","h","NA","h","427","NA","134675","13341","NA","427","2","legacy","1024","2","48000","-16","experiment","HHHHH","2","even","296678","297752","136789","284814","NA","294578","2105","285769","NA","297755","2113","271472","NA","297857","298286","297857","Flanker Task","85","42909","88","yes","1024"
"96.62921348314607","96.62921348314607","487.2247191011236","487.2247191011236","black","legacy","legacy","legacy","0","congruent","uniform","1","undefined","1","s","88","88","0","0","0","88","0","88","0","88","0","0","0","88","88","88","Sat Sep 25 16:42:57 2021","600","The main experiment item","yes","FlankerTask.osexp","C:/Users/User/Desktop/School/Research Methods","no","mono","no","18","no","white","no","yes","768","legacy","8","79","C:/Users/User/Desktop/School/Research Methods/LW-subject-2.csv","legacy","Lentiform Loewenfeld","3.3.9","0","s","NA","s","h","NA","s","454","NA","134675","13341","NA","454","2","legacy","1024","2","48000","-16","experiment","SSSSS","2","even","298290","299364","136789","284814","NA","294578","2105","285769","NA","299366","2113","271472","NA","299468","299923","299467","Flanker Task","86","43363","89","yes","1024"
"96.66666666666667","96.66666666666667","486.3888888888889","486.3888888888889","black","legacy","legacy","legacy","0","incongruent","uniform","1","undefined","1","s","89","89","0","0","0","89","0","89","0","89","0","0","0","89","89","89","Sat Sep 25 16:42:57 2021","600","The main experiment item","yes","FlankerTask.osexp","C:/Users/User/Desktop/School/Research Methods","no","mono","no","18","no","white","no","yes","768","legacy","9","79","C:/Users/User/Desktop/School/Research Methods/LW-subject-2.csv","legacy","Lentiform Loewenfeld","3.3.9","0","s","NA","s","h","NA","s","412","NA","134675","13341","NA","412","2","legacy","1024","2","48000","-16","experiment","HHSHH","2","even","299927","301001","136789","284814","NA","294578","2105","285769","NA","301003","2113","271472","NA","301105","301519","301105","Flanker Task","87","43775","90","yes","1024"
"96.7032967032967","96.7032967032967","485.1978021978022","485.1978021978022","black","legacy","legacy","legacy","0","incongruent","uniform","1","undefined","1","s","90","90","0","0","0","90","0","90","0","90","0","0","0","90","90","90","Sat Sep 25 16:42:57 2021","600","The main experiment item","yes","FlankerTask.osexp","C:/Users/User/Desktop/School/Research Methods","no","mono","no","18","no","white","no","yes","768","legacy","10","79","C:/Users/User/Desktop/School/Research Methods/LW-subject-2.csv","legacy","Lentiform Loewenfeld","3.3.9","0","s","NA","s","h","NA","s","378","NA","134675","13341","NA","378","2","legacy","1024","2","48000","-16","experiment","HHSHH","2","even","301523","302596","136789","284814","NA","294578","2105","285769","NA","302599","2113","271472","NA","302701","303081","302701","Flanker Task","88","44153","91","yes","1024"
"95.65217391304348","95.65217391304348","483.5978260869565","483.5978260869565","black","legacy","legacy","legacy","0","incongruent","uniform","0","undefined","0","h","91","91","0","0","0","91","0","91","0","91","0","0","0","91","91","91","Sat Sep 25 16:42:57 2021","600","The main experiment item","yes","FlankerTask.osexp","C:/Users/User/Desktop/School/Research Methods","no","mono","no","18","no","white","no","yes","768","legacy","11","79","C:/Users/User/Desktop/School/Research Methods/LW-subject-2.csv","legacy","Lentiform Loewenfeld","3.3.9","0","s","NA","s","h","NA","s","338","NA","134675","13341","NA","338","2","legacy","1024","2","48000","-16","experiment","SSHSS","2","even","303085","304159","136789","284814","NA","294578","2105","285769","NA","304161","2113","271472","NA","304263","304603","304263","Flanker Task","88","44491","92","yes","1024"
"95.6989247311828","95.6989247311828","482.61290322580646","482.61290322580646","black","legacy","legacy","legacy","0","incongruent","uniform","1","undefined","1","h","92","92","0","0","0","92","0","92","0","92","0","0","0","92","92","92","Sat Sep 25 16:42:57 2021","600","The main experiment item","yes","FlankerTask.osexp","C:/Users/User/Desktop/School/Research Methods","no","mono","no","18","no","white","no","yes","768","legacy","12","79","C:/Users/User/Desktop/School/Research Methods/LW-subject-2.csv","legacy","Lentiform Loewenfeld","3.3.9","0","h","NA","s","h","NA","h","392","NA","134675","13341","NA","392","2","legacy","1024","2","48000","-16","experiment","SSHSS","2","even","305109","306183","136789","284814","NA","304607","2105","285769","NA","306185","2113","271472","NA","306287","306681","306287","Flanker Task","89","44883","93","yes","1024"
"95.74468085106383","95.74468085106383","482.20212765957444","482.20212765957444","black","legacy","legacy","legacy","0","congruent","uniform","1","undefined","1","s","93","93","0","0","0","93","0","93","0","93","0","0","0","93","93","93","Sat Sep 25 16:42:57 2021","600","The main experiment item","yes","FlankerTask.osexp","C:/Users/User/Desktop/School/Research Methods","no","mono","no","18","no","white","no","yes","768","legacy","13","79","C:/Users/User/Desktop/School/Research Methods/LW-subject-2.csv","legacy","Lentiform Loewenfeld","3.3.9","0","s","NA","s","h","NA","s","444","NA","134675","13341","NA","444","2","legacy","1024","2","48000","-16","experiment","SSSSS","2","even","306685","307760","136789","284814","NA","304607","2105","285769","NA","307763","2113","271472","NA","307865","308311","307865","Flanker Task","90","45327","94","yes","1024"
"95.78947368421052","95.78947368421052","482.7894736842105","482.7894736842105","black","legacy","legacy","legacy","0","congruent","uniform","1","undefined","1","h","94","94","0","0","0","94","0","94","0","94","0","0","0","94","94","94","Sat Sep 25 16:42:57 2021","600","The main experiment item","yes","FlankerTask.osexp","C:/Users/User/Desktop/School/Research Methods","no","mono","no","18","no","white","no","yes","768","legacy","14","79","C:/Users/User/Desktop/School/Research Methods/LW-subject-2.csv","legacy","Lentiform Loewenfeld","3.3.9","0","h","NA","s","h","NA","h","538","NA","134675","13341","NA","538","2","legacy","1024","2","48000","-16","experiment","HHHHH","2","even","308315","309388","136789","284814","NA","304607","2105","285769","NA","309391","2113","271472","NA","309493","310032","309493","Flanker Task","91","45865","95","yes","1024"
"94.79166666666667","94.79166666666667","481.6875","481.6875","black","legacy","legacy","legacy","0","incongruent","uniform","0","undefined","0","s","95","95","0","0","0","95","0","95","0","95","0","0","0","95","95","95","Sat Sep 25 16:42:57 2021","600","The main experiment item","yes","FlankerTask.osexp","C:/Users/User/Desktop/School/Research Methods","no","mono","no","18","no","white","no","yes","768","legacy","15","79","C:/Users/User/Desktop/School/Research Methods/LW-subject-2.csv","legacy","Lentiform Loewenfeld","3.3.9","0","h","NA","s","h","NA","h","377","NA","134675","13341","NA","377","2","legacy","1024","2","48000","-16","experiment","HHSHH","2","even","310036","311110","136789","284814","NA","304607","2105","285769","NA","311112","2113","271472","NA","311214","311593","311214","Flanker Task","91","46242","96","yes","1024"
"94.84536082474227","94.84536082474227","481.5979381443299","481.5979381443299","black","legacy","legacy","legacy","0","congruent","uniform","1","undefined","1","s","96","96","0","0","0","96","0","96","0","96","0","0","0","96","96","96","Sat Sep 25 16:42:57 2021","600","The main experiment item","yes","FlankerTask.osexp","C:/Users/User/Desktop/School/Research Methods","no","mono","no","18","no","white","no","yes","768","legacy","16","79","C:/Users/User/Desktop/School/Research Methods/LW-subject-2.csv","legacy","Lentiform Loewenfeld","3.3.9","0","s","NA","s","h","NA","s","473","NA","134675","13341","NA","473","2","legacy","1024","2","48000","-16","experiment","SSSSS","2","even","312099","313172","136789","284814","NA","311597","2105","285769","NA","313175","2113","271472","NA","313277","313751","313277","Flanker Task","92","46715","97","yes","1024"
"94.89795918367346","94.89795918367346","481.7551020408163","481.7551020408163","black","legacy","legacy","legacy","0","incongruent","uniform","1","undefined","1","h","97","97","0","0","0","97","0","97","0","97","0","0","0","97","97","97","Sat Sep 25 16:42:57 2021","600","The main experiment item","yes","FlankerTask.osexp","C:/Users/User/Desktop/School/Research Methods","no","mono","no","18","no","white","no","yes","768","legacy","17","79","C:/Users/User/Desktop/School/Research Methods/LW-subject-2.csv","legacy","Lentiform Loewenfeld","3.3.9","0","h","NA","s","h","NA","h","497","NA","134675","13341","NA","497","2","legacy","1024","2","48000","-16","experiment","SSHSS","2","even","313755","314828","136789","284814","NA","311597","2105","285769","NA","314830","2113","271472","NA","314933","315432","314932","Flanker Task","93","47212","98","yes","1024"
"94.94949494949495","94.94949494949495","481.4848484848485","481.4848484848485","black","legacy","legacy","legacy","0","incongruent","uniform","1","undefined","1","s","98","98","0","0","0","98","0","98","0","98","0","0","0","98","98","98","Sat Sep 25 16:42:57 2021","600","The main experiment item","yes","FlankerTask.osexp","C:/Users/User/Desktop/School/Research Methods","no","mono","no","18","no","white","no","yes","768","legacy","18","79","C:/Users/User/Desktop/School/Research Methods/LW-subject-2.csv","legacy","Lentiform Loewenfeld","3.3.9","0","s","NA","s","h","NA","s","455","NA","134675","13341","NA","455","2","legacy","1024","2","48000","-16","experiment","HHSHH","2","even","315436","316509","136789","284814","NA","311597","2105","285769","NA","316512","2113","271472","NA","316614","317071","316614","Flanker Task","94","47667","99","yes","1024"
"95","95","480.83","480.83","black","legacy","legacy","legacy","0","congruent","uniform","1","undefined","1","h","99","99","0","0","0","99","0","99","0","99","0","0","0","99","99","99","Sat Sep 25 16:42:57 2021","600","The main experiment item","yes","FlankerTask.osexp","C:/Users/User/Desktop/School/Research Methods","no","mono","no","18","no","white","no","yes","768","legacy","19","79","C:/Users/User/Desktop/School/Research Methods/LW-subject-2.csv","legacy","Lentiform Loewenfeld","3.3.9","0","h","NA","s","h","NA","h","416","NA","134675","13341","NA","416","2","legacy","1024","2","48000","-16","experiment","HHHHH","2","even","317074","318149","136789","284814","NA","311597","2105","285769","NA","318151","2113","271472","NA","318253","318670","318253","Flanker Task","95","48083","100","yes","1024"
"95.04950495049505","95.04950495049505","479.5247524752475","479.5247524752475","black","legacy","legacy","legacy","0","congruent","uniform","1","undefined","1","h","100","100","0","0","0","100","0","100","0","100","0","0","0","100","100","100","Sat Sep 25 16:42:57 2021","600","The main experiment item","yes","FlankerTask.osexp","C:/Users/User/Desktop/School/Research Methods","no","mono","no","18","no","white","no","yes","768","legacy","20","79","C:/Users/User/Desktop/School/Research Methods/LW-subject-2.csv","legacy","Lentiform Loewenfeld","3.3.9","0","h","NA","s","h","NA","h","349","NA","134675","13341","NA","349","2","legacy","1024","2","48000","-16","experiment","HHHHH","2","even","318674","319748","136789","284814","NA","311597","2105","285769","NA","319751","2113","271472","NA","319853","320204","319853","Flanker Task","96","48432","101","yes","1024"
"95.09803921568627","95.09803921568627","478.5882352941176","478.5882352941176","black","legacy","legacy","legacy","0","congruent","uniform","1","undefined","1","h","101","101","0","0","0","101","0","101","0","101","0","0","0","101","101","101","Sat Sep 25 16:42:57 2021","600","The main experiment item","yes","FlankerTask.osexp","C:/Users/User/Desktop/School/Research Methods","no","mono","no","18","no","white","no","yes","768","legacy","21","79","C:/Users/User/Desktop/School/Research Methods/LW-subject-2.csv","legacy","Lentiform Loewenfeld","3.3.9","0","h","NA","s","h","NA","h","384","NA","134675","13341","NA","384","2","legacy","1024","2","48000","-16","experiment","HHHHH","2","even","320208","321282","136789","284814","NA","311597","2105","285769","NA","321284","2113","271472","NA","321386","321772","321386","Flanker Task","97","48816","102","yes","1024"
"95.14563106796116","95.14563106796116","477.22330097087377","477.22330097087377","black","legacy","legacy","legacy","0","congruent","uniform","1","undefined","1","s","102","102","0","0","0","102","0","102","0","102","0","0","0","102","102","102","Sat Sep 25 16:42:57 2021","600","The main experiment item","yes","FlankerTask.osexp","C:/Users/User/Desktop/School/Research Methods","no","mono","no","18","no","white","no","yes","768","legacy","22","79","C:/Users/User/Desktop/School/Research Methods/LW-subject-2.csv","legacy","Lentiform Loewenfeld","3.3.9","0","s","NA","s","h","NA","s","338","NA","134675","13341","NA","338","2","legacy","1024","2","48000","-16","experiment","SSSSS","2","even","321776","322850","136789","284814","NA","311597","2105","285769","NA","322852","2113","271472","NA","322954","323294","322954","Flanker Task","98","49154","103","yes","1024"
"95.1923076923077","95.1923076923077","476.75961538461536","476.75961538461536","black","legacy","legacy","legacy","0","incongruent","uniform","1","undefined","1","s","103","103","0","0","0","103","0","103","0","103","0","0","0","103","103","103","Sat Sep 25 16:42:57 2021","600","The main experiment item","yes","FlankerTask.osexp","C:/Users/User/Desktop/School/Research Methods","no","mono","no","18","no","white","no","yes","768","legacy","23","79","C:/Users/User/Desktop/School/Research Methods/LW-subject-2.csv","legacy","Lentiform Loewenfeld","3.3.9","0","s","NA","s","h","NA","s","429","NA","134675","13341","NA","429","2","legacy","1024","2","48000","-16","experiment","HHSHH","2","even","323298","324372","136789","284814","NA","311597","2105","285769","NA","324374","2113","271472","NA","324476","324907","324476","Flanker Task","99","49583","104","yes","1024"
"95.23809523809524","95.23809523809524","476.04761904761904","476.04761904761904","black","legacy","legacy","legacy","0","congruent","uniform","1","undefined","1","s","104","104","0","0","0","104","0","104","0","104","0","0","0","104","104","104","Sat Sep 25 16:42:57 2021","600","The main experiment item","yes","FlankerTask.osexp","C:/Users/User/Desktop/School/Research Methods","no","mono","no","18","no","white","no","yes","768","legacy","24","79","C:/Users/User/Desktop/School/Research Methods/LW-subject-2.csv","legacy","Lentiform Loewenfeld","3.3.9","0","s","NA","s","h","NA","s","402","NA","134675","13341","NA","402","2","legacy","1024","2","48000","-16","experiment","SSSSS","2","even","324911","325985","136789","284814","NA","311597","2105","285769","NA","325987","2113","271472","NA","326089","326493","326089","Flanker Task","100","49985","105","yes","1024"
"95.28301886792453","95.28301886792453","475.8867924528302","475.8867924528302","black","legacy","legacy","legacy","0","congruent","uniform","1","undefined","1","s","105","105","0","0","0","105","0","105","0","105","0","0","0","105","105","105","Sat Sep 25 16:42:57 2021","600","The main experiment item","yes","FlankerTask.osexp","C:/Users/User/Desktop/School/Research Methods","no","mono","no","18","no","white","no","yes","768","legacy","25","79","C:/Users/User/Desktop/School/Research Methods/LW-subject-2.csv","legacy","Lentiform Loewenfeld","3.3.9","0","s","NA","s","h","NA","s","459","NA","134675","13341","NA","459","2","legacy","1024","2","48000","-16","experiment","SSSSS","2","even","326497","327571","136789","284814","NA","311597","2105","285769","NA","327573","2113","271472","NA","327675","328136","327675","Flanker Task","101","50444","106","yes","1024"
"95.32710280373831","95.32710280373831","475.9065420560748","475.9065420560748","black","legacy","legacy","legacy","0","incongruent","uniform","1","undefined","1","s","106","106","0","0","0","106","0","106","0","106","0","0","0","106","106","106","Sat Sep 25 16:42:57 2021","600","The main experiment item","yes","FlankerTask.osexp","C:/Users/User/Desktop/School/Research Methods","no","mono","no","18","no","white","no","yes","768","legacy","26","79","C:/Users/User/Desktop/School/Research Methods/LW-subject-2.csv","legacy","Lentiform Loewenfeld","3.3.9","0","s","NA","s","h","NA","s","478","NA","134675","13341","NA","478","2","legacy","1024","2","48000","-16","experiment","HHSHH","2","even","328140","329214","136789","284814","NA","311597","2105","285769","NA","329216","2113","271472","NA","329318","329798","329318","Flanker Task","102","50922","107","yes","1024"
"95.37037037037037","95.37037037037037","475.97222222222223","475.97222222222223","black","legacy","legacy","legacy","0","incongruent","uniform","1","undefined","1","s","107","107","0","0","0","107","0","107","0","107","0","0","0","107","107","107","Sat Sep 25 16:42:57 2021","600","The main experiment item","yes","FlankerTask.osexp","C:/Users/User/Desktop/School/Research Methods","no","mono","no","18","no","white","no","yes","768","legacy","27","79","C:/Users/User/Desktop/School/Research Methods/LW-subject-2.csv","legacy","Lentiform Loewenfeld","3.3.9","0","s","NA","s","h","NA","s","483","NA","134675","13341","NA","483","2","legacy","1024","2","48000","-16","experiment","HHSHH","2","even","329802","330876","136789","284814","NA","311597","2105","285769","NA","330878","2113","271472","NA","330980","331464","330980","Flanker Task","103","51405","108","yes","1024"
"95.41284403669725","95.41284403669725","475.74311926605503","475.74311926605503","black","legacy","legacy","legacy","0","incongruent","uniform","1","undefined","1","h","108","108","0","0","0","108","0","108","0","108","0","0","0","108","108","108","Sat Sep 25 16:42:57 2021","600","The main experiment item","yes","FlankerTask.osexp","C:/Users/User/Desktop/School/Research Methods","no","mono","no","18","no","white","no","yes","768","legacy","28","79","C:/Users/User/Desktop/School/Research Methods/LW-subject-2.csv","legacy","Lentiform Loewenfeld","3.3.9","0","h","NA","s","h","NA","h","451","NA","134675","13341","NA","451","2","legacy","1024","2","48000","-16","experiment","SSHSS","2","even","331468","332543","136789","284814","NA","311597","2105","285769","NA","332545","2113","271472","NA","332647","333100","332646","Flanker Task","104","51856","109","yes","1024"
"95.45454545454545","95.45454545454545","475.2818181818182","475.2818181818182","black","legacy","legacy","legacy","0","incongruent","uniform","1","undefined","1","h","109","109","0","0","0","109","0","109","0","109","0","0","0","109","109","109","Sat Sep 25 16:42:57 2021","600","The main experiment item","yes","FlankerTask.osexp","C:/Users/User/Desktop/School/Research Methods","no","mono","no","18","no","white","no","yes","768","legacy","29","79","C:/Users/User/Desktop/School/Research Methods/LW-subject-2.csv","legacy","Lentiform Loewenfeld","3.3.9","0","h","NA","s","h","NA","h","425","NA","134675","13341","NA","425","2","legacy","1024","2","48000","-16","experiment","SSHSS","2","even","333104","334177","136789","284814","NA","311597","2105","285769","NA","334180","2113","271472","NA","334282","334709","334282","Flanker Task","105","52281","110","yes","1024"
"95.49549549549549","95.49549549549549","474.7927927927928","474.7927927927928","black","legacy","legacy","legacy","0","congruent","uniform","1","undefined","1","h","110","110","0","0","0","110","0","110","0","110","0","0","0","110","110","110","Sat Sep 25 16:42:57 2021","600","The main experiment item","yes","FlankerTask.osexp","C:/Users/User/Desktop/School/Research Methods","no","mono","no","18","no","white","no","yes","768","legacy","30","79","C:/Users/User/Desktop/School/Research Methods/LW-subject-2.csv","legacy","Lentiform Loewenfeld","3.3.9","0","h","NA","s","h","NA","h","421","NA","134675","13341","NA","421","2","legacy","1024","2","48000","-16","experiment","HHHHH","2","even","334720","335794","136789","284814","NA","311597","2105","285769","NA","335796","2113","271472","NA","335898","336321","335898","Flanker Task","106","52702","111","yes","1024"
"95.53571428571429","95.53571428571429","473.9107142857143","473.9107142857143","black","legacy","legacy","legacy","0","congruent","uniform","1","undefined","1","s","111","111","0","0","0","111","0","111","0","111","0","0","0","111","111","111","Sat Sep 25 16:42:57 2021","600","The main experiment item","yes","FlankerTask.osexp","C:/Users/User/Desktop/School/Research Methods","no","mono","no","18","no","white","no","yes","768","legacy","31","79","C:/Users/User/Desktop/School/Research Methods/LW-subject-2.csv","legacy","Lentiform Loewenfeld","3.3.9","0","s","NA","s","h","NA","s","376","NA","134675","13341","NA","376","2","legacy","1024","2","48000","-16","experiment","SSSSS","2","even","336325","337398","136789","284814","NA","311597","2105","285769","NA","337401","2113","271472","NA","337503","337881","337503","Flanker Task","107","53078","112","yes","1024"
"95.57522123893806","95.57522123893806","473.3274336283186","473.3274336283186","black","legacy","legacy","legacy","0","incongruent","uniform","1","undefined","1","h","112","112","0","0","0","112","0","112","0","112","0","0","0","112","112","112","Sat Sep 25 16:42:57 2021","600","The main experiment item","yes","FlankerTask.osexp","C:/Users/User/Desktop/School/Research Methods","no","mono","no","18","no","white","no","yes","768","legacy","32","79","C:/Users/User/Desktop/School/Research Methods/LW-subject-2.csv","legacy","Lentiform Loewenfeld","3.3.9","0","h","NA","s","h","NA","h","408","NA","134675","13341","NA","408","2","legacy","1024","2","48000","-16","experiment","SSHSS","2","even","337885","338959","136789","284814","NA","311597","2105","285769","NA","338962","2113","271472","NA","339064","339474","339064","Flanker Task","108","53486","113","yes","1024"
"95.6140350877193","95.6140350877193","472.87719298245617","472.87719298245617","black","legacy","legacy","legacy","0","congruent","uniform","1","undefined","1","s","113","113","0","0","0","113","0","113","0","113","0","0","0","113","113","113","Sat Sep 25 16:42:57 2021","600","The main experiment item","yes","FlankerTask.osexp","C:/Users/User/Desktop/School/Research Methods","no","mono","no","18","no","white","no","yes","768","legacy","33","79","C:/Users/User/Desktop/School/Research Methods/LW-subject-2.csv","legacy","Lentiform Loewenfeld","3.3.9","0","s","NA","s","h","NA","s","422","NA","134675","13341","NA","422","2","legacy","1024","2","48000","-16","experiment","SSSSS","2","even","339478","340552","136789","284814","NA","311597","2105","285769","NA","340555","2113","271472","NA","340657","341081","340657","Flanker Task","109","53908","114","yes","1024"
"95.65217391304348","95.65217391304348","471.89565217391305","471.89565217391305","black","legacy","legacy","legacy","0","incongruent","uniform","1","undefined","1","h","114","114","0","0","0","114","0","114","0","114","0","0","0","114","114","114","Sat Sep 25 16:42:57 2021","600","The main experiment item","yes","FlankerTask.osexp","C:/Users/User/Desktop/School/Research Methods","no","mono","no","18","no","white","no","yes","768","legacy","34","79","C:/Users/User/Desktop/School/Research Methods/LW-subject-2.csv","legacy","Lentiform Loewenfeld","3.3.9","0","h","NA","s","h","NA","h","360","NA","134675","13341","NA","360","2","legacy","1024","2","48000","-16","experiment","SSHSS","2","even","341085","342158","136789","284814","NA","311597","2105","285769","NA","342161","2113","271472","NA","342263","342625","342263","Flanker Task","110","54268","115","yes","1024"
"95.6896551724138","95.6896551724138","471.25","471.25","black","legacy","legacy","legacy","0","incongruent","uniform","1","undefined","1","h","115","115","0","0","0","115","0","115","0","115","0","0","0","115","115","115","Sat Sep 25 16:42:57 2021","600","The main experiment item","yes","FlankerTask.osexp","C:/Users/User/Desktop/School/Research Methods","no","mono","no","18","no","white","no","yes","768","legacy","35","79","C:/Users/User/Desktop/School/Research Methods/LW-subject-2.csv","legacy","Lentiform Loewenfeld","3.3.9","0","h","NA","s","h","NA","h","397","NA","134675","13341","NA","397","2","legacy","1024","2","48000","-16","experiment","SSHSS","2","even","342629","343702","136789","284814","NA","311597","2105","285769","NA","343705","2113","271472","NA","343807","344206","343807","Flanker Task","111","54665","116","yes","1024"
