condition,deadline,Stimulus,acc,accuracy,average_response_time,avg_rt,background,canvas_backend,clock_backend,color_backend,compensation,coordinates,correct,correct_Instructions1,correct_keyboard_response,correct_response,count_Block1,count_Block2,count_Block3,count_Finish,count_Fixation,count_ISI,count_Instructions1,count_Instructions2,count_Instructions3,count_Sequence,count_Stimulus,count_errorFeedback,count_experiment,count_faster,count_keyboard_response,count_logger,datetime,description,disable_garbage_collection,experiment_file,experiment_path,font_bold,font_family,font_italic,font_size,font_underline,foreground,form_clicks,fullscreen,height,keyboard_backend,live_row,live_row_Block1,logfile,mouse_backend,opensesame_codename,opensesame_version,repeat_cycle,response,response_Finish,response_Instructions1,response_Instructions2,response_Instructions3,response_keyboard_response,response_time,response_time_Finish,response_time_Instructions1,response_time_Instructions2,response_time_Instructions3,response_time_keyboard_response,round_decimals,sampler_backend,sound_buf_size,sound_channels,sound_freq,sound_sample_size,start,subject_nr,subject_parity,time_Block1,time_Block2,time_Block3,time_Finish,time_Fixation,time_ISI,time_Instructions1,time_Instructions2,time_Instructions3,time_Sequence,time_Stimulus,time_errorFeedback,time_experiment,time_faster,time_keyboard_response,time_logger,title,total_correct,total_response_time,total_responses,uniform_coordinates,width
Congruent,1500,HHHHH,0,0,1500,1500,black,legacy,legacy,legacy,0,uniform,0,undefined,0,h,0,0,0,0,0,0,0,0,0,0,0,0,0,0,0,0,Sun Sep 26 18:30:25 2021,The main experiment item,yes,FlankerTask.osexp,/Users/samonemarks/Downloads,no,mono,no,18,no,white,no,yes,768,legacy,0,0,/Users/samonemarks/Downloads/AB-subject-2.csv,legacy,Lentiform Loewenfeld,3.3.9,0,None,NA,s,NA,NA,None,1500,NA,37735,NA,NA,1500,2,legacy,1024,2,48000,-16,experiment,2,even,42007,NA,NA,NA,42067,NA,4261,NA,NA,42063,42170,NA,4225,NA,42170,43670,Flanker Task,0,1500,1,yes,1024
Incongruent,1500,SSHSS,50,50,1284.5,1284.5,black,legacy,legacy,legacy,0,uniform,1,undefined,1,h,0,0,0,0,1,1,0,0,0,1,1,1,0,1,1,1,Sun Sep 26 18:30:25 2021,The main experiment item,yes,FlankerTask.osexp,/Users/samonemarks/Downloads,no,mono,no,18,no,white,no,yes,768,legacy,1,1,/Users/samonemarks/Downloads/AB-subject-2.csv,legacy,Lentiform Loewenfeld,3.3.9,0,h,NA,s,NA,NA,h,1069,NA,37735,NA,NA,1069,2,legacy,1024,2,48000,-16,experiment,2,even,42007,NA,NA,NA,45252,44182,4261,NA,NA,45249,45354,43678,4225,NA,45354,46426,Flanker Task,1,2569,2,yes,1024
Incongruent,1500,SSHSS,66.66666667,66.66666667,1107.333333,1107.333333,black,legacy,legacy,legacy,0,uniform,1,undefined,1,h,0,0,0,0,2,2,0,0,0,2,2,2,0,2,2,2,Sun Sep 26 18:30:25 2021,The main experiment item,yes,FlankerTask.osexp,/Users/samonemarks/Downloads,no,mono,no,18,no,white,no,yes,768,legacy,2,2,/Users/samonemarks/Downloads/AB-subject-2.csv,legacy,Lentiform Loewenfeld,3.3.9,0,h,NA,s,NA,NA,h,753,NA,37735,NA,NA,753,2,legacy,1024,2,48000,-16,experiment,2,even,42007,NA,NA,NA,47493,46430,4261,NA,NA,47491,47596,43678,4225,NA,47596,48349,Flanker Task,2,3322,3,yes,1024
Incongruent,1500,HHSHH,75,75,1062.75,1062.75,black,legacy,legacy,legacy,0,uniform,1,undefined,1,s,0,0,0,0,3,3,0,0,0,3,3,3,0,3,3,3,Sun Sep 26 18:30:25 2021,The main experiment item,yes,FlankerTask.osexp,/Users/samonemarks/Downloads,no,mono,no,18,no,white,no,yes,768,legacy,3,3,/Users/samonemarks/Downloads/AB-subject-2.csv,legacy,Lentiform Loewenfeld,3.3.9,0,s,NA,s,NA,NA,s,929,NA,37735,NA,NA,929,2,legacy,1024,2,48000,-16,experiment,2,even,42007,NA,NA,NA,49419,48355,4261,NA,NA,49415,49521,43678,4225,NA,49522,50451,Flanker Task,3,4251,4,yes,1024
Congruent,1500,HHHHH,80,80,971.8,971.8,black,legacy,legacy,legacy,0,uniform,1,undefined,1,h,0,0,0,0,4,4,0,0,0,4,4,4,0,4,4,4,Sun Sep 26 18:30:25 2021,The main experiment item,yes,FlankerTask.osexp,/Users/samonemarks/Downloads,no,mono,no,18,no,white,no,yes,768,legacy,4,4,/Users/samonemarks/Downloads/AB-subject-2.csv,legacy,Lentiform Loewenfeld,3.3.9,0,h,NA,s,NA,NA,h,608,NA,37735,NA,NA,608,2,legacy,1024,2,48000,-16,experiment,2,even,42007,NA,NA,NA,51519,50456,4261,NA,NA,51516,51622,43678,4225,NA,51622,52230,Flanker Task,4,4859,5,yes,1024
Incongruent,1500,HHSHH,83.33333333,83.33333333,929.8333333,929.8333333,black,legacy,legacy,legacy,0,uniform,1,undefined,1,s,0,0,0,0,5,5,0,0,0,5,5,5,0,5,5,5,Sun Sep 26 18:30:25 2021,The main experiment item,yes,FlankerTask.osexp,/Users/samonemarks/Downloads,no,mono,no,18,no,white,no,yes,768,legacy,5,5,/Users/samonemarks/Downloads/AB-subject-2.csv,legacy,Lentiform Loewenfeld,3.3.9,0,s,NA,s,NA,NA,s,720,NA,37735,NA,NA,720,2,legacy,1024,2,48000,-16,experiment,2,even,42007,NA,NA,NA,53298,52235,4261,NA,NA,53296,53401,43678,4225,NA,53401,54121,Flanker Task,5,5579,6,yes,1024
Congruent,1500,SSSSS,71.42857143,71.42857143,870.5714286,870.5714286,black,legacy,legacy,legacy,0,uniform,0,undefined,0,s,0,0,0,0,6,6,0,0,0,6,6,6,0,6,6,6,Sun Sep 26 18:30:25 2021,The main experiment item,yes,FlankerTask.osexp,/Users/samonemarks/Downloads,no,mono,no,18,no,white,no,yes,768,legacy,6,6,/Users/samonemarks/Downloads/AB-subject-2.csv,legacy,Lentiform Loewenfeld,3.3.9,0,h,NA,s,NA,NA,h,515,NA,37735,NA,NA,515,2,legacy,1024,2,48000,-16,experiment,2,even,42007,NA,NA,NA,55190,54126,4261,NA,NA,55186,55293,43678,4225,NA,55293,55809,Flanker Task,5,6094,7,yes,1024
Congruent,1500,HHHHH,75,75,905.875,905.875,black,legacy,legacy,legacy,0,uniform,1,undefined,1,h,0,0,0,0,7,7,0,0,0,7,7,7,0,7,7,7,Sun Sep 26 18:30:25 2021,The main experiment item,yes,FlankerTask.osexp,/Users/samonemarks/Downloads,no,mono,no,18,no,white,no,yes,768,legacy,7,7,/Users/samonemarks/Downloads/AB-subject-2.csv,legacy,Lentiform Loewenfeld,3.3.9,0,h,NA,s,NA,NA,h,1153,NA,37735,NA,NA,1153,2,legacy,1024,2,48000,-16,experiment,2,even,42007,NA,NA,NA,57380,56317,4261,NA,NA,57377,57482,55813,4225,NA,57482,58635,Flanker Task,6,7247,8,yes,1024
Congruent,1500,HHHHH,77.77777778,77.77777778,874.6666667,874.6666667,black,legacy,legacy,legacy,0,uniform,1,undefined,1,h,0,0,0,0,8,8,0,0,0,8,8,8,0,8,8,8,Sun Sep 26 18:30:25 2021,The main experiment item,yes,FlankerTask.osexp,/Users/samonemarks/Downloads,no,mono,no,18,no,white,no,yes,768,legacy,8,8,/Users/samonemarks/Downloads/AB-subject-2.csv,legacy,Lentiform Loewenfeld,3.3.9,0,h,NA,s,NA,NA,h,625,NA,37735,NA,NA,625,2,legacy,1024,2,48000,-16,experiment,2,even,42007,NA,NA,NA,59706,58642,4261,NA,NA,59702,59808,55813,4225,NA,59809,60434,Flanker Task,7,7872,9,yes,1024
Incongruent,1500,HHSHH,80,80,845.4,845.4,black,legacy,legacy,legacy,0,uniform,1,undefined,1,s,0,0,0,0,9,9,0,0,0,9,9,9,0,9,9,9,Sun Sep 26 18:30:25 2021,The main experiment item,yes,FlankerTask.osexp,/Users/samonemarks/Downloads,no,mono,no,18,no,white,no,yes,768,legacy,9,9,/Users/samonemarks/Downloads/AB-subject-2.csv,legacy,Lentiform Loewenfeld,3.3.9,0,s,NA,s,NA,NA,s,582,NA,37735,NA,NA,582,2,legacy,1024,2,48000,-16,experiment,2,even,42007,NA,NA,NA,61502,60439,4261,NA,NA,61499,61604,55813,4225,NA,61604,62187,Flanker Task,8,8454,10,yes,1024
Incongruent,1500,SSHSS,81.81818182,81.81818182,841.8181818,841.8181818,black,legacy,legacy,legacy,0,uniform,1,undefined,1,h,0,0,0,0,10,10,0,0,0,10,10,10,0,10,10,10,Sun Sep 26 18:30:25 2021,The main experiment item,yes,FlankerTask.osexp,/Users/samonemarks/Downloads,no,mono,no,18,no,white,no,yes,768,legacy,10,10,/Users/samonemarks/Downloads/AB-subject-2.csv,legacy,Lentiform Loewenfeld,3.3.9,0,h,NA,s,NA,NA,h,806,NA,37735,NA,NA,806,2,legacy,1024,2,48000,-16,experiment,2,even,42007,NA,NA,NA,63254,62192,4261,NA,NA,63252,63356,55813,4225,NA,63356,64163,Flanker Task,9,9260,11,yes,1024
Congruent,1500,HHHHH,83.33333333,83.33333333,815.5,815.5,black,legacy,legacy,legacy,0,uniform,1,undefined,1,h,0,0,0,0,11,11,0,0,0,11,11,11,0,11,11,11,Sun Sep 26 18:30:25 2021,The main experiment item,yes,FlankerTask.osexp,/Users/samonemarks/Downloads,no,mono,no,18,no,white,no,yes,768,legacy,11,11,/Users/samonemarks/Downloads/AB-subject-2.csv,legacy,Lentiform Loewenfeld,3.3.9,0,h,NA,s,NA,NA,h,526,NA,37735,NA,NA,526,2,legacy,1024,2,48000,-16,experiment,2,even,42007,NA,NA,NA,65231,64168,4261,NA,NA,65229,65333,55813,4225,NA,65333,65860,Flanker Task,10,9786,12,yes,1024
Congruent,1500,HHHHH,84.61538462,84.61538462,785.6923077,785.6923077,black,legacy,legacy,legacy,0,uniform,1,undefined,1,h,0,0,0,0,12,12,0,0,0,12,12,12,0,12,12,12,Sun Sep 26 18:30:25 2021,The main experiment item,yes,FlankerTask.osexp,/Users/samonemarks/Downloads,no,mono,no,18,no,white,no,yes,768,legacy,12,12,/Users/samonemarks/Downloads/AB-subject-2.csv,legacy,Lentiform Loewenfeld,3.3.9,0,h,NA,s,NA,NA,h,428,NA,37735,NA,NA,428,2,legacy,1024,2,48000,-16,experiment,2,even,42007,NA,NA,NA,66929,65865,4261,NA,NA,66926,67031,55813,4225,NA,67032,67461,Flanker Task,11,10214,13,yes,1024
Incongruent,1500,SSHSS,85.71428571,85.71428571,792.5,792.5,black,legacy,legacy,legacy,0,uniform,1,undefined,1,h,0,0,0,0,13,13,0,0,0,13,13,13,0,13,13,13,Sun Sep 26 18:30:25 2021,The main experiment item,yes,FlankerTask.osexp,/Users/samonemarks/Downloads,no,mono,no,18,no,white,no,yes,768,legacy,13,13,/Users/samonemarks/Downloads/AB-subject-2.csv,legacy,Lentiform Loewenfeld,3.3.9,0,h,NA,s,NA,NA,h,881,NA,37735,NA,NA,881,2,legacy,1024,2,48000,-16,experiment,2,even,42007,NA,NA,NA,68528,67465,4261,NA,NA,68525,68630,55813,4225,NA,68630,69512,Flanker Task,12,11095,14,yes,1024
Congruent,1500,SSSSS,86.66666667,86.66666667,776.6,776.6,black,legacy,legacy,legacy,0,uniform,1,undefined,1,s,0,0,0,0,14,14,0,0,0,14,14,14,0,14,14,14,Sun Sep 26 18:30:25 2021,The main experiment item,yes,FlankerTask.osexp,/Users/samonemarks/Downloads,no,mono,no,18,no,white,no,yes,768,legacy,14,14,/Users/samonemarks/Downloads/AB-subject-2.csv,legacy,Lentiform Loewenfeld,3.3.9,0,s,NA,s,NA,NA,s,554,NA,37735,NA,NA,554,2,legacy,1024,2,48000,-16,experiment,2,even,42007,NA,NA,NA,70580,69517,4261,NA,NA,70578,70682,55813,4225,NA,70682,71237,Flanker Task,13,11649,15,yes,1024
Congruent,1500,SSSSS,87.5,87.5,760.75,760.75,black,legacy,legacy,legacy,0,uniform,1,undefined,1,s,0,0,0,0,15,15,0,0,0,15,15,15,0,15,15,15,Sun Sep 26 18:30:25 2021,The main experiment item,yes,FlankerTask.osexp,/Users/samonemarks/Downloads,no,mono,no,18,no,white,no,yes,768,legacy,15,15,/Users/samonemarks/Downloads/AB-subject-2.csv,legacy,Lentiform Loewenfeld,3.3.9,0,s,NA,s,NA,NA,s,523,NA,37735,NA,NA,523,2,legacy,1024,2,48000,-16,experiment,2,even,42007,NA,NA,NA,72304,71241,4261,NA,NA,72302,72406,55813,4225,NA,72406,72930,Flanker Task,14,12172,16,yes,1024
Incongruent,1500,HHSHH,88.23529412,88.23529412,746.8235294,746.8235294,black,legacy,legacy,legacy,0,uniform,1,undefined,1,s,0,0,0,0,16,16,0,0,0,16,16,16,0,16,16,16,Sun Sep 26 18:30:25 2021,The main experiment item,yes,FlankerTask.osexp,/Users/samonemarks/Downloads,no,mono,no,18,no,white,no,yes,768,legacy,16,16,/Users/samonemarks/Downloads/AB-subject-2.csv,legacy,Lentiform Loewenfeld,3.3.9,0,s,NA,s,NA,NA,s,524,NA,37735,NA,NA,524,2,legacy,1024,2,48000,-16,experiment,2,even,42007,NA,NA,NA,73998,72935,4261,NA,NA,73996,74101,55813,4225,NA,74101,74625,Flanker Task,15,12696,17,yes,1024
Incongruent,1500,SSHSS,88.88888889,88.88888889,742,742,black,legacy,legacy,legacy,0,uniform,1,undefined,1,h,0,0,0,0,17,17,0,0,0,17,17,17,0,17,17,17,Sun Sep 26 18:30:25 2021,The main experiment item,yes,FlankerTask.osexp,/Users/samonemarks/Downloads,no,mono,no,18,no,white,no,yes,768,legacy,17,17,/Users/samonemarks/Downloads/AB-subject-2.csv,legacy,Lentiform Loewenfeld,3.3.9,0,h,NA,s,NA,NA,h,660,NA,37735,NA,NA,660,2,legacy,1024,2,48000,-16,experiment,2,even,42007,NA,NA,NA,75692,74631,4261,NA,NA,75690,75794,55813,4225,NA,75794,76455,Flanker Task,16,13356,18,yes,1024
Incongruent,1500,HHSHH,89.47368421,89.47368421,734.1052632,734.1052632,black,legacy,legacy,legacy,0,uniform,1,undefined,1,s,0,0,0,0,18,18,0,0,0,18,18,18,0,18,18,18,Sun Sep 26 18:30:25 2021,The main experiment item,yes,FlankerTask.osexp,/Users/samonemarks/Downloads,no,mono,no,18,no,white,no,yes,768,legacy,18,18,/Users/samonemarks/Downloads/AB-subject-2.csv,legacy,Lentiform Loewenfeld,3.3.9,0,s,NA,s,NA,NA,s,592,NA,37735,NA,NA,592,2,legacy,1024,2,48000,-16,experiment,2,even,42007,NA,NA,NA,77524,76460,4261,NA,NA,77521,77626,55813,4225,NA,77626,78218,Flanker Task,17,13948,19,yes,1024
Incongruent,1500,HHSHH,90,90,721.8,721.8,black,legacy,legacy,legacy,0,uniform,1,undefined,1,s,0,0,0,0,19,19,0,0,0,19,19,19,0,19,19,19,Sun Sep 26 18:30:25 2021,The main experiment item,yes,FlankerTask.osexp,/Users/samonemarks/Downloads,no,mono,no,18,no,white,no,yes,768,legacy,19,19,/Users/samonemarks/Downloads/AB-subject-2.csv,legacy,Lentiform Loewenfeld,3.3.9,0,s,NA,s,NA,NA,s,488,NA,37735,NA,NA,488,2,legacy,1024,2,48000,-16,experiment,2,even,42007,NA,NA,NA,79284,78223,4261,NA,NA,79282,79386,55813,4225,NA,79387,79875,Flanker Task,18,14436,20,yes,1024
Congruent,1500,SSSSS,90.47619048,90.47619048,709,709,black,legacy,legacy,legacy,0,uniform,1,undefined,1,s,0,0,0,0,20,20,0,0,0,20,20,20,0,20,20,20,Sun Sep 26 18:30:25 2021,The main experiment item,yes,FlankerTask.osexp,/Users/samonemarks/Downloads,no,mono,no,18,no,white,no,yes,768,legacy,20,20,/Users/samonemarks/Downloads/AB-subject-2.csv,legacy,Lentiform Loewenfeld,3.3.9,0,s,NA,s,NA,NA,s,453,NA,37735,NA,NA,453,2,legacy,1024,2,48000,-16,experiment,2,even,42007,NA,NA,NA,80943,79880,4261,NA,NA,80940,81045,55813,4225,NA,81045,81498,Flanker Task,19,14889,21,yes,1024
Incongruent,1500,SSHSS,90.90909091,90.90909091,701.8636364,701.8636364,black,legacy,legacy,legacy,0,uniform,1,undefined,1,h,0,0,0,0,21,21,0,0,0,21,21,21,0,21,21,21,Sun Sep 26 18:30:25 2021,The main experiment item,yes,FlankerTask.osexp,/Users/samonemarks/Downloads,no,mono,no,18,no,white,no,yes,768,legacy,21,21,/Users/samonemarks/Downloads/AB-subject-2.csv,legacy,Lentiform Loewenfeld,3.3.9,0,h,NA,s,NA,NA,h,552,NA,37735,NA,NA,552,2,legacy,1024,2,48000,-16,experiment,2,even,42007,NA,NA,NA,82564,81502,4261,NA,NA,82562,82666,55813,4225,NA,82667,83219,Flanker Task,20,15441,22,yes,1024
Congruent,1500,HHHHH,91.30434783,91.30434783,694.9130435,694.9130435,black,legacy,legacy,legacy,0,uniform,1,undefined,1,h,0,0,0,0,22,22,0,0,0,22,22,22,0,22,22,22,Sun Sep 26 18:30:25 2021,The main experiment item,yes,FlankerTask.osexp,/Users/samonemarks/Downloads,no,mono,no,18,no,white,no,yes,768,legacy,22,22,/Users/samonemarks/Downloads/AB-subject-2.csv,legacy,Lentiform Loewenfeld,3.3.9,0,h,NA,s,NA,NA,h,542,NA,37735,NA,NA,542,2,legacy,1024,2,48000,-16,experiment,2,even,42007,NA,NA,NA,84287,83224,4261,NA,NA,84284,84390,55813,4225,NA,84390,84932,Flanker Task,21,15983,23,yes,1024
Incongruent,1500,HHSHH,91.66666667,91.66666667,686.9166667,686.9166667,black,legacy,legacy,legacy,0,uniform,1,undefined,1,s,0,0,0,0,23,23,0,0,0,23,23,23,0,23,23,23,Sun Sep 26 18:30:25 2021,The main experiment item,yes,FlankerTask.osexp,/Users/samonemarks/Downloads,no,mono,no,18,no,white,no,yes,768,legacy,23,23,/Users/samonemarks/Downloads/AB-subject-2.csv,legacy,Lentiform Loewenfeld,3.3.9,0,s,NA,s,NA,NA,s,503,NA,37735,NA,NA,503,2,legacy,1024,2,48000,-16,experiment,2,even,42007,NA,NA,NA,86000,84937,4261,NA,NA,85996,86103,55813,4225,NA,86103,86606,Flanker Task,22,16486,24,yes,1024
Incongruent,1500,SSHSS,92,92,679.64,679.64,black,legacy,legacy,legacy,0,uniform,1,undefined,1,h,0,0,0,0,24,24,0,0,0,24,24,24,0,24,24,24,Sun Sep 26 18:30:25 2021,The main experiment item,yes,FlankerTask.osexp,/Users/samonemarks/Downloads,no,mono,no,18,no,white,no,yes,768,legacy,24,24,/Users/samonemarks/Downloads/AB-subject-2.csv,legacy,Lentiform Loewenfeld,3.3.9,0,h,NA,s,NA,NA,h,505,NA,37735,NA,NA,505,2,legacy,1024,2,48000,-16,experiment,2,even,42007,NA,NA,NA,87673,86611,4261,NA,NA,87670,87775,55813,4225,NA,87775,88281,Flanker Task,23,16991,25,yes,1024
Incongruent,1500,SSHSS,92.30769231,92.30769231,671.9230769,671.9230769,black,legacy,legacy,legacy,0,uniform,1,undefined,1,h,0,0,0,0,25,25,0,0,0,25,25,25,0,25,25,25,Sun Sep 26 18:30:25 2021,The main experiment item,yes,FlankerTask.osexp,/Users/samonemarks/Downloads,no,mono,no,18,no,white,no,yes,768,legacy,25,25,/Users/samonemarks/Downloads/AB-subject-2.csv,legacy,Lentiform Loewenfeld,3.3.9,0,h,NA,s,NA,NA,h,479,NA,37735,NA,NA,479,2,legacy,1024,2,48000,-16,experiment,2,even,42007,NA,NA,NA,89351,88288,4261,NA,NA,89348,89453,55813,4225,NA,89453,89933,Flanker Task,24,17470,26,yes,1024
Congruent,1500,HHHHH,92.59259259,92.59259259,662.5925926,662.5925926,black,legacy,legacy,legacy,0,uniform,1,undefined,1,h,0,0,0,0,26,26,0,0,0,26,26,26,0,26,26,26,Sun Sep 26 18:30:25 2021,The main experiment item,yes,FlankerTask.osexp,/Users/samonemarks/Downloads,no,mono,no,18,no,white,no,yes,768,legacy,26,26,/Users/samonemarks/Downloads/AB-subject-2.csv,legacy,Lentiform Loewenfeld,3.3.9,0,h,NA,s,NA,NA,h,420,NA,37735,NA,NA,420,2,legacy,1024,2,48000,-16,experiment,2,even,42007,NA,NA,NA,91001,89938,4261,NA,NA,90998,91103,55813,4225,NA,91104,91525,Flanker Task,25,17890,27,yes,1024
Incongruent,1500,HHSHH,92.85714286,92.85714286,656.1428571,656.1428571,black,legacy,legacy,legacy,0,uniform,1,undefined,1,s,0,0,0,0,27,27,0,0,0,27,27,27,0,27,27,27,Sun Sep 26 18:30:25 2021,The main experiment item,yes,FlankerTask.osexp,/Users/samonemarks/Downloads,no,mono,no,18,no,white,no,yes,768,legacy,27,27,/Users/samonemarks/Downloads/AB-subject-2.csv,legacy,Lentiform Loewenfeld,3.3.9,0,s,NA,s,NA,NA,s,482,NA,37735,NA,NA,482,2,legacy,1024,2,48000,-16,experiment,2,even,42007,NA,NA,NA,92593,91530,4261,NA,NA,92590,92695,55813,4225,NA,92695,93178,Flanker Task,26,18372,28,yes,1024
Congruent,1500,HHHHH,93.10344828,93.10344828,649.4137931,649.4137931,black,legacy,legacy,legacy,0,uniform,1,undefined,1,h,0,0,0,0,28,28,0,0,0,28,28,28,0,28,28,28,Sun Sep 26 18:30:25 2021,The main experiment item,yes,FlankerTask.osexp,/Users/samonemarks/Downloads,no,mono,no,18,no,white,no,yes,768,legacy,28,28,/Users/samonemarks/Downloads/AB-subject-2.csv,legacy,Lentiform Loewenfeld,3.3.9,0,h,NA,s,NA,NA,h,461,NA,37735,NA,NA,461,2,legacy,1024,2,48000,-16,experiment,2,even,42007,NA,NA,NA,94246,93182,4261,NA,NA,94243,94349,55813,4225,NA,94349,94811,Flanker Task,27,18833,29,yes,1024
Incongruent,1500,SSHSS,93.33333333,93.33333333,644.5666667,644.5666667,black,legacy,legacy,legacy,0,uniform,1,undefined,1,h,0,0,0,0,29,29,0,0,0,29,29,29,0,29,29,29,Sun Sep 26 18:30:25 2021,The main experiment item,yes,FlankerTask.osexp,/Users/samonemarks/Downloads,no,mono,no,18,no,white,no,yes,768,legacy,29,29,/Users/samonemarks/Downloads/AB-subject-2.csv,legacy,Lentiform Loewenfeld,3.3.9,0,h,NA,s,NA,NA,h,504,NA,37735,NA,NA,504,2,legacy,1024,2,48000,-16,experiment,2,even,42007,NA,NA,NA,95902,94815,4261,NA,NA,95897,96004,55813,4225,NA,96005,96510,Flanker Task,28,19337,30,yes,1024
Incongruent,1500,SSHSS,93.5483871,93.5483871,636.9354839,636.9354839,black,legacy,legacy,legacy,0,uniform,1,undefined,1,h,0,0,0,0,30,30,0,0,0,30,30,30,0,30,30,30,Sun Sep 26 18:30:25 2021,The main experiment item,yes,FlankerTask.osexp,/Users/samonemarks/Downloads,no,mono,no,18,no,white,no,yes,768,legacy,30,30,/Users/samonemarks/Downloads/AB-subject-2.csv,legacy,Lentiform Loewenfeld,3.3.9,0,h,NA,s,NA,NA,h,408,NA,37735,NA,NA,408,2,legacy,1024,2,48000,-16,experiment,2,even,42007,NA,NA,NA,97578,96513,4261,NA,NA,97573,97680,55813,4225,NA,97680,98089,Flanker Task,29,19745,31,yes,1024
Congruent,1500,HHHHH,93.75,93.75,630.25,630.25,black,legacy,legacy,legacy,0,uniform,1,undefined,1,h,0,0,0,0,31,31,0,0,0,31,31,31,0,31,31,31,Sun Sep 26 18:30:25 2021,The main experiment item,yes,FlankerTask.osexp,/Users/samonemarks/Downloads,no,mono,no,18,no,white,no,yes,768,legacy,31,31,/Users/samonemarks/Downloads/AB-subject-2.csv,legacy,Lentiform Loewenfeld,3.3.9,0,h,NA,s,NA,NA,h,423,NA,37735,NA,NA,423,2,legacy,1024,2,48000,-16,experiment,2,even,42007,NA,NA,NA,99160,98094,4261,NA,NA,99155,99264,55813,4225,NA,99264,99688,Flanker Task,30,20168,32,yes,1024
Incongruent,1500,SSHSS,93.93939394,93.93939394,626.0909091,626.0909091,black,legacy,legacy,legacy,0,uniform,1,undefined,1,h,0,0,0,0,32,32,0,0,0,32,32,32,0,32,32,32,Sun Sep 26 18:30:25 2021,The main experiment item,yes,FlankerTask.osexp,/Users/samonemarks/Downloads,no,mono,no,18,no,white,no,yes,768,legacy,32,32,/Users/samonemarks/Downloads/AB-subject-2.csv,legacy,Lentiform Loewenfeld,3.3.9,0,h,NA,s,NA,NA,h,493,NA,37735,NA,NA,493,2,legacy,1024,2,48000,-16,experiment,2,even,42007,NA,NA,NA,100759,99693,4261,NA,NA,100753,100862,55813,4225,NA,100862,101356,Flanker Task,31,20661,33,yes,1024
Incongruent,1500,HHSHH,94.11764706,94.11764706,624.7058824,624.7058824,black,legacy,legacy,legacy,0,uniform,1,undefined,1,s,0,0,0,0,33,33,0,0,0,33,33,33,0,33,33,33,Sun Sep 26 18:30:25 2021,The main experiment item,yes,FlankerTask.osexp,/Users/samonemarks/Downloads,no,mono,no,18,no,white,no,yes,768,legacy,33,33,/Users/samonemarks/Downloads/AB-subject-2.csv,legacy,Lentiform Loewenfeld,3.3.9,0,s,NA,s,NA,NA,s,579,NA,37735,NA,NA,579,2,legacy,1024,2,48000,-16,experiment,2,even,42007,NA,NA,NA,102427,101360,4261,NA,NA,102421,102530,55813,4225,NA,102530,103109,Flanker Task,32,21240,34,yes,1024
Congruent,1500,HHHHH,94.28571429,94.28571429,617.6,617.6,black,legacy,legacy,legacy,0,uniform,1,undefined,1,h,0,0,0,0,34,34,0,0,0,34,34,34,0,34,34,34,Sun Sep 26 18:30:25 2021,The main experiment item,yes,FlankerTask.osexp,/Users/samonemarks/Downloads,no,mono,no,18,no,white,no,yes,768,legacy,34,34,/Users/samonemarks/Downloads/AB-subject-2.csv,legacy,Lentiform Loewenfeld,3.3.9,0,h,NA,s,NA,NA,h,376,NA,37735,NA,NA,376,2,legacy,1024,2,48000,-16,experiment,2,even,42007,NA,NA,NA,104177,103114,4261,NA,NA,104174,104279,55813,4225,NA,104280,104657,Flanker Task,33,21616,35,yes,1024
Congruent,1500,HHHHH,94.44444444,94.44444444,612.2777778,612.2777778,black,legacy,legacy,legacy,0,uniform,1,undefined,1,h,0,0,0,0,35,35,0,0,0,35,35,35,0,35,35,35,Sun Sep 26 18:30:25 2021,The main experiment item,yes,FlankerTask.osexp,/Users/samonemarks/Downloads,no,mono,no,18,no,white,no,yes,768,legacy,35,35,/Users/samonemarks/Downloads/AB-subject-2.csv,legacy,Lentiform Loewenfeld,3.3.9,0,h,NA,s,NA,NA,h,426,NA,37735,NA,NA,426,2,legacy,1024,2,48000,-16,experiment,2,even,42007,NA,NA,NA,105727,104662,4261,NA,NA,105722,105830,55813,4225,NA,105830,106257,Flanker Task,34,22042,36,yes,1024
Incongruent,1500,SSHSS,91.89189189,91.89189189,605.4054054,605.4054054,black,legacy,legacy,legacy,0,uniform,0,undefined,0,h,0,0,0,0,36,36,0,0,0,36,36,36,0,36,36,36,Sun Sep 26 18:30:25 2021,The main experiment item,yes,FlankerTask.osexp,/Users/samonemarks/Downloads,no,mono,no,18,no,white,no,yes,768,legacy,36,36,/Users/samonemarks/Downloads/AB-subject-2.csv,legacy,Lentiform Loewenfeld,3.3.9,0,s,NA,s,NA,NA,s,358,NA,37735,NA,NA,358,2,legacy,1024,2,48000,-16,experiment,2,even,42007,NA,NA,NA,107326,106261,4261,NA,NA,107321,107428,55813,4225,NA,107428,107786,Flanker Task,34,22400,37,yes,1024
Congruent,1500,SSSSS,92.10526316,92.10526316,606.5263158,606.5263158,black,legacy,legacy,legacy,0,uniform,1,undefined,1,s,0,0,0,0,37,37,0,0,0,37,37,37,0,37,37,37,Sun Sep 26 18:30:25 2021,The main experiment item,yes,FlankerTask.osexp,/Users/samonemarks/Downloads,no,mono,no,18,no,white,no,yes,768,legacy,37,37,/Users/samonemarks/Downloads/AB-subject-2.csv,legacy,Lentiform Loewenfeld,3.3.9,0,s,NA,s,NA,NA,s,648,NA,37735,NA,NA,648,2,legacy,1024,2,48000,-16,experiment,2,even,42007,NA,NA,NA,109359,108295,4261,NA,NA,109354,109462,107791,4225,NA,109462,110111,Flanker Task,35,23048,38,yes,1024
Incongruent,1500,SSHSS,92.30769231,92.30769231,604.7179487,604.7179487,black,legacy,legacy,legacy,0,uniform,1,undefined,1,h,0,0,0,0,38,38,0,0,0,38,38,38,0,38,38,38,Sun Sep 26 18:30:25 2021,The main experiment item,yes,FlankerTask.osexp,/Users/samonemarks/Downloads,no,mono,no,18,no,white,no,yes,768,legacy,38,38,/Users/samonemarks/Downloads/AB-subject-2.csv,legacy,Lentiform Loewenfeld,3.3.9,0,h,NA,s,NA,NA,h,536,NA,37735,NA,NA,536,2,legacy,1024,2,48000,-16,experiment,2,even,42007,NA,NA,NA,111181,110115,4261,NA,NA,111175,111283,107791,4225,NA,111283,111819,Flanker Task,36,23584,39,yes,1024
Incongruent,1500,SSHSS,92.5,92.5,602.425,602.425,black,legacy,legacy,legacy,0,uniform,1,undefined,1,h,0,0,0,0,39,39,0,0,0,39,39,39,0,39,39,39,Sun Sep 26 18:30:25 2021,The main experiment item,yes,FlankerTask.osexp,/Users/samonemarks/Downloads,no,mono,no,18,no,white,no,yes,768,legacy,39,39,/Users/samonemarks/Downloads/AB-subject-2.csv,legacy,Lentiform Loewenfeld,3.3.9,0,h,NA,s,NA,NA,h,513,NA,37735,NA,NA,513,2,legacy,1024,2,48000,-16,experiment,2,even,42007,NA,NA,NA,112890,111824,4261,NA,NA,112884,112992,107791,4225,NA,112992,113505,Flanker Task,37,24097,40,yes,1024
Congruent,1500,HHHHH,92.68292683,92.68292683,599.5365854,599.5365854,black,legacy,legacy,legacy,0,uniform,1,undefined,1,h,0,0,0,0,40,40,0,0,0,40,40,40,0,40,40,40,Sun Sep 26 18:30:25 2021,The main experiment item,yes,FlankerTask.osexp,/Users/samonemarks/Downloads,no,mono,no,18,no,white,no,yes,768,legacy,40,40,/Users/samonemarks/Downloads/AB-subject-2.csv,legacy,Lentiform Loewenfeld,3.3.9,0,h,NA,s,NA,NA,h,484,NA,37735,NA,NA,484,2,legacy,1024,2,48000,-16,experiment,2,even,42007,NA,NA,NA,114576,113510,4261,NA,NA,114569,114678,107791,4225,NA,114678,115162,Flanker Task,38,24581,41,yes,1024
Incongruent,1500,HHSHH,92.85714286,92.85714286,597.8333333,597.8333333,black,legacy,legacy,legacy,0,uniform,1,undefined,1,s,0,0,0,0,41,41,0,0,0,41,41,41,0,41,41,41,Sun Sep 26 18:30:25 2021,The main experiment item,yes,FlankerTask.osexp,/Users/samonemarks/Downloads,no,mono,no,18,no,white,no,yes,768,legacy,41,41,/Users/samonemarks/Downloads/AB-subject-2.csv,legacy,Lentiform Loewenfeld,3.3.9,0,s,NA,s,NA,NA,s,528,NA,37735,NA,NA,528,2,legacy,1024,2,48000,-16,experiment,2,even,42007,NA,NA,NA,116231,115167,4261,NA,NA,116226,116333,107791,4225,NA,116333,116861,Flanker Task,39,25109,42,yes,1024
Congruent,1500,SSSSS,93.02325581,93.02325581,596.6976744,596.6976744,black,legacy,legacy,legacy,0,uniform,1,undefined,1,s,0,0,0,0,42,42,0,0,0,42,42,42,0,42,42,42,Sun Sep 26 18:30:25 2021,The main experiment item,yes,FlankerTask.osexp,/Users/samonemarks/Downloads,no,mono,no,18,no,white,no,yes,768,legacy,42,42,/Users/samonemarks/Downloads/AB-subject-2.csv,legacy,Lentiform Loewenfeld,3.3.9,0,s,NA,s,NA,NA,s,549,NA,37735,NA,NA,549,2,legacy,1024,2,48000,-16,experiment,2,even,42007,NA,NA,NA,117932,116866,4261,NA,NA,117926,118036,107791,4225,NA,118036,118585,Flanker Task,40,25658,43,yes,1024
Congruent,1500,HHHHH,93.18181818,93.18181818,593.25,593.25,black,legacy,legacy,legacy,0,uniform,1,undefined,1,h,0,0,0,0,43,43,0,0,0,43,43,43,0,43,43,43,Sun Sep 26 18:30:25 2021,The main experiment item,yes,FlankerTask.osexp,/Users/samonemarks/Downloads,no,mono,no,18,no,white,no,yes,768,legacy,43,43,/Users/samonemarks/Downloads/AB-subject-2.csv,legacy,Lentiform Loewenfeld,3.3.9,0,h,NA,s,NA,NA,h,445,NA,37735,NA,NA,445,2,legacy,1024,2,48000,-16,experiment,2,even,42007,NA,NA,NA,119658,118590,4261,NA,NA,119650,119762,107791,4225,NA,119763,120209,Flanker Task,41,26103,44,yes,1024
Congruent,1500,HHHHH,93.33333333,93.33333333,589.4666667,589.4666667,black,legacy,legacy,legacy,0,uniform,1,undefined,1,h,0,0,0,0,44,44,0,0,0,44,44,44,0,44,44,44,Sun Sep 26 18:30:25 2021,The main experiment item,yes,FlankerTask.osexp,/Users/samonemarks/Downloads,no,mono,no,18,no,white,no,yes,768,legacy,44,44,/Users/samonemarks/Downloads/AB-subject-2.csv,legacy,Lentiform Loewenfeld,3.3.9,0,h,NA,s,NA,NA,h,423,NA,37735,NA,NA,423,2,legacy,1024,2,48000,-16,experiment,2,even,42007,NA,NA,NA,121283,120214,4261,NA,NA,121273,121385,107791,4225,NA,121386,121810,Flanker Task,42,26526,45,yes,1024
Incongruent,1500,SSHSS,93.47826087,93.47826087,589.4347826,589.4347826,black,legacy,legacy,legacy,0,uniform,1,undefined,1,h,0,0,0,0,45,45,0,0,0,45,45,45,0,45,45,45,Sun Sep 26 18:30:25 2021,The main experiment item,yes,FlankerTask.osexp,/Users/samonemarks/Downloads,no,mono,no,18,no,white,no,yes,768,legacy,45,45,/Users/samonemarks/Downloads/AB-subject-2.csv,legacy,Lentiform Loewenfeld,3.3.9,0,h,NA,s,NA,NA,h,588,NA,37735,NA,NA,588,2,legacy,1024,2,48000,-16,experiment,2,even,42007,NA,NA,NA,122885,121815,4261,NA,NA,122876,122989,107791,4225,NA,122990,123579,Flanker Task,43,27114,46,yes,1024
Congruent,1500,SSSSS,93.61702128,93.61702128,588.3829787,588.3829787,black,legacy,legacy,legacy,0,uniform,1,undefined,1,s,0,0,0,0,46,46,0,0,0,46,46,46,0,46,46,46,Sun Sep 26 18:30:25 2021,The main experiment item,yes,FlankerTask.osexp,/Users/samonemarks/Downloads,no,mono,no,18,no,white,no,yes,768,legacy,46,46,/Users/samonemarks/Downloads/AB-subject-2.csv,legacy,Lentiform Loewenfeld,3.3.9,0,s,NA,s,NA,NA,s,540,NA,37735,NA,NA,540,2,legacy,1024,2,48000,-16,experiment,2,even,42007,NA,NA,NA,124652,123583,4261,NA,NA,124644,124756,107791,4225,NA,124756,125297,Flanker Task,44,27654,47,yes,1024
Congruent,1500,SSSSS,93.75,93.75,584.9375,584.9375,black,legacy,legacy,legacy,0,uniform,1,undefined,1,s,0,0,0,0,47,47,0,0,0,47,47,47,0,47,47,47,Sun Sep 26 18:30:25 2021,The main experiment item,yes,FlankerTask.osexp,/Users/samonemarks/Downloads,no,mono,no,18,no,white,no,yes,768,legacy,47,47,/Users/samonemarks/Downloads/AB-subject-2.csv,legacy,Lentiform Loewenfeld,3.3.9,0,s,NA,s,NA,NA,s,423,NA,37735,NA,NA,423,2,legacy,1024,2,48000,-16,experiment,2,even,42007,NA,NA,NA,126368,125302,4261,NA,NA,126362,126471,107791,4225,NA,126471,126895,Flanker Task,45,28077,48,yes,1024
Congruent,1500,HHHHH,93.87755102,93.87755102,581.2244898,581.2244898,black,legacy,legacy,legacy,0,uniform,1,undefined,1,h,0,0,0,0,48,48,0,0,0,48,48,48,0,48,48,48,Sun Sep 26 18:30:25 2021,The main experiment item,yes,FlankerTask.osexp,/Users/samonemarks/Downloads,no,mono,no,18,no,white,no,yes,768,legacy,48,48,/Users/samonemarks/Downloads/AB-subject-2.csv,legacy,Lentiform Loewenfeld,3.3.9,0,h,NA,s,NA,NA,h,403,NA,37735,NA,NA,403,2,legacy,1024,2,48000,-16,experiment,2,even,42007,NA,NA,NA,127964,126899,4261,NA,NA,127959,128068,107791,4225,NA,128068,128472,Flanker Task,46,28480,49,yes,1024
Incongruent,1500,HHSHH,94,94,579.86,579.86,black,legacy,legacy,legacy,0,uniform,1,undefined,1,s,0,0,0,0,49,49,0,0,0,49,49,49,0,49,49,49,Sun Sep 26 18:30:25 2021,The main experiment item,yes,FlankerTask.osexp,/Users/samonemarks/Downloads,no,mono,no,18,no,white,no,yes,768,legacy,49,49,/Users/samonemarks/Downloads/AB-subject-2.csv,legacy,Lentiform Loewenfeld,3.3.9,0,s,NA,s,NA,NA,s,513,NA,37735,NA,NA,513,2,legacy,1024,2,48000,-16,experiment,2,even,42007,NA,NA,NA,129543,128476,4261,NA,NA,129536,129645,107791,4225,NA,129645,130159,Flanker Task,47,28993,50,yes,1024
Incongruent,1500,HHSHH,94.11764706,94.11764706,579.2745098,579.2745098,black,legacy,legacy,legacy,0,uniform,1,undefined,1,s,0,0,0,0,50,50,0,0,0,50,50,50,0,50,50,50,Sun Sep 26 18:30:25 2021,The main experiment item,yes,FlankerTask.osexp,/Users/samonemarks/Downloads,no,mono,no,18,no,white,no,yes,768,legacy,50,50,/Users/samonemarks/Downloads/AB-subject-2.csv,legacy,Lentiform Loewenfeld,3.3.9,0,s,NA,s,NA,NA,s,550,NA,37735,NA,NA,550,2,legacy,1024,2,48000,-16,experiment,2,even,42007,NA,NA,NA,131229,130164,4261,NA,NA,131224,131331,107791,4225,NA,131331,131882,Flanker Task,48,29543,51,yes,1024
Congruent,1500,SSSSS,94.23076923,94.23076923,577.0576923,577.0576923,black,legacy,legacy,legacy,0,uniform,1,undefined,1,s,0,0,0,0,51,51,0,0,0,51,51,51,0,51,51,51,Sun Sep 26 18:30:25 2021,The main experiment item,yes,FlankerTask.osexp,/Users/samonemarks/Downloads,no,mono,no,18,no,white,no,yes,768,legacy,51,51,/Users/samonemarks/Downloads/AB-subject-2.csv,legacy,Lentiform Loewenfeld,3.3.9,0,s,NA,s,NA,NA,s,464,NA,37735,NA,NA,464,2,legacy,1024,2,48000,-16,experiment,2,even,42007,NA,NA,NA,132952,131886,4261,NA,NA,132946,133054,107791,4225,NA,133055,133520,Flanker Task,49,30007,52,yes,1024
Congruent,1500,HHHHH,94.33962264,94.33962264,573.7169811,573.7169811,black,legacy,legacy,legacy,0,uniform,1,undefined,1,h,0,0,0,0,52,52,0,0,0,52,52,52,0,52,52,52,Sun Sep 26 18:30:25 2021,The main experiment item,yes,FlankerTask.osexp,/Users/samonemarks/Downloads,no,mono,no,18,no,white,no,yes,768,legacy,52,52,/Users/samonemarks/Downloads/AB-subject-2.csv,legacy,Lentiform Loewenfeld,3.3.9,0,h,NA,s,NA,NA,h,400,NA,37735,NA,NA,400,2,legacy,1024,2,48000,-16,experiment,2,even,42007,NA,NA,NA,134590,133525,4261,NA,NA,134585,134692,107791,4225,NA,134693,135094,Flanker Task,50,30407,53,yes,1024
Congruent,1500,SSSSS,94.44444444,94.44444444,570.5925926,570.5925926,black,legacy,legacy,legacy,0,uniform,1,undefined,1,s,0,0,0,0,53,53,0,0,0,53,53,53,0,53,53,53,Sun Sep 26 18:30:25 2021,The main experiment item,yes,FlankerTask.osexp,/Users/samonemarks/Downloads,no,mono,no,18,no,white,no,yes,768,legacy,53,53,/Users/samonemarks/Downloads/AB-subject-2.csv,legacy,Lentiform Loewenfeld,3.3.9,0,s,NA,s,NA,NA,s,405,NA,37735,NA,NA,405,2,legacy,1024,2,48000,-16,experiment,2,even,42007,NA,NA,NA,136165,135098,4261,NA,NA,136159,136268,107791,4225,NA,136268,136673,Flanker Task,51,30812,54,yes,1024
Congruent,1500,SSSSS,94.54545455,94.54545455,568.4545455,568.4545455,black,legacy,legacy,legacy,0,uniform,1,undefined,1,s,0,0,0,0,54,54,0,0,0,54,54,54,0,54,54,54,Sun Sep 26 18:30:25 2021,The main experiment item,yes,FlankerTask.osexp,/Users/samonemarks/Downloads,no,mono,no,18,no,white,no,yes,768,legacy,54,54,/Users/samonemarks/Downloads/AB-subject-2.csv,legacy,Lentiform Loewenfeld,3.3.9,0,s,NA,s,NA,NA,s,453,NA,37735,NA,NA,453,2,legacy,1024,2,48000,-16,experiment,2,even,42007,NA,NA,NA,137743,136678,4261,NA,NA,137738,137845,107791,4225,NA,137845,138298,Flanker Task,52,31265,55,yes,1024
Congruent,1500,SSSSS,94.64285714,94.64285714,566.3928571,566.3928571,black,legacy,legacy,legacy,0,uniform,1,undefined,1,s,0,0,0,0,55,55,0,0,0,55,55,55,0,55,55,55,Sun Sep 26 18:30:25 2021,The main experiment item,yes,FlankerTask.osexp,/Users/samonemarks/Downloads,no,mono,no,18,no,white,no,yes,768,legacy,55,55,/Users/samonemarks/Downloads/AB-subject-2.csv,legacy,Lentiform Loewenfeld,3.3.9,0,s,NA,s,NA,NA,s,453,NA,37735,NA,NA,453,2,legacy,1024,2,48000,-16,experiment,2,even,42007,NA,NA,NA,139369,138303,4261,NA,NA,139363,139472,107791,4225,NA,139472,139926,Flanker Task,53,31718,56,yes,1024
Incongruent,1500,SSHSS,94.73684211,94.73684211,569.5263158,569.5263158,black,legacy,legacy,legacy,0,uniform,1,undefined,1,h,0,0,0,0,56,56,0,0,0,56,56,56,0,56,56,56,Sun Sep 26 18:30:25 2021,The main experiment item,yes,FlankerTask.osexp,/Users/samonemarks/Downloads,no,mono,no,18,no,white,no,yes,768,legacy,56,56,/Users/samonemarks/Downloads/AB-subject-2.csv,legacy,Lentiform Loewenfeld,3.3.9,0,h,NA,s,NA,NA,h,745,NA,37735,NA,NA,745,2,legacy,1024,2,48000,-16,experiment,2,even,42007,NA,NA,NA,140997,139930,4261,NA,NA,140990,141101,107791,4225,NA,141101,141846,Flanker Task,54,32463,57,yes,1024
Congruent,1500,SSSSS,94.82758621,94.82758621,569.3103448,569.3103448,black,legacy,legacy,legacy,0,uniform,1,undefined,1,s,0,0,0,0,57,57,0,0,0,57,57,57,0,57,57,57,Sun Sep 26 18:30:25 2021,The main experiment item,yes,FlankerTask.osexp,/Users/samonemarks/Downloads,no,mono,no,18,no,white,no,yes,768,legacy,57,57,/Users/samonemarks/Downloads/AB-subject-2.csv,legacy,Lentiform Loewenfeld,3.3.9,0,s,NA,s,NA,NA,s,557,NA,37735,NA,NA,557,2,legacy,1024,2,48000,-16,experiment,2,even,42007,NA,NA,NA,142923,141852,4261,NA,NA,142912,143027,107791,4225,NA,143027,143584,Flanker Task,55,33020,58,yes,1024
Incongruent,1500,HHSHH,93.22033898,93.22033898,566.9322034,566.9322034,black,legacy,legacy,legacy,0,uniform,0,undefined,0,s,0,0,0,0,58,58,0,0,0,58,58,58,0,58,58,58,Sun Sep 26 18:30:25 2021,The main experiment item,yes,FlankerTask.osexp,/Users/samonemarks/Downloads,no,mono,no,18,no,white,no,yes,768,legacy,58,58,/Users/samonemarks/Downloads/AB-subject-2.csv,legacy,Lentiform Loewenfeld,3.3.9,0,h,NA,s,NA,NA,h,429,NA,37735,NA,NA,429,2,legacy,1024,2,48000,-16,experiment,2,even,42007,NA,NA,NA,144656,143589,4261,NA,NA,144650,144760,107791,4225,NA,144760,145191,Flanker Task,55,33449,59,yes,1024
Congruent,1500,SSSSS,93.33333333,93.33333333,566.7,566.7,black,legacy,legacy,legacy,0,uniform,1,undefined,1,s,0,0,0,0,59,59,0,0,0,59,59,59,0,59,59,59,Sun Sep 26 18:30:25 2021,The main experiment item,yes,FlankerTask.osexp,/Users/samonemarks/Downloads,no,mono,no,18,no,white,no,yes,768,legacy,59,59,/Users/samonemarks/Downloads/AB-subject-2.csv,legacy,Lentiform Loewenfeld,3.3.9,0,s,NA,s,NA,NA,s,553,NA,37735,NA,NA,553,2,legacy,1024,2,48000,-16,experiment,2,even,42007,NA,NA,NA,146766,145700,4261,NA,NA,146760,146869,145195,4225,NA,146870,147424,Flanker Task,56,34002,60,yes,1024
Incongruent,1500,SSHSS,93.44262295,93.44262295,566.852459,566.852459,black,legacy,legacy,legacy,0,uniform,1,undefined,1,h,0,0,0,0,60,60,0,0,0,60,60,60,0,60,60,60,Sun Sep 26 18:30:25 2021,The main experiment item,yes,FlankerTask.osexp,/Users/samonemarks/Downloads,no,mono,no,18,no,white,no,yes,768,legacy,60,60,/Users/samonemarks/Downloads/AB-subject-2.csv,legacy,Lentiform Loewenfeld,3.3.9,0,h,NA,s,NA,NA,h,576,NA,37735,NA,NA,576,2,legacy,1024,2,48000,-16,experiment,2,even,42007,NA,NA,NA,148496,147429,4261,NA,NA,148489,148600,145195,4225,NA,148600,149177,Flanker Task,57,34578,61,yes,1024
Congruent,1500,SSSSS,93.5483871,93.5483871,566.016129,566.016129,black,legacy,legacy,legacy,0,uniform,1,undefined,1,s,0,0,0,0,61,61,0,0,0,61,61,61,0,61,61,61,Sun Sep 26 18:30:25 2021,The main experiment item,yes,FlankerTask.osexp,/Users/samonemarks/Downloads,no,mono,no,18,no,white,no,yes,768,legacy,61,61,/Users/samonemarks/Downloads/AB-subject-2.csv,legacy,Lentiform Loewenfeld,3.3.9,0,s,NA,s,NA,NA,s,515,NA,37735,NA,NA,515,2,legacy,1024,2,48000,-16,experiment,2,even,42007,NA,NA,NA,150250,149182,4261,NA,NA,150243,150355,145195,4225,NA,150355,150871,Flanker Task,58,35093,62,yes,1024
Congruent,1500,SSSSS,93.65079365,93.65079365,564.5396825,564.5396825,black,legacy,legacy,legacy,0,uniform,1,undefined,1,s,0,0,0,0,62,62,0,0,0,62,62,62,0,62,62,62,Sun Sep 26 18:30:25 2021,The main experiment item,yes,FlankerTask.osexp,/Users/samonemarks/Downloads,no,mono,no,18,no,white,no,yes,768,legacy,62,62,/Users/samonemarks/Downloads/AB-subject-2.csv,legacy,Lentiform Loewenfeld,3.3.9,0,s,NA,s,NA,NA,s,473,NA,37735,NA,NA,473,2,legacy,1024,2,48000,-16,experiment,2,even,42007,NA,NA,NA,151942,150876,4261,NA,NA,151936,152045,145195,4225,NA,152045,152519,Flanker Task,59,35566,63,yes,1024
Congruent,1500,SSSSS,93.75,93.75,562.9375,562.9375,black,legacy,legacy,legacy,0,uniform,1,undefined,1,s,0,0,0,0,63,63,0,0,0,63,63,63,0,63,63,63,Sun Sep 26 18:30:25 2021,The main experiment item,yes,FlankerTask.osexp,/Users/samonemarks/Downloads,no,mono,no,18,no,white,no,yes,768,legacy,63,63,/Users/samonemarks/Downloads/AB-subject-2.csv,legacy,Lentiform Loewenfeld,3.3.9,0,s,NA,s,NA,NA,s,462,NA,37735,NA,NA,462,2,legacy,1024,2,48000,-16,experiment,2,even,42007,NA,NA,NA,153590,152524,4261,NA,NA,153585,153693,145195,4225,NA,153693,154156,Flanker Task,60,36028,64,yes,1024
Incongruent,1500,HHSHH,93.84615385,93.84615385,563.1538462,563.1538462,black,legacy,legacy,legacy,0,uniform,1,undefined,1,s,0,0,0,0,64,64,0,0,0,64,64,64,0,64,64,64,Sun Sep 26 18:30:25 2021,The main experiment item,yes,FlankerTask.osexp,/Users/samonemarks/Downloads,no,mono,no,18,no,white,no,yes,768,legacy,64,64,/Users/samonemarks/Downloads/AB-subject-2.csv,legacy,Lentiform Loewenfeld,3.3.9,0,s,NA,s,NA,NA,s,577,NA,37735,NA,NA,577,2,legacy,1024,2,48000,-16,experiment,2,even,42007,NA,NA,NA,155226,154161,4261,NA,NA,155221,155329,145195,4225,NA,155329,155907,Flanker Task,61,36605,65,yes,1024
Incongruent,1500,HHSHH,93.93939394,93.93939394,562.7878788,562.7878788,black,legacy,legacy,legacy,0,uniform,1,undefined,1,s,0,0,0,0,65,65,0,0,0,65,65,65,0,65,65,65,Sun Sep 26 18:30:25 2021,The main experiment item,yes,FlankerTask.osexp,/Users/samonemarks/Downloads,no,mono,no,18,no,white,no,yes,768,legacy,65,65,/Users/samonemarks/Downloads/AB-subject-2.csv,legacy,Lentiform Loewenfeld,3.3.9,0,s,NA,s,NA,NA,s,539,NA,37735,NA,NA,539,2,legacy,1024,2,48000,-16,experiment,2,even,42007,NA,NA,NA,156978,155912,4261,NA,NA,156973,157080,145195,4225,NA,157080,157620,Flanker Task,62,37144,66,yes,1024
Congruent,1500,HHHHH,94.02985075,94.02985075,562.4179104,562.4179104,black,legacy,legacy,legacy,0,uniform,1,undefined,1,h,0,0,0,0,66,66,0,0,0,66,66,66,0,66,66,66,Sun Sep 26 18:30:25 2021,The main experiment item,yes,FlankerTask.osexp,/Users/samonemarks/Downloads,no,mono,no,18,no,white,no,yes,768,legacy,66,66,/Users/samonemarks/Downloads/AB-subject-2.csv,legacy,Lentiform Loewenfeld,3.3.9,0,h,NA,s,NA,NA,h,538,NA,37735,NA,NA,538,2,legacy,1024,2,48000,-16,experiment,2,even,42007,NA,NA,NA,158690,157624,4261,NA,NA,158684,158793,145195,4225,NA,158793,159332,Flanker Task,63,37682,67,yes,1024
Congruent,1500,HHHHH,94.11764706,94.11764706,560.9117647,560.9117647,black,legacy,legacy,legacy,0,uniform,1,undefined,1,h,0,0,0,0,67,67,0,0,0,67,67,67,0,67,67,67,Sun Sep 26 18:30:25 2021,The main experiment item,yes,FlankerTask.osexp,/Users/samonemarks/Downloads,no,mono,no,18,no,white,no,yes,768,legacy,67,67,/Users/samonemarks/Downloads/AB-subject-2.csv,legacy,Lentiform Loewenfeld,3.3.9,0,h,NA,s,NA,NA,h,460,NA,37735,NA,NA,460,2,legacy,1024,2,48000,-16,experiment,2,even,42007,NA,NA,NA,160403,159337,4261,NA,NA,160397,160506,145195,4225,NA,160506,160967,Flanker Task,64,38142,68,yes,1024
Incongruent,1500,SSHSS,94.20289855,94.20289855,560.3333333,560.3333333,black,legacy,legacy,legacy,0,uniform,1,undefined,1,h,0,0,0,0,68,68,0,0,0,68,68,68,0,68,68,68,Sun Sep 26 18:30:25 2021,The main experiment item,yes,FlankerTask.osexp,/Users/samonemarks/Downloads,no,mono,no,18,no,white,no,yes,768,legacy,68,68,/Users/samonemarks/Downloads/AB-subject-2.csv,legacy,Lentiform Loewenfeld,3.3.9,0,h,NA,s,NA,NA,h,521,NA,37735,NA,NA,521,2,legacy,1024,2,48000,-16,experiment,2,even,42007,NA,NA,NA,162039,160972,4261,NA,NA,162033,162143,145195,4225,NA,162143,162665,Flanker Task,65,38663,69,yes,1024
Incongruent,1500,HHSHH,94.28571429,94.28571429,559.1142857,559.1142857,black,legacy,legacy,legacy,0,uniform,1,undefined,1,s,0,0,0,0,69,69,0,0,0,69,69,69,0,69,69,69,Sun Sep 26 18:30:25 2021,The main experiment item,yes,FlankerTask.osexp,/Users/samonemarks/Downloads,no,mono,no,18,no,white,no,yes,768,legacy,69,69,/Users/samonemarks/Downloads/AB-subject-2.csv,legacy,Lentiform Loewenfeld,3.3.9,0,s,NA,s,NA,NA,s,475,NA,37735,NA,NA,475,2,legacy,1024,2,48000,-16,experiment,2,even,42007,NA,NA,NA,163737,162669,4261,NA,NA,163730,163840,145195,4225,NA,163841,164316,Flanker Task,66,39138,70,yes,1024
Incongruent,1500,HHSHH,94.36619718,94.36619718,557.3943662,557.3943662,black,legacy,legacy,legacy,0,uniform,1,undefined,1,s,0,0,0,0,70,70,0,0,0,70,70,70,0,70,70,70,Sun Sep 26 18:30:25 2021,The main experiment item,yes,FlankerTask.osexp,/Users/samonemarks/Downloads,no,mono,no,18,no,white,no,yes,768,legacy,70,70,/Users/samonemarks/Downloads/AB-subject-2.csv,legacy,Lentiform Loewenfeld,3.3.9,0,s,NA,s,NA,NA,s,437,NA,37735,NA,NA,437,2,legacy,1024,2,48000,-16,experiment,2,even,42007,NA,NA,NA,165389,164321,4261,NA,NA,165381,165493,145195,4225,NA,165493,165931,Flanker Task,67,39575,71,yes,1024
Incongruent,1500,SSHSS,94.44444444,94.44444444,557.0972222,557.0972222,black,legacy,legacy,legacy,0,uniform,1,undefined,1,h,0,0,0,0,71,71,0,0,0,71,71,71,0,71,71,71,Sun Sep 26 18:30:25 2021,The main experiment item,yes,FlankerTask.osexp,/Users/samonemarks/Downloads,no,mono,no,18,no,white,no,yes,768,legacy,71,71,/Users/samonemarks/Downloads/AB-subject-2.csv,legacy,Lentiform Loewenfeld,3.3.9,0,h,NA,s,NA,NA,h,536,NA,37735,NA,NA,536,2,legacy,1024,2,48000,-16,experiment,2,even,42007,NA,NA,NA,167001,165935,4261,NA,NA,166996,167103,145195,4225,NA,167104,167641,Flanker Task,68,40111,72,yes,1024
Incongruent,1500,HHSHH,94.52054795,94.52054795,557.1643836,557.1643836,black,legacy,legacy,legacy,0,uniform,1,undefined,1,s,0,0,0,0,72,72,0,0,0,72,72,72,0,72,72,72,Sun Sep 26 18:30:25 2021,The main experiment item,yes,FlankerTask.osexp,/Users/samonemarks/Downloads,no,mono,no,18,no,white,no,yes,768,legacy,72,72,/Users/samonemarks/Downloads/AB-subject-2.csv,legacy,Lentiform Loewenfeld,3.3.9,0,s,NA,s,NA,NA,s,562,NA,37735,NA,NA,562,2,legacy,1024,2,48000,-16,experiment,2,even,42007,NA,NA,NA,168712,167645,4261,NA,NA,168706,168816,145195,4225,NA,168816,169378,Flanker Task,69,40673,73,yes,1024
Congruent,1500,HHHHH,94.59459459,94.59459459,556.0945946,556.0945946,black,legacy,legacy,legacy,0,uniform,1,undefined,1,h,0,0,0,0,73,73,0,0,0,73,73,73,0,73,73,73,Sun Sep 26 18:30:25 2021,The main experiment item,yes,FlankerTask.osexp,/Users/samonemarks/Downloads,no,mono,no,18,no,white,no,yes,768,legacy,73,73,/Users/samonemarks/Downloads/AB-subject-2.csv,legacy,Lentiform Loewenfeld,3.3.9,0,h,NA,s,NA,NA,h,478,NA,37735,NA,NA,478,2,legacy,1024,2,48000,-16,experiment,2,even,42007,NA,NA,NA,170448,169383,4261,NA,NA,170444,170552,145195,4225,NA,170553,171031,Flanker Task,70,41151,74,yes,1024
Congruent,1500,SSSSS,94.66666667,94.66666667,555.5466667,555.5466667,black,legacy,legacy,legacy,0,uniform,1,undefined,1,s,0,0,0,0,74,74,0,0,0,74,74,74,0,74,74,74,Sun Sep 26 18:30:25 2021,The main experiment item,yes,FlankerTask.osexp,/Users/samonemarks/Downloads,no,mono,no,18,no,white,no,yes,768,legacy,74,74,/Users/samonemarks/Downloads/AB-subject-2.csv,legacy,Lentiform Loewenfeld,3.3.9,0,s,NA,s,NA,NA,s,515,NA,37735,NA,NA,515,2,legacy,1024,2,48000,-16,experiment,2,even,42007,NA,NA,NA,172104,171037,4261,NA,NA,172097,172208,145195,4225,NA,172208,172723,Flanker Task,71,41666,75,yes,1024
Incongruent,1500,SSHSS,94.73684211,94.73684211,554.5,554.5,black,legacy,legacy,legacy,0,uniform,1,undefined,1,h,0,0,0,0,75,75,0,0,0,75,75,75,0,75,75,75,Sun Sep 26 18:30:25 2021,The main experiment item,yes,FlankerTask.osexp,/Users/samonemarks/Downloads,no,mono,no,18,no,white,no,yes,768,legacy,75,75,/Users/samonemarks/Downloads/AB-subject-2.csv,legacy,Lentiform Loewenfeld,3.3.9,0,h,NA,s,NA,NA,h,476,NA,37735,NA,NA,476,2,legacy,1024,2,48000,-16,experiment,2,even,42007,NA,NA,NA,173793,172728,4261,NA,NA,173788,173895,145195,4225,NA,173896,174374,Flanker Task,72,42142,76,yes,1024
Congruent,1500,SSSSS,94.80519481,94.80519481,554.4935065,554.4935065,black,legacy,legacy,legacy,0,uniform,1,undefined,1,s,0,0,0,0,76,76,0,0,0,76,76,76,0,76,76,76,Sun Sep 26 18:30:25 2021,The main experiment item,yes,FlankerTask.osexp,/Users/samonemarks/Downloads,no,mono,no,18,no,white,no,yes,768,legacy,76,76,/Users/samonemarks/Downloads/AB-subject-2.csv,legacy,Lentiform Loewenfeld,3.3.9,0,s,NA,s,NA,NA,s,554,NA,37735,NA,NA,554,2,legacy,1024,2,48000,-16,experiment,2,even,42007,NA,NA,NA,175445,174378,4261,NA,NA,175438,175547,145195,4225,NA,175547,176102,Flanker Task,73,42696,77,yes,1024
Incongruent,1500,HHSHH,94.87179487,94.87179487,555.1666667,555.1666667,black,legacy,legacy,legacy,0,uniform,1,undefined,1,s,0,0,0,0,77,77,0,0,0,77,77,77,0,77,77,77,Sun Sep 26 18:30:25 2021,The main experiment item,yes,FlankerTask.osexp,/Users/samonemarks/Downloads,no,mono,no,18,no,white,no,yes,768,legacy,77,77,/Users/samonemarks/Downloads/AB-subject-2.csv,legacy,Lentiform Loewenfeld,3.3.9,0,s,NA,s,NA,NA,s,607,NA,37735,NA,NA,607,2,legacy,1024,2,48000,-16,experiment,2,even,42007,NA,NA,NA,177173,176107,4261,NA,NA,177168,177276,145195,4225,NA,177276,177884,Flanker Task,74,43303,78,yes,1024
Incongruent,1500,HHSHH,94.93670886,94.93670886,554.4050633,554.4050633,black,legacy,legacy,legacy,0,uniform,1,undefined,1,s,0,0,0,0,78,78,0,0,0,78,78,78,0,78,78,78,Sun Sep 26 18:30:25 2021,The main experiment item,yes,FlankerTask.osexp,/Users/samonemarks/Downloads,no,mono,no,18,no,white,no,yes,768,legacy,78,78,/Users/samonemarks/Downloads/AB-subject-2.csv,legacy,Lentiform Loewenfeld,3.3.9,0,s,NA,s,NA,NA,s,495,NA,37735,NA,NA,495,2,legacy,1024,2,48000,-16,experiment,2,even,42007,NA,NA,NA,178957,177890,4261,NA,NA,178950,179059,145195,4225,NA,179059,179555,Flanker Task,75,43798,79,yes,1024
Congruent,1500,SSSSS,95,95,553.2875,553.2875,black,legacy,legacy,legacy,0,uniform,1,undefined,1,s,0,0,0,0,79,79,0,0,0,79,79,79,0,79,79,79,Sun Sep 26 18:30:25 2021,The main experiment item,yes,FlankerTask.osexp,/Users/samonemarks/Downloads,no,mono,no,18,no,white,no,yes,768,legacy,79,79,/Users/samonemarks/Downloads/AB-subject-2.csv,legacy,Lentiform Loewenfeld,3.3.9,0,s,NA,s,NA,NA,s,465,NA,37735,NA,NA,465,2,legacy,1024,2,48000,-16,experiment,2,even,42007,NA,NA,NA,180626,179560,4261,NA,NA,180619,180728,145195,4225,NA,180728,181194,Flanker Task,76,44263,80,yes,1024
Congruent,600,HHHHH,95.0617284,95.0617284,553.4567901,553.4567901,black,legacy,legacy,legacy,0,uniform,1,undefined,1,h,0,0,0,0,80,80,0,0,0,80,80,80,0,80,80,80,Sun Sep 26 18:30:25 2021,The main experiment item,yes,FlankerTask.osexp,/Users/samonemarks/Downloads,no,mono,no,18,no,white,no,yes,768,legacy,0,79,/Users/samonemarks/Downloads/AB-subject-2.csv,legacy,Lentiform Loewenfeld,3.3.9,0,h,NA,s,s,NA,h,567,NA,37735,16208,NA,567,2,legacy,1024,2,48000,-16,experiment,2,even,42007,198436,NA,NA,198483,181199,4261,182227,NA,198479,198587,145195,4225,NA,198587,199154,Flanker Task,77,44830,81,yes,1024
Incongruent,600,SSHSS,95.12195122,95.12195122,554.3780488,554.3780488,black,legacy,legacy,legacy,0,uniform,1,undefined,1,h,0,0,0,0,81,81,0,0,0,81,81,81,0,81,81,81,Sun Sep 26 18:30:25 2021,The main experiment item,yes,FlankerTask.osexp,/Users/samonemarks/Downloads,no,mono,no,18,no,white,no,yes,768,legacy,1,79,/Users/samonemarks/Downloads/AB-subject-2.csv,legacy,Lentiform Loewenfeld,3.3.9,0,h,NA,s,s,NA,h,629,NA,37735,16208,NA,629,2,legacy,1024,2,48000,-16,experiment,2,even,42007,198436,NA,NA,200229,199159,4261,182227,NA,200219,200333,145195,4225,NA,200333,200962,Flanker Task,78,45459,82,yes,1024
Incongruent,600,HHSHH,95.18072289,95.18072289,555.2891566,555.2891566,black,legacy,legacy,legacy,0,uniform,1,undefined,1,s,0,0,0,0,82,82,0,0,0,82,82,82,0,82,82,82,Sun Sep 26 18:30:25 2021,The main experiment item,yes,FlankerTask.osexp,/Users/samonemarks/Downloads,no,mono,no,18,no,white,no,yes,768,legacy,2,79,/Users/samonemarks/Downloads/AB-subject-2.csv,legacy,Lentiform Loewenfeld,3.3.9,0,s,NA,s,s,NA,s,630,NA,37735,16208,NA,630,2,legacy,1024,2,48000,-16,experiment,2,even,42007,198436,NA,NA,202543,201474,4261,182227,NA,202535,202647,145195,4225,200967,202647,203278,Flanker Task,79,46089,83,yes,1024
Incongruent,600,SSHSS,95.23809524,95.23809524,555.1071429,555.1071429,black,legacy,legacy,legacy,0,uniform,1,undefined,1,h,0,0,0,0,83,83,0,0,0,83,83,83,0,83,83,83,Sun Sep 26 18:30:25 2021,The main experiment item,yes,FlankerTask.osexp,/Users/samonemarks/Downloads,no,mono,no,18,no,white,no,yes,768,legacy,3,79,/Users/samonemarks/Downloads/AB-subject-2.csv,legacy,Lentiform Loewenfeld,3.3.9,0,h,NA,s,s,NA,h,540,NA,37735,16208,NA,540,2,legacy,1024,2,48000,-16,experiment,2,even,42007,198436,NA,NA,204853,203790,4261,182227,NA,204850,204955,145195,4225,203283,204955,205496,Flanker Task,80,46629,84,yes,1024
Incongruent,600,SSHSS,95.29411765,95.29411765,554.3882353,554.3882353,black,legacy,legacy,legacy,0,uniform,1,undefined,1,h,0,0,0,0,84,84,0,0,0,84,84,84,0,84,84,84,Sun Sep 26 18:30:25 2021,The main experiment item,yes,FlankerTask.osexp,/Users/samonemarks/Downloads,no,mono,no,18,no,white,no,yes,768,legacy,4,79,/Users/samonemarks/Downloads/AB-subject-2.csv,legacy,Lentiform Loewenfeld,3.3.9,0,h,NA,s,s,NA,h,494,NA,37735,16208,NA,494,2,legacy,1024,2,48000,-16,experiment,2,even,42007,198436,NA,NA,206567,205501,4261,182227,NA,206561,206670,145195,4225,203283,206670,207165,Flanker Task,81,47123,85,yes,1024
Congruent,600,SSSSS,95.34883721,95.34883721,552.244186,552.244186,black,legacy,legacy,legacy,0,uniform,1,undefined,1,s,0,0,0,0,85,85,0,0,0,85,85,85,0,85,85,85,Sun Sep 26 18:30:25 2021,The main experiment item,yes,FlankerTask.osexp,/Users/samonemarks/Downloads,no,mono,no,18,no,white,no,yes,768,legacy,5,79,/Users/samonemarks/Downloads/AB-subject-2.csv,legacy,Lentiform Loewenfeld,3.3.9,0,s,NA,s,s,NA,s,370,NA,37735,16208,NA,370,2,legacy,1024,2,48000,-16,experiment,2,even,42007,198436,NA,NA,208240,207170,4261,182227,NA,208231,208344,145195,4225,203283,208344,208715,Flanker Task,82,47493,86,yes,1024
Incongruent,600,HHSHH,95.40229885,95.40229885,550.7586207,550.7586207,black,legacy,legacy,legacy,0,uniform,1,undefined,1,s,0,0,0,0,86,86,0,0,0,86,86,86,0,86,86,86,Sun Sep 26 18:30:25 2021,The main experiment item,yes,FlankerTask.osexp,/Users/samonemarks/Downloads,no,mono,no,18,no,white,no,yes,768,legacy,6,79,/Users/samonemarks/Downloads/AB-subject-2.csv,legacy,Lentiform Loewenfeld,3.3.9,0,s,NA,s,s,NA,s,423,NA,37735,16208,NA,423,2,legacy,1024,2,48000,-16,experiment,2,even,42007,198436,NA,NA,209786,208720,4261,182227,NA,209780,209888,145195,4225,203283,209888,210312,Flanker Task,83,47916,87,yes,1024
Incongruent,600,SSHSS,94.31818182,94.31818182,548.8522727,548.8522727,black,legacy,legacy,legacy,0,uniform,0,undefined,0,h,0,0,0,0,87,87,0,0,0,87,87,87,0,87,87,87,Sun Sep 26 18:30:25 2021,The main experiment item,yes,FlankerTask.osexp,/Users/samonemarks/Downloads,no,mono,no,18,no,white,no,yes,768,legacy,7,79,/Users/samonemarks/Downloads/AB-subject-2.csv,legacy,Lentiform Loewenfeld,3.3.9,0,s,NA,s,s,NA,s,383,NA,37735,16208,NA,383,2,legacy,1024,2,48000,-16,experiment,2,even,42007,198436,NA,NA,211384,210318,4261,182227,NA,211378,211487,145195,4225,203283,211488,211872,Flanker Task,83,48299,88,yes,1024
Congruent,600,HHHHH,94.38202247,94.38202247,547.7640449,547.7640449,black,legacy,legacy,legacy,0,uniform,1,undefined,1,h,0,0,0,0,88,88,0,0,0,88,88,88,0,88,88,88,Sun Sep 26 18:30:25 2021,The main experiment item,yes,FlankerTask.osexp,/Users/samonemarks/Downloads,no,mono,no,18,no,white,no,yes,768,legacy,8,79,/Users/samonemarks/Downloads/AB-subject-2.csv,legacy,Lentiform Loewenfeld,3.3.9,0,h,NA,s,s,NA,h,452,NA,37735,16208,NA,452,2,legacy,1024,2,48000,-16,experiment,2,even,42007,198436,NA,NA,213446,212382,4261,182227,NA,213441,213550,211877,4225,203283,213550,214003,Flanker Task,84,48751,89,yes,1024
Incongruent,600,SSHSS,94.44444444,94.44444444,548.5777778,548.5777778,black,legacy,legacy,legacy,0,uniform,1,undefined,1,h,0,0,0,0,89,89,0,0,0,89,89,89,0,89,89,89,Sun Sep 26 18:30:25 2021,The main experiment item,yes,FlankerTask.osexp,/Users/samonemarks/Downloads,no,mono,no,18,no,white,no,yes,768,legacy,9,79,/Users/samonemarks/Downloads/AB-subject-2.csv,legacy,Lentiform Loewenfeld,3.3.9,0,h,NA,s,s,NA,h,621,NA,37735,16208,NA,621,2,legacy,1024,2,48000,-16,experiment,2,even,42007,198436,NA,NA,215075,214008,4261,182227,NA,215068,215177,211877,4225,203283,215177,215799,Flanker Task,85,49372,90,yes,1024
Incongruent,600,HHSHH,94.50549451,94.50549451,549.1538462,549.1538462,black,legacy,legacy,legacy,0,uniform,1,undefined,1,s,0,0,0,0,90,90,0,0,0,90,90,90,0,90,90,90,Sun Sep 26 18:30:25 2021,The main experiment item,yes,FlankerTask.osexp,/Users/samonemarks/Downloads,no,mono,no,18,no,white,no,yes,768,legacy,10,79,/Users/samonemarks/Downloads/AB-subject-2.csv,legacy,Lentiform Loewenfeld,3.3.9,0,s,NA,s,s,NA,s,601,NA,37735,16208,NA,601,2,legacy,1024,2,48000,-16,experiment,2,even,42007,198436,NA,NA,217381,216312,4261,182227,NA,217373,217485,211877,4225,215804,217485,218087,Flanker Task,86,49973,91,yes,1024
Incongruent,600,SSHSS,94.56521739,94.56521739,548.1630435,548.1630435,black,legacy,legacy,legacy,0,uniform,1,undefined,1,h,0,0,0,0,91,91,0,0,0,91,91,91,0,91,91,91,Sun Sep 26 18:30:25 2021,The main experiment item,yes,FlankerTask.osexp,/Users/samonemarks/Downloads,no,mono,no,18,no,white,no,yes,768,legacy,11,79,/Users/samonemarks/Downloads/AB-subject-2.csv,legacy,Lentiform Loewenfeld,3.3.9,0,h,NA,s,s,NA,h,458,NA,37735,16208,NA,458,2,legacy,1024,2,48000,-16,experiment,2,even,42007,198436,NA,NA,219670,218603,4261,182227,NA,219664,219773,211877,4225,218092,219773,220232,Flanker Task,87,50431,92,yes,1024
Incongruent,600,HHSHH,93.5483871,93.5483871,546.7419355,546.7419355,black,legacy,legacy,legacy,0,uniform,0,undefined,0,s,0,0,0,0,92,92,0,0,0,92,92,92,0,92,92,92,Sun Sep 26 18:30:25 2021,The main experiment item,yes,FlankerTask.osexp,/Users/samonemarks/Downloads,no,mono,no,18,no,white,no,yes,768,legacy,12,79,/Users/samonemarks/Downloads/AB-subject-2.csv,legacy,Lentiform Loewenfeld,3.3.9,0,h,NA,s,s,NA,h,416,NA,37735,16208,NA,416,2,legacy,1024,2,48000,-16,experiment,2,even,42007,198436,NA,NA,221301,220236,4261,182227,NA,221296,221404,211877,4225,218092,221404,221821,Flanker Task,87,50847,93,yes,1024
Incongruent,600,HHSHH,93.61702128,93.61702128,546.6276596,546.6276596,black,legacy,legacy,legacy,0,uniform,1,undefined,1,s,0,0,0,0,93,93,0,0,0,93,93,93,0,93,93,93,Sun Sep 26 18:30:25 2021,The main experiment item,yes,FlankerTask.osexp,/Users/samonemarks/Downloads,no,mono,no,18,no,white,no,yes,768,legacy,13,79,/Users/samonemarks/Downloads/AB-subject-2.csv,legacy,Lentiform Loewenfeld,3.3.9,0,s,NA,s,s,NA,s,536,NA,37735,16208,NA,536,2,legacy,1024,2,48000,-16,experiment,2,even,42007,198436,NA,NA,223394,222331,4261,182227,NA,223391,223496,221825,4225,218092,223496,224033,Flanker Task,88,51383,94,yes,1024
Incongruent,600,SSHSS,93.68421053,93.68421053,545.6105263,545.6105263,black,legacy,legacy,legacy,0,uniform,1,undefined,1,h,0,0,0,0,94,94,0,0,0,94,94,94,0,94,94,94,Sun Sep 26 18:30:25 2021,The main experiment item,yes,FlankerTask.osexp,/Users/samonemarks/Downloads,no,mono,no,18,no,white,no,yes,768,legacy,14,79,/Users/samonemarks/Downloads/AB-subject-2.csv,legacy,Lentiform Loewenfeld,3.3.9,0,h,NA,s,s,NA,h,450,NA,37735,16208,NA,450,2,legacy,1024,2,48000,-16,experiment,2,even,42007,198436,NA,NA,225102,224037,4261,182227,NA,225098,225205,221825,4225,218092,225205,225656,Flanker Task,89,51833,95,yes,1024
Congruent,600,HHHHH,93.75,93.75,544.65625,544.65625,black,legacy,legacy,legacy,0,uniform,1,undefined,1,h,0,0,0,0,95,95,0,0,0,95,95,95,0,95,95,95,Sun Sep 26 18:30:25 2021,The main experiment item,yes,FlankerTask.osexp,/Users/samonemarks/Downloads,no,mono,no,18,no,white,no,yes,768,legacy,15,79,/Users/samonemarks/Downloads/AB-subject-2.csv,legacy,Lentiform Loewenfeld,3.3.9,0,h,NA,s,s,NA,h,454,NA,37735,16208,NA,454,2,legacy,1024,2,48000,-16,experiment,2,even,42007,198436,NA,NA,226726,225661,4261,182227,NA,226722,226828,221825,4225,218092,226829,227284,Flanker Task,90,52287,96,yes,1024
Incongruent,600,HHSHH,93.81443299,93.81443299,543.8556701,543.8556701,black,legacy,legacy,legacy,0,uniform,1,undefined,1,s,0,0,0,0,96,96,0,0,0,96,96,96,0,96,96,96,Sun Sep 26 18:30:25 2021,The main experiment item,yes,FlankerTask.osexp,/Users/samonemarks/Downloads,no,mono,no,18,no,white,no,yes,768,legacy,16,79,/Users/samonemarks/Downloads/AB-subject-2.csv,legacy,Lentiform Loewenfeld,3.3.9,0,s,NA,s,s,NA,s,467,NA,37735,16208,NA,467,2,legacy,1024,2,48000,-16,experiment,2,even,42007,198436,NA,NA,228353,227289,4261,182227,NA,228349,228456,221825,4225,218092,228456,228924,Flanker Task,91,52754,97,yes,1024
Congruent,600,HHHHH,93.87755102,93.87755102,541.6530612,541.6530612,black,legacy,legacy,legacy,0,uniform,1,undefined,1,h,0,0,0,0,97,97,0,0,0,97,97,97,0,97,97,97,Sun Sep 26 18:30:25 2021,The main experiment item,yes,FlankerTask.osexp,/Users/samonemarks/Downloads,no,mono,no,18,no,white,no,yes,768,legacy,17,79,/Users/samonemarks/Downloads/AB-subject-2.csv,legacy,Lentiform Loewenfeld,3.3.9,0,h,NA,s,s,NA,h,328,NA,37735,16208,NA,328,2,legacy,1024,2,48000,-16,experiment,2,even,42007,198436,NA,NA,229993,228929,4261,182227,NA,229990,230096,221825,4225,218092,230097,230425,Flanker Task,92,53082,98,yes,1024
Incongruent,600,HHSHH,93.93939394,93.93939394,541.8484848,541.8484848,black,legacy,legacy,legacy,0,uniform,1,undefined,1,s,0,0,0,0,98,98,0,0,0,98,98,98,0,98,98,98,Sun Sep 26 18:30:25 2021,The main experiment item,yes,FlankerTask.osexp,/Users/samonemarks/Downloads,no,mono,no,18,no,white,no,yes,768,legacy,18,79,/Users/samonemarks/Downloads/AB-subject-2.csv,legacy,Lentiform Loewenfeld,3.3.9,0,s,NA,s,s,NA,s,561,NA,37735,16208,NA,561,2,legacy,1024,2,48000,-16,experiment,2,even,42007,198436,NA,NA,231497,230430,4261,182227,NA,231490,231600,221825,4225,218092,231601,232163,Flanker Task,93,53643,99,yes,1024
Incongruent,600,SSHSS,93,93,540.62,540.62,black,legacy,legacy,legacy,0,uniform,0,undefined,0,h,0,0,0,0,99,99,0,0,0,99,99,99,0,99,99,99,Sun Sep 26 18:30:25 2021,The main experiment item,yes,FlankerTask.osexp,/Users/samonemarks/Downloads,no,mono,no,18,no,white,no,yes,768,legacy,19,79,/Users/samonemarks/Downloads/AB-subject-2.csv,legacy,Lentiform Loewenfeld,3.3.9,0,s,NA,s,s,NA,s,419,NA,37735,16208,NA,419,2,legacy,1024,2,48000,-16,experiment,2,even,42007,198436,NA,NA,233233,232168,4261,182227,NA,233227,233335,221825,4225,218092,233335,233755,Flanker Task,93,54062,100,yes,1024
Congruent,600,SSSSS,93.06930693,93.06930693,540.5742574,540.5742574,black,legacy,legacy,legacy,0,uniform,1,undefined,1,s,0,0,0,0,100,100,0,0,0,100,100,100,0,100,100,100,Sun Sep 26 18:30:25 2021,The main experiment item,yes,FlankerTask.osexp,/Users/samonemarks/Downloads,no,mono,no,18,no,white,no,yes,768,legacy,20,79,/Users/samonemarks/Downloads/AB-subject-2.csv,legacy,Lentiform Loewenfeld,3.3.9,0,s,NA,s,s,NA,s,536,NA,37735,16208,NA,536,2,legacy,1024,2,48000,-16,experiment,2,even,42007,198436,NA,NA,235332,234265,4261,182227,NA,235325,235435,233760,4225,218092,235436,235973,Flanker Task,94,54598,101,yes,1024
Incongruent,600,HHSHH,93.1372549,93.1372549,540.3921569,540.3921569,black,legacy,legacy,legacy,0,uniform,1,undefined,1,s,0,0,0,0,101,101,0,0,0,101,101,101,0,101,101,101,Sun Sep 26 18:30:25 2021,The main experiment item,yes,FlankerTask.osexp,/Users/samonemarks/Downloads,no,mono,no,18,no,white,no,yes,768,legacy,21,79,/Users/samonemarks/Downloads/AB-subject-2.csv,legacy,Lentiform Loewenfeld,3.3.9,0,s,NA,s,s,NA,s,522,NA,37735,16208,NA,522,2,legacy,1024,2,48000,-16,experiment,2,even,42007,198436,NA,NA,237048,235978,4261,182227,NA,237038,237151,233760,4225,218092,237152,237674,Flanker Task,95,55120,102,yes,1024
Incongruent,600,SSHSS,93.2038835,93.2038835,539.4271845,539.4271845,black,legacy,legacy,legacy,0,uniform,1,undefined,1,h,0,0,0,0,102,102,0,0,0,102,102,102,0,102,102,102,Sun Sep 26 18:30:25 2021,The main experiment item,yes,FlankerTask.osexp,/Users/samonemarks/Downloads,no,mono,no,18,no,white,no,yes,768,legacy,22,79,/Users/samonemarks/Downloads/AB-subject-2.csv,legacy,Lentiform Loewenfeld,3.3.9,0,h,NA,s,s,NA,h,441,NA,37735,16208,NA,441,2,legacy,1024,2,48000,-16,experiment,2,even,42007,198436,NA,NA,238749,237679,4261,182227,NA,238741,238852,233760,4225,218092,238852,239294,Flanker Task,96,55561,103,yes,1024
Congruent,600,HHHHH,93.26923077,93.26923077,538.2211538,538.2211538,black,legacy,legacy,legacy,0,uniform,1,undefined,1,h,0,0,0,0,103,103,0,0,0,103,103,103,0,103,103,103,Sun Sep 26 18:30:25 2021,The main experiment item,yes,FlankerTask.osexp,/Users/samonemarks/Downloads,no,mono,no,18,no,white,no,yes,768,legacy,23,79,/Users/samonemarks/Downloads/AB-subject-2.csv,legacy,Lentiform Loewenfeld,3.3.9,0,h,NA,s,s,NA,h,414,NA,37735,16208,NA,414,2,legacy,1024,2,48000,-16,experiment,2,even,42007,198436,NA,NA,240364,239299,4261,182227,NA,240359,240468,233760,4225,218092,240468,240883,Flanker Task,97,55975,104,yes,1024
Incongruent,600,SSHSS,92.38095238,92.38095238,537.3714286,537.3714286,black,legacy,legacy,legacy,0,uniform,0,undefined,0,h,0,0,0,0,104,104,0,0,0,104,104,104,0,104,104,104,Sun Sep 26 18:30:25 2021,The main experiment item,yes,FlankerTask.osexp,/Users/samonemarks/Downloads,no,mono,no,18,no,white,no,yes,768,legacy,24,79,/Users/samonemarks/Downloads/AB-subject-2.csv,legacy,Lentiform Loewenfeld,3.3.9,0,s,NA,s,s,NA,s,449,NA,37735,16208,NA,449,2,legacy,1024,2,48000,-16,experiment,2,even,42007,198436,NA,NA,241954,240888,4261,182227,NA,241948,242056,233760,4225,218092,242056,242506,Flanker Task,97,56424,105,yes,1024
Congruent,600,SSSSS,92.45283019,92.45283019,537.0377358,537.0377358,black,legacy,legacy,legacy,0,uniform,1,undefined,1,s,0,0,0,0,105,105,0,0,0,105,105,105,0,105,105,105,Sun Sep 26 18:30:25 2021,The main experiment item,yes,FlankerTask.osexp,/Users/samonemarks/Downloads,no,mono,no,18,no,white,no,yes,768,legacy,25,79,/Users/samonemarks/Downloads/AB-subject-2.csv,legacy,Lentiform Loewenfeld,3.3.9,0,s,NA,s,s,NA,s,502,NA,37735,16208,NA,502,2,legacy,1024,2,48000,-16,experiment,2,even,42007,198436,NA,NA,244078,243015,4261,182227,NA,244075,244180,242511,4225,218092,244181,244684,Flanker Task,98,56926,106,yes,1024
Congruent,600,SSSSS,92.52336449,92.52336449,536.5233645,536.5233645,black,legacy,legacy,legacy,0,uniform,1,undefined,1,s,0,0,0,0,106,106,0,0,0,106,106,106,0,106,106,106,Sun Sep 26 18:30:25 2021,The main experiment item,yes,FlankerTask.osexp,/Users/samonemarks/Downloads,no,mono,no,18,no,white,no,yes,768,legacy,26,79,/Users/samonemarks/Downloads/AB-subject-2.csv,legacy,Lentiform Loewenfeld,3.3.9,0,s,NA,s,s,NA,s,482,NA,37735,16208,NA,482,2,legacy,1024,2,48000,-16,experiment,2,even,42007,198436,NA,NA,245756,244689,4261,182227,NA,245753,245858,242511,4225,218092,245858,246341,Flanker Task,99,57408,107,yes,1024
Incongruent,600,SSHSS,92.59259259,92.59259259,535.8703704,535.8703704,black,legacy,legacy,legacy,0,uniform,1,undefined,1,h,0,0,0,0,107,107,0,0,0,107,107,107,0,107,107,107,Sun Sep 26 18:30:25 2021,The main experiment item,yes,FlankerTask.osexp,/Users/samonemarks/Downloads,no,mono,no,18,no,white,no,yes,768,legacy,27,79,/Users/samonemarks/Downloads/AB-subject-2.csv,legacy,Lentiform Loewenfeld,3.3.9,0,h,NA,s,s,NA,h,466,NA,37735,16208,NA,466,2,legacy,1024,2,48000,-16,experiment,2,even,42007,198436,NA,NA,247409,246346,4261,182227,NA,247405,247512,242511,4225,218092,247512,247979,Flanker Task,100,57874,108,yes,1024
Incongruent,600,HHSHH,92.66055046,92.66055046,535.1009174,535.1009174,black,legacy,legacy,legacy,0,uniform,1,undefined,1,s,0,0,0,0,108,108,0,0,0,108,108,108,0,108,108,108,Sun Sep 26 18:30:25 2021,The main experiment item,yes,FlankerTask.osexp,/Users/samonemarks/Downloads,no,mono,no,18,no,white,no,yes,768,legacy,28,79,/Users/samonemarks/Downloads/AB-subject-2.csv,legacy,Lentiform Loewenfeld,3.3.9,0,s,NA,s,s,NA,s,452,NA,37735,16208,NA,452,2,legacy,1024,2,48000,-16,experiment,2,even,42007,198436,NA,NA,249048,247984,4261,182227,NA,249043,249151,242511,4225,218092,249151,249604,Flanker Task,101,58326,109,yes,1024
Incongruent,600,SSHSS,92.72727273,92.72727273,535,535,black,legacy,legacy,legacy,0,uniform,1,undefined,1,h,0,0,0,0,109,109,0,0,0,109,109,109,0,109,109,109,Sun Sep 26 18:30:25 2021,The main experiment item,yes,FlankerTask.osexp,/Users/samonemarks/Downloads,no,mono,no,18,no,white,no,yes,768,legacy,29,79,/Users/samonemarks/Downloads/AB-subject-2.csv,legacy,Lentiform Loewenfeld,3.3.9,0,h,NA,s,s,NA,h,524,NA,37735,16208,NA,524,2,legacy,1024,2,48000,-16,experiment,2,even,42007,198436,NA,NA,250672,249609,4261,182227,NA,250669,250774,242511,4225,218092,250775,251300,Flanker Task,102,58850,110,yes,1024
Incongruent,600,HHSHH,92.79279279,92.79279279,534.3333333,534.3333333,black,legacy,legacy,legacy,0,uniform,1,undefined,1,s,0,0,0,0,110,110,0,0,0,110,110,110,0,110,110,110,Sun Sep 26 18:30:25 2021,The main experiment item,yes,FlankerTask.osexp,/Users/samonemarks/Downloads,no,mono,no,18,no,white,no,yes,768,legacy,30,79,/Users/samonemarks/Downloads/AB-subject-2.csv,legacy,Lentiform Loewenfeld,3.3.9,0,s,NA,s,s,NA,s,461,NA,37735,16208,NA,461,2,legacy,1024,2,48000,-16,experiment,2,even,42007,198436,NA,NA,252368,251305,4261,182227,NA,252365,252470,242511,4225,218092,252471,252933,Flanker Task,103,59311,111,yes,1024
Congruent,600,SSSSS,92.85714286,92.85714286,533.6071429,533.6071429,black,legacy,legacy,legacy,0,uniform,1,undefined,1,s,0,0,0,0,111,111,0,0,0,111,111,111,0,111,111,111,Sun Sep 26 18:30:25 2021,The main experiment item,yes,FlankerTask.osexp,/Users/samonemarks/Downloads,no,mono,no,18,no,white,no,yes,768,legacy,31,79,/Users/samonemarks/Downloads/AB-subject-2.csv,legacy,Lentiform Loewenfeld,3.3.9,0,s,NA,s,s,NA,s,453,NA,37735,16208,NA,453,2,legacy,1024,2,48000,-16,experiment,2,even,42007,198436,NA,NA,254001,252938,4261,182227,NA,253998,254103,242511,4225,218092,254103,254557,Flanker Task,104,59764,112,yes,1024
Congruent,600,SSSSS,92.92035398,92.92035398,532.2654867,532.2654867,black,legacy,legacy,legacy,0,uniform,1,undefined,1,s,0,0,0,0,112,112,0,0,0,112,112,112,0,112,112,112,Sun Sep 26 18:30:25 2021,The main experiment item,yes,FlankerTask.osexp,/Users/samonemarks/Downloads,no,mono,no,18,no,white,no,yes,768,legacy,32,79,/Users/samonemarks/Downloads/AB-subject-2.csv,legacy,Lentiform Loewenfeld,3.3.9,0,s,NA,s,s,NA,s,382,NA,37735,16208,NA,382,2,legacy,1024,2,48000,-16,experiment,2,even,42007,198436,NA,NA,255625,254561,4261,182227,NA,255622,255727,242511,4225,218092,255727,256110,Flanker Task,105,60146,113,yes,1024
Congruent,600,HHHHH,92.98245614,92.98245614,531.1754386,531.1754386,black,legacy,legacy,legacy,0,uniform,1,undefined,1,h,0,0,0,0,113,113,0,0,0,113,113,113,0,113,113,113,Sun Sep 26 18:30:25 2021,The main experiment item,yes,FlankerTask.osexp,/Users/samonemarks/Downloads,no,mono,no,18,no,white,no,yes,768,legacy,33,79,/Users/samonemarks/Downloads/AB-subject-2.csv,legacy,Lentiform Loewenfeld,3.3.9,0,h,NA,s,s,NA,h,408,NA,37735,16208,NA,408,2,legacy,1024,2,48000,-16,experiment,2,even,42007,198436,NA,NA,257177,256115,4261,182227,NA,257174,257280,242511,4225,218092,257280,257689,Flanker Task,106,60554,114,yes,1024
Congruent,600,SSSSS,93.04347826,93.04347826,530.426087,530.426087,black,legacy,legacy,legacy,0,uniform,1,undefined,1,s,0,0,0,0,114,114,0,0,0,114,114,114,0,114,114,114,Sun Sep 26 18:30:25 2021,The main experiment item,yes,FlankerTask.osexp,/Users/samonemarks/Downloads,no,mono,no,18,no,white,no,yes,768,legacy,34,79,/Users/samonemarks/Downloads/AB-subject-2.csv,legacy,Lentiform Loewenfeld,3.3.9,0,s,NA,s,s,NA,s,445,NA,37735,16208,NA,445,2,legacy,1024,2,48000,-16,experiment,2,even,42007,198436,NA,NA,258757,257693,4261,182227,NA,258754,258861,242511,4225,218092,258861,259307,Flanker Task,107,60999,115,yes,1024
Congruent,600,HHHHH,93.10344828,93.10344828,529.25,529.25,black,legacy,legacy,legacy,0,uniform,1,undefined,1,h,0,0,0,0,115,115,0,0,0,115,115,115,0,115,115,115,Sun Sep 26 18:30:25 2021,The main experiment item,yes,FlankerTask.osexp,/Users/samonemarks/Downloads,no,mono,no,18,no,white,no,yes,768,legacy,35,79,/Users/samonemarks/Downloads/AB-subject-2.csv,legacy,Lentiform Loewenfeld,3.3.9,0,h,NA,s,s,NA,h,394,NA,37735,16208,NA,394,2,legacy,1024,2,48000,-16,experiment,2,even,42007,198436,NA,NA,260375,259311,4261,182227,NA,260370,260478,242511,4225,218092,260478,260873,Flanker Task,108,61393,116,yes,1024
Congruent,600,HHHHH,93.16239316,93.16239316,528.2478632,528.2478632,black,legacy,legacy,legacy,0,uniform,1,undefined,1,h,0,0,0,0,116,116,0,0,0,116,116,116,0,116,116,116,Sun Sep 26 18:30:25 2021,The main experiment item,yes,FlankerTask.osexp,/Users/samonemarks/Downloads,no,mono,no,18,no,white,no,yes,768,legacy,36,79,/Users/samonemarks/Downloads/AB-subject-2.csv,legacy,Lentiform Loewenfeld,3.3.9,0,h,NA,s,s,NA,h,412,NA,37735,16208,NA,412,2,legacy,1024,2,48000,-16,experiment,2,even,42007,198436,NA,NA,261940,260877,4261,182227,NA,261937,262042,242511,4225,218092,262043,262456,Flanker Task,109,61805,117,yes,1024
Congruent,600,SSSSS,93.22033898,93.22033898,527.0338983,527.0338983,black,legacy,legacy,legacy,0,uniform,1,undefined,1,s,0,0,0,0,117,117,0,0,0,117,117,117,0,117,117,117,Sun Sep 26 18:30:25 2021,The main experiment item,yes,FlankerTask.osexp,/Users/samonemarks/Downloads,no,mono,no,18,no,white,no,yes,768,legacy,37,79,/Users/samonemarks/Downloads/AB-subject-2.csv,legacy,Lentiform Loewenfeld,3.3.9,0,s,NA,s,s,NA,s,385,NA,37735,16208,NA,385,2,legacy,1024,2,48000,-16,experiment,2,even,42007,198436,NA,NA,263528,262461,4261,182227,NA,263521,263631,242511,4225,218092,263631,264017,Flanker Task,110,62190,118,yes,1024
Incongruent,600,HHSHH,93.27731092,93.27731092,526.5042017,526.5042017,black,legacy,legacy,legacy,0,uniform,1,undefined,1,s,0,0,0,0,118,118,0,0,0,118,118,118,0,118,118,118,Sun Sep 26 18:30:25 2021,The main experiment item,yes,FlankerTask.osexp,/Users/samonemarks/Downloads,no,mono,no,18,no,white,no,yes,768,legacy,38,79,/Users/samonemarks/Downloads/AB-subject-2.csv,legacy,Lentiform Loewenfeld,3.3.9,0,s,NA,s,s,NA,s,464,NA,37735,16208,NA,464,2,legacy,1024,2,48000,-16,experiment,2,even,42007,198436,NA,NA,265086,264022,4261,182227,NA,265082,265190,242511,4225,218092,265190,265655,Flanker Task,111,62654,119,yes,1024
Incongruent,600,HHSHH,93.33333333,93.33333333,525.4583333,525.4583333,black,legacy,legacy,legacy,0,uniform,1,undefined,1,s,0,0,0,0,119,119,0,0,0,119,119,119,0,119,119,119,Sun Sep 26 18:30:25 2021,The main experiment item,yes,FlankerTask.osexp,/Users/samonemarks/Downloads,no,mono,no,18,no,white,no,yes,768,legacy,39,79,/Users/samonemarks/Downloads/AB-subject-2.csv,legacy,Lentiform Loewenfeld,3.3.9,0,s,NA,s,s,NA,s,401,NA,37735,16208,NA,401,2,legacy,1024,2,48000,-16,experiment,2,even,42007,198436,NA,NA,266723,265659,4261,182227,NA,266720,266826,242511,4225,218092,266826,267228,Flanker Task,112,63055,120,yes,1024
Congruent,600,SSSSS,93.38842975,93.38842975,524.5619835,524.5619835,black,legacy,legacy,legacy,0,uniform,1,undefined,1,s,0,0,0,0,120,120,0,0,0,120,120,120,0,120,120,120,Sun Sep 26 18:30:25 2021,The main experiment item,yes,FlankerTask.osexp,/Users/samonemarks/Downloads,no,mono,no,18,no,white,no,yes,768,legacy,40,79,/Users/samonemarks/Downloads/AB-subject-2.csv,legacy,Lentiform Loewenfeld,3.3.9,0,s,NA,s,s,NA,s,417,NA,37735,16208,NA,417,2,legacy,1024,2,48000,-16,experiment,2,even,42007,198436,NA,NA,268295,267233,4261,182227,NA,268293,268397,242511,4225,218092,268397,268815,Flanker Task,113,63472,121,yes,1024
Congruent,600,HHHHH,93.44262295,93.44262295,523.8606557,523.8606557,black,legacy,legacy,legacy,0,uniform,1,undefined,1,h,0,0,0,0,121,121,0,0,0,121,121,121,0,121,121,121,Sun Sep 26 18:30:25 2021,The main experiment item,yes,FlankerTask.osexp,/Users/samonemarks/Downloads,no,mono,no,18,no,white,no,yes,768,legacy,41,79,/Users/samonemarks/Downloads/AB-subject-2.csv,legacy,Lentiform Loewenfeld,3.3.9,0,h,NA,s,s,NA,h,439,NA,37735,16208,NA,439,2,legacy,1024,2,48000,-16,experiment,2,even,42007,198436,NA,NA,269884,268820,4261,182227,NA,269880,269987,242511,4225,218092,269987,270427,Flanker Task,114,63911,122,yes,1024
Incongruent,600,HHSHH,93.49593496,93.49593496,524.8861789,524.8861789,black,legacy,legacy,legacy,0,uniform,1,undefined,1,s,0,0,0,0,122,122,0,0,0,122,122,122,0,122,122,122,Sun Sep 26 18:30:25 2021,The main experiment item,yes,FlankerTask.osexp,/Users/samonemarks/Downloads,no,mono,no,18,no,white,no,yes,768,legacy,42,79,/Users/samonemarks/Downloads/AB-subject-2.csv,legacy,Lentiform Loewenfeld,3.3.9,0,s,NA,s,s,NA,s,650,NA,37735,16208,NA,650,2,legacy,1024,2,48000,-16,experiment,2,even,42007,198436,NA,NA,271499,270432,4261,182227,NA,271492,271602,242511,4225,218092,271602,272253,Flanker Task,115,64561,123,yes,1024
Congruent,600,SSSSS,93.5483871,93.5483871,524.6209677,524.6209677,black,legacy,legacy,legacy,0,uniform,1,undefined,1,s,0,0,0,0,123,123,0,0,0,123,123,123,0,123,123,123,Sun Sep 26 18:30:25 2021,The main experiment item,yes,FlankerTask.osexp,/Users/samonemarks/Downloads,no,mono,no,18,no,white,no,yes,768,legacy,43,79,/Users/samonemarks/Downloads/AB-subject-2.csv,legacy,Lentiform Loewenfeld,3.3.9,0,s,NA,s,s,NA,s,492,NA,37735,16208,NA,492,2,legacy,1024,2,48000,-16,experiment,2,even,42007,198436,NA,NA,273833,272765,4261,182227,NA,273826,273937,242511,4225,272258,273937,274430,Flanker Task,116,65053,124,yes,1024
Congruent,600,HHHHH,93.6,93.6,523.84,523.84,black,legacy,legacy,legacy,0,uniform,1,undefined,1,h,0,0,0,0,124,124,0,0,0,124,124,124,0,124,124,124,Sun Sep 26 18:30:25 2021,The main experiment item,yes,FlankerTask.osexp,/Users/samonemarks/Downloads,no,mono,no,18,no,white,no,yes,768,legacy,44,79,/Users/samonemarks/Downloads/AB-subject-2.csv,legacy,Lentiform Loewenfeld,3.3.9,0,h,NA,s,s,NA,h,427,NA,37735,16208,NA,427,2,legacy,1024,2,48000,-16,experiment,2,even,42007,198436,NA,NA,275504,274435,4261,182227,NA,275496,275609,242511,4225,272258,275609,276037,Flanker Task,117,65480,125,yes,1024
Congruent,600,HHHHH,93.65079365,93.65079365,522.6349206,522.6349206,black,legacy,legacy,legacy,0,uniform,1,undefined,1,h,0,0,0,0,125,125,0,0,0,125,125,125,0,125,125,125,Sun Sep 26 18:30:25 2021,The main experiment item,yes,FlankerTask.osexp,/Users/samonemarks/Downloads,no,mono,no,18,no,white,no,yes,768,legacy,45,79,/Users/samonemarks/Downloads/AB-subject-2.csv,legacy,Lentiform Loewenfeld,3.3.9,0,h,NA,s,s,NA,h,372,NA,37735,16208,NA,372,2,legacy,1024,2,48000,-16,experiment,2,even,42007,198436,NA,NA,277111,276042,4261,182227,NA,277104,277215,242511,4225,272258,277215,277588,Flanker Task,118,65852,126,yes,1024
Congruent,600,HHHHH,93.7007874,93.7007874,521.5669291,521.5669291,black,legacy,legacy,legacy,0,uniform,1,undefined,1,h,0,0,0,0,126,126,0,0,0,126,126,126,0,126,126,126,Sun Sep 26 18:30:25 2021,The main experiment item,yes,FlankerTask.osexp,/Users/samonemarks/Downloads,no,mono,no,18,no,white,no,yes,768,legacy,46,79,/Users/samonemarks/Downloads/AB-subject-2.csv,legacy,Lentiform Loewenfeld,3.3.9,0,h,NA,s,s,NA,h,387,NA,37735,16208,NA,387,2,legacy,1024,2,48000,-16,experiment,2,even,42007,198436,NA,NA,278660,277593,4261,182227,NA,278654,278762,242511,4225,272258,278763,279151,Flanker Task,119,66239,127,yes,1024
Incongruent,600,SSHSS,93.75,93.75,520.875,520.875,black,legacy,legacy,legacy,0,uniform,1,undefined,1,h,0,0,0,0,127,127,0,0,0,127,127,127,0,127,127,127,Sun Sep 26 18:30:25 2021,The main experiment item,yes,FlankerTask.osexp,/Users/samonemarks/Downloads,no,mono,no,18,no,white,no,yes,768,legacy,47,79,/Users/samonemarks/Downloads/AB-subject-2.csv,legacy,Lentiform Loewenfeld,3.3.9,0,h,NA,s,s,NA,h,433,NA,37735,16208,NA,433,2,legacy,1024,2,48000,-16,experiment,2,even,42007,198436,NA,NA,280221,279156,4261,182227,NA,280216,280324,242511,4225,272258,280324,280758,Flanker Task,120,66672,128,yes,1024
Incongruent,600,HHSHH,93.79844961,93.79844961,520.1395349,520.1395349,black,legacy,legacy,legacy,0,uniform,1,undefined,1,s,0,0,0,0,128,128,0,0,0,128,128,128,0,128,128,128,Sun Sep 26 18:30:25 2021,The main experiment item,yes,FlankerTask.osexp,/Users/samonemarks/Downloads,no,mono,no,18,no,white,no,yes,768,legacy,48,79,/Users/samonemarks/Downloads/AB-subject-2.csv,legacy,Lentiform Loewenfeld,3.3.9,0,s,NA,s,s,NA,s,426,NA,37735,16208,NA,426,2,legacy,1024,2,48000,-16,experiment,2,even,42007,198436,NA,NA,281829,280762,4261,182227,NA,281823,281932,242511,4225,272258,281932,282359,Flanker Task,121,67098,129,yes,1024
Congruent,600,HHHHH,93.84615385,93.84615385,519.2538462,519.2538462,black,legacy,legacy,legacy,0,uniform,1,undefined,1,h,0,0,0,0,129,129,0,0,0,129,129,129,0,129,129,129,Sun Sep 26 18:30:25 2021,The main experiment item,yes,FlankerTask.osexp,/Users/samonemarks/Downloads,no,mono,no,18,no,white,no,yes,768,legacy,49,79,/Users/samonemarks/Downloads/AB-subject-2.csv,legacy,Lentiform Loewenfeld,3.3.9,0,h,NA,s,s,NA,h,405,NA,37735,16208,NA,405,2,legacy,1024,2,48000,-16,experiment,2,even,42007,198436,NA,NA,283429,282364,4261,182227,NA,283423,283531,242511,4225,272258,283532,283938,Flanker Task,122,67503,130,yes,1024
Incongruent,600,SSHSS,93.12977099,93.12977099,518.0534351,518.0534351,black,legacy,legacy,legacy,0,uniform,0,undefined,0,h,0,0,0,0,130,130,0,0,0,130,130,130,0,130,130,130,Sun Sep 26 18:30:25 2021,The main experiment item,yes,FlankerTask.osexp,/Users/samonemarks/Downloads,no,mono,no,18,no,white,no,yes,768,legacy,50,79,/Users/samonemarks/Downloads/AB-subject-2.csv,legacy,Lentiform Loewenfeld,3.3.9,0,s,NA,s,s,NA,s,362,NA,37735,16208,NA,362,2,legacy,1024,2,48000,-16,experiment,2,even,42007,198436,NA,NA,285009,283943,4261,182227,NA,285003,285113,242511,4225,272258,285113,285476,Flanker Task,122,67865,131,yes,1024
Congruent,600,SSSSS,93.18181818,93.18181818,517.6212121,517.6212121,black,legacy,legacy,legacy,0,uniform,1,undefined,1,s,0,0,0,0,131,131,0,0,0,131,131,131,0,131,131,131,Sun Sep 26 18:30:25 2021,The main experiment item,yes,FlankerTask.osexp,/Users/samonemarks/Downloads,no,mono,no,18,no,white,no,yes,768,legacy,51,79,/Users/samonemarks/Downloads/AB-subject-2.csv,legacy,Lentiform Loewenfeld,3.3.9,0,s,NA,s,s,NA,s,461,NA,37735,16208,NA,461,2,legacy,1024,2,48000,-16,experiment,2,even,42007,198436,NA,NA,287049,285986,4261,182227,NA,287045,287152,285481,4225,272258,287153,287615,Flanker Task,123,68326,132,yes,1024
Congruent,600,SSSSS,93.23308271,93.23308271,517.2781955,517.2781955,black,legacy,legacy,legacy,0,uniform,1,undefined,1,s,0,0,0,0,132,132,0,0,0,132,132,132,0,132,132,132,Sun Sep 26 18:30:25 2021,The main experiment item,yes,FlankerTask.osexp,/Users/samonemarks/Downloads,no,mono,no,18,no,white,no,yes,768,legacy,52,79,/Users/samonemarks/Downloads/AB-subject-2.csv,legacy,Lentiform Loewenfeld,3.3.9,0,s,NA,s,s,NA,s,472,NA,37735,16208,NA,472,2,legacy,1024,2,48000,-16,experiment,2,even,42007,198436,NA,NA,288685,287619,4261,182227,NA,288680,288789,285481,4225,272258,288789,289262,Flanker Task,124,68798,133,yes,1024
Congruent,600,HHHHH,93.28358209,93.28358209,516.738806,516.738806,black,legacy,legacy,legacy,0,uniform,1,undefined,1,h,0,0,0,0,133,133,0,0,0,133,133,133,0,133,133,133,Sun Sep 26 18:30:25 2021,The main experiment item,yes,FlankerTask.osexp,/Users/samonemarks/Downloads,no,mono,no,18,no,white,no,yes,768,legacy,53,79,/Users/samonemarks/Downloads/AB-subject-2.csv,legacy,Lentiform Loewenfeld,3.3.9,0,h,NA,s,s,NA,h,445,NA,37735,16208,NA,445,2,legacy,1024,2,48000,-16,experiment,2,even,42007,198436,NA,NA,290332,289266,4261,182227,NA,290326,290436,285481,4225,272258,290436,290882,Flanker Task,125,69243,134,yes,1024
Incongruent,600,HHSHH,93.33333333,93.33333333,516.3111111,516.3111111,black,legacy,legacy,legacy,0,uniform,1,undefined,1,s,0,0,0,0,134,134,0,0,0,134,134,134,0,134,134,134,Sun Sep 26 18:30:25 2021,The main experiment item,yes,FlankerTask.osexp,/Users/samonemarks/Downloads,no,mono,no,18,no,white,no,yes,768,legacy,54,79,/Users/samonemarks/Downloads/AB-subject-2.csv,legacy,Lentiform Loewenfeld,3.3.9,0,s,NA,s,s,NA,s,459,NA,37735,16208,NA,459,2,legacy,1024,2,48000,-16,experiment,2,even,42007,198436,NA,NA,291952,290887,4261,182227,NA,291946,292057,285481,4225,272258,292057,292517,Flanker Task,126,69702,135,yes,1024
Congruent,600,SSSSS,93.38235294,93.38235294,515.4558824,515.4558824,black,legacy,legacy,legacy,0,uniform,1,undefined,1,s,0,0,0,0,135,135,0,0,0,135,135,135,0,135,135,135,Sun Sep 26 18:30:25 2021,The main experiment item,yes,FlankerTask.osexp,/Users/samonemarks/Downloads,no,mono,no,18,no,white,no,yes,768,legacy,55,79,/Users/samonemarks/Downloads/AB-subject-2.csv,legacy,Lentiform Loewenfeld,3.3.9,0,s,NA,s,s,NA,s,400,NA,37735,16208,NA,400,2,legacy,1024,2,48000,-16,experiment,2,even,42007,198436,NA,NA,293590,292523,4261,182227,NA,293583,293693,285481,4225,272258,293694,294096,Flanker Task,127,70102,136,yes,1024
Congruent,600,SSSSS,93.43065693,93.43065693,514.1678832,514.1678832,black,legacy,legacy,legacy,0,uniform,1,undefined,1,s,0,0,0,0,136,136,0,0,0,136,136,136,0,136,136,136,Sun Sep 26 18:30:25 2021,The main experiment item,yes,FlankerTask.osexp,/Users/samonemarks/Downloads,no,mono,no,18,no,white,no,yes,768,legacy,56,79,/Users/samonemarks/Downloads/AB-subject-2.csv,legacy,Lentiform Loewenfeld,3.3.9,0,s,NA,s,s,NA,s,339,NA,37735,16208,NA,339,2,legacy,1024,2,48000,-16,experiment,2,even,42007,198436,NA,NA,295163,294100,4261,182227,NA,295160,295265,285481,4225,272258,295266,295606,Flanker Task,128,70441,137,yes,1024
Congruent,600,SSSSS,93.47826087,93.47826087,513.2173913,513.2173913,black,legacy,legacy,legacy,0,uniform,1,undefined,1,s,0,0,0,0,137,137,0,0,0,137,137,137,0,137,137,137,Sun Sep 26 18:30:25 2021,The main experiment item,yes,FlankerTask.osexp,/Users/samonemarks/Downloads,no,mono,no,18,no,white,no,yes,768,legacy,57,79,/Users/samonemarks/Downloads/AB-subject-2.csv,legacy,Lentiform Loewenfeld,3.3.9,0,s,NA,s,s,NA,s,383,NA,37735,16208,NA,383,2,legacy,1024,2,48000,-16,experiment,2,even,42007,198436,NA,NA,296674,295611,4261,182227,NA,296671,296776,285481,4225,272258,296776,297161,Flanker Task,129,70824,138,yes,1024
Congruent,600,HHHHH,93.52517986,93.52517986,512.057554,512.057554,black,legacy,legacy,legacy,0,uniform,1,undefined,1,h,0,0,0,0,138,138,0,0,0,138,138,138,0,138,138,138,Sun Sep 26 18:30:25 2021,The main experiment item,yes,FlankerTask.osexp,/Users/samonemarks/Downloads,no,mono,no,18,no,white,no,yes,768,legacy,58,79,/Users/samonemarks/Downloads/AB-subject-2.csv,legacy,Lentiform Loewenfeld,3.3.9,0,h,NA,s,s,NA,h,352,NA,37735,16208,NA,352,2,legacy,1024,2,48000,-16,experiment,2,even,42007,198436,NA,NA,298227,297164,4261,182227,NA,298223,298329,285481,4225,272258,298329,298682,Flanker Task,130,71176,139,yes,1024
Congruent,600,SSSSS,93.57142857,93.57142857,510.8928571,510.8928571,black,legacy,legacy,legacy,0,uniform,1,undefined,1,s,0,0,0,0,139,139,0,0,0,139,139,139,0,139,139,139,Sun Sep 26 18:30:25 2021,The main experiment item,yes,FlankerTask.osexp,/Users/samonemarks/Downloads,no,mono,no,18,no,white,no,yes,768,legacy,59,79,/Users/samonemarks/Downloads/AB-subject-2.csv,legacy,Lentiform Loewenfeld,3.3.9,0,s,NA,s,s,NA,s,349,NA,37735,16208,NA,349,2,legacy,1024,2,48000,-16,experiment,2,even,42007,198436,NA,NA,299752,298687,4261,182227,NA,299747,299856,285481,4225,272258,299856,300206,Flanker Task,131,71525,140,yes,1024
Congruent,600,HHHHH,93.61702128,93.61702128,510.3404255,510.3404255,black,legacy,legacy,legacy,0,uniform,1,undefined,1,h,0,0,0,0,140,140,0,0,0,140,140,140,0,140,140,140,Sun Sep 26 18:30:25 2021,The main experiment item,yes,FlankerTask.osexp,/Users/samonemarks/Downloads,no,mono,no,18,no,white,no,yes,768,legacy,60,79,/Users/samonemarks/Downloads/AB-subject-2.csv,legacy,Lentiform Loewenfeld,3.3.9,0,h,NA,s,s,NA,h,433,NA,37735,16208,NA,433,2,legacy,1024,2,48000,-16,experiment,2,even,42007,198436,NA,NA,301276,300211,4261,182227,NA,301271,301378,285481,4225,272258,301379,301813,Flanker Task,132,71958,141,yes,1024
Incongruent,600,HHSHH,93.66197183,93.66197183,510.2253521,510.2253521,black,legacy,legacy,legacy,0,uniform,1,undefined,1,s,0,0,0,0,141,141,0,0,0,141,141,141,0,141,141,141,Sun Sep 26 18:30:25 2021,The main experiment item,yes,FlankerTask.osexp,/Users/samonemarks/Downloads,no,mono,no,18,no,white,no,yes,768,legacy,61,79,/Users/samonemarks/Downloads/AB-subject-2.csv,legacy,Lentiform Loewenfeld,3.3.9,0,s,NA,s,s,NA,s,494,NA,37735,16208,NA,494,2,legacy,1024,2,48000,-16,experiment,2,even,42007,198436,NA,NA,302883,301818,4261,182227,NA,302879,302986,285481,4225,272258,302986,303481,Flanker Task,133,72452,142,yes,1024
Congruent,600,HHHHH,93.70629371,93.70629371,508.8391608,508.8391608,black,legacy,legacy,legacy,0,uniform,1,undefined,1,h,0,0,0,0,142,142,0,0,0,142,142,142,0,142,142,142,Sun Sep 26 18:30:25 2021,The main experiment item,yes,FlankerTask.osexp,/Users/samonemarks/Downloads,no,mono,no,18,no,white,no,yes,768,legacy,62,79,/Users/samonemarks/Downloads/AB-subject-2.csv,legacy,Lentiform Loewenfeld,3.3.9,0,h,NA,s,s,NA,h,312,NA,37735,16208,NA,312,2,legacy,1024,2,48000,-16,experiment,2,even,42007,198436,NA,NA,304549,303486,4261,182227,NA,304546,304651,285481,4225,272258,304651,304964,Flanker Task,134,72764,143,yes,1024
Incongruent,600,SSHSS,93.05555556,93.05555556,507.5416667,507.5416667,black,legacy,legacy,legacy,0,uniform,0,undefined,0,h,0,0,0,0,143,143,0,0,0,143,143,143,0,143,143,143,Sun Sep 26 18:30:25 2021,The main experiment item,yes,FlankerTask.osexp,/Users/samonemarks/Downloads,no,mono,no,18,no,white,no,yes,768,legacy,63,79,/Users/samonemarks/Downloads/AB-subject-2.csv,legacy,Lentiform Loewenfeld,3.3.9,0,s,NA,s,s,NA,s,322,NA,37735,16208,NA,322,2,legacy,1024,2,48000,-16,experiment,2,even,42007,198436,NA,NA,306033,304969,4261,182227,NA,306029,306135,285481,4225,272258,306135,306458,Flanker Task,134,73086,144,yes,1024
Congruent,600,HHHHH,93.10344828,93.10344828,506.8413793,506.8413793,black,legacy,legacy,legacy,0,uniform,1,undefined,1,h,0,0,0,0,144,144,0,0,0,144,144,144,0,144,144,144,Sun Sep 26 18:30:25 2021,The main experiment item,yes,FlankerTask.osexp,/Users/samonemarks/Downloads,no,mono,no,18,no,white,no,yes,768,legacy,64,79,/Users/samonemarks/Downloads/AB-subject-2.csv,legacy,Lentiform Loewenfeld,3.3.9,0,h,NA,s,s,NA,h,406,NA,37735,16208,NA,406,2,legacy,1024,2,48000,-16,experiment,2,even,42007,198436,NA,NA,308032,306969,4261,182227,NA,308029,308135,306463,4225,272258,308135,308542,Flanker Task,135,73492,145,yes,1024
Incongruent,600,SSHSS,93.15068493,93.15068493,507.1506849,507.1506849,black,legacy,legacy,legacy,0,uniform,1,undefined,1,h,0,0,0,0,145,145,0,0,0,145,145,145,0,145,145,145,Sun Sep 26 18:30:25 2021,The main experiment item,yes,FlankerTask.osexp,/Users/samonemarks/Downloads,no,mono,no,18,no,white,no,yes,768,legacy,65,79,/Users/samonemarks/Downloads/AB-subject-2.csv,legacy,Lentiform Loewenfeld,3.3.9,0,h,NA,s,s,NA,h,552,NA,37735,16208,NA,552,2,legacy,1024,2,48000,-16,experiment,2,even,42007,198436,NA,NA,309610,308547,4261,182227,NA,309606,309712,306463,4225,272258,309713,310266,Flanker Task,136,74044,146,yes,1024
Congruent,600,SSSSS,93.19727891,93.19727891,506.5306122,506.5306122,black,legacy,legacy,legacy,0,uniform,1,undefined,1,s,0,0,0,0,146,146,0,0,0,146,146,146,0,146,146,146,Sun Sep 26 18:30:25 2021,The main experiment item,yes,FlankerTask.osexp,/Users/samonemarks/Downloads,no,mono,no,18,no,white,no,yes,768,legacy,66,79,/Users/samonemarks/Downloads/AB-subject-2.csv,legacy,Lentiform Loewenfeld,3.3.9,0,s,NA,s,s,NA,s,416,NA,37735,16208,NA,416,2,legacy,1024,2,48000,-16,experiment,2,even,42007,198436,NA,NA,311336,310271,4261,182227,NA,311331,311438,306463,4225,272258,311438,311855,Flanker Task,137,74460,147,yes,1024
Incongruent,600,HHSHH,93.24324324,93.24324324,506.1756757,506.1756757,black,legacy,legacy,legacy,0,uniform,1,undefined,1,s,0,0,0,0,147,147,0,0,0,147,147,147,0,147,147,147,Sun Sep 26 18:30:25 2021,The main experiment item,yes,FlankerTask.osexp,/Users/samonemarks/Downloads,no,mono,no,18,no,white,no,yes,768,legacy,67,79,/Users/samonemarks/Downloads/AB-subject-2.csv,legacy,Lentiform Loewenfeld,3.3.9,0,s,NA,s,s,NA,s,454,NA,37735,16208,NA,454,2,legacy,1024,2,48000,-16,experiment,2,even,42007,198436,NA,NA,312925,311860,4261,182227,NA,312920,313029,306463,4225,272258,313029,313484,Flanker Task,138,74914,148,yes,1024
Incongruent,600,SSHSS,93.2885906,93.2885906,505.5436242,505.5436242,black,legacy,legacy,legacy,0,uniform,1,undefined,1,h,0,0,0,0,148,148,0,0,0,148,148,148,0,148,148,148,Sun Sep 26 18:30:25 2021,The main experiment item,yes,FlankerTask.osexp,/Users/samonemarks/Downloads,no,mono,no,18,no,white,no,yes,768,legacy,68,79,/Users/samonemarks/Downloads/AB-subject-2.csv,legacy,Lentiform Loewenfeld,3.3.9,0,h,NA,s,s,NA,h,412,NA,37735,16208,NA,412,2,legacy,1024,2,48000,-16,experiment,2,even,42007,198436,NA,NA,314553,313489,4261,182227,NA,314549,314656,306463,4225,272258,314656,315069,Flanker Task,139,75326,149,yes,1024
Incongruent,600,SSHSS,93.33333333,93.33333333,504.6866667,504.6866667,black,legacy,legacy,legacy,0,uniform,1,undefined,1,h,0,0,0,0,149,149,0,0,0,149,149,149,0,149,149,149,Sun Sep 26 18:30:25 2021,The main experiment item,yes,FlankerTask.osexp,/Users/samonemarks/Downloads,no,mono,no,18,no,white,no,yes,768,legacy,69,79,/Users/samonemarks/Downloads/AB-subject-2.csv,legacy,Lentiform Loewenfeld,3.3.9,0,h,NA,s,s,NA,h,377,NA,37735,16208,NA,377,2,legacy,1024,2,48000,-16,experiment,2,even,42007,198436,NA,NA,316137,315074,4261,182227,NA,316133,316240,306463,4225,272258,316240,316618,Flanker Task,140,75703,150,yes,1024
Incongruent,600,HHSHH,93.37748344,93.37748344,504.4834437,504.4834437,black,legacy,legacy,legacy,0,uniform,1,undefined,1,s,0,0,0,0,150,150,0,0,0,150,150,150,0,150,150,150,Sun Sep 26 18:30:25 2021,The main experiment item,yes,FlankerTask.osexp,/Users/samonemarks/Downloads,no,mono,no,18,no,white,no,yes,768,legacy,70,79,/Users/samonemarks/Downloads/AB-subject-2.csv,legacy,Lentiform Loewenfeld,3.3.9,0,s,NA,s,s,NA,s,474,NA,37735,16208,NA,474,2,legacy,1024,2,48000,-16,experiment,2,even,42007,198436,NA,NA,317687,316623,4261,182227,NA,317682,317789,306463,4225,272258,317790,318266,Flanker Task,141,76177,151,yes,1024
Incongruent,600,SSHSS,93.42105263,93.42105263,505.1710526,505.1710526,black,legacy,legacy,legacy,0,uniform,1,undefined,1,h,0,0,0,0,151,151,0,0,0,151,151,151,0,151,151,151,Sun Sep 26 18:30:25 2021,The main experiment item,yes,FlankerTask.osexp,/Users/samonemarks/Downloads,no,mono,no,18,no,white,no,yes,768,legacy,71,79,/Users/samonemarks/Downloads/AB-subject-2.csv,legacy,Lentiform Loewenfeld,3.3.9,0,h,NA,s,s,NA,h,609,NA,37735,16208,NA,609,2,legacy,1024,2,48000,-16,experiment,2,even,42007,198436,NA,NA,319334,318270,4261,182227,NA,319330,319436,306463,4225,272258,319436,320046,Flanker Task,142,76786,152,yes,1024
Congruent,600,SSSSS,93.46405229,93.46405229,505.3333333,505.3333333,black,legacy,legacy,legacy,0,uniform,1,undefined,1,s,0,0,0,0,152,152,0,0,0,152,152,152,0,152,152,152,Sun Sep 26 18:30:25 2021,The main experiment item,yes,FlankerTask.osexp,/Users/samonemarks/Downloads,no,mono,no,18,no,white,no,yes,768,legacy,72,79,/Users/samonemarks/Downloads/AB-subject-2.csv,legacy,Lentiform Loewenfeld,3.3.9,0,s,NA,s,s,NA,s,530,NA,37735,16208,NA,530,2,legacy,1024,2,48000,-16,experiment,2,even,42007,198436,NA,NA,321618,320556,4261,182227,NA,321616,321720,306463,4225,320051,321720,322251,Flanker Task,143,77316,153,yes,1024
Congruent,600,SSSSS,93.50649351,93.50649351,504.8311688,504.8311688,black,legacy,legacy,legacy,0,uniform,1,undefined,1,s,0,0,0,0,153,153,0,0,0,153,153,153,0,153,153,153,Sun Sep 26 18:30:25 2021,The main experiment item,yes,FlankerTask.osexp,/Users/samonemarks/Downloads,no,mono,no,18,no,white,no,yes,768,legacy,73,79,/Users/samonemarks/Downloads/AB-subject-2.csv,legacy,Lentiform Loewenfeld,3.3.9,0,s,NA,s,s,NA,s,428,NA,37735,16208,NA,428,2,legacy,1024,2,48000,-16,experiment,2,even,42007,198436,NA,NA,323319,322255,4261,182227,NA,323315,323421,306463,4225,320051,323421,323850,Flanker Task,144,77744,154,yes,1024
Incongruent,600,SSHSS,93.5483871,93.5483871,504.8129032,504.8129032,black,legacy,legacy,legacy,0,uniform,1,undefined,1,h,0,0,0,0,154,154,0,0,0,154,154,154,0,154,154,154,Sun Sep 26 18:30:25 2021,The main experiment item,yes,FlankerTask.osexp,/Users/samonemarks/Downloads,no,mono,no,18,no,white,no,yes,768,legacy,74,79,/Users/samonemarks/Downloads/AB-subject-2.csv,legacy,Lentiform Loewenfeld,3.3.9,0,h,NA,s,s,NA,h,502,NA,37735,16208,NA,502,2,legacy,1024,2,48000,-16,experiment,2,even,42007,198436,NA,NA,324918,323854,4261,182227,NA,324914,325020,306463,4225,320051,325020,325523,Flanker Task,145,78246,155,yes,1024
Congruent,600,HHHHH,93.58974359,93.58974359,503.974359,503.974359,black,legacy,legacy,legacy,0,uniform,1,undefined,1,h,0,0,0,0,155,155,0,0,0,155,155,155,0,155,155,155,Sun Sep 26 18:30:25 2021,The main experiment item,yes,FlankerTask.osexp,/Users/samonemarks/Downloads,no,mono,no,18,no,white,no,yes,768,legacy,75,79,/Users/samonemarks/Downloads/AB-subject-2.csv,legacy,Lentiform Loewenfeld,3.3.9,0,h,NA,s,s,NA,h,374,NA,37735,16208,NA,374,2,legacy,1024,2,48000,-16,experiment,2,even,42007,198436,NA,NA,326596,325527,4261,182227,NA,326588,326701,306463,4225,320051,326701,327076,Flanker Task,146,78620,156,yes,1024
Congruent,600,HHHHH,93.63057325,93.63057325,503.3566879,503.3566879,black,legacy,legacy,legacy,0,uniform,1,undefined,1,h,0,0,0,0,156,156,0,0,0,156,156,156,0,156,156,156,Sun Sep 26 18:30:25 2021,The main experiment item,yes,FlankerTask.osexp,/Users/samonemarks/Downloads,no,mono,no,18,no,white,no,yes,768,legacy,76,79,/Users/samonemarks/Downloads/AB-subject-2.csv,legacy,Lentiform Loewenfeld,3.3.9,0,h,NA,s,s,NA,h,407,NA,37735,16208,NA,407,2,legacy,1024,2,48000,-16,experiment,2,even,42007,198436,NA,NA,328149,327080,4261,182227,NA,328140,328253,306463,4225,320051,328253,328661,Flanker Task,147,79027,157,yes,1024
Congruent,600,SSSSS,93.67088608,93.67088608,502.8860759,502.8860759,black,legacy,legacy,legacy,0,uniform,1,undefined,1,s,0,0,0,0,157,157,0,0,0,157,157,157,0,157,157,157,Sun Sep 26 18:30:25 2021,The main experiment item,yes,FlankerTask.osexp,/Users/samonemarks/Downloads,no,mono,no,18,no,white,no,yes,768,legacy,77,79,/Users/samonemarks/Downloads/AB-subject-2.csv,legacy,Lentiform Loewenfeld,3.3.9,0,s,NA,s,s,NA,s,429,NA,37735,16208,NA,429,2,legacy,1024,2,48000,-16,experiment,2,even,42007,198436,NA,NA,329734,328666,4261,182227,NA,329726,329837,306463,4225,320051,329838,330268,Flanker Task,148,79456,158,yes,1024
Incongruent,600,HHSHH,93.08176101,93.08176101,502.3584906,502.3584906,black,legacy,legacy,legacy,0,uniform,0,undefined,0,s,0,0,0,0,158,158,0,0,0,158,158,158,0,158,158,158,Sun Sep 26 18:30:25 2021,The main experiment item,yes,FlankerTask.osexp,/Users/samonemarks/Downloads,no,mono,no,18,no,white,no,yes,768,legacy,78,79,/Users/samonemarks/Downloads/AB-subject-2.csv,legacy,Lentiform Loewenfeld,3.3.9,0,h,NA,s,s,NA,h,419,NA,37735,16208,NA,419,2,legacy,1024,2,48000,-16,experiment,2,even,42007,198436,NA,NA,331339,330273,4261,182227,NA,331334,331442,306463,4225,320051,331442,331862,Flanker Task,148,79875,159,yes,1024
Incongruent,600,HHSHH,93.125,93.125,502.0375,502.0375,black,legacy,legacy,legacy,0,uniform,1,undefined,1,s,0,0,0,0,159,159,0,0,0,159,159,159,0,159,159,159,Sun Sep 26 18:30:25 2021,The main experiment item,yes,FlankerTask.osexp,/Users/samonemarks/Downloads,no,mono,no,18,no,white,no,yes,768,legacy,79,79,/Users/samonemarks/Downloads/AB-subject-2.csv,legacy,Lentiform Loewenfeld,3.3.9,0,s,NA,s,s,NA,s,451,NA,37735,16208,NA,451,2,legacy,1024,2,48000,-16,experiment,2,even,42007,198436,NA,NA,333445,332375,4261,182227,NA,333436,333551,331866,4225,320051,333551,334003,Flanker Task,149,80326,160,yes,1024
Incongruent,300,HHSHH,93.16770186,93.16770186,504.6273292,504.6273292,black,legacy,legacy,legacy,0,uniform,1,undefined,1,s,0,0,0,0,160,160,0,0,0,160,160,160,0,160,160,160,Sun Sep 26 18:30:25 2021,The main experiment item,yes,FlankerTask.osexp,/Users/samonemarks/Downloads,no,mono,no,18,no,white,no,yes,768,legacy,0,79,/Users/samonemarks/Downloads/AB-subject-2.csv,legacy,Lentiform Loewenfeld,3.3.9,0,s,NA,s,s,tab,s,919,NA,37735,16208,12442,919,2,legacy,1024,2,48000,-16,experiment,2,even,42007,198436,347478,NA,347524,334008,4261,182227,335035,347521,347628,331866,4225,320051,347628,348548,Flanker Task,150,81245,161,yes,1024
Incongruent,300,HHSHH,93.20987654,93.20987654,505.6358025,505.6358025,black,legacy,legacy,legacy,0,uniform,1,undefined,1,s,0,0,0,0,161,161,0,0,0,161,161,161,0,161,161,161,Sun Sep 26 18:30:25 2021,The main experiment item,yes,FlankerTask.osexp,/Users/samonemarks/Downloads,no,mono,no,18,no,white,no,yes,768,legacy,1,79,/Users/samonemarks/Downloads/AB-subject-2.csv,legacy,Lentiform Loewenfeld,3.3.9,0,s,NA,s,s,tab,s,668,NA,37735,16208,12442,668,2,legacy,1024,2,48000,-16,experiment,2,even,42007,198436,347478,NA,350133,349062,4261,182227,335035,350123,350236,331866,4225,348553,350236,350905,Flanker Task,151,81913,162,yes,1024
Incongruent,300,SSHSS,92.63803681,92.63803681,505.3742331,505.3742331,black,legacy,legacy,legacy,0,uniform,0,undefined,0,h,0,0,0,0,162,162,0,0,0,162,162,162,0,162,162,162,Sun Sep 26 18:30:25 2021,The main experiment item,yes,FlankerTask.osexp,/Users/samonemarks/Downloads,no,mono,no,18,no,white,no,yes,768,legacy,2,79,/Users/samonemarks/Downloads/AB-subject-2.csv,legacy,Lentiform Loewenfeld,3.3.9,0,s,NA,s,s,tab,s,463,NA,37735,16208,12442,463,2,legacy,1024,2,48000,-16,experiment,2,even,42007,198436,347478,NA,352487,351417,4261,182227,335035,352477,352590,331866,4225,350910,352590,353054,Flanker Task,151,82376,163,yes,1024
Congruent,300,SSSSS,92.68292683,92.68292683,504.9512195,504.9512195,black,legacy,legacy,legacy,0,uniform,1,undefined,1,s,0,0,0,0,163,163,0,0,0,163,163,163,0,163,163,163,Sun Sep 26 18:30:25 2021,The main experiment item,yes,FlankerTask.osexp,/Users/samonemarks/Downloads,no,mono,no,18,no,white,no,yes,768,legacy,3,79,/Users/samonemarks/Downloads/AB-subject-2.csv,legacy,Lentiform Loewenfeld,3.3.9,0,s,NA,s,s,tab,s,436,NA,37735,16208,12442,436,2,legacy,1024,2,48000,-16,experiment,2,even,42007,198436,347478,NA,355134,354070,4261,182227,335035,355129,355238,353059,4225,353564,355238,355676,Flanker Task,152,82812,164,yes,1024
