acc,accuracy,average_response_time,avg_rt,background,canvas_backend,clock_backend,color_backend,compensation,condition,coordinates,correct,correct_instructions1,correct_keyboard_response,correct_response,count_Finish,count_ISI,count_block1,count_block2,count_block3,count_errorFeedback,count_experiment,count_faster,count_fixation,count_instructions1,count_instructions2,count_instructions3,count_keyboard_response,count_logger,count_sequence_1,count_stimulus,datetime,deadline,description,disable_garbage_collection,experiment_file,experiment_path,font_bold,font_family,font_italic,font_size,font_underline,foreground,form_clicks,fullscreen,height,keyboard_backend,live_row,live_row_block1,logfile,mouse_backend,opensesame_codename,opensesame_version,repeat_cycle,response,response_Finish,response_instructions1,response_instructions2,response_instructions3,response_keyboard_response,response_time,response_time_Finish,response_time_instructions1,response_time_instructions2,response_time_instructions3,response_time_keyboard_response,round_decimals,sampler_backend,sound_buf_size,sound_channels,sound_freq,sound_sample_size,start,stimulus,subject_nr,subject_parity,time_Finish,time_ISI,time_block1,time_block2,time_block3,time_errorFeedback,time_experiment,time_faster,time_fixation,time_instructions1,time_instructions2,time_instructions3,time_keyboard_response,time_logger,time_sequence_1,time_stimulus,title,total_correct,total_response_time,total_responses,uniform_coordinates,width
100,100,905,905,black,legacy,legacy,legacy,0,incongruent,uniform,1,undefined,1,h,0,0,0,0,0,0,0,0,0,0,0,0,0,0,0,0,9/19/2021 11:59,1500,The main experiment item,yes,Flankertask.osexp,C:/Users/borna.000/Documents/PSYC/PSYC5316,no,mono,no,18,no,white,no,yes,768,legacy,0,0,C:/Users/borna.000/Desktop/DH-subject-1.csv,legacy,Lentiform Loewenfeld,3.3.9,0,h,NA,s,NA,NA,h,905,NA,28453,NA,NA,905,2,legacy,1024,2,48000,-16,experiment,SSHSS,1,odd,NA,NA,30712,NA,NA,NA,2255,NA,30781,2259,NA,NA,30882,31787,30779,30882,Flanker task,1,905,1,yes,1024
100,100,680,680,black,legacy,legacy,legacy,0,congruent,uniform,1,undefined,1,h,0,1,0,0,0,1,0,1,1,0,0,0,1,1,1,1,9/19/2021 11:59,1500,The main experiment item,yes,Flankertask.osexp,C:/Users/borna.000/Documents/PSYC/PSYC5316,no,mono,no,18,no,white,no,yes,768,legacy,1,1,C:/Users/borna.000/Desktop/DH-subject-1.csv,legacy,Lentiform Loewenfeld,3.3.9,0,h,NA,s,NA,NA,h,455,NA,28453,NA,NA,455,2,legacy,1024,2,48000,-16,experiment,HHHHH,1,odd,NA,31799,30712,NA,NA,NA,2255,NA,32876,2259,NA,NA,32978,33433,32873,32978,Flanker task,2,1360,2,yes,1024
100,100,633.3333333,633.3333333,black,legacy,legacy,legacy,0,incongruent,uniform,1,undefined,1,h,0,2,0,0,0,2,0,2,2,0,0,0,2,2,2,2,9/19/2021 11:59,1500,The main experiment item,yes,Flankertask.osexp,C:/Users/borna.000/Documents/PSYC/PSYC5316,no,mono,no,18,no,white,no,yes,768,legacy,2,2,C:/Users/borna.000/Desktop/DH-subject-1.csv,legacy,Lentiform Loewenfeld,3.3.9,0,h,NA,s,NA,NA,h,540,NA,28453,NA,NA,540,2,legacy,1024,2,48000,-16,experiment,SSHSS,1,odd,NA,33442,30712,NA,NA,NA,2255,NA,34509,2259,NA,NA,34610,35151,34506,34610,Flanker task,3,1900,3,yes,1024
100,100,576,576,black,legacy,legacy,legacy,0,congruent,uniform,1,undefined,1,s,0,3,0,0,0,3,0,3,3,0,0,0,3,3,3,3,9/19/2021 11:59,1500,The main experiment item,yes,Flankertask.osexp,C:/Users/borna.000/Documents/PSYC/PSYC5316,no,mono,no,18,no,white,no,yes,768,legacy,3,3,C:/Users/borna.000/Desktop/DH-subject-1.csv,legacy,Lentiform Loewenfeld,3.3.9,0,s,NA,s,NA,NA,s,404,NA,28453,NA,NA,404,2,legacy,1024,2,48000,-16,experiment,SSSSS,1,odd,NA,35159,30712,NA,NA,NA,2255,NA,36226,2259,NA,NA,36327,36731,36224,36327,Flanker task,4,2304,4,yes,1024
100,100,525.4,525.4,black,legacy,legacy,legacy,0,congruent,uniform,1,undefined,1,s,0,4,0,0,0,4,0,4,4,0,0,0,4,4,4,4,9/19/2021 11:59,1500,The main experiment item,yes,Flankertask.osexp,C:/Users/borna.000/Documents/PSYC/PSYC5316,no,mono,no,18,no,white,no,yes,768,legacy,4,4,C:/Users/borna.000/Desktop/DH-subject-1.csv,legacy,Lentiform Loewenfeld,3.3.9,0,s,NA,s,NA,NA,s,323,NA,28453,NA,NA,323,2,legacy,1024,2,48000,-16,experiment,SSSSS,1,odd,NA,36739,30712,NA,NA,NA,2255,NA,37808,2259,NA,NA,37910,38234,37806,37909,Flanker task,5,2627,5,yes,1024
100,100,494.3333333,494.3333333,black,legacy,legacy,legacy,0,incongruent,uniform,1,undefined,1,s,0,5,0,0,0,5,0,5,5,0,0,0,5,5,5,5,9/19/2021 11:59,1500,The main experiment item,yes,Flankertask.osexp,C:/Users/borna.000/Documents/PSYC/PSYC5316,no,mono,no,18,no,white,no,yes,768,legacy,5,5,C:/Users/borna.000/Desktop/DH-subject-1.csv,legacy,Lentiform Loewenfeld,3.3.9,0,s,NA,s,NA,NA,s,339,NA,28453,NA,NA,339,2,legacy,1024,2,48000,-16,experiment,HHSHH,1,odd,NA,38242,30712,NA,NA,NA,2255,NA,39311,2259,NA,NA,39412,39751,39309,39412,Flanker task,6,2966,6,yes,1024
100,100,475.1428571,475.1428571,black,legacy,legacy,legacy,0,congruent,uniform,1,undefined,1,s,0,6,0,0,0,6,0,6,6,0,0,0,6,6,6,6,9/19/2021 11:59,1500,The main experiment item,yes,Flankertask.osexp,C:/Users/borna.000/Documents/PSYC/PSYC5316,no,mono,no,18,no,white,no,yes,768,legacy,6,6,C:/Users/borna.000/Desktop/DH-subject-1.csv,legacy,Lentiform Loewenfeld,3.3.9,0,s,NA,s,NA,NA,s,360,NA,28453,NA,NA,360,2,legacy,1024,2,48000,-16,experiment,SSSSS,1,odd,NA,39760,30712,NA,NA,NA,2255,NA,40824,2259,NA,NA,40925,41286,40822,40925,Flanker task,7,3326,7,yes,1024
87.5,87.5,468.625,468.625,black,legacy,legacy,legacy,0,incongruent,uniform,0,undefined,0,h,0,7,0,0,0,7,0,7,7,0,0,0,7,7,7,7,9/19/2021 11:59,1500,The main experiment item,yes,Flankertask.osexp,C:/Users/borna.000/Documents/PSYC/PSYC5316,no,mono,no,18,no,white,no,yes,768,legacy,7,7,C:/Users/borna.000/Desktop/DH-subject-1.csv,legacy,Lentiform Loewenfeld,3.3.9,0,s,NA,s,NA,NA,s,423,NA,28453,NA,NA,423,2,legacy,1024,2,48000,-16,experiment,SSHSS,1,odd,NA,41295,30712,NA,NA,NA,2255,NA,42363,2259,NA,NA,42464,42888,42360,42464,Flanker task,7,3749,8,yes,1024
88.88888889,88.88888889,482.3333333,482.3333333,black,legacy,legacy,legacy,0,incongruent,uniform,1,undefined,1,s,0,8,0,0,0,8,0,8,8,0,0,0,8,8,8,8,9/19/2021 11:59,1500,The main experiment item,yes,Flankertask.osexp,C:/Users/borna.000/Documents/PSYC/PSYC5316,no,mono,no,18,no,white,no,yes,768,legacy,8,8,C:/Users/borna.000/Desktop/DH-subject-1.csv,legacy,Lentiform Loewenfeld,3.3.9,0,s,NA,s,NA,NA,s,592,NA,28453,NA,NA,592,2,legacy,1024,2,48000,-16,experiment,HHSHH,1,odd,NA,43397,30712,NA,NA,42896,2255,NA,44456,2259,NA,NA,44557,45149,44454,44557,Flanker task,8,4341,9,yes,1024
90,90,478.1,478.1,black,legacy,legacy,legacy,0,congruent,uniform,1,undefined,1,s,0,9,0,0,0,9,0,9,9,0,0,0,9,9,9,9,9/19/2021 11:59,1500,The main experiment item,yes,Flankertask.osexp,C:/Users/borna.000/Documents/PSYC/PSYC5316,no,mono,no,18,no,white,no,yes,768,legacy,9,9,C:/Users/borna.000/Desktop/DH-subject-1.csv,legacy,Lentiform Loewenfeld,3.3.9,0,s,NA,s,NA,NA,s,440,NA,28453,NA,NA,440,2,legacy,1024,2,48000,-16,experiment,SSSSS,1,odd,NA,45158,30712,NA,NA,42896,2255,NA,46223,2259,NA,NA,46324,46764,46221,46324,Flanker task,9,4781,10,yes,1024
90.90909091,90.90909091,472.5454545,472.5454545,black,legacy,legacy,legacy,0,congruent,uniform,1,undefined,1,h,0,10,0,0,0,10,0,10,10,0,0,0,10,10,10,10,9/19/2021 11:59,1500,The main experiment item,yes,Flankertask.osexp,C:/Users/borna.000/Documents/PSYC/PSYC5316,no,mono,no,18,no,white,no,yes,768,legacy,10,10,C:/Users/borna.000/Desktop/DH-subject-1.csv,legacy,Lentiform Loewenfeld,3.3.9,0,h,NA,s,NA,NA,h,417,NA,28453,NA,NA,417,2,legacy,1024,2,48000,-16,experiment,HHHHH,1,odd,NA,46769,30712,NA,NA,42896,2255,NA,47837,2259,NA,NA,47938,48356,47834,47938,Flanker task,10,5198,11,yes,1024
91.66666667,91.66666667,464.9166667,464.9166667,black,legacy,legacy,legacy,0,congruent,uniform,1,undefined,1,h,0,11,0,0,0,11,0,11,11,0,0,0,11,11,11,11,9/19/2021 11:59,1500,The main experiment item,yes,Flankertask.osexp,C:/Users/borna.000/Documents/PSYC/PSYC5316,no,mono,no,18,no,white,no,yes,768,legacy,11,11,C:/Users/borna.000/Desktop/DH-subject-1.csv,legacy,Lentiform Loewenfeld,3.3.9,0,h,NA,s,NA,NA,h,381,NA,28453,NA,NA,381,2,legacy,1024,2,48000,-16,experiment,HHHHH,1,odd,NA,48359,30712,NA,NA,42896,2255,NA,49428,2259,NA,NA,49529,49910,49425,49529,Flanker task,11,5579,12,yes,1024
92.30769231,92.30769231,463.6153846,463.6153846,black,legacy,legacy,legacy,0,congruent,uniform,1,undefined,1,s,0,12,0,0,0,12,0,12,12,0,0,0,12,12,12,12,9/19/2021 11:59,1500,The main experiment item,yes,Flankertask.osexp,C:/Users/borna.000/Documents/PSYC/PSYC5316,no,mono,no,18,no,white,no,yes,768,legacy,12,12,C:/Users/borna.000/Desktop/DH-subject-1.csv,legacy,Lentiform Loewenfeld,3.3.9,0,s,NA,s,NA,NA,s,448,NA,28453,NA,NA,448,2,legacy,1024,2,48000,-16,experiment,SSSSS,1,odd,NA,49918,30712,NA,NA,42896,2255,NA,50982,2259,NA,NA,51083,51532,50980,51083,Flanker task,12,6027,13,yes,1024
92.85714286,92.85714286,458.3571429,458.3571429,black,legacy,legacy,legacy,0,congruent,uniform,1,undefined,1,s,0,13,0,0,0,13,0,13,13,0,0,0,13,13,13,13,9/19/2021 11:59,1500,The main experiment item,yes,Flankertask.osexp,C:/Users/borna.000/Documents/PSYC/PSYC5316,no,mono,no,18,no,white,no,yes,768,legacy,13,13,C:/Users/borna.000/Desktop/DH-subject-1.csv,legacy,Lentiform Loewenfeld,3.3.9,0,s,NA,s,NA,NA,s,390,NA,28453,NA,NA,390,2,legacy,1024,2,48000,-16,experiment,SSSSS,1,odd,NA,51541,30712,NA,NA,42896,2255,NA,52607,2259,NA,NA,52708,53099,52605,52708,Flanker task,13,6417,14,yes,1024
93.33333333,93.33333333,461.6,461.6,black,legacy,legacy,legacy,0,congruent,uniform,1,undefined,1,h,0,14,0,0,0,14,0,14,14,0,0,0,14,14,14,14,9/19/2021 11:59,1500,The main experiment item,yes,Flankertask.osexp,C:/Users/borna.000/Documents/PSYC/PSYC5316,no,mono,no,18,no,white,no,yes,768,legacy,14,14,C:/Users/borna.000/Desktop/DH-subject-1.csv,legacy,Lentiform Loewenfeld,3.3.9,0,h,NA,s,NA,NA,h,507,NA,28453,NA,NA,507,2,legacy,1024,2,48000,-16,experiment,HHHHH,1,odd,NA,53108,30712,NA,NA,42896,2255,NA,54173,2259,NA,NA,54274,54781,54171,54274,Flanker task,14,6924,15,yes,1024
87.5,87.5,458.125,458.125,black,legacy,legacy,legacy,0,incongruent,uniform,0,undefined,0,s,0,15,0,0,0,15,0,15,15,0,0,0,15,15,15,15,9/19/2021 11:59,1500,The main experiment item,yes,Flankertask.osexp,C:/Users/borna.000/Documents/PSYC/PSYC5316,no,mono,no,18,no,white,no,yes,768,legacy,15,15,C:/Users/borna.000/Desktop/DH-subject-1.csv,legacy,Lentiform Loewenfeld,3.3.9,0,h,NA,s,NA,NA,h,406,NA,28453,NA,NA,406,2,legacy,1024,2,48000,-16,experiment,HHSHH,1,odd,NA,54789,30712,NA,NA,42896,2255,NA,55856,2259,NA,NA,55957,56363,55854,55957,Flanker task,14,7330,16,yes,1024
88.23529412,88.23529412,461.5882353,461.5882353,black,legacy,legacy,legacy,0,congruent,uniform,1,undefined,1,s,0,16,0,0,0,16,0,16,16,0,0,0,16,16,16,16,9/19/2021 11:59,1500,The main experiment item,yes,Flankertask.osexp,C:/Users/borna.000/Documents/PSYC/PSYC5316,no,mono,no,18,no,white,no,yes,768,legacy,16,16,C:/Users/borna.000/Desktop/DH-subject-1.csv,legacy,Lentiform Loewenfeld,3.3.9,0,s,NA,s,NA,NA,s,517,NA,28453,NA,NA,517,2,legacy,1024,2,48000,-16,experiment,SSSSS,1,odd,NA,56873,30712,NA,NA,56372,2255,NA,57929,2259,NA,NA,58030,58547,57927,58030,Flanker task,15,7847,17,yes,1024
88.88888889,88.88888889,464.2777778,464.2777778,black,legacy,legacy,legacy,0,incongruent,uniform,1,undefined,1,h,0,17,0,0,0,17,0,17,17,0,0,0,17,17,17,17,9/19/2021 11:59,1500,The main experiment item,yes,Flankertask.osexp,C:/Users/borna.000/Documents/PSYC/PSYC5316,no,mono,no,18,no,white,no,yes,768,legacy,17,17,C:/Users/borna.000/Desktop/DH-subject-1.csv,legacy,Lentiform Loewenfeld,3.3.9,0,h,NA,s,NA,NA,h,510,NA,28453,NA,NA,510,2,legacy,1024,2,48000,-16,experiment,SSHSS,1,odd,NA,58556,30712,NA,NA,56372,2255,NA,59623,2259,NA,NA,59724,60235,59621,59724,Flanker task,16,8357,18,yes,1024
89.47368421,89.47368421,464.8421053,464.8421053,black,legacy,legacy,legacy,0,incongruent,uniform,1,undefined,1,h,0,18,0,0,0,18,0,18,18,0,0,0,18,18,18,18,9/19/2021 11:59,1500,The main experiment item,yes,Flankertask.osexp,C:/Users/borna.000/Documents/PSYC/PSYC5316,no,mono,no,18,no,white,no,yes,768,legacy,18,18,C:/Users/borna.000/Desktop/DH-subject-1.csv,legacy,Lentiform Loewenfeld,3.3.9,0,h,NA,s,NA,NA,h,475,NA,28453,NA,NA,475,2,legacy,1024,2,48000,-16,experiment,SSHSS,1,odd,NA,60246,30712,NA,NA,56372,2255,NA,61308,2259,NA,NA,61409,61885,61306,61409,Flanker task,17,8832,19,yes,1024
90,90,462.7,462.7,black,legacy,legacy,legacy,0,congruent,uniform,1,undefined,1,s,0,19,0,0,0,19,0,19,19,0,0,0,19,19,19,19,9/19/2021 11:59,1500,The main experiment item,yes,Flankertask.osexp,C:/Users/borna.000/Documents/PSYC/PSYC5316,no,mono,no,18,no,white,no,yes,768,legacy,19,19,C:/Users/borna.000/Desktop/DH-subject-1.csv,legacy,Lentiform Loewenfeld,3.3.9,0,s,NA,s,NA,NA,s,422,NA,28453,NA,NA,422,2,legacy,1024,2,48000,-16,experiment,SSSSS,1,odd,NA,61893,30712,NA,NA,56372,2255,NA,62960,2259,NA,NA,63061,63484,62958,63061,Flanker task,18,9254,20,yes,1024
90.47619048,90.47619048,468.5714286,468.5714286,black,legacy,legacy,legacy,0,incongruent,uniform,1,undefined,1,s,0,20,0,0,0,20,0,20,20,0,0,0,20,20,20,20,9/19/2021 11:59,1500,The main experiment item,yes,Flankertask.osexp,C:/Users/borna.000/Documents/PSYC/PSYC5316,no,mono,no,18,no,white,no,yes,768,legacy,20,20,C:/Users/borna.000/Desktop/DH-subject-1.csv,legacy,Lentiform Loewenfeld,3.3.9,0,s,NA,s,NA,NA,s,586,NA,28453,NA,NA,586,2,legacy,1024,2,48000,-16,experiment,HHSHH,1,odd,NA,63492,30712,NA,NA,56372,2255,NA,64557,2259,NA,NA,64658,65245,64555,64658,Flanker task,19,9840,21,yes,1024
90.90909091,90.90909091,468.4545455,468.4545455,black,legacy,legacy,legacy,0,incongruent,uniform,1,undefined,1,s,0,21,0,0,0,21,0,21,21,0,0,0,21,21,21,21,9/19/2021 11:59,1500,The main experiment item,yes,Flankertask.osexp,C:/Users/borna.000/Documents/PSYC/PSYC5316,no,mono,no,18,no,white,no,yes,768,legacy,21,21,C:/Users/borna.000/Desktop/DH-subject-1.csv,legacy,Lentiform Loewenfeld,3.3.9,0,s,NA,s,NA,NA,s,466,NA,28453,NA,NA,466,2,legacy,1024,2,48000,-16,experiment,HHSHH,1,odd,NA,65253,30712,NA,NA,56372,2255,NA,66319,2259,NA,NA,66420,66886,66317,66420,Flanker task,20,10306,22,yes,1024
86.95652174,86.95652174,468.7826087,468.7826087,black,legacy,legacy,legacy,0,incongruent,uniform,0,undefined,0,h,0,22,0,0,0,22,0,22,22,0,0,0,22,22,22,22,9/19/2021 11:59,1500,The main experiment item,yes,Flankertask.osexp,C:/Users/borna.000/Documents/PSYC/PSYC5316,no,mono,no,18,no,white,no,yes,768,legacy,22,22,C:/Users/borna.000/Desktop/DH-subject-1.csv,legacy,Lentiform Loewenfeld,3.3.9,0,s,NA,s,NA,NA,s,476,NA,28453,NA,NA,476,2,legacy,1024,2,48000,-16,experiment,SSHSS,1,odd,NA,66895,30712,NA,NA,56372,2255,NA,67961,2259,NA,NA,68062,68539,67958,68062,Flanker task,20,10782,23,yes,1024
87.5,87.5,469.1666667,469.1666667,black,legacy,legacy,legacy,0,incongruent,uniform,1,undefined,1,s,0,23,0,0,0,23,0,23,23,0,0,0,23,23,23,23,9/19/2021 11:59,1500,The main experiment item,yes,Flankertask.osexp,C:/Users/borna.000/Documents/PSYC/PSYC5316,no,mono,no,18,no,white,no,yes,768,legacy,23,23,C:/Users/borna.000/Desktop/DH-subject-1.csv,legacy,Lentiform Loewenfeld,3.3.9,0,s,NA,s,NA,NA,s,478,NA,28453,NA,NA,478,2,legacy,1024,2,48000,-16,experiment,HHSHH,1,odd,NA,69048,30712,NA,NA,68547,2255,NA,70108,2259,NA,NA,70209,70687,70106,70209,Flanker task,21,11260,24,yes,1024
84,84,466.56,466.56,black,legacy,legacy,legacy,0,incongruent,uniform,0,undefined,0,h,0,24,0,0,0,24,0,24,24,0,0,0,24,24,24,24,9/19/2021 11:59,1500,The main experiment item,yes,Flankertask.osexp,C:/Users/borna.000/Documents/PSYC/PSYC5316,no,mono,no,18,no,white,no,yes,768,legacy,24,24,C:/Users/borna.000/Desktop/DH-subject-1.csv,legacy,Lentiform Loewenfeld,3.3.9,0,s,NA,s,NA,NA,s,404,NA,28453,NA,NA,404,2,legacy,1024,2,48000,-16,experiment,SSHSS,1,odd,NA,70696,30712,NA,NA,68547,2255,NA,71760,2259,NA,NA,71861,72266,71758,71861,Flanker task,21,11664,25,yes,1024
84.61538462,84.61538462,465.3846154,465.3846154,black,legacy,legacy,legacy,0,congruent,uniform,1,undefined,1,h,0,25,0,0,0,25,0,25,25,0,0,0,25,25,25,25,9/19/2021 11:59,1500,The main experiment item,yes,Flankertask.osexp,C:/Users/borna.000/Documents/PSYC/PSYC5316,no,mono,no,18,no,white,no,yes,768,legacy,25,25,C:/Users/borna.000/Desktop/DH-subject-1.csv,legacy,Lentiform Loewenfeld,3.3.9,0,h,NA,s,NA,NA,h,436,NA,28453,NA,NA,436,2,legacy,1024,2,48000,-16,experiment,HHHHH,1,odd,NA,72776,30712,NA,NA,72275,2255,NA,73831,2259,NA,NA,73932,74369,73829,73932,Flanker task,22,12100,26,yes,1024
85.18518519,85.18518519,463.0740741,463.0740741,black,legacy,legacy,legacy,0,congruent,uniform,1,undefined,1,h,0,26,0,0,0,26,0,26,26,0,0,0,26,26,26,26,9/19/2021 11:59,1500,The main experiment item,yes,Flankertask.osexp,C:/Users/borna.000/Documents/PSYC/PSYC5316,no,mono,no,18,no,white,no,yes,768,legacy,26,26,C:/Users/borna.000/Desktop/DH-subject-1.csv,legacy,Lentiform Loewenfeld,3.3.9,0,h,NA,s,NA,NA,h,403,NA,28453,NA,NA,403,2,legacy,1024,2,48000,-16,experiment,HHHHH,1,odd,NA,74377,30712,NA,NA,72275,2255,NA,75442,2259,NA,NA,75543,75947,75439,75543,Flanker task,23,12503,27,yes,1024
85.71428571,85.71428571,459.5,459.5,black,legacy,legacy,legacy,0,congruent,uniform,1,undefined,1,h,0,27,0,0,0,27,0,27,27,0,0,0,27,27,27,27,9/19/2021 11:59,1500,The main experiment item,yes,Flankertask.osexp,C:/Users/borna.000/Documents/PSYC/PSYC5316,no,mono,no,18,no,white,no,yes,768,legacy,27,27,C:/Users/borna.000/Desktop/DH-subject-1.csv,legacy,Lentiform Loewenfeld,3.3.9,0,h,NA,s,NA,NA,h,363,NA,28453,NA,NA,363,2,legacy,1024,2,48000,-16,experiment,HHHHH,1,odd,NA,75955,30712,NA,NA,72275,2255,NA,77021,2259,NA,NA,77122,77486,77018,77122,Flanker task,24,12866,28,yes,1024
86.20689655,86.20689655,458.0344828,458.0344828,black,legacy,legacy,legacy,0,congruent,uniform,1,undefined,1,h,0,28,0,0,0,28,0,28,28,0,0,0,28,28,28,28,9/19/2021 11:59,1500,The main experiment item,yes,Flankertask.osexp,C:/Users/borna.000/Documents/PSYC/PSYC5316,no,mono,no,18,no,white,no,yes,768,legacy,28,28,C:/Users/borna.000/Desktop/DH-subject-1.csv,legacy,Lentiform Loewenfeld,3.3.9,0,h,NA,s,NA,NA,h,417,NA,28453,NA,NA,417,2,legacy,1024,2,48000,-16,experiment,HHHHH,1,odd,NA,77494,30712,NA,NA,72275,2255,NA,78557,2259,NA,NA,78658,79076,78555,78658,Flanker task,25,13283,29,yes,1024
83.33333333,83.33333333,455.5333333,455.5333333,black,legacy,legacy,legacy,0,incongruent,uniform,0,undefined,0,h,0,29,0,0,0,29,0,29,29,0,0,0,29,29,29,29,9/19/2021 11:59,1500,The main experiment item,yes,Flankertask.osexp,C:/Users/borna.000/Documents/PSYC/PSYC5316,no,mono,no,18,no,white,no,yes,768,legacy,29,29,C:/Users/borna.000/Desktop/DH-subject-1.csv,legacy,Lentiform Loewenfeld,3.3.9,0,s,NA,s,NA,NA,s,383,NA,28453,NA,NA,383,2,legacy,1024,2,48000,-16,experiment,SSHSS,1,odd,NA,79084,30712,NA,NA,72275,2255,NA,80149,2259,NA,NA,80250,80633,80148,80250,Flanker task,25,13666,30,yes,1024
83.87096774,83.87096774,454.9354839,454.9354839,black,legacy,legacy,legacy,0,congruent,uniform,1,undefined,1,h,0,30,0,0,0,30,0,30,30,0,0,0,30,30,30,30,9/19/2021 11:59,1500,The main experiment item,yes,Flankertask.osexp,C:/Users/borna.000/Documents/PSYC/PSYC5316,no,mono,no,18,no,white,no,yes,768,legacy,30,30,C:/Users/borna.000/Desktop/DH-subject-1.csv,legacy,Lentiform Loewenfeld,3.3.9,0,h,NA,s,NA,NA,h,437,NA,28453,NA,NA,437,2,legacy,1024,2,48000,-16,experiment,HHHHH,1,odd,NA,81143,30712,NA,NA,80642,2255,NA,82201,2259,NA,NA,82302,82740,82199,82302,Flanker task,26,14103,31,yes,1024
84.375,84.375,455.3125,455.3125,black,legacy,legacy,legacy,0,incongruent,uniform,1,undefined,1,h,0,31,0,0,0,31,0,31,31,0,0,0,31,31,31,31,9/19/2021 11:59,1500,The main experiment item,yes,Flankertask.osexp,C:/Users/borna.000/Documents/PSYC/PSYC5316,no,mono,no,18,no,white,no,yes,768,legacy,31,31,C:/Users/borna.000/Desktop/DH-subject-1.csv,legacy,Lentiform Loewenfeld,3.3.9,0,h,NA,s,NA,NA,h,467,NA,28453,NA,NA,467,2,legacy,1024,2,48000,-16,experiment,SSHSS,1,odd,NA,82748,30712,NA,NA,80642,2255,NA,83816,2259,NA,NA,83917,84384,83814,83917,Flanker task,27,14570,32,yes,1024
84.84848485,84.84848485,453.9393939,453.9393939,black,legacy,legacy,legacy,0,congruent,uniform,1,undefined,1,s,0,32,0,0,0,32,0,32,32,0,0,0,32,32,32,32,9/19/2021 11:59,1500,The main experiment item,yes,Flankertask.osexp,C:/Users/borna.000/Documents/PSYC/PSYC5316,no,mono,no,18,no,white,no,yes,768,legacy,32,32,C:/Users/borna.000/Desktop/DH-subject-1.csv,legacy,Lentiform Loewenfeld,3.3.9,0,s,NA,s,NA,NA,s,410,NA,28453,NA,NA,410,2,legacy,1024,2,48000,-16,experiment,SSSSS,1,odd,NA,84392,30712,NA,NA,80642,2255,NA,85458,2259,NA,NA,85559,85970,85455,85559,Flanker task,28,14980,33,yes,1024
85.29411765,85.29411765,453.8529412,453.8529412,black,legacy,legacy,legacy,0,congruent,uniform,1,undefined,1,h,0,33,0,0,0,33,0,33,33,0,0,0,33,33,33,33,9/19/2021 11:59,1500,The main experiment item,yes,Flankertask.osexp,C:/Users/borna.000/Documents/PSYC/PSYC5316,no,mono,no,18,no,white,no,yes,768,legacy,33,33,C:/Users/borna.000/Desktop/DH-subject-1.csv,legacy,Lentiform Loewenfeld,3.3.9,0,h,NA,s,NA,NA,h,451,NA,28453,NA,NA,451,2,legacy,1024,2,48000,-16,experiment,HHHHH,1,odd,NA,85978,30712,NA,NA,80642,2255,NA,87052,2259,NA,NA,87153,87605,87050,87153,Flanker task,29,15431,34,yes,1024
85.71428571,85.71428571,454.2571429,454.2571429,black,legacy,legacy,legacy,0,congruent,uniform,1,undefined,1,h,0,34,0,0,0,34,0,34,34,0,0,0,34,34,34,34,9/19/2021 11:59,1500,The main experiment item,yes,Flankertask.osexp,C:/Users/borna.000/Documents/PSYC/PSYC5316,no,mono,no,18,no,white,no,yes,768,legacy,34,34,C:/Users/borna.000/Desktop/DH-subject-1.csv,legacy,Lentiform Loewenfeld,3.3.9,0,h,NA,s,NA,NA,h,468,NA,28453,NA,NA,468,2,legacy,1024,2,48000,-16,experiment,HHHHH,1,odd,NA,87609,30712,NA,NA,80642,2255,NA,88676,2259,NA,NA,88777,89246,88673,88777,Flanker task,30,15899,35,yes,1024
86.11111111,86.11111111,457.2222222,457.2222222,black,legacy,legacy,legacy,0,congruent,uniform,1,undefined,1,h,0,35,0,0,0,35,0,35,35,0,0,0,35,35,35,35,9/19/2021 11:59,1500,The main experiment item,yes,Flankertask.osexp,C:/Users/borna.000/Documents/PSYC/PSYC5316,no,mono,no,18,no,white,no,yes,768,legacy,35,35,C:/Users/borna.000/Desktop/DH-subject-1.csv,legacy,Lentiform Loewenfeld,3.3.9,0,h,NA,s,NA,NA,h,561,NA,28453,NA,NA,561,2,legacy,1024,2,48000,-16,experiment,HHHHH,1,odd,NA,89254,30712,NA,NA,80642,2255,NA,90325,2259,NA,NA,90426,90988,90323,90426,Flanker task,31,16460,36,yes,1024
86.48648649,86.48648649,454.1891892,454.1891892,black,legacy,legacy,legacy,0,congruent,uniform,1,undefined,1,h,0,36,0,0,0,36,0,36,36,0,0,0,36,36,36,36,9/19/2021 11:59,1500,The main experiment item,yes,Flankertask.osexp,C:/Users/borna.000/Documents/PSYC/PSYC5316,no,mono,no,18,no,white,no,yes,768,legacy,36,36,C:/Users/borna.000/Desktop/DH-subject-1.csv,legacy,Lentiform Loewenfeld,3.3.9,0,h,NA,s,NA,NA,h,345,NA,28453,NA,NA,345,2,legacy,1024,2,48000,-16,experiment,HHHHH,1,odd,NA,90997,30712,NA,NA,80642,2255,NA,92062,2259,NA,NA,92163,92509,92060,92163,Flanker task,32,16805,37,yes,1024
84.21052632,84.21052632,452.0789474,452.0789474,black,legacy,legacy,legacy,0,incongruent,uniform,0,undefined,0,s,0,37,0,0,0,37,0,37,37,0,0,0,37,37,37,37,9/19/2021 11:59,1500,The main experiment item,yes,Flankertask.osexp,C:/Users/borna.000/Documents/PSYC/PSYC5316,no,mono,no,18,no,white,no,yes,768,legacy,37,37,C:/Users/borna.000/Desktop/DH-subject-1.csv,legacy,Lentiform Loewenfeld,3.3.9,0,h,NA,s,NA,NA,h,374,NA,28453,NA,NA,374,2,legacy,1024,2,48000,-16,experiment,HHSHH,1,odd,NA,92518,30712,NA,NA,80642,2255,NA,93579,2259,NA,NA,93680,94055,93576,93680,Flanker task,32,17179,38,yes,1024
84.61538462,84.61538462,451.6153846,451.6153846,black,legacy,legacy,legacy,0,incongruent,uniform,1,undefined,1,s,0,38,0,0,0,38,0,38,38,0,0,0,38,38,38,38,9/19/2021 11:59,1500,The main experiment item,yes,Flankertask.osexp,C:/Users/borna.000/Documents/PSYC/PSYC5316,no,mono,no,18,no,white,no,yes,768,legacy,38,38,C:/Users/borna.000/Desktop/DH-subject-1.csv,legacy,Lentiform Loewenfeld,3.3.9,0,s,NA,s,NA,NA,s,434,NA,28453,NA,NA,434,2,legacy,1024,2,48000,-16,experiment,HHSHH,1,odd,NA,94564,30712,NA,NA,94063,2255,NA,95622,2259,NA,NA,95723,96157,95619,95723,Flanker task,33,17613,39,yes,1024
85,85,450.95,450.95,black,legacy,legacy,legacy,0,incongruent,uniform,1,undefined,1,h,0,39,0,0,0,39,0,39,39,0,0,0,39,39,39,39,9/19/2021 11:59,1500,The main experiment item,yes,Flankertask.osexp,C:/Users/borna.000/Documents/PSYC/PSYC5316,no,mono,no,18,no,white,no,yes,768,legacy,39,39,C:/Users/borna.000/Desktop/DH-subject-1.csv,legacy,Lentiform Loewenfeld,3.3.9,0,h,NA,s,NA,NA,h,425,NA,28453,NA,NA,425,2,legacy,1024,2,48000,-16,experiment,SSHSS,1,odd,NA,96165,30712,NA,NA,94063,2255,NA,97231,2259,NA,NA,97332,97757,97228,97332,Flanker task,34,18038,40,yes,1024
85.36585366,85.36585366,450.7560976,450.7560976,black,legacy,legacy,legacy,0,incongruent,uniform,1,undefined,1,s,0,40,0,0,0,40,0,40,40,0,0,0,40,40,40,40,9/19/2021 11:59,1500,The main experiment item,yes,Flankertask.osexp,C:/Users/borna.000/Documents/PSYC/PSYC5316,no,mono,no,18,no,white,no,yes,768,legacy,40,40,C:/Users/borna.000/Desktop/DH-subject-1.csv,legacy,Lentiform Loewenfeld,3.3.9,0,s,NA,s,NA,NA,s,443,NA,28453,NA,NA,443,2,legacy,1024,2,48000,-16,experiment,HHSHH,1,odd,NA,97765,30712,NA,NA,94063,2255,NA,98829,2259,NA,NA,98930,99374,98826,98930,Flanker task,35,18481,41,yes,1024
83.33333333,83.33333333,450.4285714,450.4285714,black,legacy,legacy,legacy,0,incongruent,uniform,0,undefined,0,h,0,41,0,0,0,41,0,41,41,0,0,0,41,41,41,41,9/19/2021 11:59,1500,The main experiment item,yes,Flankertask.osexp,C:/Users/borna.000/Documents/PSYC/PSYC5316,no,mono,no,18,no,white,no,yes,768,legacy,41,41,C:/Users/borna.000/Desktop/DH-subject-1.csv,legacy,Lentiform Loewenfeld,3.3.9,0,s,NA,s,NA,NA,s,437,NA,28453,NA,NA,437,2,legacy,1024,2,48000,-16,experiment,SSHSS,1,odd,NA,99382,30712,NA,NA,94063,2255,NA,100448,2259,NA,NA,100549,100986,100445,100549,Flanker task,35,18918,42,yes,1024
83.72093023,83.72093023,448.255814,448.255814,black,legacy,legacy,legacy,0,congruent,uniform,1,undefined,1,s,0,42,0,0,0,42,0,42,42,0,0,0,42,42,42,42,9/19/2021 11:59,1500,The main experiment item,yes,Flankertask.osexp,C:/Users/borna.000/Documents/PSYC/PSYC5316,no,mono,no,18,no,white,no,yes,768,legacy,42,42,C:/Users/borna.000/Desktop/DH-subject-1.csv,legacy,Lentiform Loewenfeld,3.3.9,0,s,NA,s,NA,NA,s,357,NA,28453,NA,NA,357,2,legacy,1024,2,48000,-16,experiment,SSSSS,1,odd,NA,101496,30712,NA,NA,100995,2255,NA,102553,2259,NA,NA,102654,103012,102550,102654,Flanker task,36,19275,43,yes,1024
84.09090909,84.09090909,447.8863636,447.8863636,black,legacy,legacy,legacy,0,congruent,uniform,1,undefined,1,s,0,43,0,0,0,43,0,43,43,0,0,0,43,43,43,43,9/19/2021 11:59,1500,The main experiment item,yes,Flankertask.osexp,C:/Users/borna.000/Documents/PSYC/PSYC5316,no,mono,no,18,no,white,no,yes,768,legacy,43,43,C:/Users/borna.000/Desktop/DH-subject-1.csv,legacy,Lentiform Loewenfeld,3.3.9,0,s,NA,s,NA,NA,s,432,NA,28453,NA,NA,432,2,legacy,1024,2,48000,-16,experiment,SSSSS,1,odd,NA,103020,30712,NA,NA,100995,2255,NA,104087,2259,NA,NA,104188,104621,104084,104188,Flanker task,37,19707,44,yes,1024
84.44444444,84.44444444,447.5555556,447.5555556,black,legacy,legacy,legacy,0,congruent,uniform,1,undefined,1,s,0,44,0,0,0,44,0,44,44,0,0,0,44,44,44,44,9/19/2021 11:59,1500,The main experiment item,yes,Flankertask.osexp,C:/Users/borna.000/Documents/PSYC/PSYC5316,no,mono,no,18,no,white,no,yes,768,legacy,44,44,C:/Users/borna.000/Desktop/DH-subject-1.csv,legacy,Lentiform Loewenfeld,3.3.9,0,s,NA,s,NA,NA,s,433,NA,28453,NA,NA,433,2,legacy,1024,2,48000,-16,experiment,SSSSS,1,odd,NA,104629,30712,NA,NA,100995,2255,NA,105696,2259,NA,NA,105797,106230,105694,105797,Flanker task,38,20140,45,yes,1024
84.7826087,84.7826087,450.6521739,450.6521739,black,legacy,legacy,legacy,0,incongruent,uniform,1,undefined,1,s,0,45,0,0,0,45,0,45,45,0,0,0,45,45,45,45,9/19/2021 11:59,1500,The main experiment item,yes,Flankertask.osexp,C:/Users/borna.000/Documents/PSYC/PSYC5316,no,mono,no,18,no,white,no,yes,768,legacy,45,45,C:/Users/borna.000/Desktop/DH-subject-1.csv,legacy,Lentiform Loewenfeld,3.3.9,0,s,NA,s,NA,NA,s,590,NA,28453,NA,NA,590,2,legacy,1024,2,48000,-16,experiment,HHSHH,1,odd,NA,106239,30712,NA,NA,100995,2255,NA,107306,2259,NA,NA,107407,107998,107304,107407,Flanker task,39,20730,46,yes,1024
85.10638298,85.10638298,453.0425532,453.0425532,black,legacy,legacy,legacy,0,incongruent,uniform,1,undefined,1,s,0,46,0,0,0,46,0,46,46,0,0,0,46,46,46,46,9/19/2021 11:59,1500,The main experiment item,yes,Flankertask.osexp,C:/Users/borna.000/Documents/PSYC/PSYC5316,no,mono,no,18,no,white,no,yes,768,legacy,46,46,C:/Users/borna.000/Desktop/DH-subject-1.csv,legacy,Lentiform Loewenfeld,3.3.9,0,s,NA,s,NA,NA,s,563,NA,28453,NA,NA,563,2,legacy,1024,2,48000,-16,experiment,HHSHH,1,odd,NA,108006,30712,NA,NA,100995,2255,NA,109070,2259,NA,NA,109172,109736,109068,109172,Flanker task,40,21293,47,yes,1024
85.41666667,85.41666667,452.2916667,452.2916667,black,legacy,legacy,legacy,0,congruent,uniform,1,undefined,1,h,0,47,0,0,0,47,0,47,47,0,0,0,47,47,47,47,9/19/2021 11:59,1500,The main experiment item,yes,Flankertask.osexp,C:/Users/borna.000/Documents/PSYC/PSYC5316,no,mono,no,18,no,white,no,yes,768,legacy,47,47,C:/Users/borna.000/Desktop/DH-subject-1.csv,legacy,Lentiform Loewenfeld,3.3.9,0,h,NA,s,NA,NA,h,417,NA,28453,NA,NA,417,2,legacy,1024,2,48000,-16,experiment,HHHHH,1,odd,NA,109745,30712,NA,NA,100995,2255,NA,110810,2259,NA,NA,110911,111329,110808,110911,Flanker task,41,21710,48,yes,1024
85.71428571,85.71428571,451.244898,451.244898,black,legacy,legacy,legacy,0,congruent,uniform,1,undefined,1,s,0,48,0,0,0,48,0,48,48,0,0,0,48,48,48,48,9/19/2021 11:59,1500,The main experiment item,yes,Flankertask.osexp,C:/Users/borna.000/Documents/PSYC/PSYC5316,no,mono,no,18,no,white,no,yes,768,legacy,48,48,C:/Users/borna.000/Desktop/DH-subject-1.csv,legacy,Lentiform Loewenfeld,3.3.9,0,s,NA,s,NA,NA,s,401,NA,28453,NA,NA,401,2,legacy,1024,2,48000,-16,experiment,SSSSS,1,odd,NA,111337,30712,NA,NA,100995,2255,NA,112402,2259,NA,NA,112503,112904,112400,112503,Flanker task,42,22111,49,yes,1024
86,86,450.74,450.74,black,legacy,legacy,legacy,0,incongruent,uniform,1,undefined,1,s,0,49,0,0,0,49,0,49,49,0,0,0,49,49,49,49,9/19/2021 11:59,1500,The main experiment item,yes,Flankertask.osexp,C:/Users/borna.000/Documents/PSYC/PSYC5316,no,mono,no,18,no,white,no,yes,768,legacy,49,49,C:/Users/borna.000/Desktop/DH-subject-1.csv,legacy,Lentiform Loewenfeld,3.3.9,0,s,NA,s,NA,NA,s,426,NA,28453,NA,NA,426,2,legacy,1024,2,48000,-16,experiment,HHSHH,1,odd,NA,112913,30712,NA,NA,100995,2255,NA,113979,2259,NA,NA,114080,114507,113977,114080,Flanker task,43,22537,50,yes,1024
86.2745098,86.2745098,451.2156863,451.2156863,black,legacy,legacy,legacy,0,incongruent,uniform,1,undefined,1,h,0,50,0,0,0,50,0,50,50,0,0,0,50,50,50,50,9/19/2021 11:59,1500,The main experiment item,yes,Flankertask.osexp,C:/Users/borna.000/Documents/PSYC/PSYC5316,no,mono,no,18,no,white,no,yes,768,legacy,50,50,C:/Users/borna.000/Desktop/DH-subject-1.csv,legacy,Lentiform Loewenfeld,3.3.9,0,h,NA,s,NA,NA,h,475,NA,28453,NA,NA,475,2,legacy,1024,2,48000,-16,experiment,SSHSS,1,odd,NA,114516,30712,NA,NA,100995,2255,NA,115577,2259,NA,NA,115678,116154,115575,115678,Flanker task,44,23012,51,yes,1024
86.53846154,86.53846154,452.9423077,452.9423077,black,legacy,legacy,legacy,0,incongruent,uniform,1,undefined,1,h,0,51,0,0,0,51,0,51,51,0,0,0,51,51,51,51,9/19/2021 11:59,1500,The main experiment item,yes,Flankertask.osexp,C:/Users/borna.000/Documents/PSYC/PSYC5316,no,mono,no,18,no,white,no,yes,768,legacy,51,51,C:/Users/borna.000/Desktop/DH-subject-1.csv,legacy,Lentiform Loewenfeld,3.3.9,0,h,NA,s,NA,NA,h,541,NA,28453,NA,NA,541,2,legacy,1024,2,48000,-16,experiment,SSHSS,1,odd,NA,116162,30712,NA,NA,100995,2255,NA,117228,2259,NA,NA,117329,117870,117226,117329,Flanker task,45,23553,52,yes,1024
86.79245283,86.79245283,453.3018868,453.3018868,black,legacy,legacy,legacy,0,congruent,uniform,1,undefined,1,s,0,52,0,0,0,52,0,52,52,0,0,0,52,52,52,52,9/19/2021 11:59,1500,The main experiment item,yes,Flankertask.osexp,C:/Users/borna.000/Documents/PSYC/PSYC5316,no,mono,no,18,no,white,no,yes,768,legacy,52,52,C:/Users/borna.000/Desktop/DH-subject-1.csv,legacy,Lentiform Loewenfeld,3.3.9,0,s,NA,s,NA,NA,s,472,NA,28453,NA,NA,472,2,legacy,1024,2,48000,-16,experiment,SSSSS,1,odd,NA,117879,30712,NA,NA,100995,2255,NA,118944,2259,NA,NA,119045,119518,118941,119045,Flanker task,46,24025,53,yes,1024
87.03703704,87.03703704,455,455,black,legacy,legacy,legacy,0,incongruent,uniform,1,undefined,1,h,0,53,0,0,0,53,0,53,53,0,0,0,53,53,53,53,9/19/2021 11:59,1500,The main experiment item,yes,Flankertask.osexp,C:/Users/borna.000/Documents/PSYC/PSYC5316,no,mono,no,18,no,white,no,yes,768,legacy,53,53,C:/Users/borna.000/Desktop/DH-subject-1.csv,legacy,Lentiform Loewenfeld,3.3.9,0,h,NA,s,NA,NA,h,545,NA,28453,NA,NA,545,2,legacy,1024,2,48000,-16,experiment,SSHSS,1,odd,NA,119526,30712,NA,NA,100995,2255,NA,120587,2259,NA,NA,120688,121234,120585,120688,Flanker task,47,24570,54,yes,1024
87.27272727,87.27272727,457.6181818,457.6181818,black,legacy,legacy,legacy,0,incongruent,uniform,1,undefined,1,s,0,54,0,0,0,54,0,54,54,0,0,0,54,54,54,54,9/19/2021 11:59,1500,The main experiment item,yes,Flankertask.osexp,C:/Users/borna.000/Documents/PSYC/PSYC5316,no,mono,no,18,no,white,no,yes,768,legacy,54,54,C:/Users/borna.000/Desktop/DH-subject-1.csv,legacy,Lentiform Loewenfeld,3.3.9,0,s,NA,s,NA,NA,s,599,NA,28453,NA,NA,599,2,legacy,1024,2,48000,-16,experiment,HHSHH,1,odd,NA,121242,30712,NA,NA,100995,2255,NA,122307,2259,NA,NA,122408,123009,122304,122408,Flanker task,48,25169,55,yes,1024
87.5,87.5,458.1964286,458.1964286,black,legacy,legacy,legacy,0,congruent,uniform,1,undefined,1,s,0,55,0,0,0,55,0,55,55,0,0,0,55,55,55,55,9/19/2021 11:59,1500,The main experiment item,yes,Flankertask.osexp,C:/Users/borna.000/Documents/PSYC/PSYC5316,no,mono,no,18,no,white,no,yes,768,legacy,55,55,C:/Users/borna.000/Desktop/DH-subject-1.csv,legacy,Lentiform Loewenfeld,3.3.9,0,s,NA,s,NA,NA,s,490,NA,28453,NA,NA,490,2,legacy,1024,2,48000,-16,experiment,SSSSS,1,odd,NA,123017,30712,NA,NA,100995,2255,NA,124081,2259,NA,NA,124183,124673,124079,124183,Flanker task,49,25659,56,yes,1024
87.71929825,87.71929825,457.877193,457.877193,black,legacy,legacy,legacy,0,congruent,uniform,1,undefined,1,h,0,56,0,0,0,56,0,56,56,0,0,0,56,56,56,56,9/19/2021 11:59,1500,The main experiment item,yes,Flankertask.osexp,C:/Users/borna.000/Documents/PSYC/PSYC5316,no,mono,no,18,no,white,no,yes,768,legacy,56,56,C:/Users/borna.000/Desktop/DH-subject-1.csv,legacy,Lentiform Loewenfeld,3.3.9,0,h,NA,s,NA,NA,h,440,NA,28453,NA,NA,440,2,legacy,1024,2,48000,-16,experiment,HHHHH,1,odd,NA,124682,30712,NA,NA,100995,2255,NA,125747,2259,NA,NA,125848,126288,125745,125848,Flanker task,50,26099,57,yes,1024
87.93103448,87.93103448,458.5172414,458.5172414,black,legacy,legacy,legacy,0,incongruent,uniform,1,undefined,1,s,0,57,0,0,0,57,0,57,57,0,0,0,57,57,57,57,9/19/2021 11:59,1500,The main experiment item,yes,Flankertask.osexp,C:/Users/borna.000/Documents/PSYC/PSYC5316,no,mono,no,18,no,white,no,yes,768,legacy,57,57,C:/Users/borna.000/Desktop/DH-subject-1.csv,legacy,Lentiform Loewenfeld,3.3.9,0,s,NA,s,NA,NA,s,495,NA,28453,NA,NA,495,2,legacy,1024,2,48000,-16,experiment,HHSHH,1,odd,NA,126297,30712,NA,NA,100995,2255,NA,127359,2259,NA,NA,127460,127956,127357,127460,Flanker task,51,26594,58,yes,1024
88.13559322,88.13559322,458.1016949,458.1016949,black,legacy,legacy,legacy,0,congruent,uniform,1,undefined,1,s,0,58,0,0,0,58,0,58,58,0,0,0,58,58,58,58,9/19/2021 11:59,1500,The main experiment item,yes,Flankertask.osexp,C:/Users/borna.000/Documents/PSYC/PSYC5316,no,mono,no,18,no,white,no,yes,768,legacy,58,58,C:/Users/borna.000/Desktop/DH-subject-1.csv,legacy,Lentiform Loewenfeld,3.3.9,0,s,NA,s,NA,NA,s,434,NA,28453,NA,NA,434,2,legacy,1024,2,48000,-16,experiment,SSSSS,1,odd,NA,127964,30712,NA,NA,100995,2255,NA,129028,2259,NA,NA,129129,129564,129025,129129,Flanker task,52,27028,59,yes,1024
88.33333333,88.33333333,458.0833333,458.0833333,black,legacy,legacy,legacy,0,congruent,uniform,1,undefined,1,s,0,59,0,0,0,59,0,59,59,0,0,0,59,59,59,59,9/19/2021 11:59,1500,The main experiment item,yes,Flankertask.osexp,C:/Users/borna.000/Documents/PSYC/PSYC5316,no,mono,no,18,no,white,no,yes,768,legacy,59,59,C:/Users/borna.000/Desktop/DH-subject-1.csv,legacy,Lentiform Loewenfeld,3.3.9,0,s,NA,s,NA,NA,s,457,NA,28453,NA,NA,457,2,legacy,1024,2,48000,-16,experiment,SSSSS,1,odd,NA,129572,30712,NA,NA,100995,2255,NA,130634,2259,NA,NA,130736,131194,130632,130736,Flanker task,53,27485,60,yes,1024
86.8852459,86.8852459,457.2131148,457.2131148,black,legacy,legacy,legacy,0,incongruent,uniform,0,undefined,0,h,0,60,0,0,0,60,0,60,60,0,0,0,60,60,60,60,9/19/2021 11:59,1500,The main experiment item,yes,Flankertask.osexp,C:/Users/borna.000/Documents/PSYC/PSYC5316,no,mono,no,18,no,white,no,yes,768,legacy,60,60,C:/Users/borna.000/Desktop/DH-subject-1.csv,legacy,Lentiform Loewenfeld,3.3.9,0,s,NA,s,NA,NA,s,405,NA,28453,NA,NA,405,2,legacy,1024,2,48000,-16,experiment,SSHSS,1,odd,NA,131202,30712,NA,NA,100995,2255,NA,132264,2259,NA,NA,132365,132771,132262,132365,Flanker task,53,27890,61,yes,1024
87.09677419,87.09677419,455.6451613,455.6451613,black,legacy,legacy,legacy,0,incongruent,uniform,1,undefined,1,s,0,61,0,0,0,61,0,61,61,0,0,0,61,61,61,61,9/19/2021 11:59,1500,The main experiment item,yes,Flankertask.osexp,C:/Users/borna.000/Documents/PSYC/PSYC5316,no,mono,no,18,no,white,no,yes,768,legacy,61,61,C:/Users/borna.000/Desktop/DH-subject-1.csv,legacy,Lentiform Loewenfeld,3.3.9,0,s,NA,s,NA,NA,s,360,NA,28453,NA,NA,360,2,legacy,1024,2,48000,-16,experiment,HHSHH,1,odd,NA,133280,30712,NA,NA,132779,2255,NA,134336,2259,NA,NA,134437,134798,134334,134437,Flanker task,54,28250,62,yes,1024
87.3015873,87.3015873,455.3015873,455.3015873,black,legacy,legacy,legacy,0,congruent,uniform,1,undefined,1,h,0,62,0,0,0,62,0,62,62,0,0,0,62,62,62,62,9/19/2021 11:59,1500,The main experiment item,yes,Flankertask.osexp,C:/Users/borna.000/Documents/PSYC/PSYC5316,no,mono,no,18,no,white,no,yes,768,legacy,62,62,C:/Users/borna.000/Desktop/DH-subject-1.csv,legacy,Lentiform Loewenfeld,3.3.9,0,h,NA,s,NA,NA,h,434,NA,28453,NA,NA,434,2,legacy,1024,2,48000,-16,experiment,HHHHH,1,odd,NA,134807,30712,NA,NA,132779,2255,NA,135875,2259,NA,NA,135976,136411,135872,135976,Flanker task,55,28684,63,yes,1024
87.5,87.5,455.453125,455.453125,black,legacy,legacy,legacy,0,congruent,uniform,1,undefined,1,s,0,63,0,0,0,63,0,63,63,0,0,0,63,63,63,63,9/19/2021 11:59,1500,The main experiment item,yes,Flankertask.osexp,C:/Users/borna.000/Documents/PSYC/PSYC5316,no,mono,no,18,no,white,no,yes,768,legacy,63,63,C:/Users/borna.000/Desktop/DH-subject-1.csv,legacy,Lentiform Loewenfeld,3.3.9,0,s,NA,s,NA,NA,s,465,NA,28453,NA,NA,465,2,legacy,1024,2,48000,-16,experiment,SSSSS,1,odd,NA,136414,30712,NA,NA,132779,2255,NA,137480,2259,NA,NA,137581,138046,137477,137581,Flanker task,56,29149,64,yes,1024
87.69230769,87.69230769,455.9692308,455.9692308,black,legacy,legacy,legacy,0,incongruent,uniform,1,undefined,1,h,0,64,0,0,0,64,0,64,64,0,0,0,64,64,64,64,9/19/2021 11:59,1500,The main experiment item,yes,Flankertask.osexp,C:/Users/borna.000/Documents/PSYC/PSYC5316,no,mono,no,18,no,white,no,yes,768,legacy,64,64,C:/Users/borna.000/Desktop/DH-subject-1.csv,legacy,Lentiform Loewenfeld,3.3.9,0,h,NA,s,NA,NA,h,489,NA,28453,NA,NA,489,2,legacy,1024,2,48000,-16,experiment,SSHSS,1,odd,NA,138050,30712,NA,NA,132779,2255,NA,139119,2259,NA,NA,139220,139710,139116,139220,Flanker task,57,29638,65,yes,1024
87.87878788,87.87878788,458.8939394,458.8939394,black,legacy,legacy,legacy,0,incongruent,uniform,1,undefined,1,s,0,65,0,0,0,65,0,65,65,0,0,0,65,65,65,65,9/19/2021 11:59,1500,The main experiment item,yes,Flankertask.osexp,C:/Users/borna.000/Documents/PSYC/PSYC5316,no,mono,no,18,no,white,no,yes,768,legacy,65,65,C:/Users/borna.000/Desktop/DH-subject-1.csv,legacy,Lentiform Loewenfeld,3.3.9,0,s,NA,s,NA,NA,s,649,NA,28453,NA,NA,649,2,legacy,1024,2,48000,-16,experiment,HHSHH,1,odd,NA,139719,30712,NA,NA,132779,2255,NA,140782,2259,NA,NA,140883,141533,140780,140883,Flanker task,58,30287,66,yes,1024
88.05970149,88.05970149,460.0447761,460.0447761,black,legacy,legacy,legacy,0,incongruent,uniform,1,undefined,1,h,0,66,0,0,0,66,0,66,66,0,0,0,66,66,66,66,9/19/2021 11:59,1500,The main experiment item,yes,Flankertask.osexp,C:/Users/borna.000/Documents/PSYC/PSYC5316,no,mono,no,18,no,white,no,yes,768,legacy,66,66,C:/Users/borna.000/Desktop/DH-subject-1.csv,legacy,Lentiform Loewenfeld,3.3.9,0,h,NA,s,NA,NA,h,536,NA,28453,NA,NA,536,2,legacy,1024,2,48000,-16,experiment,SSHSS,1,odd,NA,141541,30712,NA,NA,132779,2255,NA,142618,2259,NA,NA,142719,143255,142616,142719,Flanker task,59,30823,67,yes,1024
88.23529412,88.23529412,459.7647059,459.7647059,black,legacy,legacy,legacy,0,incongruent,uniform,1,undefined,1,s,0,67,0,0,0,67,0,67,67,0,0,0,67,67,67,67,9/19/2021 11:59,1500,The main experiment item,yes,Flankertask.osexp,C:/Users/borna.000/Documents/PSYC/PSYC5316,no,mono,no,18,no,white,no,yes,768,legacy,67,67,C:/Users/borna.000/Desktop/DH-subject-1.csv,legacy,Lentiform Loewenfeld,3.3.9,0,s,NA,s,NA,NA,s,441,NA,28453,NA,NA,441,2,legacy,1024,2,48000,-16,experiment,HHSHH,1,odd,NA,143263,30712,NA,NA,132779,2255,NA,144326,2259,NA,NA,144427,144869,144323,144427,Flanker task,60,31264,68,yes,1024
88.4057971,88.4057971,460.7681159,460.7681159,black,legacy,legacy,legacy,0,incongruent,uniform,1,undefined,1,s,0,68,0,0,0,68,0,68,68,0,0,0,68,68,68,68,9/19/2021 11:59,1500,The main experiment item,yes,Flankertask.osexp,C:/Users/borna.000/Documents/PSYC/PSYC5316,no,mono,no,18,no,white,no,yes,768,legacy,68,68,C:/Users/borna.000/Desktop/DH-subject-1.csv,legacy,Lentiform Loewenfeld,3.3.9,0,s,NA,s,NA,NA,s,529,NA,28453,NA,NA,529,2,legacy,1024,2,48000,-16,experiment,HHSHH,1,odd,NA,144878,30712,NA,NA,132779,2255,NA,145946,2259,NA,NA,146047,146577,145944,146047,Flanker task,61,31793,69,yes,1024
87.14285714,87.14285714,458.1857143,458.1857143,black,legacy,legacy,legacy,0,incongruent,uniform,0,undefined,0,s,0,69,0,0,0,69,0,69,69,0,0,0,69,69,69,69,9/19/2021 11:59,1500,The main experiment item,yes,Flankertask.osexp,C:/Users/borna.000/Documents/PSYC/PSYC5316,no,mono,no,18,no,white,no,yes,768,legacy,69,69,C:/Users/borna.000/Desktop/DH-subject-1.csv,legacy,Lentiform Loewenfeld,3.3.9,0,h,NA,s,NA,NA,h,280,NA,28453,NA,NA,280,2,legacy,1024,2,48000,-16,experiment,HHSHH,1,odd,NA,146585,30712,NA,NA,132779,2255,NA,147655,2259,NA,NA,147756,148036,147653,147756,Flanker task,61,32073,70,yes,1024
87.32394366,87.32394366,458.1267606,458.1267606,black,legacy,legacy,legacy,0,congruent,uniform,1,undefined,1,h,0,70,0,0,0,70,0,70,70,0,0,0,70,70,70,70,9/19/2021 11:59,1500,The main experiment item,yes,Flankertask.osexp,C:/Users/borna.000/Documents/PSYC/PSYC5316,no,mono,no,18,no,white,no,yes,768,legacy,70,70,C:/Users/borna.000/Desktop/DH-subject-1.csv,legacy,Lentiform Loewenfeld,3.3.9,0,h,NA,s,NA,NA,h,454,NA,28453,NA,NA,454,2,legacy,1024,2,48000,-16,experiment,HHHHH,1,odd,NA,148546,30712,NA,NA,148045,2255,NA,149605,2259,NA,NA,149706,150160,149603,149706,Flanker task,62,32527,71,yes,1024
87.5,87.5,457.3194444,457.3194444,black,legacy,legacy,legacy,0,incongruent,uniform,1,undefined,1,h,0,71,0,0,0,71,0,71,71,0,0,0,71,71,71,71,9/19/2021 11:59,1500,The main experiment item,yes,Flankertask.osexp,C:/Users/borna.000/Documents/PSYC/PSYC5316,no,mono,no,18,no,white,no,yes,768,legacy,71,71,C:/Users/borna.000/Desktop/DH-subject-1.csv,legacy,Lentiform Loewenfeld,3.3.9,0,h,NA,s,NA,NA,h,400,NA,28453,NA,NA,400,2,legacy,1024,2,48000,-16,experiment,SSHSS,1,odd,NA,150170,30712,NA,NA,148045,2255,NA,151236,2259,NA,NA,151337,151738,151233,151337,Flanker task,63,32927,72,yes,1024
87.67123288,87.67123288,456.1369863,456.1369863,black,legacy,legacy,legacy,0,congruent,uniform,1,undefined,1,s,0,72,0,0,0,72,0,72,72,0,0,0,72,72,72,72,9/19/2021 11:59,1500,The main experiment item,yes,Flankertask.osexp,C:/Users/borna.000/Documents/PSYC/PSYC5316,no,mono,no,18,no,white,no,yes,768,legacy,72,72,C:/Users/borna.000/Desktop/DH-subject-1.csv,legacy,Lentiform Loewenfeld,3.3.9,0,s,NA,s,NA,NA,s,371,NA,28453,NA,NA,371,2,legacy,1024,2,48000,-16,experiment,SSSSS,1,odd,NA,151746,30712,NA,NA,148045,2255,NA,152813,2259,NA,NA,152914,153286,152811,152914,Flanker task,64,33298,73,yes,1024
87.83783784,87.83783784,455.2972973,455.2972973,black,legacy,legacy,legacy,0,congruent,uniform,1,undefined,1,h,0,73,0,0,0,73,0,73,73,0,0,0,73,73,73,73,9/19/2021 11:59,1500,The main experiment item,yes,Flankertask.osexp,C:/Users/borna.000/Documents/PSYC/PSYC5316,no,mono,no,18,no,white,no,yes,768,legacy,73,73,C:/Users/borna.000/Desktop/DH-subject-1.csv,legacy,Lentiform Loewenfeld,3.3.9,0,h,NA,s,NA,NA,h,394,NA,28453,NA,NA,394,2,legacy,1024,2,48000,-16,experiment,HHHHH,1,odd,NA,153295,30712,NA,NA,148045,2255,NA,154361,2259,NA,NA,154463,154858,154358,154463,Flanker task,65,33692,74,yes,1024
88,88,455.2933333,455.2933333,black,legacy,legacy,legacy,0,congruent,uniform,1,undefined,1,h,0,74,0,0,0,74,0,74,74,0,0,0,74,74,74,74,9/19/2021 11:59,1500,The main experiment item,yes,Flankertask.osexp,C:/Users/borna.000/Documents/PSYC/PSYC5316,no,mono,no,18,no,white,no,yes,768,legacy,74,74,C:/Users/borna.000/Desktop/DH-subject-1.csv,legacy,Lentiform Loewenfeld,3.3.9,0,h,NA,s,NA,NA,h,455,NA,28453,NA,NA,455,2,legacy,1024,2,48000,-16,experiment,HHHHH,1,odd,NA,154867,30712,NA,NA,148045,2255,NA,155933,2259,NA,NA,156034,156490,155930,156034,Flanker task,66,34147,75,yes,1024
88.15789474,88.15789474,457.0394737,457.0394737,black,legacy,legacy,legacy,0,incongruent,uniform,1,undefined,1,h,0,75,0,0,0,75,0,75,75,0,0,0,75,75,75,75,9/19/2021 11:59,1500,The main experiment item,yes,Flankertask.osexp,C:/Users/borna.000/Documents/PSYC/PSYC5316,no,mono,no,18,no,white,no,yes,768,legacy,75,75,C:/Users/borna.000/Desktop/DH-subject-1.csv,legacy,Lentiform Loewenfeld,3.3.9,0,h,NA,s,NA,NA,h,588,NA,28453,NA,NA,588,2,legacy,1024,2,48000,-16,experiment,SSHSS,1,odd,NA,156499,30712,NA,NA,148045,2255,NA,157563,2259,NA,NA,157664,158252,157561,157664,Flanker task,67,34735,76,yes,1024
88.31168831,88.31168831,456.2207792,456.2207792,black,legacy,legacy,legacy,0,congruent,uniform,1,undefined,1,s,0,76,0,0,0,76,0,76,76,0,0,0,76,76,76,76,9/19/2021 11:59,1500,The main experiment item,yes,Flankertask.osexp,C:/Users/borna.000/Documents/PSYC/PSYC5316,no,mono,no,18,no,white,no,yes,768,legacy,76,76,C:/Users/borna.000/Desktop/DH-subject-1.csv,legacy,Lentiform Loewenfeld,3.3.9,0,s,NA,s,NA,NA,s,394,NA,28453,NA,NA,394,2,legacy,1024,2,48000,-16,experiment,SSSSS,1,odd,NA,158261,30712,NA,NA,148045,2255,NA,159325,2259,NA,NA,159426,159821,159323,159426,Flanker task,68,35129,77,yes,1024
88.46153846,88.46153846,455.6666667,455.6666667,black,legacy,legacy,legacy,0,congruent,uniform,1,undefined,1,h,0,77,0,0,0,77,0,77,77,0,0,0,77,77,77,77,9/19/2021 11:59,1500,The main experiment item,yes,Flankertask.osexp,C:/Users/borna.000/Documents/PSYC/PSYC5316,no,mono,no,18,no,white,no,yes,768,legacy,77,77,C:/Users/borna.000/Desktop/DH-subject-1.csv,legacy,Lentiform Loewenfeld,3.3.9,0,h,NA,s,NA,NA,h,413,NA,28453,NA,NA,413,2,legacy,1024,2,48000,-16,experiment,HHHHH,1,odd,NA,159829,30712,NA,NA,148045,2255,NA,160890,2259,NA,NA,160991,161405,160887,160991,Flanker task,69,35542,78,yes,1024
87.34177215,87.34177215,455.4177215,455.4177215,black,legacy,legacy,legacy,0,incongruent,uniform,0,undefined,0,h,0,78,0,0,0,78,0,78,78,0,0,0,78,78,78,78,9/19/2021 11:59,1500,The main experiment item,yes,Flankertask.osexp,C:/Users/borna.000/Documents/PSYC/PSYC5316,no,mono,no,18,no,white,no,yes,768,legacy,78,78,C:/Users/borna.000/Desktop/DH-subject-1.csv,legacy,Lentiform Loewenfeld,3.3.9,0,s,NA,s,NA,NA,s,436,NA,28453,NA,NA,436,2,legacy,1024,2,48000,-16,experiment,SSHSS,1,odd,NA,161413,30712,NA,NA,148045,2255,NA,162478,2259,NA,NA,162579,163016,162475,162579,Flanker task,69,35978,79,yes,1024
87.5,87.5,455.8125,455.8125,black,legacy,legacy,legacy,0,incongruent,uniform,1,undefined,1,s,0,79,0,0,0,79,0,79,79,0,0,0,79,79,79,79,9/19/2021 11:59,1500,The main experiment item,yes,Flankertask.osexp,C:/Users/borna.000/Documents/PSYC/PSYC5316,no,mono,no,18,no,white,no,yes,768,legacy,79,79,C:/Users/borna.000/Desktop/DH-subject-1.csv,legacy,Lentiform Loewenfeld,3.3.9,0,s,NA,s,NA,NA,s,487,NA,28453,NA,NA,487,2,legacy,1024,2,48000,-16,experiment,HHSHH,1,odd,NA,163526,30712,NA,NA,163025,2255,NA,164582,2259,NA,NA,164684,165172,164580,164684,Flanker task,70,36465,80,yes,1024
86.41975309,86.41975309,456.1234568,456.1234568,black,legacy,legacy,legacy,0,incongruent,uniform,0,undefined,0,s,0,80,0,0,0,80,0,80,80,0,0,0,80,80,80,80,9/19/2021 11:59,600,The main experiment item,yes,Flankertask.osexp,C:/Users/borna.000/Documents/PSYC/PSYC5316,no,mono,no,18,no,white,no,yes,768,legacy,0,79,C:/Users/borna.000/Desktop/DH-subject-1.csv,legacy,Lentiform Loewenfeld,3.3.9,0,h,NA,s,h,NA,h,481,NA,28453,8493,NA,481,2,legacy,1024,2,48000,-16,experiment,HHSHH,1,odd,NA,165180,30712,174686,NA,163025,2255,NA,174739,2259,166192,NA,174840,175322,174738,174840,Flanker task,70,36946,81,yes,1024
85.36585366,85.36585366,454.8536585,454.8536585,black,legacy,legacy,legacy,0,incongruent,uniform,0,undefined,0,s,0,81,0,0,0,81,0,81,81,0,0,0,81,81,81,81,9/19/2021 11:59,600,The main experiment item,yes,Flankertask.osexp,C:/Users/borna.000/Documents/PSYC/PSYC5316,no,mono,no,18,no,white,no,yes,768,legacy,1,79,C:/Users/borna.000/Desktop/DH-subject-1.csv,legacy,Lentiform Loewenfeld,3.3.9,0,h,NA,s,h,NA,h,352,NA,28453,8493,NA,352,2,legacy,1024,2,48000,-16,experiment,HHSHH,1,odd,NA,175833,30712,174686,NA,175331,2255,NA,176890,2259,166192,NA,176991,177344,176888,176991,Flanker task,70,37298,82,yes,1024
85.54216867,85.54216867,455.4216867,455.4216867,black,legacy,legacy,legacy,0,incongruent,uniform,1,undefined,1,s,0,82,0,0,0,82,0,82,82,0,0,0,82,82,82,82,9/19/2021 11:59,600,The main experiment item,yes,Flankertask.osexp,C:/Users/borna.000/Documents/PSYC/PSYC5316,no,mono,no,18,no,white,no,yes,768,legacy,2,79,C:/Users/borna.000/Desktop/DH-subject-1.csv,legacy,Lentiform Loewenfeld,3.3.9,0,s,NA,s,h,NA,s,502,NA,28453,8493,NA,502,2,legacy,1024,2,48000,-16,experiment,HHSHH,1,odd,NA,177854,30712,174686,NA,177353,2255,NA,178910,2259,166192,NA,179012,179515,178908,179012,Flanker task,71,37800,83,yes,1024
85.71428571,85.71428571,454.1547619,454.1547619,black,legacy,legacy,legacy,0,congruent,uniform,1,undefined,1,s,0,83,0,0,0,83,0,83,83,0,0,0,83,83,83,83,9/19/2021 11:59,600,The main experiment item,yes,Flankertask.osexp,C:/Users/borna.000/Documents/PSYC/PSYC5316,no,mono,no,18,no,white,no,yes,768,legacy,3,79,C:/Users/borna.000/Desktop/DH-subject-1.csv,legacy,Lentiform Loewenfeld,3.3.9,0,s,NA,s,h,NA,s,349,NA,28453,8493,NA,349,2,legacy,1024,2,48000,-16,experiment,SSSSS,1,odd,NA,179523,30712,174686,NA,177353,2255,NA,180589,2259,166192,NA,180690,181040,180587,180690,Flanker task,72,38149,84,yes,1024
85.88235294,85.88235294,453.4941176,453.4941176,black,legacy,legacy,legacy,0,congruent,uniform,1,undefined,1,h,0,84,0,0,0,84,0,84,84,0,0,0,84,84,84,84,9/19/2021 11:59,600,The main experiment item,yes,Flankertask.osexp,C:/Users/borna.000/Documents/PSYC/PSYC5316,no,mono,no,18,no,white,no,yes,768,legacy,4,79,C:/Users/borna.000/Desktop/DH-subject-1.csv,legacy,Lentiform Loewenfeld,3.3.9,0,h,NA,s,h,NA,h,398,NA,28453,8493,NA,398,2,legacy,1024,2,48000,-16,experiment,HHHHH,1,odd,NA,181048,30712,174686,NA,177353,2255,NA,182108,2259,166192,NA,182209,182608,182106,182209,Flanker task,73,38547,85,yes,1024
86.04651163,86.04651163,451.9302326,451.9302326,black,legacy,legacy,legacy,0,congruent,uniform,1,undefined,1,h,0,85,0,0,0,85,0,85,85,0,0,0,85,85,85,85,9/19/2021 11:59,600,The main experiment item,yes,Flankertask.osexp,C:/Users/borna.000/Documents/PSYC/PSYC5316,no,mono,no,18,no,white,no,yes,768,legacy,5,79,C:/Users/borna.000/Desktop/DH-subject-1.csv,legacy,Lentiform Loewenfeld,3.3.9,0,h,NA,s,h,NA,h,319,NA,28453,8493,NA,319,2,legacy,1024,2,48000,-16,experiment,HHHHH,1,odd,NA,182616,30712,174686,NA,177353,2255,NA,183683,2259,166192,NA,183785,184105,183681,183785,Flanker task,74,38866,86,yes,1024
85.05747126,85.05747126,451.3103448,451.3103448,black,legacy,legacy,legacy,0,incongruent,uniform,0,undefined,0,h,0,86,0,0,0,86,0,86,86,0,0,0,86,86,86,86,9/19/2021 11:59,600,The main experiment item,yes,Flankertask.osexp,C:/Users/borna.000/Documents/PSYC/PSYC5316,no,mono,no,18,no,white,no,yes,768,legacy,6,79,C:/Users/borna.000/Desktop/DH-subject-1.csv,legacy,Lentiform Loewenfeld,3.3.9,0,s,NA,s,h,NA,s,398,NA,28453,8493,NA,398,2,legacy,1024,2,48000,-16,experiment,SSHSS,1,odd,NA,184114,30712,174686,NA,177353,2255,NA,185170,2259,166192,NA,185271,185670,185168,185271,Flanker task,74,39264,87,yes,1024
85.22727273,85.22727273,450.8636364,450.8636364,black,legacy,legacy,legacy,0,congruent,uniform,1,undefined,1,s,0,87,0,0,0,87,0,87,87,0,0,0,87,87,87,87,9/19/2021 11:59,600,The main experiment item,yes,Flankertask.osexp,C:/Users/borna.000/Documents/PSYC/PSYC5316,no,mono,no,18,no,white,no,yes,768,legacy,7,79,C:/Users/borna.000/Desktop/DH-subject-1.csv,legacy,Lentiform Loewenfeld,3.3.9,0,s,NA,s,h,NA,s,412,NA,28453,8493,NA,412,2,legacy,1024,2,48000,-16,experiment,SSSSS,1,odd,NA,186180,30712,174686,NA,185679,2255,NA,187239,2259,166192,NA,187341,187754,187237,187341,Flanker task,75,39676,88,yes,1024
85.39325843,85.39325843,450.4044944,450.4044944,black,legacy,legacy,legacy,0,congruent,uniform,1,undefined,1,s,0,88,0,0,0,88,0,88,88,0,0,0,88,88,88,88,9/19/2021 11:59,600,The main experiment item,yes,Flankertask.osexp,C:/Users/borna.000/Documents/PSYC/PSYC5316,no,mono,no,18,no,white,no,yes,768,legacy,8,79,C:/Users/borna.000/Desktop/DH-subject-1.csv,legacy,Lentiform Loewenfeld,3.3.9,0,s,NA,s,h,NA,s,410,NA,28453,8493,NA,410,2,legacy,1024,2,48000,-16,experiment,SSSSS,1,odd,NA,187762,30712,174686,NA,185679,2255,NA,188832,2259,166192,NA,188933,189345,188830,188933,Flanker task,76,40086,89,yes,1024
85.55555556,85.55555556,449.8555556,449.8555556,black,legacy,legacy,legacy,0,incongruent,uniform,1,undefined,1,s,0,89,0,0,0,89,0,89,89,0,0,0,89,89,89,89,9/19/2021 11:59,600,The main experiment item,yes,Flankertask.osexp,C:/Users/borna.000/Documents/PSYC/PSYC5316,no,mono,no,18,no,white,no,yes,768,legacy,9,79,C:/Users/borna.000/Desktop/DH-subject-1.csv,legacy,Lentiform Loewenfeld,3.3.9,0,s,NA,s,h,NA,s,401,NA,28453,8493,NA,401,2,legacy,1024,2,48000,-16,experiment,HHSHH,1,odd,NA,189353,30712,174686,NA,185679,2255,NA,190421,2259,166192,NA,190522,190924,190419,190522,Flanker task,77,40487,90,yes,1024
85.71428571,85.71428571,450.7032967,450.7032967,black,legacy,legacy,legacy,0,incongruent,uniform,1,undefined,1,h,0,90,0,0,0,90,0,90,90,0,0,0,90,90,90,90,9/19/2021 11:59,600,The main experiment item,yes,Flankertask.osexp,C:/Users/borna.000/Documents/PSYC/PSYC5316,no,mono,no,18,no,white,no,yes,768,legacy,10,79,C:/Users/borna.000/Desktop/DH-subject-1.csv,legacy,Lentiform Loewenfeld,3.3.9,0,h,NA,s,h,NA,h,527,NA,28453,8493,NA,527,2,legacy,1024,2,48000,-16,experiment,SSHSS,1,odd,NA,190932,30712,174686,NA,185679,2255,NA,191999,2259,166192,NA,192100,192628,191997,192100,Flanker task,78,41014,91,yes,1024
85.86956522,85.86956522,450.1847826,450.1847826,black,legacy,legacy,legacy,0,congruent,uniform,1,undefined,1,h,0,91,0,0,0,91,0,91,91,0,0,0,91,91,91,91,9/19/2021 11:59,600,The main experiment item,yes,Flankertask.osexp,C:/Users/borna.000/Documents/PSYC/PSYC5316,no,mono,no,18,no,white,no,yes,768,legacy,11,79,C:/Users/borna.000/Desktop/DH-subject-1.csv,legacy,Lentiform Loewenfeld,3.3.9,0,h,NA,s,h,NA,h,403,NA,28453,8493,NA,403,2,legacy,1024,2,48000,-16,experiment,HHHHH,1,odd,NA,192637,30712,174686,NA,185679,2255,NA,193702,2259,166192,NA,193803,194207,193700,193803,Flanker task,79,41417,92,yes,1024
86.02150538,86.02150538,450.3548387,450.3548387,black,legacy,legacy,legacy,0,incongruent,uniform,1,undefined,1,s,0,92,0,0,0,92,0,92,92,0,0,0,92,92,92,92,9/19/2021 11:59,600,The main experiment item,yes,Flankertask.osexp,C:/Users/borna.000/Documents/PSYC/PSYC5316,no,mono,no,18,no,white,no,yes,768,legacy,12,79,C:/Users/borna.000/Desktop/DH-subject-1.csv,legacy,Lentiform Loewenfeld,3.3.9,0,s,NA,s,h,NA,s,466,NA,28453,8493,NA,466,2,legacy,1024,2,48000,-16,experiment,HHSHH,1,odd,NA,194216,30712,174686,NA,185679,2255,NA,195280,2259,166192,NA,195381,195848,195277,195381,Flanker task,80,41883,93,yes,1024
85.10638298,85.10638298,450.6382979,450.6382979,black,legacy,legacy,legacy,0,incongruent,uniform,0,undefined,0,h,0,93,0,0,0,93,0,93,93,0,0,0,93,93,93,93,9/19/2021 11:59,600,The main experiment item,yes,Flankertask.osexp,C:/Users/borna.000/Documents/PSYC/PSYC5316,no,mono,no,18,no,white,no,yes,768,legacy,13,79,C:/Users/borna.000/Desktop/DH-subject-1.csv,legacy,Lentiform Loewenfeld,3.3.9,0,s,NA,s,h,NA,s,477,NA,28453,8493,NA,477,2,legacy,1024,2,48000,-16,experiment,SSHSS,1,odd,NA,195861,30712,174686,NA,185679,2255,NA,196923,2259,166192,NA,197024,197502,196920,197024,Flanker task,80,42360,94,yes,1024
85.26315789,85.26315789,450.7052632,450.7052632,black,legacy,legacy,legacy,0,congruent,uniform,1,undefined,1,h,0,94,0,0,0,94,0,94,94,0,0,0,94,94,94,94,9/19/2021 11:59,600,The main experiment item,yes,Flankertask.osexp,C:/Users/borna.000/Documents/PSYC/PSYC5316,no,mono,no,18,no,white,no,yes,768,legacy,14,79,C:/Users/borna.000/Desktop/DH-subject-1.csv,legacy,Lentiform Loewenfeld,3.3.9,0,h,NA,s,h,NA,h,457,NA,28453,8493,NA,457,2,legacy,1024,2,48000,-16,experiment,HHHHH,1,odd,NA,198011,30712,174686,NA,197510,2255,NA,199066,2259,166192,NA,199167,199625,199064,199167,Flanker task,81,42817,95,yes,1024
85.41666667,85.41666667,451.71875,451.71875,black,legacy,legacy,legacy,0,incongruent,uniform,1,undefined,1,s,0,95,0,0,0,95,0,95,95,0,0,0,95,95,95,95,9/19/2021 11:59,600,The main experiment item,yes,Flankertask.osexp,C:/Users/borna.000/Documents/PSYC/PSYC5316,no,mono,no,18,no,white,no,yes,768,legacy,15,79,C:/Users/borna.000/Desktop/DH-subject-1.csv,legacy,Lentiform Loewenfeld,3.3.9,0,s,NA,s,h,NA,s,548,NA,28453,8493,NA,548,2,legacy,1024,2,48000,-16,experiment,HHSHH,1,odd,NA,199632,30712,174686,NA,197510,2255,NA,200700,2259,166192,NA,200801,201350,200698,200801,Flanker task,82,43365,96,yes,1024
85.56701031,85.56701031,451.5876289,451.5876289,black,legacy,legacy,legacy,0,congruent,uniform,1,undefined,1,h,0,96,0,0,0,96,0,96,96,0,0,0,96,96,96,96,9/19/2021 11:59,600,The main experiment item,yes,Flankertask.osexp,C:/Users/borna.000/Documents/PSYC/PSYC5316,no,mono,no,18,no,white,no,yes,768,legacy,16,79,C:/Users/borna.000/Desktop/DH-subject-1.csv,legacy,Lentiform Loewenfeld,3.3.9,0,h,NA,s,h,NA,h,439,NA,28453,8493,NA,439,2,legacy,1024,2,48000,-16,experiment,HHHHH,1,odd,NA,201358,30712,174686,NA,197510,2255,NA,202423,2259,166192,NA,202524,202964,202421,202524,Flanker task,83,43804,97,yes,1024
85.71428571,85.71428571,451.9285714,451.9285714,black,legacy,legacy,legacy,0,incongruent,uniform,1,undefined,1,h,0,97,0,0,0,97,0,97,97,0,0,0,97,97,97,97,9/19/2021 11:59,600,The main experiment item,yes,Flankertask.osexp,C:/Users/borna.000/Documents/PSYC/PSYC5316,no,mono,no,18,no,white,no,yes,768,legacy,17,79,C:/Users/borna.000/Desktop/DH-subject-1.csv,legacy,Lentiform Loewenfeld,3.3.9,0,h,NA,s,h,NA,h,485,NA,28453,8493,NA,485,2,legacy,1024,2,48000,-16,experiment,SSHSS,1,odd,NA,202973,30712,174686,NA,197510,2255,NA,204038,2259,166192,NA,204139,204625,204036,204139,Flanker task,84,44289,98,yes,1024
85.85858586,85.85858586,452.7070707,452.7070707,black,legacy,legacy,legacy,0,incongruent,uniform,1,undefined,1,s,0,98,0,0,0,98,0,98,98,0,0,0,98,98,98,98,9/19/2021 11:59,600,The main experiment item,yes,Flankertask.osexp,C:/Users/borna.000/Documents/PSYC/PSYC5316,no,mono,no,18,no,white,no,yes,768,legacy,18,79,C:/Users/borna.000/Desktop/DH-subject-1.csv,legacy,Lentiform Loewenfeld,3.3.9,0,s,NA,s,h,NA,s,529,NA,28453,8493,NA,529,2,legacy,1024,2,48000,-16,experiment,HHSHH,1,odd,NA,204633,30712,174686,NA,197510,2255,NA,205699,2259,166192,NA,205800,206330,205697,205800,Flanker task,85,44818,99,yes,1024
86,86,453.66,453.66,black,legacy,legacy,legacy,0,congruent,uniform,1,undefined,1,s,0,99,0,0,0,99,0,99,99,0,0,0,99,99,99,99,9/19/2021 11:59,600,The main experiment item,yes,Flankertask.osexp,C:/Users/borna.000/Documents/PSYC/PSYC5316,no,mono,no,18,no,white,no,yes,768,legacy,19,79,C:/Users/borna.000/Desktop/DH-subject-1.csv,legacy,Lentiform Loewenfeld,3.3.9,0,s,NA,s,h,NA,s,548,NA,28453,8493,NA,548,2,legacy,1024,2,48000,-16,experiment,SSSSS,1,odd,NA,206339,30712,174686,NA,197510,2255,NA,207405,2259,166192,NA,207506,208055,207403,207506,Flanker task,86,45366,100,yes,1024
85.14851485,85.14851485,454.009901,454.009901,black,legacy,legacy,legacy,0,incongruent,uniform,0,undefined,0,s,0,100,0,0,0,100,0,100,100,0,0,0,100,100,100,100,9/19/2021 11:59,600,The main experiment item,yes,Flankertask.osexp,C:/Users/borna.000/Documents/PSYC/PSYC5316,no,mono,no,18,no,white,no,yes,768,legacy,20,79,C:/Users/borna.000/Desktop/DH-subject-1.csv,legacy,Lentiform Loewenfeld,3.3.9,0,h,NA,s,h,NA,h,489,NA,28453,8493,NA,489,2,legacy,1024,2,48000,-16,experiment,HHSHH,1,odd,NA,208064,30712,174686,NA,197510,2255,NA,209132,2259,166192,NA,209233,209723,209129,209233,Flanker task,86,45855,101,yes,1024
85.29411765,85.29411765,453.6372549,453.6372549,black,legacy,legacy,legacy,0,congruent,uniform,1,undefined,1,h,0,101,0,0,0,101,0,101,101,0,0,0,101,101,101,101,9/19/2021 11:59,600,The main experiment item,yes,Flankertask.osexp,C:/Users/borna.000/Documents/PSYC/PSYC5316,no,mono,no,18,no,white,no,yes,768,legacy,21,79,C:/Users/borna.000/Desktop/DH-subject-1.csv,legacy,Lentiform Loewenfeld,3.3.9,0,h,NA,s,h,NA,h,416,NA,28453,8493,NA,416,2,legacy,1024,2,48000,-16,experiment,HHHHH,1,odd,NA,210233,30712,174686,NA,209732,2255,NA,211289,2259,166192,NA,211390,211807,211287,211390,Flanker task,87,46271,102,yes,1024
85.4368932,85.4368932,453.5728155,453.5728155,black,legacy,legacy,legacy,0,congruent,uniform,1,undefined,1,h,0,102,0,0,0,102,0,102,102,0,0,0,102,102,102,102,9/19/2021 11:59,600,The main experiment item,yes,Flankertask.osexp,C:/Users/borna.000/Documents/PSYC/PSYC5316,no,mono,no,18,no,white,no,yes,768,legacy,22,79,C:/Users/borna.000/Desktop/DH-subject-1.csv,legacy,Lentiform Loewenfeld,3.3.9,0,h,NA,s,h,NA,h,447,NA,28453,8493,NA,447,2,legacy,1024,2,48000,-16,experiment,HHHHH,1,odd,NA,211815,30712,174686,NA,209732,2255,NA,212883,2259,166192,NA,212984,213432,212881,212984,Flanker task,88,46718,103,yes,1024
85.57692308,85.57692308,453.4519231,453.4519231,black,legacy,legacy,legacy,0,incongruent,uniform,1,undefined,1,s,0,103,0,0,0,103,0,103,103,0,0,0,103,103,103,103,9/19/2021 11:59,600,The main experiment item,yes,Flankertask.osexp,C:/Users/borna.000/Documents/PSYC/PSYC5316,no,mono,no,18,no,white,no,yes,768,legacy,23,79,C:/Users/borna.000/Desktop/DH-subject-1.csv,legacy,Lentiform Loewenfeld,3.3.9,0,s,NA,s,h,NA,s,441,NA,28453,8493,NA,441,2,legacy,1024,2,48000,-16,experiment,HHSHH,1,odd,NA,213441,30712,174686,NA,209732,2255,NA,214504,2259,166192,NA,214605,215048,214502,214605,Flanker task,89,47159,104,yes,1024
85.71428571,85.71428571,453.7714286,453.7714286,black,legacy,legacy,legacy,0,congruent,uniform,1,undefined,1,h,0,104,0,0,0,104,0,104,104,0,0,0,104,104,104,104,9/19/2021 11:59,600,The main experiment item,yes,Flankertask.osexp,C:/Users/borna.000/Documents/PSYC/PSYC5316,no,mono,no,18,no,white,no,yes,768,legacy,24,79,C:/Users/borna.000/Desktop/DH-subject-1.csv,legacy,Lentiform Loewenfeld,3.3.9,0,h,NA,s,h,NA,h,487,NA,28453,8493,NA,487,2,legacy,1024,2,48000,-16,experiment,HHHHH,1,odd,NA,215056,30712,174686,NA,209732,2255,NA,216122,2259,166192,NA,216224,216712,216120,216224,Flanker task,90,47646,105,yes,1024
85.8490566,85.8490566,453.6509434,453.6509434,black,legacy,legacy,legacy,0,congruent,uniform,1,undefined,1,h,0,105,0,0,0,105,0,105,105,0,0,0,105,105,105,105,9/19/2021 11:59,600,The main experiment item,yes,Flankertask.osexp,C:/Users/borna.000/Documents/PSYC/PSYC5316,no,mono,no,18,no,white,no,yes,768,legacy,25,79,C:/Users/borna.000/Desktop/DH-subject-1.csv,legacy,Lentiform Loewenfeld,3.3.9,0,h,NA,s,h,NA,h,441,NA,28453,8493,NA,441,2,legacy,1024,2,48000,-16,experiment,HHHHH,1,odd,NA,216721,30712,174686,NA,209732,2255,NA,217797,2259,166192,NA,217898,218340,217794,217898,Flanker task,91,48087,106,yes,1024
85.98130841,85.98130841,455.364486,455.364486,black,legacy,legacy,legacy,0,congruent,uniform,1,undefined,1,s,0,106,0,0,0,106,0,106,106,0,0,0,106,106,106,106,9/19/2021 11:59,600,The main experiment item,yes,Flankertask.osexp,C:/Users/borna.000/Documents/PSYC/PSYC5316,no,mono,no,18,no,white,no,yes,768,legacy,26,79,C:/Users/borna.000/Desktop/DH-subject-1.csv,legacy,Lentiform Loewenfeld,3.3.9,0,s,NA,s,h,NA,s,637,NA,28453,8493,NA,637,2,legacy,1024,2,48000,-16,experiment,SSSSS,1,odd,NA,218348,30712,174686,NA,209732,2255,NA,219414,2259,166192,NA,219515,220153,219412,219515,Flanker task,92,48724,107,yes,1024
86.11111111,86.11111111,455.7777778,455.7777778,black,legacy,legacy,legacy,0,incongruent,uniform,1,undefined,1,h,0,107,0,0,0,107,0,107,107,0,0,0,107,107,107,107,9/19/2021 11:59,600,The main experiment item,yes,Flankertask.osexp,C:/Users/borna.000/Documents/PSYC/PSYC5316,no,mono,no,18,no,white,no,yes,768,legacy,27,79,C:/Users/borna.000/Desktop/DH-subject-1.csv,legacy,Lentiform Loewenfeld,3.3.9,0,h,NA,s,h,NA,h,500,NA,28453,8493,NA,500,2,legacy,1024,2,48000,-16,experiment,SSHSS,1,odd,NA,220663,30712,174686,NA,209732,2255,220162,221720,2259,166192,NA,221821,222322,221717,221821,Flanker task,93,49224,108,yes,1024
85.32110092,85.32110092,455.0183486,455.0183486,black,legacy,legacy,legacy,0,incongruent,uniform,0,undefined,0,s,0,108,0,0,0,108,0,108,108,0,0,0,108,108,108,108,9/19/2021 11:59,600,The main experiment item,yes,Flankertask.osexp,C:/Users/borna.000/Documents/PSYC/PSYC5316,no,mono,no,18,no,white,no,yes,768,legacy,28,79,C:/Users/borna.000/Desktop/DH-subject-1.csv,legacy,Lentiform Loewenfeld,3.3.9,0,h,NA,s,h,NA,h,373,NA,28453,8493,NA,373,2,legacy,1024,2,48000,-16,experiment,HHSHH,1,odd,NA,222331,30712,174686,NA,209732,2255,220162,223400,2259,166192,NA,223501,223875,223398,223501,Flanker task,93,49597,109,yes,1024
85.45454545,85.45454545,454.5454545,454.5454545,black,legacy,legacy,legacy,0,incongruent,uniform,1,undefined,1,s,0,109,0,0,0,109,0,109,109,0,0,0,109,109,109,109,9/19/2021 11:59,600,The main experiment item,yes,Flankertask.osexp,C:/Users/borna.000/Documents/PSYC/PSYC5316,no,mono,no,18,no,white,no,yes,768,legacy,29,79,C:/Users/borna.000/Desktop/DH-subject-1.csv,legacy,Lentiform Loewenfeld,3.3.9,0,s,NA,s,h,NA,s,403,NA,28453,8493,NA,403,2,legacy,1024,2,48000,-16,experiment,HHSHH,1,odd,NA,224380,30712,174686,NA,223879,2255,220162,225436,2259,166192,NA,225537,225941,225434,225537,Flanker task,94,50000,110,yes,1024
85.58558559,85.58558559,454.4234234,454.4234234,black,legacy,legacy,legacy,0,congruent,uniform,1,undefined,1,h,0,110,0,0,0,110,0,110,110,0,0,0,110,110,110,110,9/19/2021 11:59,600,The main experiment item,yes,Flankertask.osexp,C:/Users/borna.000/Documents/PSYC/PSYC5316,no,mono,no,18,no,white,no,yes,768,legacy,30,79,C:/Users/borna.000/Desktop/DH-subject-1.csv,legacy,Lentiform Loewenfeld,3.3.9,0,h,NA,s,h,NA,h,441,NA,28453,8493,NA,441,2,legacy,1024,2,48000,-16,experiment,HHHHH,1,odd,NA,225950,30712,174686,NA,223879,2255,220162,227015,2259,166192,NA,227116,227558,227013,227116,Flanker task,95,50441,111,yes,1024
85.71428571,85.71428571,453.9107143,453.9107143,black,legacy,legacy,legacy,0,congruent,uniform,1,undefined,1,h,0,111,0,0,0,111,0,111,111,0,0,0,111,111,111,111,9/19/2021 11:59,600,The main experiment item,yes,Flankertask.osexp,C:/Users/borna.000/Documents/PSYC/PSYC5316,no,mono,no,18,no,white,no,yes,768,legacy,31,79,C:/Users/borna.000/Desktop/DH-subject-1.csv,legacy,Lentiform Loewenfeld,3.3.9,0,h,NA,s,h,NA,h,397,NA,28453,8493,NA,397,2,legacy,1024,2,48000,-16,experiment,HHHHH,1,odd,NA,227567,30712,174686,NA,223879,2255,220162,228633,2259,166192,NA,228734,229132,228631,228734,Flanker task,96,50838,112,yes,1024
85.84070796,85.84070796,453.2566372,453.2566372,black,legacy,legacy,legacy,0,congruent,uniform,1,undefined,1,s,0,112,0,0,0,112,0,112,112,0,0,0,112,112,112,112,9/19/2021 11:59,600,The main experiment item,yes,Flankertask.osexp,C:/Users/borna.000/Documents/PSYC/PSYC5316,no,mono,no,18,no,white,no,yes,768,legacy,32,79,C:/Users/borna.000/Desktop/DH-subject-1.csv,legacy,Lentiform Loewenfeld,3.3.9,0,s,NA,s,h,NA,s,380,NA,28453,8493,NA,380,2,legacy,1024,2,48000,-16,experiment,SSSSS,1,odd,NA,229140,30712,174686,NA,223879,2255,220162,230204,2259,166192,NA,230305,230687,230202,230305,Flanker task,97,51218,113,yes,1024
85.96491228,85.96491228,453.5350877,453.5350877,black,legacy,legacy,legacy,0,incongruent,uniform,1,undefined,1,s,0,113,0,0,0,113,0,113,113,0,0,0,113,113,113,113,9/19/2021 11:59,600,The main experiment item,yes,Flankertask.osexp,C:/Users/borna.000/Documents/PSYC/PSYC5316,no,mono,no,18,no,white,no,yes,768,legacy,33,79,C:/Users/borna.000/Desktop/DH-subject-1.csv,legacy,Lentiform Loewenfeld,3.3.9,0,s,NA,s,h,NA,s,485,NA,28453,8493,NA,485,2,legacy,1024,2,48000,-16,experiment,HHSHH,1,odd,NA,230695,30712,174686,NA,223879,2255,220162,231762,2259,166192,NA,231863,232349,231760,231863,Flanker task,98,51703,114,yes,1024
86.08695652,86.08695652,452.9826087,452.9826087,black,legacy,legacy,legacy,0,congruent,uniform,1,undefined,1,s,0,114,0,0,0,114,0,114,114,0,0,0,114,114,114,114,9/19/2021 11:59,600,The main experiment item,yes,Flankertask.osexp,C:/Users/borna.000/Documents/PSYC/PSYC5316,no,mono,no,18,no,white,no,yes,768,legacy,34,79,C:/Users/borna.000/Desktop/DH-subject-1.csv,legacy,Lentiform Loewenfeld,3.3.9,0,s,NA,s,h,NA,s,390,NA,28453,8493,NA,390,2,legacy,1024,2,48000,-16,experiment,SSSSS,1,odd,NA,232358,30712,174686,NA,223879,2255,220162,233422,2259,166192,NA,233523,233914,233420,233523,Flanker task,99,52093,115,yes,1024
86.20689655,86.20689655,453.6896552,453.6896552,black,legacy,legacy,legacy,0,incongruent,uniform,1,undefined,1,h,0,115,0,0,0,115,0,115,115,0,0,0,115,115,115,115,9/19/2021 11:59,600,The main experiment item,yes,Flankertask.osexp,C:/Users/borna.000/Documents/PSYC/PSYC5316,no,mono,no,18,no,white,no,yes,768,legacy,35,79,C:/Users/borna.000/Desktop/DH-subject-1.csv,legacy,Lentiform Loewenfeld,3.3.9,0,h,NA,s,h,NA,h,535,NA,28453,8493,NA,535,2,legacy,1024,2,48000,-16,experiment,SSHSS,1,odd,NA,233923,30712,174686,NA,223879,2255,220162,234985,2259,166192,NA,235086,235622,234983,235086,Flanker task,100,52628,116,yes,1024
85.47008547,85.47008547,453.1025641,453.1025641,black,legacy,legacy,legacy,0,incongruent,uniform,0,undefined,0,s,0,116,0,0,0,116,0,116,116,0,0,0,116,116,116,116,9/19/2021 11:59,600,The main experiment item,yes,Flankertask.osexp,C:/Users/borna.000/Documents/PSYC/PSYC5316,no,mono,no,18,no,white,no,yes,768,legacy,36,79,C:/Users/borna.000/Desktop/DH-subject-1.csv,legacy,Lentiform Loewenfeld,3.3.9,0,h,NA,s,h,NA,h,385,NA,28453,8493,NA,385,2,legacy,1024,2,48000,-16,experiment,HHSHH,1,odd,NA,235626,30712,174686,NA,223879,2255,220162,236690,2259,166192,NA,236791,237177,236688,236791,Flanker task,100,53013,117,yes,1024
85.59322034,85.59322034,452.7118644,452.7118644,black,legacy,legacy,legacy,0,congruent,uniform,1,undefined,1,s,0,117,0,0,0,117,0,117,117,0,0,0,117,117,117,117,9/19/2021 11:59,600,The main experiment item,yes,Flankertask.osexp,C:/Users/borna.000/Documents/PSYC/PSYC5316,no,mono,no,18,no,white,no,yes,768,legacy,37,79,C:/Users/borna.000/Desktop/DH-subject-1.csv,legacy,Lentiform Loewenfeld,3.3.9,0,s,NA,s,h,NA,s,407,NA,28453,8493,NA,407,2,legacy,1024,2,48000,-16,experiment,SSSSS,1,odd,NA,237687,30712,174686,NA,237186,2255,220162,238743,2259,166192,NA,238844,239252,238741,238844,Flanker task,101,53420,118,yes,1024
85.71428571,85.71428571,452.6470588,452.6470588,black,legacy,legacy,legacy,0,incongruent,uniform,1,undefined,1,s,0,118,0,0,0,118,0,118,118,0,0,0,118,118,118,118,9/19/2021 11:59,600,The main experiment item,yes,Flankertask.osexp,C:/Users/borna.000/Documents/PSYC/PSYC5316,no,mono,no,18,no,white,no,yes,768,legacy,38,79,C:/Users/borna.000/Desktop/DH-subject-1.csv,legacy,Lentiform Loewenfeld,3.3.9,0,s,NA,s,h,NA,s,445,NA,28453,8493,NA,445,2,legacy,1024,2,48000,-16,experiment,HHSHH,1,odd,NA,239261,30712,174686,NA,237186,2255,220162,240327,2259,166192,NA,240428,240874,240324,240428,Flanker task,102,53865,119,yes,1024
85.83333333,85.83333333,452.0666667,452.0666667,black,legacy,legacy,legacy,0,congruent,uniform,1,undefined,1,h,0,119,0,0,0,119,0,119,119,0,0,0,119,119,119,119,9/19/2021 11:59,600,The main experiment item,yes,Flankertask.osexp,C:/Users/borna.000/Documents/PSYC/PSYC5316,no,mono,no,18,no,white,no,yes,768,legacy,39,79,C:/Users/borna.000/Desktop/DH-subject-1.csv,legacy,Lentiform Loewenfeld,3.3.9,0,h,NA,s,h,NA,h,383,NA,28453,8493,NA,383,2,legacy,1024,2,48000,-16,experiment,HHHHH,1,odd,NA,240882,30712,174686,NA,237186,2255,220162,241949,2259,166192,NA,242050,242435,241947,242050,Flanker task,103,54248,120,yes,1024
85.95041322,85.95041322,451.7603306,451.7603306,black,legacy,legacy,legacy,0,congruent,uniform,1,undefined,1,s,0,120,0,0,0,120,0,120,120,0,0,0,120,120,120,120,9/19/2021 11:59,600,The main experiment item,yes,Flankertask.osexp,C:/Users/borna.000/Documents/PSYC/PSYC5316,no,mono,no,18,no,white,no,yes,768,legacy,40,79,C:/Users/borna.000/Desktop/DH-subject-1.csv,legacy,Lentiform Loewenfeld,3.3.9,0,s,NA,s,h,NA,s,415,NA,28453,8493,NA,415,2,legacy,1024,2,48000,-16,experiment,SSSSS,1,odd,NA,242443,30712,174686,NA,237186,2255,220162,243509,2259,166192,NA,243610,244026,243506,243610,Flanker task,104,54663,121,yes,1024
86.06557377,86.06557377,451.5081967,451.5081967,black,legacy,legacy,legacy,0,congruent,uniform,1,undefined,1,s,0,121,0,0,0,121,0,121,121,0,0,0,121,121,121,121,9/19/2021 11:59,600,The main experiment item,yes,Flankertask.osexp,C:/Users/borna.000/Documents/PSYC/PSYC5316,no,mono,no,18,no,white,no,yes,768,legacy,41,79,C:/Users/borna.000/Desktop/DH-subject-1.csv,legacy,Lentiform Loewenfeld,3.3.9,0,s,NA,s,h,NA,s,421,NA,28453,8493,NA,421,2,legacy,1024,2,48000,-16,experiment,SSSSS,1,odd,NA,244035,30712,174686,NA,237186,2255,220162,245101,2259,166192,NA,245202,245624,245099,245202,Flanker task,105,55084,122,yes,1024
86.17886179,86.17886179,451.504065,451.504065,black,legacy,legacy,legacy,0,congruent,uniform,1,undefined,1,h,0,122,0,0,0,122,0,122,122,0,0,0,122,122,122,122,9/19/2021 11:59,600,The main experiment item,yes,Flankertask.osexp,C:/Users/borna.000/Documents/PSYC/PSYC5316,no,mono,no,18,no,white,no,yes,768,legacy,42,79,C:/Users/borna.000/Desktop/DH-subject-1.csv,legacy,Lentiform Loewenfeld,3.3.9,0,h,NA,s,h,NA,h,451,NA,28453,8493,NA,451,2,legacy,1024,2,48000,-16,experiment,HHHHH,1,odd,NA,245633,30712,174686,NA,237186,2255,220162,246697,2259,166192,NA,246798,247250,246695,246798,Flanker task,106,55535,123,yes,1024
86.29032258,86.29032258,452.1451613,452.1451613,black,legacy,legacy,legacy,0,incongruent,uniform,1,undefined,1,h,0,123,0,0,0,123,0,123,123,0,0,0,123,123,123,123,9/19/2021 11:59,600,The main experiment item,yes,Flankertask.osexp,C:/Users/borna.000/Documents/PSYC/PSYC5316,no,mono,no,18,no,white,no,yes,768,legacy,43,79,C:/Users/borna.000/Desktop/DH-subject-1.csv,legacy,Lentiform Loewenfeld,3.3.9,0,h,NA,s,h,NA,h,531,NA,28453,8493,NA,531,2,legacy,1024,2,48000,-16,experiment,SSHSS,1,odd,NA,247258,30712,174686,NA,237186,2255,220162,248324,2259,166192,NA,248425,248957,248321,248425,Flanker task,107,56066,124,yes,1024
85.6,85.6,451.528,451.528,black,legacy,legacy,legacy,0,incongruent,uniform,0,undefined,0,s,0,124,0,0,0,124,0,124,124,0,0,0,124,124,124,124,9/19/2021 11:59,600,The main experiment item,yes,Flankertask.osexp,C:/Users/borna.000/Documents/PSYC/PSYC5316,no,mono,no,18,no,white,no,yes,768,legacy,44,79,C:/Users/borna.000/Desktop/DH-subject-1.csv,legacy,Lentiform Loewenfeld,3.3.9,0,h,NA,s,h,NA,h,375,NA,28453,8493,NA,375,2,legacy,1024,2,48000,-16,experiment,HHSHH,1,odd,NA,248966,30712,174686,NA,237186,2255,220162,250034,2259,166192,NA,250135,250511,250032,250135,Flanker task,107,56441,125,yes,1024
85.71428571,85.71428571,451.515873,451.515873,black,legacy,legacy,legacy,0,congruent,uniform,1,undefined,1,s,0,125,0,0,0,125,0,125,125,0,0,0,125,125,125,125,9/19/2021 11:59,600,The main experiment item,yes,Flankertask.osexp,C:/Users/borna.000/Documents/PSYC/PSYC5316,no,mono,no,18,no,white,no,yes,768,legacy,45,79,C:/Users/borna.000/Desktop/DH-subject-1.csv,legacy,Lentiform Loewenfeld,3.3.9,0,s,NA,s,h,NA,s,450,NA,28453,8493,NA,450,2,legacy,1024,2,48000,-16,experiment,SSSSS,1,odd,NA,251021,30712,174686,NA,250520,2255,220162,252077,2259,166192,NA,252178,252629,252076,252178,Flanker task,108,56891,126,yes,1024
85.82677165,85.82677165,451.4094488,451.4094488,black,legacy,legacy,legacy,0,congruent,uniform,1,undefined,1,h,0,126,0,0,0,126,0,126,126,0,0,0,126,126,126,126,9/19/2021 11:59,600,The main experiment item,yes,Flankertask.osexp,C:/Users/borna.000/Documents/PSYC/PSYC5316,no,mono,no,18,no,white,no,yes,768,legacy,46,79,C:/Users/borna.000/Desktop/DH-subject-1.csv,legacy,Lentiform Loewenfeld,3.3.9,0,h,NA,s,h,NA,h,438,NA,28453,8493,NA,438,2,legacy,1024,2,48000,-16,experiment,HHHHH,1,odd,NA,252637,30712,174686,NA,250520,2255,220162,253701,2259,166192,NA,253802,254241,253699,253802,Flanker task,109,57329,127,yes,1024
85.9375,85.9375,450.5390625,450.5390625,black,legacy,legacy,legacy,0,congruent,uniform,1,undefined,1,s,0,127,0,0,0,127,0,127,127,0,0,0,127,127,127,127,9/19/2021 11:59,600,The main experiment item,yes,Flankertask.osexp,C:/Users/borna.000/Documents/PSYC/PSYC5316,no,mono,no,18,no,white,no,yes,768,legacy,47,79,C:/Users/borna.000/Desktop/DH-subject-1.csv,legacy,Lentiform Loewenfeld,3.3.9,0,s,NA,s,h,NA,s,340,NA,28453,8493,NA,340,2,legacy,1024,2,48000,-16,experiment,SSSSS,1,odd,NA,254249,30712,174686,NA,250520,2255,220162,255309,2259,166192,NA,255410,255751,255307,255410,Flanker task,110,57669,128,yes,1024
86.04651163,86.04651163,450.9069767,450.9069767,black,legacy,legacy,legacy,0,incongruent,uniform,1,undefined,1,s,0,128,0,0,0,128,0,128,128,0,0,0,128,128,128,128,9/19/2021 11:59,600,The main experiment item,yes,Flankertask.osexp,C:/Users/borna.000/Documents/PSYC/PSYC5316,no,mono,no,18,no,white,no,yes,768,legacy,48,79,C:/Users/borna.000/Desktop/DH-subject-1.csv,legacy,Lentiform Loewenfeld,3.3.9,0,s,NA,s,h,NA,s,498,NA,28453,8493,NA,498,2,legacy,1024,2,48000,-16,experiment,HHSHH,1,odd,NA,255759,30712,174686,NA,250520,2255,220162,256824,2259,166192,NA,256925,257424,256822,256925,Flanker task,111,58167,129,yes,1024
86.15384615,86.15384615,450.7846154,450.7846154,black,legacy,legacy,legacy,0,congruent,uniform,1,undefined,1,s,0,129,0,0,0,129,0,129,129,0,0,0,129,129,129,129,9/19/2021 11:59,600,The main experiment item,yes,Flankertask.osexp,C:/Users/borna.000/Documents/PSYC/PSYC5316,no,mono,no,18,no,white,no,yes,768,legacy,49,79,C:/Users/borna.000/Desktop/DH-subject-1.csv,legacy,Lentiform Loewenfeld,3.3.9,0,s,NA,s,h,NA,s,435,NA,28453,8493,NA,435,2,legacy,1024,2,48000,-16,experiment,SSSSS,1,odd,NA,257428,30712,174686,NA,250520,2255,220162,258495,2259,166192,NA,258596,259033,258493,258596,Flanker task,112,58602,130,yes,1024
86.25954198,86.25954198,450.4274809,450.4274809,black,legacy,legacy,legacy,0,incongruent,uniform,1,undefined,1,s,0,130,0,0,0,130,0,130,130,0,0,0,130,130,130,130,9/19/2021 11:59,600,The main experiment item,yes,Flankertask.osexp,C:/Users/borna.000/Documents/PSYC/PSYC5316,no,mono,no,18,no,white,no,yes,768,legacy,50,79,C:/Users/borna.000/Desktop/DH-subject-1.csv,legacy,Lentiform Loewenfeld,3.3.9,0,s,NA,s,h,NA,s,404,NA,28453,8493,NA,404,2,legacy,1024,2,48000,-16,experiment,HHSHH,1,odd,NA,259042,30712,174686,NA,250520,2255,220162,260109,2259,166192,NA,260210,260615,260107,260210,Flanker task,113,59006,131,yes,1024
86.36363636,86.36363636,451,451,black,legacy,legacy,legacy,0,incongruent,uniform,1,undefined,1,h,0,131,0,0,0,131,0,131,131,0,0,0,131,131,131,131,9/19/2021 11:59,600,The main experiment item,yes,Flankertask.osexp,C:/Users/borna.000/Documents/PSYC/PSYC5316,no,mono,no,18,no,white,no,yes,768,legacy,51,79,C:/Users/borna.000/Desktop/DH-subject-1.csv,legacy,Lentiform Loewenfeld,3.3.9,0,h,NA,s,h,NA,h,526,NA,28453,8493,NA,526,2,legacy,1024,2,48000,-16,experiment,SSHSS,1,odd,NA,260624,30712,174686,NA,250520,2255,220162,261690,2259,166192,NA,261791,262319,261688,261791,Flanker task,114,59532,132,yes,1024
86.46616541,86.46616541,450.2105263,450.2105263,black,legacy,legacy,legacy,0,incongruent,uniform,1,undefined,1,h,0,132,0,0,0,132,0,132,132,0,0,0,132,132,132,132,9/19/2021 11:59,600,The main experiment item,yes,Flankertask.osexp,C:/Users/borna.000/Documents/PSYC/PSYC5316,no,mono,no,18,no,white,no,yes,768,legacy,52,79,C:/Users/borna.000/Desktop/DH-subject-1.csv,legacy,Lentiform Loewenfeld,3.3.9,0,h,NA,s,h,NA,h,346,NA,28453,8493,NA,346,2,legacy,1024,2,48000,-16,experiment,SSHSS,1,odd,NA,262328,30712,174686,NA,250520,2255,220162,263396,2259,166192,NA,263497,263845,263394,263497,Flanker task,115,59878,133,yes,1024
86.56716418,86.56716418,450.0895522,450.0895522,black,legacy,legacy,legacy,0,congruent,uniform,1,undefined,1,s,0,133,0,0,0,133,0,133,133,0,0,0,133,133,133,133,9/19/2021 11:59,600,The main experiment item,yes,Flankertask.osexp,C:/Users/borna.000/Documents/PSYC/PSYC5316,no,mono,no,18,no,white,no,yes,768,legacy,53,79,C:/Users/borna.000/Desktop/DH-subject-1.csv,legacy,Lentiform Loewenfeld,3.3.9,0,s,NA,s,h,NA,s,434,NA,28453,8493,NA,434,2,legacy,1024,2,48000,-16,experiment,SSSSS,1,odd,NA,263854,30712,174686,NA,250520,2255,220162,264917,2259,166192,NA,265018,265454,264915,265018,Flanker task,116,60312,134,yes,1024
86.66666667,86.66666667,449.9925926,449.9925926,black,legacy,legacy,legacy,0,congruent,uniform,1,undefined,1,s,0,134,0,0,0,134,0,134,134,0,0,0,134,134,134,134,9/19/2021 11:59,600,The main experiment item,yes,Flankertask.osexp,C:/Users/borna.000/Documents/PSYC/PSYC5316,no,mono,no,18,no,white,no,yes,768,legacy,54,79,C:/Users/borna.000/Desktop/DH-subject-1.csv,legacy,Lentiform Loewenfeld,3.3.9,0,s,NA,s,h,NA,s,437,NA,28453,8493,NA,437,2,legacy,1024,2,48000,-16,experiment,SSSSS,1,odd,NA,265462,30712,174686,NA,250520,2255,220162,266529,2259,166192,NA,266630,267068,266527,266630,Flanker task,117,60749,135,yes,1024
86.76470588,86.76470588,449.7573529,449.7573529,black,legacy,legacy,legacy,0,congruent,uniform,1,undefined,1,s,0,135,0,0,0,135,0,135,135,0,0,0,135,135,135,135,9/19/2021 11:59,600,The main experiment item,yes,Flankertask.osexp,C:/Users/borna.000/Documents/PSYC/PSYC5316,no,mono,no,18,no,white,no,yes,768,legacy,55,79,C:/Users/borna.000/Desktop/DH-subject-1.csv,legacy,Lentiform Loewenfeld,3.3.9,0,s,NA,s,h,NA,s,418,NA,28453,8493,NA,418,2,legacy,1024,2,48000,-16,experiment,SSSSS,1,odd,NA,267076,30712,174686,NA,250520,2255,220162,268140,2259,166192,NA,268241,268660,268138,268241,Flanker task,118,61167,136,yes,1024
86.86131387,86.86131387,449.620438,449.620438,black,legacy,legacy,legacy,0,congruent,uniform,1,undefined,1,s,0,136,0,0,0,136,0,136,136,0,0,0,136,136,136,136,9/19/2021 11:59,600,The main experiment item,yes,Flankertask.osexp,C:/Users/borna.000/Documents/PSYC/PSYC5316,no,mono,no,18,no,white,no,yes,768,legacy,56,79,C:/Users/borna.000/Desktop/DH-subject-1.csv,legacy,Lentiform Loewenfeld,3.3.9,0,s,NA,s,h,NA,s,431,NA,28453,8493,NA,431,2,legacy,1024,2,48000,-16,experiment,SSSSS,1,odd,NA,268668,30712,174686,NA,250520,2255,220162,269732,2259,166192,NA,269833,270266,269730,269833,Flanker task,119,61598,137,yes,1024
86.95652174,86.95652174,450.0362319,450.0362319,black,legacy,legacy,legacy,0,incongruent,uniform,1,undefined,1,h,0,137,0,0,0,137,0,137,137,0,0,0,137,137,137,137,9/19/2021 11:59,600,The main experiment item,yes,Flankertask.osexp,C:/Users/borna.000/Documents/PSYC/PSYC5316,no,mono,no,18,no,white,no,yes,768,legacy,57,79,C:/Users/borna.000/Desktop/DH-subject-1.csv,legacy,Lentiform Loewenfeld,3.3.9,0,h,NA,s,h,NA,h,507,NA,28453,8493,NA,507,2,legacy,1024,2,48000,-16,experiment,SSHSS,1,odd,NA,270274,30712,174686,NA,250520,2255,220162,271341,2259,166192,NA,271443,271951,271339,271443,Flanker task,120,62105,138,yes,1024
87.05035971,87.05035971,449.3884892,449.3884892,black,legacy,legacy,legacy,0,incongruent,uniform,1,undefined,1,h,0,138,0,0,0,138,0,138,138,0,0,0,138,138,138,138,9/19/2021 11:59,600,The main experiment item,yes,Flankertask.osexp,C:/Users/borna.000/Documents/PSYC/PSYC5316,no,mono,no,18,no,white,no,yes,768,legacy,58,79,C:/Users/borna.000/Desktop/DH-subject-1.csv,legacy,Lentiform Loewenfeld,3.3.9,0,h,NA,s,h,NA,h,360,NA,28453,8493,NA,360,2,legacy,1024,2,48000,-16,experiment,SSHSS,1,odd,NA,271959,30712,174686,NA,250520,2255,220162,273028,2259,166192,NA,273129,273490,273025,273129,Flanker task,121,62465,139,yes,1024
87.14285714,87.14285714,449.1642857,449.1642857,black,legacy,legacy,legacy,0,congruent,uniform,1,undefined,1,s,0,139,0,0,0,139,0,139,139,0,0,0,139,139,139,139,9/19/2021 11:59,600,The main experiment item,yes,Flankertask.osexp,C:/Users/borna.000/Documents/PSYC/PSYC5316,no,mono,no,18,no,white,no,yes,768,legacy,59,79,C:/Users/borna.000/Desktop/DH-subject-1.csv,legacy,Lentiform Loewenfeld,3.3.9,0,s,NA,s,h,NA,s,418,NA,28453,8493,NA,418,2,legacy,1024,2,48000,-16,experiment,SSSSS,1,odd,NA,273499,30712,174686,NA,250520,2255,220162,274563,2259,166192,NA,274664,275083,274560,274664,Flanker task,122,62883,140,yes,1024
87.23404255,87.23404255,448.6312057,448.6312057,black,legacy,legacy,legacy,0,congruent,uniform,1,undefined,1,h,0,140,0,0,0,140,0,140,140,0,0,0,140,140,140,140,9/19/2021 11:59,600,The main experiment item,yes,Flankertask.osexp,C:/Users/borna.000/Documents/PSYC/PSYC5316,no,mono,no,18,no,white,no,yes,768,legacy,60,79,C:/Users/borna.000/Desktop/DH-subject-1.csv,legacy,Lentiform Loewenfeld,3.3.9,0,h,NA,s,h,NA,h,374,NA,28453,8493,NA,374,2,legacy,1024,2,48000,-16,experiment,HHHHH,1,odd,NA,275092,30712,174686,NA,250520,2255,220162,276157,2259,166192,NA,276258,276633,276155,276258,Flanker task,123,63257,141,yes,1024
87.32394366,87.32394366,448.2323944,448.2323944,black,legacy,legacy,legacy,0,incongruent,uniform,1,undefined,1,h,0,141,0,0,0,141,0,141,141,0,0,0,141,141,141,141,9/19/2021 11:59,600,The main experiment item,yes,Flankertask.osexp,C:/Users/borna.000/Documents/PSYC/PSYC5316,no,mono,no,18,no,white,no,yes,768,legacy,61,79,C:/Users/borna.000/Desktop/DH-subject-1.csv,legacy,Lentiform Loewenfeld,3.3.9,0,h,NA,s,h,NA,h,392,NA,28453,8493,NA,392,2,legacy,1024,2,48000,-16,experiment,SSHSS,1,odd,NA,276643,30712,174686,NA,250520,2255,220162,277708,2259,166192,NA,277809,278203,277706,277809,Flanker task,124,63649,142,yes,1024
87.41258741,87.41258741,448.0979021,448.0979021,black,legacy,legacy,legacy,0,congruent,uniform,1,undefined,1,h,0,142,0,0,0,142,0,142,142,0,0,0,142,142,142,142,9/19/2021 11:59,600,The main experiment item,yes,Flankertask.osexp,C:/Users/borna.000/Documents/PSYC/PSYC5316,no,mono,no,18,no,white,no,yes,768,legacy,62,79,C:/Users/borna.000/Desktop/DH-subject-1.csv,legacy,Lentiform Loewenfeld,3.3.9,0,h,NA,s,h,NA,h,429,NA,28453,8493,NA,429,2,legacy,1024,2,48000,-16,experiment,HHHHH,1,odd,NA,278211,30712,174686,NA,250520,2255,220162,279280,2259,166192,NA,279381,279811,279278,279381,Flanker task,125,64078,143,yes,1024
87.5,87.5,448.5625,448.5625,black,legacy,legacy,legacy,0,incongruent,uniform,1,undefined,1,s,0,143,0,0,0,143,0,143,143,0,0,0,143,143,143,143,9/19/2021 11:59,600,The main experiment item,yes,Flankertask.osexp,C:/Users/borna.000/Documents/PSYC/PSYC5316,no,mono,no,18,no,white,no,yes,768,legacy,63,79,C:/Users/borna.000/Desktop/DH-subject-1.csv,legacy,Lentiform Loewenfeld,3.3.9,0,s,NA,s,h,NA,s,515,NA,28453,8493,NA,515,2,legacy,1024,2,48000,-16,experiment,HHSHH,1,odd,NA,279819,30712,174686,NA,250520,2255,220162,280886,2259,166192,NA,280987,281503,280883,280987,Flanker task,126,64593,144,yes,1024
87.5862069,87.5862069,449.2689655,449.2689655,black,legacy,legacy,legacy,0,incongruent,uniform,1,undefined,1,h,0,144,0,0,0,144,0,144,144,0,0,0,144,144,144,144,9/19/2021 11:59,600,The main experiment item,yes,Flankertask.osexp,C:/Users/borna.000/Documents/PSYC/PSYC5316,no,mono,no,18,no,white,no,yes,768,legacy,64,79,C:/Users/borna.000/Desktop/DH-subject-1.csv,legacy,Lentiform Loewenfeld,3.3.9,0,h,NA,s,h,NA,h,551,NA,28453,8493,NA,551,2,legacy,1024,2,48000,-16,experiment,SSHSS,1,odd,NA,281512,30712,174686,NA,250520,2255,220162,282577,2259,166192,NA,282679,283231,282575,282678,Flanker task,127,65144,145,yes,1024
86.98630137,86.98630137,449.2191781,449.2191781,black,legacy,legacy,legacy,0,incongruent,uniform,0,undefined,0,h,0,145,0,0,0,145,0,145,145,0,0,0,145,145,145,145,9/19/2021 11:59,600,The main experiment item,yes,Flankertask.osexp,C:/Users/borna.000/Documents/PSYC/PSYC5316,no,mono,no,18,no,white,no,yes,768,legacy,65,79,C:/Users/borna.000/Desktop/DH-subject-1.csv,legacy,Lentiform Loewenfeld,3.3.9,0,s,NA,s,h,NA,s,442,NA,28453,8493,NA,442,2,legacy,1024,2,48000,-16,experiment,SSHSS,1,odd,NA,283239,30712,174686,NA,250520,2255,220162,284306,2259,166192,NA,284407,284850,284304,284407,Flanker task,127,65586,146,yes,1024
87.07482993,87.07482993,449.2176871,449.2176871,black,legacy,legacy,legacy,0,congruent,uniform,1,undefined,1,s,0,146,0,0,0,146,0,146,146,0,0,0,146,146,146,146,9/19/2021 11:59,600,The main experiment item,yes,Flankertask.osexp,C:/Users/borna.000/Documents/PSYC/PSYC5316,no,mono,no,18,no,white,no,yes,768,legacy,66,79,C:/Users/borna.000/Desktop/DH-subject-1.csv,legacy,Lentiform Loewenfeld,3.3.9,0,s,NA,s,h,NA,s,449,NA,28453,8493,NA,449,2,legacy,1024,2,48000,-16,experiment,SSSSS,1,odd,NA,285360,30712,174686,NA,284859,2255,220162,286426,2259,166192,NA,286527,286977,286424,286527,Flanker task,128,66035,147,yes,1024
87.16216216,87.16216216,449.2635135,449.2635135,black,legacy,legacy,legacy,0,congruent,uniform,1,undefined,1,h,0,147,0,0,0,147,0,147,147,0,0,0,147,147,147,147,9/19/2021 11:59,600,The main experiment item,yes,Flankertask.osexp,C:/Users/borna.000/Documents/PSYC/PSYC5316,no,mono,no,18,no,white,no,yes,768,legacy,67,79,C:/Users/borna.000/Desktop/DH-subject-1.csv,legacy,Lentiform Loewenfeld,3.3.9,0,h,NA,s,h,NA,h,456,NA,28453,8493,NA,456,2,legacy,1024,2,48000,-16,experiment,HHHHH,1,odd,NA,286985,30712,174686,NA,284859,2255,220162,288052,2259,166192,NA,288153,288611,288050,288153,Flanker task,129,66491,148,yes,1024
87.24832215,87.24832215,449.033557,449.033557,black,legacy,legacy,legacy,0,incongruent,uniform,1,undefined,1,h,0,148,0,0,0,148,0,148,148,0,0,0,148,148,148,148,9/19/2021 11:59,600,The main experiment item,yes,Flankertask.osexp,C:/Users/borna.000/Documents/PSYC/PSYC5316,no,mono,no,18,no,white,no,yes,768,legacy,68,79,C:/Users/borna.000/Desktop/DH-subject-1.csv,legacy,Lentiform Loewenfeld,3.3.9,0,h,NA,s,h,NA,h,415,NA,28453,8493,NA,415,2,legacy,1024,2,48000,-16,experiment,SSHSS,1,odd,NA,288619,30712,174686,NA,284859,2255,220162,289682,2259,166192,NA,289783,290199,289680,289783,Flanker task,130,66906,149,yes,1024
87.33333333,87.33333333,448.66,448.66,black,legacy,legacy,legacy,0,incongruent,uniform,1,undefined,1,h,0,149,0,0,0,149,0,149,149,0,0,0,149,149,149,149,9/19/2021 11:59,600,The main experiment item,yes,Flankertask.osexp,C:/Users/borna.000/Documents/PSYC/PSYC5316,no,mono,no,18,no,white,no,yes,768,legacy,69,79,C:/Users/borna.000/Desktop/DH-subject-1.csv,legacy,Lentiform Loewenfeld,3.3.9,0,h,NA,s,h,NA,h,393,NA,28453,8493,NA,393,2,legacy,1024,2,48000,-16,experiment,SSHSS,1,odd,NA,290207,30712,174686,NA,284859,2255,220162,291272,2259,166192,NA,291373,291768,291270,291373,Flanker task,131,67299,150,yes,1024
87.41721854,87.41721854,449.3576159,449.3576159,black,legacy,legacy,legacy,0,incongruent,uniform,1,undefined,1,s,0,150,0,0,0,150,0,150,150,0,0,0,150,150,150,150,9/19/2021 11:59,600,The main experiment item,yes,Flankertask.osexp,C:/Users/borna.000/Documents/PSYC/PSYC5316,no,mono,no,18,no,white,no,yes,768,legacy,70,79,C:/Users/borna.000/Desktop/DH-subject-1.csv,legacy,Lentiform Loewenfeld,3.3.9,0,s,NA,s,h,NA,s,554,NA,28453,8493,NA,554,2,legacy,1024,2,48000,-16,experiment,HHSHH,1,odd,NA,291776,30712,174686,NA,284859,2255,220162,292847,2259,166192,NA,292948,293503,292844,292948,Flanker task,132,67853,151,yes,1024
87.5,87.5,449.3552632,449.3552632,black,legacy,legacy,legacy,0,congruent,uniform,1,undefined,1,s,0,151,0,0,0,151,0,151,151,0,0,0,151,151,151,151,9/19/2021 11:59,600,The main experiment item,yes,Flankertask.osexp,C:/Users/borna.000/Documents/PSYC/PSYC5316,no,mono,no,18,no,white,no,yes,768,legacy,71,79,C:/Users/borna.000/Desktop/DH-subject-1.csv,legacy,Lentiform Loewenfeld,3.3.9,0,s,NA,s,h,NA,s,449,NA,28453,8493,NA,449,2,legacy,1024,2,48000,-16,experiment,SSSSS,1,odd,NA,293511,30712,174686,NA,284859,2255,220162,294578,2259,166192,NA,294679,295129,294575,294679,Flanker task,133,68302,152,yes,1024
87.58169935,87.58169935,449.5620915,449.5620915,black,legacy,legacy,legacy,0,congruent,uniform,1,undefined,1,h,0,152,0,0,0,152,0,152,152,0,0,0,152,152,152,152,9/19/2021 11:59,600,The main experiment item,yes,Flankertask.osexp,C:/Users/borna.000/Documents/PSYC/PSYC5316,no,mono,no,18,no,white,no,yes,768,legacy,72,79,C:/Users/borna.000/Desktop/DH-subject-1.csv,legacy,Lentiform Loewenfeld,3.3.9,0,h,NA,s,h,NA,h,481,NA,28453,8493,NA,481,2,legacy,1024,2,48000,-16,experiment,HHHHH,1,odd,NA,295138,30712,174686,NA,284859,2255,220162,296201,2259,166192,NA,296302,296784,296198,296302,Flanker task,134,68783,153,yes,1024
87.66233766,87.66233766,449.3376623,449.3376623,black,legacy,legacy,legacy,0,congruent,uniform,1,undefined,1,h,0,153,0,0,0,153,0,153,153,0,0,0,153,153,153,153,9/19/2021 11:59,600,The main experiment item,yes,Flankertask.osexp,C:/Users/borna.000/Documents/PSYC/PSYC5316,no,mono,no,18,no,white,no,yes,768,legacy,73,79,C:/Users/borna.000/Desktop/DH-subject-1.csv,legacy,Lentiform Loewenfeld,3.3.9,0,h,NA,s,h,NA,h,415,NA,28453,8493,NA,415,2,legacy,1024,2,48000,-16,experiment,HHHHH,1,odd,NA,296793,30712,174686,NA,284859,2255,220162,297872,2259,166192,NA,297973,298390,297870,297973,Flanker task,135,69198,154,yes,1024
87.74193548,87.74193548,449.2064516,449.2064516,black,legacy,legacy,legacy,0,congruent,uniform,1,undefined,1,h,0,154,0,0,0,154,0,154,154,0,0,0,154,154,154,154,9/19/2021 11:59,600,The main experiment item,yes,Flankertask.osexp,C:/Users/borna.000/Documents/PSYC/PSYC5316,no,mono,no,18,no,white,no,yes,768,legacy,74,79,C:/Users/borna.000/Desktop/DH-subject-1.csv,legacy,Lentiform Loewenfeld,3.3.9,0,h,NA,s,h,NA,h,429,NA,28453,8493,NA,429,2,legacy,1024,2,48000,-16,experiment,HHHHH,1,odd,NA,298398,30712,174686,NA,284859,2255,220162,299470,2259,166192,NA,299571,300001,299467,299571,Flanker task,136,69627,155,yes,1024
87.82051282,87.82051282,448.9807692,448.9807692,black,legacy,legacy,legacy,0,incongruent,uniform,1,undefined,1,h,0,155,0,0,0,155,0,155,155,0,0,0,155,155,155,155,9/19/2021 11:59,600,The main experiment item,yes,Flankertask.osexp,C:/Users/borna.000/Documents/PSYC/PSYC5316,no,mono,no,18,no,white,no,yes,768,legacy,75,79,C:/Users/borna.000/Desktop/DH-subject-1.csv,legacy,Lentiform Loewenfeld,3.3.9,0,h,NA,s,h,NA,h,414,NA,28453,8493,NA,414,2,legacy,1024,2,48000,-16,experiment,SSHSS,1,odd,NA,300009,30712,174686,NA,284859,2255,220162,301071,2259,166192,NA,301171,301586,301069,301171,Flanker task,137,70041,156,yes,1024
87.89808917,87.89808917,448.7133758,448.7133758,black,legacy,legacy,legacy,0,incongruent,uniform,1,undefined,1,h,0,156,0,0,0,156,0,156,156,0,0,0,156,156,156,156,9/19/2021 11:59,600,The main experiment item,yes,Flankertask.osexp,C:/Users/borna.000/Documents/PSYC/PSYC5316,no,mono,no,18,no,white,no,yes,768,legacy,76,79,C:/Users/borna.000/Desktop/DH-subject-1.csv,legacy,Lentiform Loewenfeld,3.3.9,0,h,NA,s,h,NA,h,407,NA,28453,8493,NA,407,2,legacy,1024,2,48000,-16,experiment,SSHSS,1,odd,NA,301594,30712,174686,NA,284859,2255,220162,302661,2259,166192,NA,302762,303170,302659,302762,Flanker task,138,70448,157,yes,1024
87.97468354,87.97468354,449.4113924,449.4113924,black,legacy,legacy,legacy,0,incongruent,uniform,1,undefined,1,h,0,157,0,0,0,157,0,157,157,0,0,0,157,157,157,157,9/19/2021 11:59,600,The main experiment item,yes,Flankertask.osexp,C:/Users/borna.000/Documents/PSYC/PSYC5316,no,mono,no,18,no,white,no,yes,768,legacy,77,79,C:/Users/borna.000/Desktop/DH-subject-1.csv,legacy,Lentiform Loewenfeld,3.3.9,0,h,NA,s,h,NA,h,559,NA,28453,8493,NA,559,2,legacy,1024,2,48000,-16,experiment,SSHSS,1,odd,NA,303179,30712,174686,NA,284859,2255,220162,304244,2259,166192,NA,304345,304905,304242,304345,Flanker task,139,71007,158,yes,1024
88.05031447,88.05031447,449.8301887,449.8301887,black,legacy,legacy,legacy,0,incongruent,uniform,1,undefined,1,s,0,158,0,0,0,158,0,158,158,0,0,0,158,158,158,158,9/19/2021 11:59,600,The main experiment item,yes,Flankertask.osexp,C:/Users/borna.000/Documents/PSYC/PSYC5316,no,mono,no,18,no,white,no,yes,768,legacy,78,79,C:/Users/borna.000/Desktop/DH-subject-1.csv,legacy,Lentiform Loewenfeld,3.3.9,0,s,NA,s,h,NA,s,516,NA,28453,8493,NA,516,2,legacy,1024,2,48000,-16,experiment,HHSHH,1,odd,NA,304914,30712,174686,NA,284859,2255,220162,305978,2259,166192,NA,306079,306597,305976,306079,Flanker task,140,71523,159,yes,1024
87.5,87.5,449.35,449.35,black,legacy,legacy,legacy,0,incongruent,uniform,0,undefined,0,h,0,159,0,0,0,159,0,159,159,0,0,0,159,159,159,159,9/19/2021 11:59,600,The main experiment item,yes,Flankertask.osexp,C:/Users/borna.000/Documents/PSYC/PSYC5316,no,mono,no,18,no,white,no,yes,768,legacy,79,79,C:/Users/borna.000/Desktop/DH-subject-1.csv,legacy,Lentiform Loewenfeld,3.3.9,0,s,NA,s,h,NA,s,373,NA,28453,8493,NA,373,2,legacy,1024,2,48000,-16,experiment,SSHSS,1,odd,NA,306605,30712,174686,NA,284859,2255,220162,307670,2259,166192,NA,307771,308146,307668,307771,Flanker task,140,71896,160,yes,1024
87.57763975,87.57763975,449.5590062,449.5590062,black,legacy,legacy,legacy,0,incongruent,uniform,1,undefined,1,s,0,160,0,0,0,160,0,160,160,0,0,0,160,160,160,160,9/19/2021 11:59,300,The main experiment item,yes,Flankertask.osexp,C:/Users/borna.000/Documents/PSYC/PSYC5316,no,mono,no,18,no,white,no,yes,768,legacy,0,79,C:/Users/borna.000/Desktop/DH-subject-1.csv,legacy,Lentiform Loewenfeld,3.3.9,0,s,NA,s,h,h,s,483,NA,28453,8493,9732,483,2,legacy,1024,2,48000,-16,experiment,HHSHH,1,odd,NA,308655,30712,174686,319399,308154,2255,220162,319452,2259,166192,309666,319553,320037,319450,319553,Flanker task,141,72379,161,yes,1024
87.03703704,87.03703704,449.2654321,449.2654321,black,legacy,legacy,legacy,0,congruent,uniform,0,undefined,0,s,0,161,0,0,0,161,0,161,161,0,0,0,161,161,161,161,9/19/2021 11:59,300,The main experiment item,yes,Flankertask.osexp,C:/Users/borna.000/Documents/PSYC/PSYC5316,no,mono,no,18,no,white,no,yes,768,legacy,1,79,C:/Users/borna.000/Desktop/DH-subject-1.csv,legacy,Lentiform Loewenfeld,3.3.9,0,h,NA,s,h,h,h,402,NA,28453,8493,9732,402,2,legacy,1024,2,48000,-16,experiment,SSSSS,1,odd,NA,320547,30712,174686,319399,308154,2255,320046,321605,2259,166192,309666,321706,322109,321602,321706,Flanker task,141,72781,162,yes,1024
87.11656442,87.11656442,449,449,black,legacy,legacy,legacy,0,incongruent,uniform,1,undefined,1,s,0,162,0,0,0,162,0,162,162,0,0,0,162,162,162,162,9/19/2021 11:59,300,The main experiment item,yes,Flankertask.osexp,C:/Users/borna.000/Documents/PSYC/PSYC5316,no,mono,no,18,no,white,no,yes,768,legacy,2,79,C:/Users/borna.000/Desktop/DH-subject-1.csv,legacy,Lentiform Loewenfeld,3.3.9,0,s,NA,s,h,h,s,406,NA,28453,8493,9732,406,2,legacy,1024,2,48000,-16,experiment,HHSHH,1,odd,NA,323120,30712,174686,319399,322118,2255,322619,324177,2259,166192,309666,324279,324686,324175,324279,Flanker task,142,73187,163,yes,1024
86.58536585,86.58536585,448.695122,448.695122,black,legacy,legacy,legacy,0,congruent,uniform,0,undefined,0,h,0,163,0,0,0,163,0,163,163,0,0,0,163,163,163,163,9/19/2021 11:59,300,The main experiment item,yes,Flankertask.osexp,C:/Users/borna.000/Documents/PSYC/PSYC5316,no,mono,no,18,no,white,no,yes,768,legacy,3,79,C:/Users/borna.000/Desktop/DH-subject-1.csv,legacy,Lentiform Loewenfeld,3.3.9,0,s,NA,s,h,h,s,399,NA,28453,8493,9732,399,2,legacy,1024,2,48000,-16,experiment,HHHHH,1,odd,NA,325196,30712,174686,319399,322118,2255,324695,326252,2259,166192,309666,326353,326753,326250,326353,Flanker task,142,73586,164,yes,1024
