"acc","accuracy","average_response_time","avg_rt","background","canvas_backend","clock_backend","color_backend","compensation","condition","coordinates","correct","correct_instructions1","correct_keyboard_response","correct_response","count_Block1","count_Block2","count_Block3","count_ISI","count_errorFeedback","count_experiment","count_faster","count_finish","count_fixation","count_instructions1","count_instructions2","count_instructons3","count_keyboard_response","count_logger","count_sequence","count_stimulus","datetime","deadline","description","disable_garbage_collection","experiment_file","experiment_path","font_bold","font_family","font_italic","font_size","font_underline","foreground","form_clicks","fullscreen","height","keyboard_backend","live_row","live_row_Block1","logfile","mouse_backend","opensesame_codename","opensesame_version","repeat_cycle","response","response_finish","response_instructions1","response_instructions2","response_instructons3","response_keyboard_response","response_time","response_time_finish","response_time_instructions1","response_time_instructions2","response_time_instructons3","response_time_keyboard_response","round_decimals","sampler_backend","sound_buf_size","sound_channels","sound_freq","sound_sample_size","start","stimulus","subject_nr","subject_parity","time_Block1","time_Block2","time_Block3","time_ISI","time_errorFeedback","time_experiment","time_faster","time_finish","time_fixation","time_instructions1","time_instructions2","time_instructons3","time_keyboard_response","time_logger","time_sequence","time_stimulus","title","total_correct","total_response_time","total_responses","uniform_coordinates","width"
"100","100","791","791","black","legacy","legacy","legacy","0","congruent","uniform","1","undefined","1","s","0","0","0","0","0","0","0","0","0","0","0","0","0","0","0","0","Sat Sep 25 20:09:44 2021","1500","The main experiment item","yes","SR-FlankerTask.osexp","C:/Users/Simon M. Rook/Documents/School/1Tarleton/Classes/Adv Quant/Lab 2","no","mono","no","18","no","white","no","no","768","legacy","0","0","C:/Users/Simon M. Rook/Documents/School/1Tarleton/Classes/Adv Quant/Lab 2/flanker-data/sr-subject-3.csv","legacy","Lentiform Loewenfeld","3.3.10","0","s","NA","h","NA","NA","s","791","NA","23253","NA","NA","791","2","legacy","1024","2","48000","-16","experiment","SSSSS","3","odd","24411","NA","NA","NA","NA","1153","NA","NA","24478","1157","NA","NA","24579","25371","24477","24579","Flanker Task","1","791","1","yes","1024"
"100","100","695.5","695.5","black","legacy","legacy","legacy","0","incongruent","uniform","1","undefined","1","h","0","0","0","1","1","0","1","0","1","0","0","0","1","1","1","1","Sat Sep 25 20:09:44 2021","1500","The main experiment item","yes","SR-FlankerTask.osexp","C:/Users/Simon M. Rook/Documents/School/1Tarleton/Classes/Adv Quant/Lab 2","no","mono","no","18","no","white","no","no","768","legacy","1","1","C:/Users/Simon M. Rook/Documents/School/1Tarleton/Classes/Adv Quant/Lab 2/flanker-data/sr-subject-3.csv","legacy","Lentiform Loewenfeld","3.3.10","0","h","NA","h","NA","NA","h","600","NA","23253","NA","NA","600","2","legacy","1024","2","48000","-16","experiment","SSHSS","3","odd","24411","NA","NA","25377","NA","1153","NA","NA","26430","1157","NA","NA","26531","27132","26428","26531","Flanker Task","2","1391","2","yes","1024"
"100","100","624.3333333333334","624.3333333333334","black","legacy","legacy","legacy","0","congruent","uniform","1","undefined","1","s","0","0","0","2","2","0","2","0","2","0","0","0","2","2","2","2","Sat Sep 25 20:09:44 2021","1500","The main experiment item","yes","SR-FlankerTask.osexp","C:/Users/Simon M. Rook/Documents/School/1Tarleton/Classes/Adv Quant/Lab 2","no","mono","no","18","no","white","no","no","768","legacy","2","2","C:/Users/Simon M. Rook/Documents/School/1Tarleton/Classes/Adv Quant/Lab 2/flanker-data/sr-subject-3.csv","legacy","Lentiform Loewenfeld","3.3.10","0","s","NA","h","NA","NA","s","482","NA","23253","NA","NA","482","2","legacy","1024","2","48000","-16","experiment","SSSSS","3","odd","24411","NA","NA","27135","NA","1153","NA","NA","28188","1157","NA","NA","28289","28771","28187","28289","Flanker Task","3","1873","3","yes","1024"
"100","100","616.75","616.75","black","legacy","legacy","legacy","0","incongruent","uniform","1","undefined","1","s","0","0","0","3","3","0","3","0","3","0","0","0","3","3","3","3","Sat Sep 25 20:09:44 2021","1500","The main experiment item","yes","SR-FlankerTask.osexp","C:/Users/Simon M. Rook/Documents/School/1Tarleton/Classes/Adv Quant/Lab 2","no","mono","no","18","no","white","no","no","768","legacy","3","3","C:/Users/Simon M. Rook/Documents/School/1Tarleton/Classes/Adv Quant/Lab 2/flanker-data/sr-subject-3.csv","legacy","Lentiform Loewenfeld","3.3.10","0","s","NA","h","NA","NA","s","594","NA","23253","NA","NA","594","2","legacy","1024","2","48000","-16","experiment","HHSHH","3","odd","24411","NA","NA","28775","NA","1153","NA","NA","29828","1157","NA","NA","29929","30524","29827","29929","Flanker Task","4","2467","4","yes","1024"
"100","100","604.2","604.2","black","legacy","legacy","legacy","0","incongruent","uniform","1","undefined","1","h","0","0","0","4","4","0","4","0","4","0","0","0","4","4","4","4","Sat Sep 25 20:09:44 2021","1500","The main experiment item","yes","SR-FlankerTask.osexp","C:/Users/Simon M. Rook/Documents/School/1Tarleton/Classes/Adv Quant/Lab 2","no","mono","no","18","no","white","no","no","768","legacy","4","4","C:/Users/Simon M. Rook/Documents/School/1Tarleton/Classes/Adv Quant/Lab 2/flanker-data/sr-subject-3.csv","legacy","Lentiform Loewenfeld","3.3.10","0","h","NA","h","NA","NA","h","554","NA","23253","NA","NA","554","2","legacy","1024","2","48000","-16","experiment","SSHSS","3","odd","24411","NA","NA","30527","NA","1153","NA","NA","31580","1157","NA","NA","31681","32236","31578","31681","Flanker Task","5","3021","5","yes","1024"
"100","100","613","613","black","legacy","legacy","legacy","0","congruent","uniform","1","undefined","1","h","0","0","0","5","5","0","5","0","5","0","0","0","5","5","5","5","Sat Sep 25 20:09:44 2021","1500","The main experiment item","yes","SR-FlankerTask.osexp","C:/Users/Simon M. Rook/Documents/School/1Tarleton/Classes/Adv Quant/Lab 2","no","mono","no","18","no","white","no","no","768","legacy","5","5","C:/Users/Simon M. Rook/Documents/School/1Tarleton/Classes/Adv Quant/Lab 2/flanker-data/sr-subject-3.csv","legacy","Lentiform Loewenfeld","3.3.10","0","h","NA","h","NA","NA","h","657","NA","23253","NA","NA","657","2","legacy","1024","2","48000","-16","experiment","HHHHH","3","odd","24411","NA","NA","32240","NA","1153","NA","NA","33293","1157","NA","NA","33394","34052","33291","33394","Flanker Task","6","3678","6","yes","1024"
"100","100","601.1428571428571","601.1428571428571","black","legacy","legacy","legacy","0","incongruent","uniform","1","undefined","1","h","0","0","0","6","6","0","6","0","6","0","0","0","6","6","6","6","Sat Sep 25 20:09:44 2021","1500","The main experiment item","yes","SR-FlankerTask.osexp","C:/Users/Simon M. Rook/Documents/School/1Tarleton/Classes/Adv Quant/Lab 2","no","mono","no","18","no","white","no","no","768","legacy","6","6","C:/Users/Simon M. Rook/Documents/School/1Tarleton/Classes/Adv Quant/Lab 2/flanker-data/sr-subject-3.csv","legacy","Lentiform Loewenfeld","3.3.10","0","h","NA","h","NA","NA","h","530","NA","23253","NA","NA","530","2","legacy","1024","2","48000","-16","experiment","SSHSS","3","odd","24411","NA","NA","34055","NA","1153","NA","NA","35108","1157","NA","NA","35210","35740","35107","35210","Flanker Task","7","4208","7","yes","1024"
"100","100","599","599","black","legacy","legacy","legacy","0","congruent","uniform","1","undefined","1","h","0","0","0","7","7","0","7","0","7","0","0","0","7","7","7","7","Sat Sep 25 20:09:44 2021","1500","The main experiment item","yes","SR-FlankerTask.osexp","C:/Users/Simon M. Rook/Documents/School/1Tarleton/Classes/Adv Quant/Lab 2","no","mono","no","18","no","white","no","no","768","legacy","7","7","C:/Users/Simon M. Rook/Documents/School/1Tarleton/Classes/Adv Quant/Lab 2/flanker-data/sr-subject-3.csv","legacy","Lentiform Loewenfeld","3.3.10","0","h","NA","h","NA","NA","h","584","NA","23253","NA","NA","584","2","legacy","1024","2","48000","-16","experiment","HHHHH","3","odd","24411","NA","NA","35746","NA","1153","NA","NA","36799","1157","NA","NA","36900","37484","36797","36900","Flanker Task","8","4792","8","yes","1024"
"100","100","594.1111111111111","594.1111111111111","black","legacy","legacy","legacy","0","congruent","uniform","1","undefined","1","s","0","0","0","8","8","0","8","0","8","0","0","0","8","8","8","8","Sat Sep 25 20:09:44 2021","1500","The main experiment item","yes","SR-FlankerTask.osexp","C:/Users/Simon M. Rook/Documents/School/1Tarleton/Classes/Adv Quant/Lab 2","no","mono","no","18","no","white","no","no","768","legacy","8","8","C:/Users/Simon M. Rook/Documents/School/1Tarleton/Classes/Adv Quant/Lab 2/flanker-data/sr-subject-3.csv","legacy","Lentiform Loewenfeld","3.3.10","0","s","NA","h","NA","NA","s","555","NA","23253","NA","NA","555","2","legacy","1024","2","48000","-16","experiment","SSSSS","3","odd","24411","NA","NA","37487","NA","1153","NA","NA","38540","1157","NA","NA","38641","39197","38538","38641","Flanker Task","9","5347","9","yes","1024"
"100","100","580.5","580.5","black","legacy","legacy","legacy","0","congruent","uniform","1","undefined","1","s","0","0","0","9","9","0","9","0","9","0","0","0","9","9","9","9","Sat Sep 25 20:09:44 2021","1500","The main experiment item","yes","SR-FlankerTask.osexp","C:/Users/Simon M. Rook/Documents/School/1Tarleton/Classes/Adv Quant/Lab 2","no","mono","no","18","no","white","no","no","768","legacy","9","9","C:/Users/Simon M. Rook/Documents/School/1Tarleton/Classes/Adv Quant/Lab 2/flanker-data/sr-subject-3.csv","legacy","Lentiform Loewenfeld","3.3.10","0","s","NA","h","NA","NA","s","458","NA","23253","NA","NA","458","2","legacy","1024","2","48000","-16","experiment","SSSSS","3","odd","24411","NA","NA","39200","NA","1153","NA","NA","40253","1157","NA","NA","40354","40813","40251","40354","Flanker Task","10","5805","10","yes","1024"
"100","100","573.8181818181819","573.8181818181819","black","legacy","legacy","legacy","0","incongruent","uniform","1","undefined","1","h","0","0","0","10","10","0","10","0","10","0","0","0","10","10","10","10","Sat Sep 25 20:09:44 2021","1500","The main experiment item","yes","SR-FlankerTask.osexp","C:/Users/Simon M. Rook/Documents/School/1Tarleton/Classes/Adv Quant/Lab 2","no","mono","no","18","no","white","no","no","768","legacy","10","10","C:/Users/Simon M. Rook/Documents/School/1Tarleton/Classes/Adv Quant/Lab 2/flanker-data/sr-subject-3.csv","legacy","Lentiform Loewenfeld","3.3.10","0","h","NA","h","NA","NA","h","507","NA","23253","NA","NA","507","2","legacy","1024","2","48000","-16","experiment","SSHSS","3","odd","24411","NA","NA","40816","NA","1153","NA","NA","41869","1157","NA","NA","41970","42478","41868","41970","Flanker Task","11","6312","11","yes","1024"
"100","100","562.1666666666666","562.1666666666666","black","legacy","legacy","legacy","0","incongruent","uniform","1","undefined","1","s","0","0","0","11","11","0","11","0","11","0","0","0","11","11","11","11","Sat Sep 25 20:09:44 2021","1500","The main experiment item","yes","SR-FlankerTask.osexp","C:/Users/Simon M. Rook/Documents/School/1Tarleton/Classes/Adv Quant/Lab 2","no","mono","no","18","no","white","no","no","768","legacy","11","11","C:/Users/Simon M. Rook/Documents/School/1Tarleton/Classes/Adv Quant/Lab 2/flanker-data/sr-subject-3.csv","legacy","Lentiform Loewenfeld","3.3.10","0","s","NA","h","NA","NA","s","434","NA","23253","NA","NA","434","2","legacy","1024","2","48000","-16","experiment","HHSHH","3","odd","24411","NA","NA","42481","NA","1153","NA","NA","43534","1157","NA","NA","43635","44069","43532","43635","Flanker Task","12","6746","12","yes","1024"
"100","100","554.4615384615385","554.4615384615385","black","legacy","legacy","legacy","0","incongruent","uniform","1","undefined","1","h","0","0","0","12","12","0","12","0","12","0","0","0","12","12","12","12","Sat Sep 25 20:09:44 2021","1500","The main experiment item","yes","SR-FlankerTask.osexp","C:/Users/Simon M. Rook/Documents/School/1Tarleton/Classes/Adv Quant/Lab 2","no","mono","no","18","no","white","no","no","768","legacy","12","12","C:/Users/Simon M. Rook/Documents/School/1Tarleton/Classes/Adv Quant/Lab 2/flanker-data/sr-subject-3.csv","legacy","Lentiform Loewenfeld","3.3.10","0","h","NA","h","NA","NA","h","462","NA","23253","NA","NA","462","2","legacy","1024","2","48000","-16","experiment","SSHSS","3","odd","24411","NA","NA","44073","NA","1153","NA","NA","45130","1157","NA","NA","45231","45693","45128","45231","Flanker Task","13","7208","13","yes","1024"
"100","100","547.6428571428571","547.6428571428571","black","legacy","legacy","legacy","0","incongruent","uniform","1","undefined","1","s","0","0","0","13","13","0","13","0","13","0","0","0","13","13","13","13","Sat Sep 25 20:09:44 2021","1500","The main experiment item","yes","SR-FlankerTask.osexp","C:/Users/Simon M. Rook/Documents/School/1Tarleton/Classes/Adv Quant/Lab 2","no","mono","no","18","no","white","no","no","768","legacy","13","13","C:/Users/Simon M. Rook/Documents/School/1Tarleton/Classes/Adv Quant/Lab 2/flanker-data/sr-subject-3.csv","legacy","Lentiform Loewenfeld","3.3.10","0","s","NA","h","NA","NA","s","459","NA","23253","NA","NA","459","2","legacy","1024","2","48000","-16","experiment","HHSHH","3","odd","24411","NA","NA","45696","NA","1153","NA","NA","46749","1157","NA","NA","46850","47310","46748","46850","Flanker Task","14","7667","14","yes","1024"
"100","100","537.4","537.4","black","legacy","legacy","legacy","0","incongruent","uniform","1","undefined","1","h","0","0","0","14","14","0","14","0","14","0","0","0","14","14","14","14","Sat Sep 25 20:09:44 2021","1500","The main experiment item","yes","SR-FlankerTask.osexp","C:/Users/Simon M. Rook/Documents/School/1Tarleton/Classes/Adv Quant/Lab 2","no","mono","no","18","no","white","no","no","768","legacy","14","14","C:/Users/Simon M. Rook/Documents/School/1Tarleton/Classes/Adv Quant/Lab 2/flanker-data/sr-subject-3.csv","legacy","Lentiform Loewenfeld","3.3.10","0","h","NA","h","NA","NA","h","394","NA","23253","NA","NA","394","2","legacy","1024","2","48000","-16","experiment","SSHSS","3","odd","24411","NA","NA","47313","NA","1153","NA","NA","48366","1157","NA","NA","48467","48862","48365","48467","Flanker Task","15","8061","15","yes","1024"
"100","100","533.75","533.75","black","legacy","legacy","legacy","0","incongruent","uniform","1","undefined","1","h","0","0","0","15","15","0","15","0","15","0","0","0","15","15","15","15","Sat Sep 25 20:09:44 2021","1500","The main experiment item","yes","SR-FlankerTask.osexp","C:/Users/Simon M. Rook/Documents/School/1Tarleton/Classes/Adv Quant/Lab 2","no","mono","no","18","no","white","no","no","768","legacy","15","15","C:/Users/Simon M. Rook/Documents/School/1Tarleton/Classes/Adv Quant/Lab 2/flanker-data/sr-subject-3.csv","legacy","Lentiform Loewenfeld","3.3.10","0","h","NA","h","NA","NA","h","479","NA","23253","NA","NA","479","2","legacy","1024","2","48000","-16","experiment","SSHSS","3","odd","24411","NA","NA","48867","NA","1153","NA","NA","49921","1157","NA","NA","50022","50502","49919","50022","Flanker Task","16","8540","16","yes","1024"
"100","100","526.0588235294117","526.0588235294117","black","legacy","legacy","legacy","0","congruent","uniform","1","undefined","1","h","0","0","0","16","16","0","16","0","16","0","0","0","16","16","16","16","Sat Sep 25 20:09:44 2021","1500","The main experiment item","yes","SR-FlankerTask.osexp","C:/Users/Simon M. Rook/Documents/School/1Tarleton/Classes/Adv Quant/Lab 2","no","mono","no","18","no","white","no","no","768","legacy","16","16","C:/Users/Simon M. Rook/Documents/School/1Tarleton/Classes/Adv Quant/Lab 2/flanker-data/sr-subject-3.csv","legacy","Lentiform Loewenfeld","3.3.10","0","h","NA","h","NA","NA","h","403","NA","23253","NA","NA","403","2","legacy","1024","2","48000","-16","experiment","HHHHH","3","odd","24411","NA","NA","50505","NA","1153","NA","NA","51558","1157","NA","NA","51659","52062","51556","51659","Flanker Task","17","8943","17","yes","1024"
"100","100","531.1111111111111","531.1111111111111","black","legacy","legacy","legacy","0","incongruent","uniform","1","undefined","1","h","0","0","0","17","17","0","17","0","17","0","0","0","17","17","17","17","Sat Sep 25 20:09:44 2021","1500","The main experiment item","yes","SR-FlankerTask.osexp","C:/Users/Simon M. Rook/Documents/School/1Tarleton/Classes/Adv Quant/Lab 2","no","mono","no","18","no","white","no","no","768","legacy","17","17","C:/Users/Simon M. Rook/Documents/School/1Tarleton/Classes/Adv Quant/Lab 2/flanker-data/sr-subject-3.csv","legacy","Lentiform Loewenfeld","3.3.10","0","h","NA","h","NA","NA","h","617","NA","23253","NA","NA","617","2","legacy","1024","2","48000","-16","experiment","SSHSS","3","odd","24411","NA","NA","52065","NA","1153","NA","NA","53120","1157","NA","NA","53221","53838","53118","53221","Flanker Task","18","9560","18","yes","1024"
"100","100","536.5263157894736","536.5263157894736","black","legacy","legacy","legacy","0","congruent","uniform","1","undefined","1","s","0","0","0","18","18","0","18","0","18","0","0","0","18","18","18","18","Sat Sep 25 20:09:44 2021","1500","The main experiment item","yes","SR-FlankerTask.osexp","C:/Users/Simon M. Rook/Documents/School/1Tarleton/Classes/Adv Quant/Lab 2","no","mono","no","18","no","white","no","no","768","legacy","18","18","C:/Users/Simon M. Rook/Documents/School/1Tarleton/Classes/Adv Quant/Lab 2/flanker-data/sr-subject-3.csv","legacy","Lentiform Loewenfeld","3.3.10","0","s","NA","h","NA","NA","s","634","NA","23253","NA","NA","634","2","legacy","1024","2","48000","-16","experiment","SSSSS","3","odd","24411","NA","NA","53842","NA","1153","NA","NA","54895","1157","NA","NA","54996","55631","54893","54996","Flanker Task","19","10194","19","yes","1024"
"100","100","535","535","black","legacy","legacy","legacy","0","congruent","uniform","1","undefined","1","h","0","0","0","19","19","0","19","0","19","0","0","0","19","19","19","19","Sat Sep 25 20:09:44 2021","1500","The main experiment item","yes","SR-FlankerTask.osexp","C:/Users/Simon M. Rook/Documents/School/1Tarleton/Classes/Adv Quant/Lab 2","no","mono","no","18","no","white","no","no","768","legacy","19","19","C:/Users/Simon M. Rook/Documents/School/1Tarleton/Classes/Adv Quant/Lab 2/flanker-data/sr-subject-3.csv","legacy","Lentiform Loewenfeld","3.3.10","0","h","NA","h","NA","NA","h","506","NA","23253","NA","NA","506","2","legacy","1024","2","48000","-16","experiment","HHHHH","3","odd","24411","NA","NA","55634","NA","1153","NA","NA","56687","1157","NA","NA","56788","57295","56685","56788","Flanker Task","20","10700","20","yes","1024"
"100","100","532.5238095238095","532.5238095238095","black","legacy","legacy","legacy","0","congruent","uniform","1","undefined","1","h","0","0","0","20","20","0","20","0","20","0","0","0","20","20","20","20","Sat Sep 25 20:09:44 2021","1500","The main experiment item","yes","SR-FlankerTask.osexp","C:/Users/Simon M. Rook/Documents/School/1Tarleton/Classes/Adv Quant/Lab 2","no","mono","no","18","no","white","no","no","768","legacy","20","20","C:/Users/Simon M. Rook/Documents/School/1Tarleton/Classes/Adv Quant/Lab 2/flanker-data/sr-subject-3.csv","legacy","Lentiform Loewenfeld","3.3.10","0","h","NA","h","NA","NA","h","483","NA","23253","NA","NA","483","2","legacy","1024","2","48000","-16","experiment","HHHHH","3","odd","24411","NA","NA","57298","NA","1153","NA","NA","58351","1157","NA","NA","58452","58936","58350","58452","Flanker Task","21","11183","21","yes","1024"
"100","100","526.8181818181819","526.8181818181819","black","legacy","legacy","legacy","0","congruent","uniform","1","undefined","1","h","0","0","0","21","21","0","21","0","21","0","0","0","21","21","21","21","Sat Sep 25 20:09:44 2021","1500","The main experiment item","yes","SR-FlankerTask.osexp","C:/Users/Simon M. Rook/Documents/School/1Tarleton/Classes/Adv Quant/Lab 2","no","mono","no","18","no","white","no","no","768","legacy","21","21","C:/Users/Simon M. Rook/Documents/School/1Tarleton/Classes/Adv Quant/Lab 2/flanker-data/sr-subject-3.csv","legacy","Lentiform Loewenfeld","3.3.10","0","h","NA","h","NA","NA","h","407","NA","23253","NA","NA","407","2","legacy","1024","2","48000","-16","experiment","HHHHH","3","odd","24411","NA","NA","58939","NA","1153","NA","NA","60003","1157","NA","NA","60104","60511","60002","60104","Flanker Task","22","11590","22","yes","1024"
"100","100","524.9130434782609","524.9130434782609","black","legacy","legacy","legacy","0","incongruent","uniform","1","undefined","1","s","0","0","0","22","22","0","22","0","22","0","0","0","22","22","22","22","Sat Sep 25 20:09:44 2021","1500","The main experiment item","yes","SR-FlankerTask.osexp","C:/Users/Simon M. Rook/Documents/School/1Tarleton/Classes/Adv Quant/Lab 2","no","mono","no","18","no","white","no","no","768","legacy","22","22","C:/Users/Simon M. Rook/Documents/School/1Tarleton/Classes/Adv Quant/Lab 2/flanker-data/sr-subject-3.csv","legacy","Lentiform Loewenfeld","3.3.10","0","s","NA","h","NA","NA","s","483","NA","23253","NA","NA","483","2","legacy","1024","2","48000","-16","experiment","HHSHH","3","odd","24411","NA","NA","60514","NA","1153","NA","NA","61567","1157","NA","NA","61668","62152","61565","61668","Flanker Task","23","12073","23","yes","1024"
"95.83333333333333","95.83333333333333","519.625","519.625","black","legacy","legacy","legacy","0","incongruent","uniform","0","undefined","0","h","0","0","0","23","23","0","23","0","23","0","0","0","23","23","23","23","Sat Sep 25 20:09:44 2021","1500","The main experiment item","yes","SR-FlankerTask.osexp","C:/Users/Simon M. Rook/Documents/School/1Tarleton/Classes/Adv Quant/Lab 2","no","mono","no","18","no","white","no","no","768","legacy","23","23","C:/Users/Simon M. Rook/Documents/School/1Tarleton/Classes/Adv Quant/Lab 2/flanker-data/sr-subject-3.csv","legacy","Lentiform Loewenfeld","3.3.10","0","s","NA","h","NA","NA","s","398","NA","23253","NA","NA","398","2","legacy","1024","2","48000","-16","experiment","SSHSS","3","odd","24411","NA","NA","62155","NA","1153","NA","NA","63211","1157","NA","NA","63313","63712","63210","63313","Flanker Task","23","12471","24","yes","1024"
"96","96","517","517","black","legacy","legacy","legacy","0","congruent","uniform","1","undefined","1","h","0","0","0","24","24","0","24","0","24","0","0","0","24","24","24","24","Sat Sep 25 20:09:44 2021","1500","The main experiment item","yes","SR-FlankerTask.osexp","C:/Users/Simon M. Rook/Documents/School/1Tarleton/Classes/Adv Quant/Lab 2","no","mono","no","18","no","white","no","no","768","legacy","24","24","C:/Users/Simon M. Rook/Documents/School/1Tarleton/Classes/Adv Quant/Lab 2/flanker-data/sr-subject-3.csv","legacy","Lentiform Loewenfeld","3.3.10","0","h","NA","h","NA","NA","h","454","NA","23253","NA","NA","454","2","legacy","1024","2","48000","-16","experiment","HHHHH","3","odd","24411","NA","NA","64216","63715","1153","NA","NA","65268","1157","NA","NA","65369","65824","65267","65369","Flanker Task","24","12925","25","yes","1024"
"96.15384615384616","96.15384615384616","514.1538461538462","514.1538461538462","black","legacy","legacy","legacy","0","congruent","uniform","1","undefined","1","h","0","0","0","25","25","0","25","0","25","0","0","0","25","25","25","25","Sat Sep 25 20:09:44 2021","1500","The main experiment item","yes","SR-FlankerTask.osexp","C:/Users/Simon M. Rook/Documents/School/1Tarleton/Classes/Adv Quant/Lab 2","no","mono","no","18","no","white","no","no","768","legacy","25","25","C:/Users/Simon M. Rook/Documents/School/1Tarleton/Classes/Adv Quant/Lab 2/flanker-data/sr-subject-3.csv","legacy","Lentiform Loewenfeld","3.3.10","0","h","NA","h","NA","NA","h","443","NA","23253","NA","NA","443","2","legacy","1024","2","48000","-16","experiment","HHHHH","3","odd","24411","NA","NA","65827","63715","1153","NA","NA","66880","1157","NA","NA","66981","67424","66879","66981","Flanker Task","25","13368","26","yes","1024"
"96.29629629629629","96.29629629629629","512.7777777777778","512.7777777777778","black","legacy","legacy","legacy","0","congruent","uniform","1","undefined","1","s","0","0","0","26","26","0","26","0","26","0","0","0","26","26","26","26","Sat Sep 25 20:09:44 2021","1500","The main experiment item","yes","SR-FlankerTask.osexp","C:/Users/Simon M. Rook/Documents/School/1Tarleton/Classes/Adv Quant/Lab 2","no","mono","no","18","no","white","no","no","768","legacy","26","26","C:/Users/Simon M. Rook/Documents/School/1Tarleton/Classes/Adv Quant/Lab 2/flanker-data/sr-subject-3.csv","legacy","Lentiform Loewenfeld","3.3.10","0","s","NA","h","NA","NA","s","477","NA","23253","NA","NA","477","2","legacy","1024","2","48000","-16","experiment","SSSSS","3","odd","24411","NA","NA","67430","63715","1153","NA","NA","68485","1157","NA","NA","68586","69064","68483","68586","Flanker Task","26","13845","27","yes","1024"
"96.42857142857143","96.42857142857143","511.39285714285717","511.39285714285717","black","legacy","legacy","legacy","0","congruent","uniform","1","undefined","1","s","0","0","0","27","27","0","27","0","27","0","0","0","27","27","27","27","Sat Sep 25 20:09:44 2021","1500","The main experiment item","yes","SR-FlankerTask.osexp","C:/Users/Simon M. Rook/Documents/School/1Tarleton/Classes/Adv Quant/Lab 2","no","mono","no","18","no","white","no","no","768","legacy","27","27","C:/Users/Simon M. Rook/Documents/School/1Tarleton/Classes/Adv Quant/Lab 2/flanker-data/sr-subject-3.csv","legacy","Lentiform Loewenfeld","3.3.10","0","s","NA","h","NA","NA","s","474","NA","23253","NA","NA","474","2","legacy","1024","2","48000","-16","experiment","SSSSS","3","odd","24411","NA","NA","69070","63715","1153","NA","NA","70137","1157","NA","NA","70238","70712","70136","70238","Flanker Task","27","14319","28","yes","1024"
"96.55172413793103","96.55172413793103","510.6551724137931","510.6551724137931","black","legacy","legacy","legacy","0","incongruent","uniform","1","undefined","1","h","0","0","0","28","28","0","28","0","28","0","0","0","28","28","28","28","Sat Sep 25 20:09:44 2021","1500","The main experiment item","yes","SR-FlankerTask.osexp","C:/Users/Simon M. Rook/Documents/School/1Tarleton/Classes/Adv Quant/Lab 2","no","mono","no","18","no","white","no","no","768","legacy","28","28","C:/Users/Simon M. Rook/Documents/School/1Tarleton/Classes/Adv Quant/Lab 2/flanker-data/sr-subject-3.csv","legacy","Lentiform Loewenfeld","3.3.10","0","h","NA","h","NA","NA","h","490","NA","23253","NA","NA","490","2","legacy","1024","2","48000","-16","experiment","SSHSS","3","odd","24411","NA","NA","70716","63715","1153","NA","NA","71769","1157","NA","NA","71870","72360","71767","71870","Flanker Task","28","14809","29","yes","1024"
"96.66666666666667","96.66666666666667","510.53333333333336","510.53333333333336","black","legacy","legacy","legacy","0","congruent","uniform","1","undefined","1","s","0","0","0","29","29","0","29","0","29","0","0","0","29","29","29","29","Sat Sep 25 20:09:44 2021","1500","The main experiment item","yes","SR-FlankerTask.osexp","C:/Users/Simon M. Rook/Documents/School/1Tarleton/Classes/Adv Quant/Lab 2","no","mono","no","18","no","white","no","no","768","legacy","29","29","C:/Users/Simon M. Rook/Documents/School/1Tarleton/Classes/Adv Quant/Lab 2/flanker-data/sr-subject-3.csv","legacy","Lentiform Loewenfeld","3.3.10","0","s","NA","h","NA","NA","s","507","NA","23253","NA","NA","507","2","legacy","1024","2","48000","-16","experiment","SSSSS","3","odd","24411","NA","NA","72364","63715","1153","NA","NA","73417","1157","NA","NA","73518","74025","73416","73518","Flanker Task","29","15316","30","yes","1024"
"96.7741935483871","96.7741935483871","512.4193548387096","512.4193548387096","black","legacy","legacy","legacy","0","incongruent","uniform","1","undefined","1","s","0","0","0","30","30","0","30","0","30","0","0","0","30","30","30","30","Sat Sep 25 20:09:44 2021","1500","The main experiment item","yes","SR-FlankerTask.osexp","C:/Users/Simon M. Rook/Documents/School/1Tarleton/Classes/Adv Quant/Lab 2","no","mono","no","18","no","white","no","no","768","legacy","30","30","C:/Users/Simon M. Rook/Documents/School/1Tarleton/Classes/Adv Quant/Lab 2/flanker-data/sr-subject-3.csv","legacy","Lentiform Loewenfeld","3.3.10","0","s","NA","h","NA","NA","s","569","NA","23253","NA","NA","569","2","legacy","1024","2","48000","-16","experiment","HHSHH","3","odd","24411","NA","NA","74028","63715","1153","NA","NA","75082","1157","NA","NA","75183","75753","75081","75183","Flanker Task","30","15885","31","yes","1024"
"96.875","96.875","510.21875","510.21875","black","legacy","legacy","legacy","0","congruent","uniform","1","undefined","1","h","0","0","0","31","31","0","31","0","31","0","0","0","31","31","31","31","Sat Sep 25 20:09:44 2021","1500","The main experiment item","yes","SR-FlankerTask.osexp","C:/Users/Simon M. Rook/Documents/School/1Tarleton/Classes/Adv Quant/Lab 2","no","mono","no","18","no","white","no","no","768","legacy","31","31","C:/Users/Simon M. Rook/Documents/School/1Tarleton/Classes/Adv Quant/Lab 2/flanker-data/sr-subject-3.csv","legacy","Lentiform Loewenfeld","3.3.10","0","h","NA","h","NA","NA","h","442","NA","23253","NA","NA","442","2","legacy","1024","2","48000","-16","experiment","HHHHH","3","odd","24411","NA","NA","75756","63715","1153","NA","NA","76809","1157","NA","NA","76910","77353","76807","76910","Flanker Task","31","16327","32","yes","1024"
"96.96969696969697","96.96969696969697","509.7878787878788","509.7878787878788","black","legacy","legacy","legacy","0","congruent","uniform","1","undefined","1","s","0","0","0","32","32","0","32","0","32","0","0","0","32","32","32","32","Sat Sep 25 20:09:44 2021","1500","The main experiment item","yes","SR-FlankerTask.osexp","C:/Users/Simon M. Rook/Documents/School/1Tarleton/Classes/Adv Quant/Lab 2","no","mono","no","18","no","white","no","no","768","legacy","32","32","C:/Users/Simon M. Rook/Documents/School/1Tarleton/Classes/Adv Quant/Lab 2/flanker-data/sr-subject-3.csv","legacy","Lentiform Loewenfeld","3.3.10","0","s","NA","h","NA","NA","s","496","NA","23253","NA","NA","496","2","legacy","1024","2","48000","-16","experiment","SSSSS","3","odd","24411","NA","NA","77356","63715","1153","NA","NA","78412","1157","NA","NA","78513","79010","78410","78513","Flanker Task","32","16823","33","yes","1024"
"97.05882352941177","97.05882352941177","511.0882352941176","511.0882352941176","black","legacy","legacy","legacy","0","incongruent","uniform","1","undefined","1","s","0","0","0","33","33","0","33","0","33","0","0","0","33","33","33","33","Sat Sep 25 20:09:44 2021","1500","The main experiment item","yes","SR-FlankerTask.osexp","C:/Users/Simon M. Rook/Documents/School/1Tarleton/Classes/Adv Quant/Lab 2","no","mono","no","18","no","white","no","no","768","legacy","33","33","C:/Users/Simon M. Rook/Documents/School/1Tarleton/Classes/Adv Quant/Lab 2/flanker-data/sr-subject-3.csv","legacy","Lentiform Loewenfeld","3.3.10","0","s","NA","h","NA","NA","s","554","NA","23253","NA","NA","554","2","legacy","1024","2","48000","-16","experiment","HHSHH","3","odd","24411","NA","NA","79013","63715","1153","NA","NA","80066","1157","NA","NA","80167","80721","80064","80167","Flanker Task","33","17377","34","yes","1024"
"94.28571428571429","94.28571428571429","509.0571428571429","509.0571428571429","black","legacy","legacy","legacy","0","incongruent","uniform","0","undefined","0","s","0","0","0","34","34","0","34","0","34","0","0","0","34","34","34","34","Sat Sep 25 20:09:44 2021","1500","The main experiment item","yes","SR-FlankerTask.osexp","C:/Users/Simon M. Rook/Documents/School/1Tarleton/Classes/Adv Quant/Lab 2","no","mono","no","18","no","white","no","no","768","legacy","34","34","C:/Users/Simon M. Rook/Documents/School/1Tarleton/Classes/Adv Quant/Lab 2/flanker-data/sr-subject-3.csv","legacy","Lentiform Loewenfeld","3.3.10","0","h","NA","h","NA","NA","h","440","NA","23253","NA","NA","440","2","legacy","1024","2","48000","-16","experiment","HHSHH","3","odd","24411","NA","NA","80725","63715","1153","NA","NA","81780","1157","NA","NA","81881","82321","81778","81881","Flanker Task","33","17817","35","yes","1024"
"94.44444444444444","94.44444444444444","507.0833333333333","507.0833333333333","black","legacy","legacy","legacy","0","incongruent","uniform","1","undefined","1","s","0","0","0","35","35","0","35","0","35","0","0","0","35","35","35","35","Sat Sep 25 20:09:44 2021","1500","The main experiment item","yes","SR-FlankerTask.osexp","C:/Users/Simon M. Rook/Documents/School/1Tarleton/Classes/Adv Quant/Lab 2","no","mono","no","18","no","white","no","no","768","legacy","35","35","C:/Users/Simon M. Rook/Documents/School/1Tarleton/Classes/Adv Quant/Lab 2/flanker-data/sr-subject-3.csv","legacy","Lentiform Loewenfeld","3.3.10","0","s","NA","h","NA","NA","s","438","NA","23253","NA","NA","438","2","legacy","1024","2","48000","-16","experiment","HHSHH","3","odd","24411","NA","NA","82825","82324","1153","NA","NA","83878","1157","NA","NA","83979","84418","83877","83979","Flanker Task","34","18255","36","yes","1024"
"94.5945945945946","94.5945945945946","507.13513513513516","507.13513513513516","black","legacy","legacy","legacy","0","incongruent","uniform","1","undefined","1","h","0","0","0","36","36","0","36","0","36","0","0","0","36","36","36","36","Sat Sep 25 20:09:44 2021","1500","The main experiment item","yes","SR-FlankerTask.osexp","C:/Users/Simon M. Rook/Documents/School/1Tarleton/Classes/Adv Quant/Lab 2","no","mono","no","18","no","white","no","no","768","legacy","36","36","C:/Users/Simon M. Rook/Documents/School/1Tarleton/Classes/Adv Quant/Lab 2/flanker-data/sr-subject-3.csv","legacy","Lentiform Loewenfeld","3.3.10","0","h","NA","h","NA","NA","h","509","NA","23253","NA","NA","509","2","legacy","1024","2","48000","-16","experiment","SSHSS","3","odd","24411","NA","NA","84422","82324","1153","NA","NA","85487","1157","NA","NA","85588","86098","85485","85588","Flanker Task","35","18764","37","yes","1024"
"94.73684210526316","94.73684210526316","507.3421052631579","507.3421052631579","black","legacy","legacy","legacy","0","congruent","uniform","1","undefined","1","s","0","0","0","37","37","0","37","0","37","0","0","0","37","37","37","37","Sat Sep 25 20:09:44 2021","1500","The main experiment item","yes","SR-FlankerTask.osexp","C:/Users/Simon M. Rook/Documents/School/1Tarleton/Classes/Adv Quant/Lab 2","no","mono","no","18","no","white","no","no","768","legacy","37","37","C:/Users/Simon M. Rook/Documents/School/1Tarleton/Classes/Adv Quant/Lab 2/flanker-data/sr-subject-3.csv","legacy","Lentiform Loewenfeld","3.3.10","0","s","NA","h","NA","NA","s","515","NA","23253","NA","NA","515","2","legacy","1024","2","48000","-16","experiment","SSSSS","3","odd","24411","NA","NA","86101","82324","1153","NA","NA","87154","1157","NA","NA","87255","87771","87153","87255","Flanker Task","36","19279","38","yes","1024"
"94.87179487179488","94.87179487179488","505.8205128205128","505.8205128205128","black","legacy","legacy","legacy","0","congruent","uniform","1","undefined","1","s","0","0","0","38","38","0","38","0","38","0","0","0","38","38","38","38","Sat Sep 25 20:09:44 2021","1500","The main experiment item","yes","SR-FlankerTask.osexp","C:/Users/Simon M. Rook/Documents/School/1Tarleton/Classes/Adv Quant/Lab 2","no","mono","no","18","no","white","no","no","768","legacy","38","38","C:/Users/Simon M. Rook/Documents/School/1Tarleton/Classes/Adv Quant/Lab 2/flanker-data/sr-subject-3.csv","legacy","Lentiform Loewenfeld","3.3.10","0","s","NA","h","NA","NA","s","448","NA","23253","NA","NA","448","2","legacy","1024","2","48000","-16","experiment","SSSSS","3","odd","24411","NA","NA","87774","82324","1153","NA","NA","88837","1157","NA","NA","88938","89387","88835","88938","Flanker Task","37","19727","39","yes","1024"
"95","95","506.8","506.8","black","legacy","legacy","legacy","0","congruent","uniform","1","undefined","1","s","0","0","0","39","39","0","39","0","39","0","0","0","39","39","39","39","Sat Sep 25 20:09:44 2021","1500","The main experiment item","yes","SR-FlankerTask.osexp","C:/Users/Simon M. Rook/Documents/School/1Tarleton/Classes/Adv Quant/Lab 2","no","mono","no","18","no","white","no","no","768","legacy","39","39","C:/Users/Simon M. Rook/Documents/School/1Tarleton/Classes/Adv Quant/Lab 2/flanker-data/sr-subject-3.csv","legacy","Lentiform Loewenfeld","3.3.10","0","s","NA","h","NA","NA","s","545","NA","23253","NA","NA","545","2","legacy","1024","2","48000","-16","experiment","SSSSS","3","odd","24411","NA","NA","89390","82324","1153","NA","NA","90444","1157","NA","NA","90545","91091","90442","90545","Flanker Task","38","20272","40","yes","1024"
"95.1219512195122","95.1219512195122","507.1707317073171","507.1707317073171","black","legacy","legacy","legacy","0","incongruent","uniform","1","undefined","1","h","0","0","0","40","40","0","40","0","40","0","0","0","40","40","40","40","Sat Sep 25 20:09:44 2021","1500","The main experiment item","yes","SR-FlankerTask.osexp","C:/Users/Simon M. Rook/Documents/School/1Tarleton/Classes/Adv Quant/Lab 2","no","mono","no","18","no","white","no","no","768","legacy","40","40","C:/Users/Simon M. Rook/Documents/School/1Tarleton/Classes/Adv Quant/Lab 2/flanker-data/sr-subject-3.csv","legacy","Lentiform Loewenfeld","3.3.10","0","h","NA","h","NA","NA","h","522","NA","23253","NA","NA","522","2","legacy","1024","2","48000","-16","experiment","SSHSS","3","odd","24411","NA","NA","91094","82324","1153","NA","NA","92147","1157","NA","NA","92248","92771","92145","92248","Flanker Task","39","20794","41","yes","1024"
"95.23809523809524","95.23809523809524","506.3809523809524","506.3809523809524","black","legacy","legacy","legacy","0","congruent","uniform","1","undefined","1","h","0","0","0","41","41","0","41","0","41","0","0","0","41","41","41","41","Sat Sep 25 20:09:44 2021","1500","The main experiment item","yes","SR-FlankerTask.osexp","C:/Users/Simon M. Rook/Documents/School/1Tarleton/Classes/Adv Quant/Lab 2","no","mono","no","18","no","white","no","no","768","legacy","41","41","C:/Users/Simon M. Rook/Documents/School/1Tarleton/Classes/Adv Quant/Lab 2/flanker-data/sr-subject-3.csv","legacy","Lentiform Loewenfeld","3.3.10","0","h","NA","h","NA","NA","h","474","NA","23253","NA","NA","474","2","legacy","1024","2","48000","-16","experiment","HHHHH","3","odd","24411","NA","NA","92774","82324","1153","NA","NA","93827","1157","NA","NA","93928","94403","93825","93928","Flanker Task","40","21268","42","yes","1024"
"95.34883720930233","95.34883720930233","506.6511627906977","506.6511627906977","black","legacy","legacy","legacy","0","congruent","uniform","1","undefined","1","s","0","0","0","42","42","0","42","0","42","0","0","0","42","42","42","42","Sat Sep 25 20:09:44 2021","1500","The main experiment item","yes","SR-FlankerTask.osexp","C:/Users/Simon M. Rook/Documents/School/1Tarleton/Classes/Adv Quant/Lab 2","no","mono","no","18","no","white","no","no","768","legacy","42","42","C:/Users/Simon M. Rook/Documents/School/1Tarleton/Classes/Adv Quant/Lab 2/flanker-data/sr-subject-3.csv","legacy","Lentiform Loewenfeld","3.3.10","0","s","NA","h","NA","NA","s","518","NA","23253","NA","NA","518","2","legacy","1024","2","48000","-16","experiment","SSSSS","3","odd","24411","NA","NA","94408","82324","1153","NA","NA","95472","1157","NA","NA","95573","96092","95470","95573","Flanker Task","41","21786","43","yes","1024"
"95.45454545454545","95.45454545454545","509.8863636363636","509.8863636363636","black","legacy","legacy","legacy","0","congruent","uniform","1","undefined","1","h","0","0","0","43","43","0","43","0","43","0","0","0","43","43","43","43","Sat Sep 25 20:09:44 2021","1500","The main experiment item","yes","SR-FlankerTask.osexp","C:/Users/Simon M. Rook/Documents/School/1Tarleton/Classes/Adv Quant/Lab 2","no","mono","no","18","no","white","no","no","768","legacy","43","43","C:/Users/Simon M. Rook/Documents/School/1Tarleton/Classes/Adv Quant/Lab 2/flanker-data/sr-subject-3.csv","legacy","Lentiform Loewenfeld","3.3.10","0","h","NA","h","NA","NA","h","649","NA","23253","NA","NA","649","2","legacy","1024","2","48000","-16","experiment","HHHHH","3","odd","24411","NA","NA","96096","82324","1153","NA","NA","97149","1157","NA","NA","97250","97899","97148","97250","Flanker Task","42","22435","44","yes","1024"
"95.55555555555556","95.55555555555556","509.44444444444446","509.44444444444446","black","legacy","legacy","legacy","0","congruent","uniform","1","undefined","1","h","0","0","0","44","44","0","44","0","44","0","0","0","44","44","44","44","Sat Sep 25 20:09:44 2021","1500","The main experiment item","yes","SR-FlankerTask.osexp","C:/Users/Simon M. Rook/Documents/School/1Tarleton/Classes/Adv Quant/Lab 2","no","mono","no","18","no","white","no","no","768","legacy","44","44","C:/Users/Simon M. Rook/Documents/School/1Tarleton/Classes/Adv Quant/Lab 2/flanker-data/sr-subject-3.csv","legacy","Lentiform Loewenfeld","3.3.10","0","h","NA","h","NA","NA","h","490","NA","23253","NA","NA","490","2","legacy","1024","2","48000","-16","experiment","HHHHH","3","odd","24411","NA","NA","97902","82324","1153","NA","NA","98957","1157","NA","NA","99058","99548","98955","99058","Flanker Task","43","22925","45","yes","1024"
"95.65217391304348","95.65217391304348","510.9347826086956","510.9347826086956","black","legacy","legacy","legacy","0","incongruent","uniform","1","undefined","1","s","0","0","0","45","45","0","45","0","45","0","0","0","45","45","45","45","Sat Sep 25 20:09:44 2021","1500","The main experiment item","yes","SR-FlankerTask.osexp","C:/Users/Simon M. Rook/Documents/School/1Tarleton/Classes/Adv Quant/Lab 2","no","mono","no","18","no","white","no","no","768","legacy","45","45","C:/Users/Simon M. Rook/Documents/School/1Tarleton/Classes/Adv Quant/Lab 2/flanker-data/sr-subject-3.csv","legacy","Lentiform Loewenfeld","3.3.10","0","s","NA","h","NA","NA","s","578","NA","23253","NA","NA","578","2","legacy","1024","2","48000","-16","experiment","HHSHH","3","odd","24411","NA","NA","99551","82324","1153","NA","NA","100612","1157","NA","NA","100713","101292","100610","100713","Flanker Task","44","23503","46","yes","1024"
"95.74468085106383","95.74468085106383","510.8085106382979","510.8085106382979","black","legacy","legacy","legacy","0","congruent","uniform","1","undefined","1","h","0","0","0","46","46","0","46","0","46","0","0","0","46","46","46","46","Sat Sep 25 20:09:44 2021","1500","The main experiment item","yes","SR-FlankerTask.osexp","C:/Users/Simon M. Rook/Documents/School/1Tarleton/Classes/Adv Quant/Lab 2","no","mono","no","18","no","white","no","no","768","legacy","46","46","C:/Users/Simon M. Rook/Documents/School/1Tarleton/Classes/Adv Quant/Lab 2/flanker-data/sr-subject-3.csv","legacy","Lentiform Loewenfeld","3.3.10","0","h","NA","h","NA","NA","h","505","NA","23253","NA","NA","505","2","legacy","1024","2","48000","-16","experiment","HHHHH","3","odd","24411","NA","NA","101296","82324","1153","NA","NA","102348","1157","NA","NA","102450","102956","102347","102450","Flanker Task","45","24008","47","yes","1024"
"95.83333333333333","95.83333333333333","511.7291666666667","511.7291666666667","black","legacy","legacy","legacy","0","incongruent","uniform","1","undefined","1","h","0","0","0","47","47","0","47","0","47","0","0","0","47","47","47","47","Sat Sep 25 20:09:44 2021","1500","The main experiment item","yes","SR-FlankerTask.osexp","C:/Users/Simon M. Rook/Documents/School/1Tarleton/Classes/Adv Quant/Lab 2","no","mono","no","18","no","white","no","no","768","legacy","47","47","C:/Users/Simon M. Rook/Documents/School/1Tarleton/Classes/Adv Quant/Lab 2/flanker-data/sr-subject-3.csv","legacy","Lentiform Loewenfeld","3.3.10","0","h","NA","h","NA","NA","h","555","NA","23253","NA","NA","555","2","legacy","1024","2","48000","-16","experiment","SSHSS","3","odd","24411","NA","NA","102959","82324","1153","NA","NA","104012","1157","NA","NA","104113","104669","104010","104113","Flanker Task","46","24563","48","yes","1024"
"95.91836734693878","95.91836734693878","513.1836734693877","513.1836734693877","black","legacy","legacy","legacy","0","incongruent","uniform","1","undefined","1","s","0","0","0","48","48","0","48","0","48","0","0","0","48","48","48","48","Sat Sep 25 20:09:44 2021","1500","The main experiment item","yes","SR-FlankerTask.osexp","C:/Users/Simon M. Rook/Documents/School/1Tarleton/Classes/Adv Quant/Lab 2","no","mono","no","18","no","white","no","no","768","legacy","48","48","C:/Users/Simon M. Rook/Documents/School/1Tarleton/Classes/Adv Quant/Lab 2/flanker-data/sr-subject-3.csv","legacy","Lentiform Loewenfeld","3.3.10","0","s","NA","h","NA","NA","s","583","NA","23253","NA","NA","583","2","legacy","1024","2","48000","-16","experiment","HHSHH","3","odd","24411","NA","NA","104672","82324","1153","NA","NA","105728","1157","NA","NA","105829","106412","105727","105829","Flanker Task","47","25146","49","yes","1024"
"96","96","514.9","514.9","black","legacy","legacy","legacy","0","congruent","uniform","1","undefined","1","h","0","0","0","49","49","0","49","0","49","0","0","0","49","49","49","49","Sat Sep 25 20:09:44 2021","1500","The main experiment item","yes","SR-FlankerTask.osexp","C:/Users/Simon M. Rook/Documents/School/1Tarleton/Classes/Adv Quant/Lab 2","no","mono","no","18","no","white","no","no","768","legacy","49","49","C:/Users/Simon M. Rook/Documents/School/1Tarleton/Classes/Adv Quant/Lab 2/flanker-data/sr-subject-3.csv","legacy","Lentiform Loewenfeld","3.3.10","0","h","NA","h","NA","NA","h","599","NA","23253","NA","NA","599","2","legacy","1024","2","48000","-16","experiment","HHHHH","3","odd","24411","NA","NA","106416","82324","1153","NA","NA","107472","1157","NA","NA","107573","108172","107471","107573","Flanker Task","48","25745","50","yes","1024"
"96.07843137254902","96.07843137254902","516.2745098039215","516.2745098039215","black","legacy","legacy","legacy","0","congruent","uniform","1","undefined","1","s","0","0","0","50","50","0","50","0","50","0","0","0","50","50","50","50","Sat Sep 25 20:09:44 2021","1500","The main experiment item","yes","SR-FlankerTask.osexp","C:/Users/Simon M. Rook/Documents/School/1Tarleton/Classes/Adv Quant/Lab 2","no","mono","no","18","no","white","no","no","768","legacy","50","50","C:/Users/Simon M. Rook/Documents/School/1Tarleton/Classes/Adv Quant/Lab 2/flanker-data/sr-subject-3.csv","legacy","Lentiform Loewenfeld","3.3.10","0","s","NA","h","NA","NA","s","585","NA","23253","NA","NA","585","2","legacy","1024","2","48000","-16","experiment","SSSSS","3","odd","24411","NA","NA","108175","82324","1153","NA","NA","109230","1157","NA","NA","109331","109918","109229","109331","Flanker Task","49","26330","51","yes","1024"
"96.15384615384616","96.15384615384616","516.75","516.75","black","legacy","legacy","legacy","0","incongruent","uniform","1","undefined","1","s","0","0","0","51","51","0","51","0","51","0","0","0","51","51","51","51","Sat Sep 25 20:09:44 2021","1500","The main experiment item","yes","SR-FlankerTask.osexp","C:/Users/Simon M. Rook/Documents/School/1Tarleton/Classes/Adv Quant/Lab 2","no","mono","no","18","no","white","no","no","768","legacy","51","51","C:/Users/Simon M. Rook/Documents/School/1Tarleton/Classes/Adv Quant/Lab 2/flanker-data/sr-subject-3.csv","legacy","Lentiform Loewenfeld","3.3.10","0","s","NA","h","NA","NA","s","541","NA","23253","NA","NA","541","2","legacy","1024","2","48000","-16","experiment","HHSHH","3","odd","24411","NA","NA","109922","82324","1153","NA","NA","110986","1157","NA","NA","111087","111629","110984","111087","Flanker Task","50","26871","52","yes","1024"
"96.22641509433963","96.22641509433963","518.1320754716982","518.1320754716982","black","legacy","legacy","legacy","0","incongruent","uniform","1","undefined","1","h","0","0","0","52","52","0","52","0","52","0","0","0","52","52","52","52","Sat Sep 25 20:09:44 2021","1500","The main experiment item","yes","SR-FlankerTask.osexp","C:/Users/Simon M. Rook/Documents/School/1Tarleton/Classes/Adv Quant/Lab 2","no","mono","no","18","no","white","no","no","768","legacy","52","52","C:/Users/Simon M. Rook/Documents/School/1Tarleton/Classes/Adv Quant/Lab 2/flanker-data/sr-subject-3.csv","legacy","Lentiform Loewenfeld","3.3.10","0","h","NA","h","NA","NA","h","590","NA","23253","NA","NA","590","2","legacy","1024","2","48000","-16","experiment","SSHSS","3","odd","24411","NA","NA","111632","82324","1153","NA","NA","112698","1157","NA","NA","112799","113390","112696","112799","Flanker Task","51","27461","53","yes","1024"
"96.29629629629629","96.29629629629629","518.1296296296297","518.1296296296297","black","legacy","legacy","legacy","0","congruent","uniform","1","undefined","1","h","0","0","0","53","53","0","53","0","53","0","0","0","53","53","53","53","Sat Sep 25 20:09:44 2021","1500","The main experiment item","yes","SR-FlankerTask.osexp","C:/Users/Simon M. Rook/Documents/School/1Tarleton/Classes/Adv Quant/Lab 2","no","mono","no","18","no","white","no","no","768","legacy","53","53","C:/Users/Simon M. Rook/Documents/School/1Tarleton/Classes/Adv Quant/Lab 2/flanker-data/sr-subject-3.csv","legacy","Lentiform Loewenfeld","3.3.10","0","h","NA","h","NA","NA","h","518","NA","23253","NA","NA","518","2","legacy","1024","2","48000","-16","experiment","HHHHH","3","odd","24411","NA","NA","113394","82324","1153","NA","NA","114450","1157","NA","NA","114551","115070","114448","114551","Flanker Task","52","27979","54","yes","1024"
"96.36363636363636","96.36363636363636","518.9090909090909","518.9090909090909","black","legacy","legacy","legacy","0","incongruent","uniform","1","undefined","1","s","0","0","0","54","54","0","54","0","54","0","0","0","54","54","54","54","Sat Sep 25 20:09:44 2021","1500","The main experiment item","yes","SR-FlankerTask.osexp","C:/Users/Simon M. Rook/Documents/School/1Tarleton/Classes/Adv Quant/Lab 2","no","mono","no","18","no","white","no","no","768","legacy","54","54","C:/Users/Simon M. Rook/Documents/School/1Tarleton/Classes/Adv Quant/Lab 2/flanker-data/sr-subject-3.csv","legacy","Lentiform Loewenfeld","3.3.10","0","s","NA","h","NA","NA","s","561","NA","23253","NA","NA","561","2","legacy","1024","2","48000","-16","experiment","HHSHH","3","odd","24411","NA","NA","115073","82324","1153","NA","NA","116127","1157","NA","NA","116228","116789","116125","116228","Flanker Task","53","28540","55","yes","1024"
"96.42857142857143","96.42857142857143","521.2321428571429","521.2321428571429","black","legacy","legacy","legacy","0","congruent","uniform","1","undefined","1","h","0","0","0","55","55","0","55","0","55","0","0","0","55","55","55","55","Sat Sep 25 20:09:44 2021","1500","The main experiment item","yes","SR-FlankerTask.osexp","C:/Users/Simon M. Rook/Documents/School/1Tarleton/Classes/Adv Quant/Lab 2","no","mono","no","18","no","white","no","no","768","legacy","55","55","C:/Users/Simon M. Rook/Documents/School/1Tarleton/Classes/Adv Quant/Lab 2/flanker-data/sr-subject-3.csv","legacy","Lentiform Loewenfeld","3.3.10","0","h","NA","h","NA","NA","h","649","NA","23253","NA","NA","649","2","legacy","1024","2","48000","-16","experiment","HHHHH","3","odd","24411","NA","NA","116793","82324","1153","NA","NA","117846","1157","NA","NA","117948","118598","117845","117948","Flanker Task","54","29189","56","yes","1024"
"96.49122807017544","96.49122807017544","521.1578947368421","521.1578947368421","black","legacy","legacy","legacy","0","congruent","uniform","1","undefined","1","h","0","0","0","56","56","0","56","0","56","0","0","0","56","56","56","56","Sat Sep 25 20:09:44 2021","1500","The main experiment item","yes","SR-FlankerTask.osexp","C:/Users/Simon M. Rook/Documents/School/1Tarleton/Classes/Adv Quant/Lab 2","no","mono","no","18","no","white","no","no","768","legacy","56","56","C:/Users/Simon M. Rook/Documents/School/1Tarleton/Classes/Adv Quant/Lab 2/flanker-data/sr-subject-3.csv","legacy","Lentiform Loewenfeld","3.3.10","0","h","NA","h","NA","NA","h","517","NA","23253","NA","NA","517","2","legacy","1024","2","48000","-16","experiment","HHHHH","3","odd","24411","NA","NA","118602","82324","1153","NA","NA","119658","1157","NA","NA","119768","120287","119656","119768","Flanker Task","55","29706","57","yes","1024"
"96.55172413793103","96.55172413793103","525.0172413793103","525.0172413793103","black","legacy","legacy","legacy","0","congruent","uniform","1","undefined","1","h","0","0","0","57","57","0","57","0","57","0","0","0","57","57","57","57","Sat Sep 25 20:09:44 2021","1500","The main experiment item","yes","SR-FlankerTask.osexp","C:/Users/Simon M. Rook/Documents/School/1Tarleton/Classes/Adv Quant/Lab 2","no","mono","no","18","no","white","no","no","768","legacy","57","57","C:/Users/Simon M. Rook/Documents/School/1Tarleton/Classes/Adv Quant/Lab 2/flanker-data/sr-subject-3.csv","legacy","Lentiform Loewenfeld","3.3.10","0","h","NA","h","NA","NA","h","745","NA","23253","NA","NA","745","2","legacy","1024","2","48000","-16","experiment","HHHHH","3","odd","24411","NA","NA","120291","82324","1153","NA","NA","121344","1157","NA","NA","121445","122191","121342","121445","Flanker Task","56","30451","58","yes","1024"
"96.61016949152543","96.61016949152543","527.6610169491526","527.6610169491526","black","legacy","legacy","legacy","0","incongruent","uniform","1","undefined","1","h","0","0","0","58","58","0","58","0","58","0","0","0","58","58","58","58","Sat Sep 25 20:09:44 2021","1500","The main experiment item","yes","SR-FlankerTask.osexp","C:/Users/Simon M. Rook/Documents/School/1Tarleton/Classes/Adv Quant/Lab 2","no","mono","no","18","no","white","no","no","768","legacy","58","58","C:/Users/Simon M. Rook/Documents/School/1Tarleton/Classes/Adv Quant/Lab 2/flanker-data/sr-subject-3.csv","legacy","Lentiform Loewenfeld","3.3.10","0","h","NA","h","NA","NA","h","681","NA","23253","NA","NA","681","2","legacy","1024","2","48000","-16","experiment","SSHSS","3","odd","24411","NA","NA","122194","82324","1153","NA","NA","123248","1157","NA","NA","123349","124030","123246","123349","Flanker Task","57","31132","59","yes","1024"
"96.66666666666667","96.66666666666667","527.7333333333333","527.7333333333333","black","legacy","legacy","legacy","0","congruent","uniform","1","undefined","1","s","0","0","0","59","59","0","59","0","59","0","0","0","59","59","59","59","Sat Sep 25 20:09:44 2021","1500","The main experiment item","yes","SR-FlankerTask.osexp","C:/Users/Simon M. Rook/Documents/School/1Tarleton/Classes/Adv Quant/Lab 2","no","mono","no","18","no","white","no","no","768","legacy","59","59","C:/Users/Simon M. Rook/Documents/School/1Tarleton/Classes/Adv Quant/Lab 2/flanker-data/sr-subject-3.csv","legacy","Lentiform Loewenfeld","3.3.10","0","s","NA","h","NA","NA","s","532","NA","23253","NA","NA","532","2","legacy","1024","2","48000","-16","experiment","SSSSS","3","odd","24411","NA","NA","124033","82324","1153","NA","NA","125086","1157","NA","NA","125187","125719","125084","125187","Flanker Task","58","31664","60","yes","1024"
"96.72131147540983","96.72131147540983","526.688524590164","526.688524590164","black","legacy","legacy","legacy","0","congruent","uniform","1","undefined","1","s","0","0","0","60","60","0","60","0","60","0","0","0","60","60","60","60","Sat Sep 25 20:09:44 2021","1500","The main experiment item","yes","SR-FlankerTask.osexp","C:/Users/Simon M. Rook/Documents/School/1Tarleton/Classes/Adv Quant/Lab 2","no","mono","no","18","no","white","no","no","768","legacy","60","60","C:/Users/Simon M. Rook/Documents/School/1Tarleton/Classes/Adv Quant/Lab 2/flanker-data/sr-subject-3.csv","legacy","Lentiform Loewenfeld","3.3.10","0","s","NA","h","NA","NA","s","464","NA","23253","NA","NA","464","2","legacy","1024","2","48000","-16","experiment","SSSSS","3","odd","24411","NA","NA","125722","82324","1153","NA","NA","126777","1157","NA","NA","126878","127343","126776","126878","Flanker Task","59","32128","61","yes","1024"
"96.7741935483871","96.7741935483871","527.8870967741935","527.8870967741935","black","legacy","legacy","legacy","0","incongruent","uniform","1","undefined","1","h","0","0","0","61","61","0","61","0","61","0","0","0","61","61","61","61","Sat Sep 25 20:09:44 2021","1500","The main experiment item","yes","SR-FlankerTask.osexp","C:/Users/Simon M. Rook/Documents/School/1Tarleton/Classes/Adv Quant/Lab 2","no","mono","no","18","no","white","no","no","768","legacy","61","61","C:/Users/Simon M. Rook/Documents/School/1Tarleton/Classes/Adv Quant/Lab 2/flanker-data/sr-subject-3.csv","legacy","Lentiform Loewenfeld","3.3.10","0","h","NA","h","NA","NA","h","601","NA","23253","NA","NA","601","2","legacy","1024","2","48000","-16","experiment","SSHSS","3","odd","24411","NA","NA","127346","82324","1153","NA","NA","128400","1157","NA","NA","128501","129103","128398","128501","Flanker Task","60","32729","62","yes","1024"
"96.82539682539682","96.82539682539682","527.3650793650794","527.3650793650794","black","legacy","legacy","legacy","0","incongruent","uniform","1","undefined","1","h","0","0","0","62","62","0","62","0","62","0","0","0","62","62","62","62","Sat Sep 25 20:09:44 2021","1500","The main experiment item","yes","SR-FlankerTask.osexp","C:/Users/Simon M. Rook/Documents/School/1Tarleton/Classes/Adv Quant/Lab 2","no","mono","no","18","no","white","no","no","768","legacy","62","62","C:/Users/Simon M. Rook/Documents/School/1Tarleton/Classes/Adv Quant/Lab 2/flanker-data/sr-subject-3.csv","legacy","Lentiform Loewenfeld","3.3.10","0","h","NA","h","NA","NA","h","495","NA","23253","NA","NA","495","2","legacy","1024","2","48000","-16","experiment","SSHSS","3","odd","24411","NA","NA","129106","82324","1153","NA","NA","130163","1157","NA","NA","130264","130760","130162","130264","Flanker Task","61","33224","63","yes","1024"
"96.875","96.875","526.390625","526.390625","black","legacy","legacy","legacy","0","congruent","uniform","1","undefined","1","h","0","0","0","63","63","0","63","0","63","0","0","0","63","63","63","63","Sat Sep 25 20:09:44 2021","1500","The main experiment item","yes","SR-FlankerTask.osexp","C:/Users/Simon M. Rook/Documents/School/1Tarleton/Classes/Adv Quant/Lab 2","no","mono","no","18","no","white","no","no","768","legacy","63","63","C:/Users/Simon M. Rook/Documents/School/1Tarleton/Classes/Adv Quant/Lab 2/flanker-data/sr-subject-3.csv","legacy","Lentiform Loewenfeld","3.3.10","0","h","NA","h","NA","NA","h","465","NA","23253","NA","NA","465","2","legacy","1024","2","48000","-16","experiment","HHHHH","3","odd","24411","NA","NA","130763","82324","1153","NA","NA","131816","1157","NA","NA","131918","132383","131815","131918","Flanker Task","62","33689","64","yes","1024"
"96.92307692307692","96.92307692307692","525.9538461538461","525.9538461538461","black","legacy","legacy","legacy","0","congruent","uniform","1","undefined","1","s","0","0","0","64","64","0","64","0","64","0","0","0","64","64","64","64","Sat Sep 25 20:09:44 2021","1500","The main experiment item","yes","SR-FlankerTask.osexp","C:/Users/Simon M. Rook/Documents/School/1Tarleton/Classes/Adv Quant/Lab 2","no","mono","no","18","no","white","no","no","768","legacy","64","64","C:/Users/Simon M. Rook/Documents/School/1Tarleton/Classes/Adv Quant/Lab 2/flanker-data/sr-subject-3.csv","legacy","Lentiform Loewenfeld","3.3.10","0","s","NA","h","NA","NA","s","498","NA","23253","NA","NA","498","2","legacy","1024","2","48000","-16","experiment","SSSSS","3","odd","24411","NA","NA","132387","82324","1153","NA","NA","133440","1157","NA","NA","133541","134040","133438","133541","Flanker Task","63","34187","65","yes","1024"
"96.96969696969697","96.96969696969697","525.7575757575758","525.7575757575758","black","legacy","legacy","legacy","0","incongruent","uniform","1","undefined","1","h","0","0","0","65","65","0","65","0","65","0","0","0","65","65","65","65","Sat Sep 25 20:09:44 2021","1500","The main experiment item","yes","SR-FlankerTask.osexp","C:/Users/Simon M. Rook/Documents/School/1Tarleton/Classes/Adv Quant/Lab 2","no","mono","no","18","no","white","no","no","768","legacy","65","65","C:/Users/Simon M. Rook/Documents/School/1Tarleton/Classes/Adv Quant/Lab 2/flanker-data/sr-subject-3.csv","legacy","Lentiform Loewenfeld","3.3.10","0","h","NA","h","NA","NA","h","513","NA","23253","NA","NA","513","2","legacy","1024","2","48000","-16","experiment","SSHSS","3","odd","24411","NA","NA","134043","82324","1153","NA","NA","135097","1157","NA","NA","135198","135712","135095","135198","Flanker Task","64","34700","66","yes","1024"
"97.01492537313433","97.01492537313433","527.3582089552239","527.3582089552239","black","legacy","legacy","legacy","0","incongruent","uniform","1","undefined","1","s","0","0","0","66","66","0","66","0","66","0","0","0","66","66","66","66","Sat Sep 25 20:09:44 2021","1500","The main experiment item","yes","SR-FlankerTask.osexp","C:/Users/Simon M. Rook/Documents/School/1Tarleton/Classes/Adv Quant/Lab 2","no","mono","no","18","no","white","no","no","768","legacy","66","66","C:/Users/Simon M. Rook/Documents/School/1Tarleton/Classes/Adv Quant/Lab 2/flanker-data/sr-subject-3.csv","legacy","Lentiform Loewenfeld","3.3.10","0","s","NA","h","NA","NA","s","633","NA","23253","NA","NA","633","2","legacy","1024","2","48000","-16","experiment","HHSHH","3","odd","24411","NA","NA","135715","82324","1153","NA","NA","136769","1157","NA","NA","136870","137504","136767","136870","Flanker Task","65","35333","67","yes","1024"
"97.05882352941177","97.05882352941177","526.4705882352941","526.4705882352941","black","legacy","legacy","legacy","0","incongruent","uniform","1","undefined","1","s","0","0","0","67","67","0","67","0","67","0","0","0","67","67","67","67","Sat Sep 25 20:09:44 2021","1500","The main experiment item","yes","SR-FlankerTask.osexp","C:/Users/Simon M. Rook/Documents/School/1Tarleton/Classes/Adv Quant/Lab 2","no","mono","no","18","no","white","no","no","768","legacy","67","67","C:/Users/Simon M. Rook/Documents/School/1Tarleton/Classes/Adv Quant/Lab 2/flanker-data/sr-subject-3.csv","legacy","Lentiform Loewenfeld","3.3.10","0","s","NA","h","NA","NA","s","467","NA","23253","NA","NA","467","2","legacy","1024","2","48000","-16","experiment","HHSHH","3","odd","24411","NA","NA","137507","82324","1153","NA","NA","138560","1157","NA","NA","138661","139129","138558","138661","Flanker Task","66","35800","68","yes","1024"
"97.10144927536231","97.10144927536231","527.4492753623189","527.4492753623189","black","legacy","legacy","legacy","0","incongruent","uniform","1","undefined","1","h","0","0","0","68","68","0","68","0","68","0","0","0","68","68","68","68","Sat Sep 25 20:09:44 2021","1500","The main experiment item","yes","SR-FlankerTask.osexp","C:/Users/Simon M. Rook/Documents/School/1Tarleton/Classes/Adv Quant/Lab 2","no","mono","no","18","no","white","no","no","768","legacy","68","68","C:/Users/Simon M. Rook/Documents/School/1Tarleton/Classes/Adv Quant/Lab 2/flanker-data/sr-subject-3.csv","legacy","Lentiform Loewenfeld","3.3.10","0","h","NA","h","NA","NA","h","594","NA","23253","NA","NA","594","2","legacy","1024","2","48000","-16","experiment","SSHSS","3","odd","24411","NA","NA","139132","82324","1153","NA","NA","140185","1157","NA","NA","140286","140881","140184","140286","Flanker Task","67","36394","69","yes","1024"
"97.14285714285714","97.14285714285714","526.2142857142857","526.2142857142857","black","legacy","legacy","legacy","0","congruent","uniform","1","undefined","1","s","0","0","0","69","69","0","69","0","69","0","0","0","69","69","69","69","Sat Sep 25 20:09:44 2021","1500","The main experiment item","yes","SR-FlankerTask.osexp","C:/Users/Simon M. Rook/Documents/School/1Tarleton/Classes/Adv Quant/Lab 2","no","mono","no","18","no","white","no","no","768","legacy","69","69","C:/Users/Simon M. Rook/Documents/School/1Tarleton/Classes/Adv Quant/Lab 2/flanker-data/sr-subject-3.csv","legacy","Lentiform Loewenfeld","3.3.10","0","s","NA","h","NA","NA","s","441","NA","23253","NA","NA","441","2","legacy","1024","2","48000","-16","experiment","SSSSS","3","odd","24411","NA","NA","140884","82324","1153","NA","NA","141944","1157","NA","NA","142047","142489","141942","142046","Flanker Task","68","36835","70","yes","1024"
"97.1830985915493","97.1830985915493","526.2676056338029","526.2676056338029","black","legacy","legacy","legacy","0","incongruent","uniform","1","undefined","1","s","0","0","0","70","70","0","70","0","70","0","0","0","70","70","70","70","Sat Sep 25 20:09:44 2021","1500","The main experiment item","yes","SR-FlankerTask.osexp","C:/Users/Simon M. Rook/Documents/School/1Tarleton/Classes/Adv Quant/Lab 2","no","mono","no","18","no","white","no","no","768","legacy","70","70","C:/Users/Simon M. Rook/Documents/School/1Tarleton/Classes/Adv Quant/Lab 2/flanker-data/sr-subject-3.csv","legacy","Lentiform Loewenfeld","3.3.10","0","s","NA","h","NA","NA","s","530","NA","23253","NA","NA","530","2","legacy","1024","2","48000","-16","experiment","HHSHH","3","odd","24411","NA","NA","142492","82324","1153","NA","NA","143545","1157","NA","NA","143646","144177","143543","143646","Flanker Task","69","37365","71","yes","1024"
"97.22222222222223","97.22222222222223","524.7638888888889","524.7638888888889","black","legacy","legacy","legacy","0","incongruent","uniform","1","undefined","1","s","0","0","0","71","71","0","71","0","71","0","0","0","71","71","71","71","Sat Sep 25 20:09:44 2021","1500","The main experiment item","yes","SR-FlankerTask.osexp","C:/Users/Simon M. Rook/Documents/School/1Tarleton/Classes/Adv Quant/Lab 2","no","mono","no","18","no","white","no","no","768","legacy","71","71","C:/Users/Simon M. Rook/Documents/School/1Tarleton/Classes/Adv Quant/Lab 2/flanker-data/sr-subject-3.csv","legacy","Lentiform Loewenfeld","3.3.10","0","s","NA","h","NA","NA","s","418","NA","23253","NA","NA","418","2","legacy","1024","2","48000","-16","experiment","HHSHH","3","odd","24411","NA","NA","144180","82324","1153","NA","NA","145233","1157","NA","NA","145334","145753","145231","145334","Flanker Task","70","37783","72","yes","1024"
"97.26027397260275","97.26027397260275","522.8630136986301","522.8630136986301","black","legacy","legacy","legacy","0","incongruent","uniform","1","undefined","1","s","0","0","0","72","72","0","72","0","72","0","0","0","72","72","72","72","Sat Sep 25 20:09:44 2021","1500","The main experiment item","yes","SR-FlankerTask.osexp","C:/Users/Simon M. Rook/Documents/School/1Tarleton/Classes/Adv Quant/Lab 2","no","mono","no","18","no","white","no","no","768","legacy","72","72","C:/Users/Simon M. Rook/Documents/School/1Tarleton/Classes/Adv Quant/Lab 2/flanker-data/sr-subject-3.csv","legacy","Lentiform Loewenfeld","3.3.10","0","s","NA","h","NA","NA","s","386","NA","23253","NA","NA","386","2","legacy","1024","2","48000","-16","experiment","HHSHH","3","odd","24411","NA","NA","145757","82324","1153","NA","NA","146810","1157","NA","NA","146911","147298","146808","146911","Flanker Task","71","38169","73","yes","1024"
"97.29729729729729","97.29729729729729","521.7702702702703","521.7702702702703","black","legacy","legacy","legacy","0","congruent","uniform","1","undefined","1","s","0","0","0","73","73","0","73","0","73","0","0","0","73","73","73","73","Sat Sep 25 20:09:44 2021","1500","The main experiment item","yes","SR-FlankerTask.osexp","C:/Users/Simon M. Rook/Documents/School/1Tarleton/Classes/Adv Quant/Lab 2","no","mono","no","18","no","white","no","no","768","legacy","73","73","C:/Users/Simon M. Rook/Documents/School/1Tarleton/Classes/Adv Quant/Lab 2/flanker-data/sr-subject-3.csv","legacy","Lentiform Loewenfeld","3.3.10","0","s","NA","h","NA","NA","s","442","NA","23253","NA","NA","442","2","legacy","1024","2","48000","-16","experiment","SSSSS","3","odd","24411","NA","NA","147301","82324","1153","NA","NA","148354","1157","NA","NA","148455","148898","148352","148455","Flanker Task","72","38611","74","yes","1024"
"97.33333333333333","97.33333333333333","522.5066666666667","522.5066666666667","black","legacy","legacy","legacy","0","incongruent","uniform","1","undefined","1","h","0","0","0","74","74","0","74","0","74","0","0","0","74","74","74","74","Sat Sep 25 20:09:44 2021","1500","The main experiment item","yes","SR-FlankerTask.osexp","C:/Users/Simon M. Rook/Documents/School/1Tarleton/Classes/Adv Quant/Lab 2","no","mono","no","18","no","white","no","no","768","legacy","74","74","C:/Users/Simon M. Rook/Documents/School/1Tarleton/Classes/Adv Quant/Lab 2/flanker-data/sr-subject-3.csv","legacy","Lentiform Loewenfeld","3.3.10","0","h","NA","h","NA","NA","h","577","NA","23253","NA","NA","577","2","legacy","1024","2","48000","-16","experiment","SSHSS","3","odd","24411","NA","NA","148901","82324","1153","NA","NA","149955","1157","NA","NA","150056","150633","149953","150056","Flanker Task","73","39188","75","yes","1024"
"97.36842105263158","97.36842105263158","522.2894736842105","522.2894736842105","black","legacy","legacy","legacy","0","congruent","uniform","1","undefined","1","s","0","0","0","75","75","0","75","0","75","0","0","0","75","75","75","75","Sat Sep 25 20:09:44 2021","1500","The main experiment item","yes","SR-FlankerTask.osexp","C:/Users/Simon M. Rook/Documents/School/1Tarleton/Classes/Adv Quant/Lab 2","no","mono","no","18","no","white","no","no","768","legacy","75","75","C:/Users/Simon M. Rook/Documents/School/1Tarleton/Classes/Adv Quant/Lab 2/flanker-data/sr-subject-3.csv","legacy","Lentiform Loewenfeld","3.3.10","0","s","NA","h","NA","NA","s","506","NA","23253","NA","NA","506","2","legacy","1024","2","48000","-16","experiment","SSSSS","3","odd","24411","NA","NA","150637","82324","1153","NA","NA","151690","1157","NA","NA","151791","152298","151689","151791","Flanker Task","74","39694","76","yes","1024"
"97.40259740259741","97.40259740259741","522.4025974025974","522.4025974025974","black","legacy","legacy","legacy","0","incongruent","uniform","1","undefined","1","s","0","0","0","76","76","0","76","0","76","0","0","0","76","76","76","76","Sat Sep 25 20:09:44 2021","1500","The main experiment item","yes","SR-FlankerTask.osexp","C:/Users/Simon M. Rook/Documents/School/1Tarleton/Classes/Adv Quant/Lab 2","no","mono","no","18","no","white","no","no","768","legacy","76","76","C:/Users/Simon M. Rook/Documents/School/1Tarleton/Classes/Adv Quant/Lab 2/flanker-data/sr-subject-3.csv","legacy","Lentiform Loewenfeld","3.3.10","0","s","NA","h","NA","NA","s","531","NA","23253","NA","NA","531","2","legacy","1024","2","48000","-16","experiment","HHSHH","3","odd","24411","NA","NA","152301","82324","1153","NA","NA","153362","1157","NA","NA","153463","153995","153360","153463","Flanker Task","75","40225","77","yes","1024"
"97.43589743589743","97.43589743589743","521.6794871794872","521.6794871794872","black","legacy","legacy","legacy","0","incongruent","uniform","1","undefined","1","s","0","0","0","77","77","0","77","0","77","0","0","0","77","77","77","77","Sat Sep 25 20:09:44 2021","1500","The main experiment item","yes","SR-FlankerTask.osexp","C:/Users/Simon M. Rook/Documents/School/1Tarleton/Classes/Adv Quant/Lab 2","no","mono","no","18","no","white","no","no","768","legacy","77","77","C:/Users/Simon M. Rook/Documents/School/1Tarleton/Classes/Adv Quant/Lab 2/flanker-data/sr-subject-3.csv","legacy","Lentiform Loewenfeld","3.3.10","0","s","NA","h","NA","NA","s","466","NA","23253","NA","NA","466","2","legacy","1024","2","48000","-16","experiment","HHSHH","3","odd","24411","NA","NA","153998","82324","1153","NA","NA","155051","1157","NA","NA","155152","155619","155049","155152","Flanker Task","76","40691","78","yes","1024"
"97.46835443037975","97.46835443037975","520.0632911392405","520.0632911392405","black","legacy","legacy","legacy","0","incongruent","uniform","1","undefined","1","s","0","0","0","78","78","0","78","0","78","0","0","0","78","78","78","78","Sat Sep 25 20:09:44 2021","1500","The main experiment item","yes","SR-FlankerTask.osexp","C:/Users/Simon M. Rook/Documents/School/1Tarleton/Classes/Adv Quant/Lab 2","no","mono","no","18","no","white","no","no","768","legacy","78","78","C:/Users/Simon M. Rook/Documents/School/1Tarleton/Classes/Adv Quant/Lab 2/flanker-data/sr-subject-3.csv","legacy","Lentiform Loewenfeld","3.3.10","0","s","NA","h","NA","NA","s","394","NA","23253","NA","NA","394","2","legacy","1024","2","48000","-16","experiment","HHSHH","3","odd","24411","NA","NA","155622","82324","1153","NA","NA","156675","1157","NA","NA","156776","157170","156673","156776","Flanker Task","77","41085","79","yes","1024"
"97.5","97.5","520.5875","520.5875","black","legacy","legacy","legacy","0","congruent","uniform","1","undefined","1","h","0","0","0","79","79","0","79","0","79","0","0","0","79","79","79","79","Sat Sep 25 20:09:44 2021","1500","The main experiment item","yes","SR-FlankerTask.osexp","C:/Users/Simon M. Rook/Documents/School/1Tarleton/Classes/Adv Quant/Lab 2","no","mono","no","18","no","white","no","no","768","legacy","79","79","C:/Users/Simon M. Rook/Documents/School/1Tarleton/Classes/Adv Quant/Lab 2/flanker-data/sr-subject-3.csv","legacy","Lentiform Loewenfeld","3.3.10","0","h","NA","h","NA","NA","h","562","NA","23253","NA","NA","562","2","legacy","1024","2","48000","-16","experiment","HHHHH","3","odd","24411","NA","NA","157174","82324","1153","NA","NA","158227","1157","NA","NA","158328","158891","158226","158328","Flanker Task","78","41647","80","yes","1024"
"97.53086419753086","97.53086419753086","518.7283950617284","518.7283950617284","black","legacy","legacy","legacy","0","incongruent","uniform","1","undefined","1","s","0","0","0","80","80","0","80","0","80","0","0","0","80","80","80","80","Sat Sep 25 20:09:44 2021","600","The main experiment item","yes","SR-FlankerTask.osexp","C:/Users/Simon M. Rook/Documents/School/1Tarleton/Classes/Adv Quant/Lab 2","no","mono","no","18","no","white","no","no","768","legacy","0","79","C:/Users/Simon M. Rook/Documents/School/1Tarleton/Classes/Adv Quant/Lab 2/flanker-data/sr-subject-3.csv","legacy","Lentiform Loewenfeld","3.3.10","0","s","NA","h","s","NA","s","370","NA","23253","24360","NA","370","2","legacy","1024","2","48000","-16","experiment","HHSHH","3","odd","24411","184278","NA","158894","82324","1153","NA","NA","184318","1157","159917","NA","184419","184790","184317","184419","Flanker Task","79","42017","81","yes","1024"
"97.5609756097561","97.5609756097561","517","517","black","legacy","legacy","legacy","0","incongruent","uniform","1","undefined","1","h","0","0","0","81","81","0","81","0","81","0","0","0","81","81","81","81","Sat Sep 25 20:09:44 2021","600","The main experiment item","yes","SR-FlankerTask.osexp","C:/Users/Simon M. Rook/Documents/School/1Tarleton/Classes/Adv Quant/Lab 2","no","mono","no","18","no","white","no","no","768","legacy","1","79","C:/Users/Simon M. Rook/Documents/School/1Tarleton/Classes/Adv Quant/Lab 2/flanker-data/sr-subject-3.csv","legacy","Lentiform Loewenfeld","3.3.10","0","h","NA","h","s","NA","h","377","NA","23253","24360","NA","377","2","legacy","1024","2","48000","-16","experiment","SSHSS","3","odd","24411","184278","NA","184793","82324","1153","NA","NA","185846","1157","159917","NA","185948","186325","185845","185948","Flanker Task","80","42394","82","yes","1024"
"97.59036144578313","97.59036144578313","514.9518072289156","514.9518072289156","black","legacy","legacy","legacy","0","congruent","uniform","1","undefined","1","s","0","0","0","82","82","0","82","0","82","0","0","0","82","82","82","82","Sat Sep 25 20:09:44 2021","600","The main experiment item","yes","SR-FlankerTask.osexp","C:/Users/Simon M. Rook/Documents/School/1Tarleton/Classes/Adv Quant/Lab 2","no","mono","no","18","no","white","no","no","768","legacy","2","79","C:/Users/Simon M. Rook/Documents/School/1Tarleton/Classes/Adv Quant/Lab 2/flanker-data/sr-subject-3.csv","legacy","Lentiform Loewenfeld","3.3.10","0","s","NA","h","s","NA","s","347","NA","23253","24360","NA","347","2","legacy","1024","2","48000","-16","experiment","SSSSS","3","odd","24411","184278","NA","186328","82324","1153","NA","NA","187381","1157","159917","NA","187482","187830","187379","187482","Flanker Task","81","42741","83","yes","1024"
"97.61904761904762","97.61904761904762","513.3095238095239","513.3095238095239","black","legacy","legacy","legacy","0","incongruent","uniform","1","undefined","1","h","0","0","0","83","83","0","83","0","83","0","0","0","83","83","83","83","Sat Sep 25 20:09:44 2021","600","The main experiment item","yes","SR-FlankerTask.osexp","C:/Users/Simon M. Rook/Documents/School/1Tarleton/Classes/Adv Quant/Lab 2","no","mono","no","18","no","white","no","no","768","legacy","3","79","C:/Users/Simon M. Rook/Documents/School/1Tarleton/Classes/Adv Quant/Lab 2/flanker-data/sr-subject-3.csv","legacy","Lentiform Loewenfeld","3.3.10","0","h","NA","h","s","NA","h","377","NA","23253","24360","NA","377","2","legacy","1024","2","48000","-16","experiment","SSHSS","3","odd","24411","184278","NA","187834","82324","1153","NA","NA","188895","1157","159917","NA","188996","189374","188893","188996","Flanker Task","82","43118","84","yes","1024"
"96.47058823529412","96.47058823529412","512.5764705882353","512.5764705882353","black","legacy","legacy","legacy","0","incongruent","uniform","0","undefined","0","h","0","0","0","84","84","0","84","0","84","0","0","0","84","84","84","84","Sat Sep 25 20:09:44 2021","600","The main experiment item","yes","SR-FlankerTask.osexp","C:/Users/Simon M. Rook/Documents/School/1Tarleton/Classes/Adv Quant/Lab 2","no","mono","no","18","no","white","no","no","768","legacy","4","79","C:/Users/Simon M. Rook/Documents/School/1Tarleton/Classes/Adv Quant/Lab 2/flanker-data/sr-subject-3.csv","legacy","Lentiform Loewenfeld","3.3.10","0","s","NA","h","s","NA","s","451","NA","23253","24360","NA","451","2","legacy","1024","2","48000","-16","experiment","SSHSS","3","odd","24411","184278","NA","189377","82324","1153","NA","NA","190429","1157","159917","NA","190530","190982","190428","190530","Flanker Task","82","43569","85","yes","1024"
"96.51162790697674","96.51162790697674","511.6511627906977","511.6511627906977","black","legacy","legacy","legacy","0","incongruent","uniform","1","undefined","1","s","0","0","0","85","85","0","85","0","85","0","0","0","85","85","85","85","Sat Sep 25 20:09:44 2021","600","The main experiment item","yes","SR-FlankerTask.osexp","C:/Users/Simon M. Rook/Documents/School/1Tarleton/Classes/Adv Quant/Lab 2","no","mono","no","18","no","white","no","no","768","legacy","5","79","C:/Users/Simon M. Rook/Documents/School/1Tarleton/Classes/Adv Quant/Lab 2/flanker-data/sr-subject-3.csv","legacy","Lentiform Loewenfeld","3.3.10","0","s","NA","h","s","NA","s","433","NA","23253","24360","NA","433","2","legacy","1024","2","48000","-16","experiment","HHSHH","3","odd","24411","184278","NA","191486","190985","1153","NA","NA","192544","1157","159917","NA","192645","193079","192542","192645","Flanker Task","83","44002","86","yes","1024"
"96.55172413793103","96.55172413793103","510.28735632183907","510.28735632183907","black","legacy","legacy","legacy","0","congruent","uniform","1","undefined","1","h","0","0","0","86","86","0","86","0","86","0","0","0","86","86","86","86","Sat Sep 25 20:09:44 2021","600","The main experiment item","yes","SR-FlankerTask.osexp","C:/Users/Simon M. Rook/Documents/School/1Tarleton/Classes/Adv Quant/Lab 2","no","mono","no","18","no","white","no","no","768","legacy","6","79","C:/Users/Simon M. Rook/Documents/School/1Tarleton/Classes/Adv Quant/Lab 2/flanker-data/sr-subject-3.csv","legacy","Lentiform Loewenfeld","3.3.10","0","h","NA","h","s","NA","h","393","NA","23253","24360","NA","393","2","legacy","1024","2","48000","-16","experiment","HHHHH","3","odd","24411","184278","NA","193083","190985","1153","NA","NA","194136","1157","159917","NA","194237","194631","194134","194237","Flanker Task","84","44395","87","yes","1024"
"96.5909090909091","96.5909090909091","509.14772727272725","509.14772727272725","black","legacy","legacy","legacy","0","congruent","uniform","1","undefined","1","h","0","0","0","87","87","0","87","0","87","0","0","0","87","87","87","87","Sat Sep 25 20:09:44 2021","600","The main experiment item","yes","SR-FlankerTask.osexp","C:/Users/Simon M. Rook/Documents/School/1Tarleton/Classes/Adv Quant/Lab 2","no","mono","no","18","no","white","no","no","768","legacy","7","79","C:/Users/Simon M. Rook/Documents/School/1Tarleton/Classes/Adv Quant/Lab 2/flanker-data/sr-subject-3.csv","legacy","Lentiform Loewenfeld","3.3.10","0","h","NA","h","s","NA","h","410","NA","23253","24360","NA","410","2","legacy","1024","2","48000","-16","experiment","HHHHH","3","odd","24411","184278","NA","194634","190985","1153","NA","NA","195687","1157","159917","NA","195788","196199","195686","195788","Flanker Task","85","44805","88","yes","1024"
"96.62921348314607","96.62921348314607","508.80898876404495","508.80898876404495","black","legacy","legacy","legacy","0","congruent","uniform","1","undefined","1","s","0","0","0","88","88","0","88","0","88","0","0","0","88","88","88","88","Sat Sep 25 20:09:44 2021","600","The main experiment item","yes","SR-FlankerTask.osexp","C:/Users/Simon M. Rook/Documents/School/1Tarleton/Classes/Adv Quant/Lab 2","no","mono","no","18","no","white","no","no","768","legacy","8","79","C:/Users/Simon M. Rook/Documents/School/1Tarleton/Classes/Adv Quant/Lab 2/flanker-data/sr-subject-3.csv","legacy","Lentiform Loewenfeld","3.3.10","0","s","NA","h","s","NA","s","479","NA","23253","24360","NA","479","2","legacy","1024","2","48000","-16","experiment","SSSSS","3","odd","24411","184278","NA","196203","190985","1153","NA","NA","197258","1157","159917","NA","197359","197840","197256","197359","Flanker Task","86","45284","89","yes","1024"
"96.66666666666667","96.66666666666667","508.76666666666665","508.76666666666665","black","legacy","legacy","legacy","0","incongruent","uniform","1","undefined","1","s","0","0","0","89","89","0","89","0","89","0","0","0","89","89","89","89","Sat Sep 25 20:09:44 2021","600","The main experiment item","yes","SR-FlankerTask.osexp","C:/Users/Simon M. Rook/Documents/School/1Tarleton/Classes/Adv Quant/Lab 2","no","mono","no","18","no","white","no","no","768","legacy","9","79","C:/Users/Simon M. Rook/Documents/School/1Tarleton/Classes/Adv Quant/Lab 2/flanker-data/sr-subject-3.csv","legacy","Lentiform Loewenfeld","3.3.10","0","s","NA","h","s","NA","s","505","NA","23253","24360","NA","505","2","legacy","1024","2","48000","-16","experiment","HHSHH","3","odd","24411","184278","NA","197843","190985","1153","NA","NA","198896","1157","159917","NA","198997","199503","198894","198997","Flanker Task","87","45789","90","yes","1024"
"96.7032967032967","96.7032967032967","508.64835164835165","508.64835164835165","black","legacy","legacy","legacy","0","incongruent","uniform","1","undefined","1","h","0","0","0","90","90","0","90","0","90","0","0","0","90","90","90","90","Sat Sep 25 20:09:44 2021","600","The main experiment item","yes","SR-FlankerTask.osexp","C:/Users/Simon M. Rook/Documents/School/1Tarleton/Classes/Adv Quant/Lab 2","no","mono","no","18","no","white","no","no","768","legacy","10","79","C:/Users/Simon M. Rook/Documents/School/1Tarleton/Classes/Adv Quant/Lab 2/flanker-data/sr-subject-3.csv","legacy","Lentiform Loewenfeld","3.3.10","0","h","NA","h","s","NA","h","498","NA","23253","24360","NA","498","2","legacy","1024","2","48000","-16","experiment","SSHSS","3","odd","24411","184278","NA","199531","190985","1153","NA","NA","200584","1157","159917","NA","200685","201184","200582","200685","Flanker Task","88","46287","91","yes","1024"
"96.73913043478261","96.73913043478261","510.8695652173913","510.8695652173913","black","legacy","legacy","legacy","0","incongruent","uniform","1","undefined","1","s","0","0","0","91","91","0","91","0","91","0","0","0","91","91","91","91","Sat Sep 25 20:09:44 2021","600","The main experiment item","yes","SR-FlankerTask.osexp","C:/Users/Simon M. Rook/Documents/School/1Tarleton/Classes/Adv Quant/Lab 2","no","mono","no","18","no","white","no","no","768","legacy","11","79","C:/Users/Simon M. Rook/Documents/School/1Tarleton/Classes/Adv Quant/Lab 2/flanker-data/sr-subject-3.csv","legacy","Lentiform Loewenfeld","3.3.10","0","s","NA","h","s","NA","s","713","NA","23253","24360","NA","713","2","legacy","1024","2","48000","-16","experiment","HHSHH","3","odd","24411","184278","NA","201187","190985","1153","NA","NA","202241","1157","159917","NA","202342","203056","202239","202342","Flanker Task","89","47000","92","yes","1024"
"96.7741935483871","96.7741935483871","510.0752688172043","510.0752688172043","black","legacy","legacy","legacy","0","congruent","uniform","1","undefined","1","h","0","0","0","92","92","0","92","0","92","0","0","0","92","92","92","92","Sat Sep 25 20:09:44 2021","600","The main experiment item","yes","SR-FlankerTask.osexp","C:/Users/Simon M. Rook/Documents/School/1Tarleton/Classes/Adv Quant/Lab 2","no","mono","no","18","no","white","no","no","768","legacy","12","79","C:/Users/Simon M. Rook/Documents/School/1Tarleton/Classes/Adv Quant/Lab 2/flanker-data/sr-subject-3.csv","legacy","Lentiform Loewenfeld","3.3.10","0","h","NA","h","s","NA","h","437","NA","23253","24360","NA","437","2","legacy","1024","2","48000","-16","experiment","HHHHH","3","odd","24411","184278","NA","203560","190985","1153","203059","NA","204613","1157","159917","NA","204714","205152","204611","204714","Flanker Task","90","47437","93","yes","1024"
"96.80851063829788","96.80851063829788","507.90425531914894","507.90425531914894","black","legacy","legacy","legacy","0","congruent","uniform","1","undefined","1","s","0","0","0","93","93","0","93","0","93","0","0","0","93","93","93","93","Sat Sep 25 20:09:44 2021","600","The main experiment item","yes","SR-FlankerTask.osexp","C:/Users/Simon M. Rook/Documents/School/1Tarleton/Classes/Adv Quant/Lab 2","no","mono","no","18","no","white","no","no","768","legacy","13","79","C:/Users/Simon M. Rook/Documents/School/1Tarleton/Classes/Adv Quant/Lab 2/flanker-data/sr-subject-3.csv","legacy","Lentiform Loewenfeld","3.3.10","0","s","NA","h","s","NA","s","306","NA","23253","24360","NA","306","2","legacy","1024","2","48000","-16","experiment","SSSSS","3","odd","24411","184278","NA","205155","190985","1153","203059","NA","206208","1157","159917","NA","206309","206616","206206","206309","Flanker Task","91","47743","94","yes","1024"
"96.84210526315789","96.84210526315789","506.87368421052633","506.87368421052633","black","legacy","legacy","legacy","0","congruent","uniform","1","undefined","1","s","0","0","0","94","94","0","94","0","94","0","0","0","94","94","94","94","Sat Sep 25 20:09:44 2021","600","The main experiment item","yes","SR-FlankerTask.osexp","C:/Users/Simon M. Rook/Documents/School/1Tarleton/Classes/Adv Quant/Lab 2","no","mono","no","18","no","white","no","no","768","legacy","14","79","C:/Users/Simon M. Rook/Documents/School/1Tarleton/Classes/Adv Quant/Lab 2/flanker-data/sr-subject-3.csv","legacy","Lentiform Loewenfeld","3.3.10","0","s","NA","h","s","NA","s","410","NA","23253","24360","NA","410","2","legacy","1024","2","48000","-16","experiment","SSSSS","3","odd","24411","184278","NA","206619","190985","1153","203059","NA","207672","1157","159917","NA","207773","208184","207670","207773","Flanker Task","92","48153","95","yes","1024"
"96.875","96.875","505.8854166666667","505.8854166666667","black","legacy","legacy","legacy","0","incongruent","uniform","1","undefined","1","s","0","0","0","95","95","0","95","0","95","0","0","0","95","95","95","95","Sat Sep 25 20:09:44 2021","600","The main experiment item","yes","SR-FlankerTask.osexp","C:/Users/Simon M. Rook/Documents/School/1Tarleton/Classes/Adv Quant/Lab 2","no","mono","no","18","no","white","no","no","768","legacy","15","79","C:/Users/Simon M. Rook/Documents/School/1Tarleton/Classes/Adv Quant/Lab 2/flanker-data/sr-subject-3.csv","legacy","Lentiform Loewenfeld","3.3.10","0","s","NA","h","s","NA","s","412","NA","23253","24360","NA","412","2","legacy","1024","2","48000","-16","experiment","HHSHH","3","odd","24411","184278","NA","208187","190985","1153","203059","NA","209239","1157","159917","NA","209340","209753","209238","209340","Flanker Task","93","48565","96","yes","1024"
"96.90721649484536","96.90721649484536","504.8144329896907","504.8144329896907","black","legacy","legacy","legacy","0","congruent","uniform","1","undefined","1","s","0","0","0","96","96","0","96","0","96","0","0","0","96","96","96","96","Sat Sep 25 20:09:44 2021","600","The main experiment item","yes","SR-FlankerTask.osexp","C:/Users/Simon M. Rook/Documents/School/1Tarleton/Classes/Adv Quant/Lab 2","no","mono","no","18","no","white","no","no","768","legacy","16","79","C:/Users/Simon M. Rook/Documents/School/1Tarleton/Classes/Adv Quant/Lab 2/flanker-data/sr-subject-3.csv","legacy","Lentiform Loewenfeld","3.3.10","0","s","NA","h","s","NA","s","402","NA","23253","24360","NA","402","2","legacy","1024","2","48000","-16","experiment","SSSSS","3","odd","24411","184278","NA","209756","190985","1153","203059","NA","210809","1157","159917","NA","210910","211313","210807","210910","Flanker Task","94","48967","97","yes","1024"
"96.93877551020408","96.93877551020408","503.11224489795916","503.11224489795916","black","legacy","legacy","legacy","0","incongruent","uniform","1","undefined","1","s","0","0","0","97","97","0","97","0","97","0","0","0","97","97","97","97","Sat Sep 25 20:09:44 2021","600","The main experiment item","yes","SR-FlankerTask.osexp","C:/Users/Simon M. Rook/Documents/School/1Tarleton/Classes/Adv Quant/Lab 2","no","mono","no","18","no","white","no","no","768","legacy","17","79","C:/Users/Simon M. Rook/Documents/School/1Tarleton/Classes/Adv Quant/Lab 2/flanker-data/sr-subject-3.csv","legacy","Lentiform Loewenfeld","3.3.10","0","s","NA","h","s","NA","s","338","NA","23253","24360","NA","338","2","legacy","1024","2","48000","-16","experiment","HHSHH","3","odd","24411","184278","NA","211316","190985","1153","203059","NA","212369","1157","159917","NA","212470","212809","212367","212470","Flanker Task","95","49305","98","yes","1024"
"96.96969696969697","96.96969696969697","501.9191919191919","501.9191919191919","black","legacy","legacy","legacy","0","incongruent","uniform","1","undefined","1","s","0","0","0","98","98","0","98","0","98","0","0","0","98","98","98","98","Sat Sep 25 20:09:44 2021","600","The main experiment item","yes","SR-FlankerTask.osexp","C:/Users/Simon M. Rook/Documents/School/1Tarleton/Classes/Adv Quant/Lab 2","no","mono","no","18","no","white","no","no","768","legacy","18","79","C:/Users/Simon M. Rook/Documents/School/1Tarleton/Classes/Adv Quant/Lab 2/flanker-data/sr-subject-3.csv","legacy","Lentiform Loewenfeld","3.3.10","0","s","NA","h","s","NA","s","385","NA","23253","24360","NA","385","2","legacy","1024","2","48000","-16","experiment","HHSHH","3","odd","24411","184278","NA","212812","190985","1153","203059","NA","213866","1157","159917","NA","213967","214353","213864","213967","Flanker Task","96","49690","99","yes","1024"
"97","97","500.67","500.67","black","legacy","legacy","legacy","0","incongruent","uniform","1","undefined","1","s","0","0","0","99","99","0","99","0","99","0","0","0","99","99","99","99","Sat Sep 25 20:09:44 2021","600","The main experiment item","yes","SR-FlankerTask.osexp","C:/Users/Simon M. Rook/Documents/School/1Tarleton/Classes/Adv Quant/Lab 2","no","mono","no","18","no","white","no","no","768","legacy","19","79","C:/Users/Simon M. Rook/Documents/School/1Tarleton/Classes/Adv Quant/Lab 2/flanker-data/sr-subject-3.csv","legacy","Lentiform Loewenfeld","3.3.10","0","s","NA","h","s","NA","s","377","NA","23253","24360","NA","377","2","legacy","1024","2","48000","-16","experiment","HHSHH","3","odd","24411","184278","NA","214356","190985","1153","203059","NA","215410","1157","159917","NA","215511","215890","215408","215511","Flanker Task","97","50067","100","yes","1024"
"97.02970297029702","97.02970297029702","500.2277227722772","500.2277227722772","black","legacy","legacy","legacy","0","incongruent","uniform","1","undefined","1","s","0","0","0","100","100","0","100","0","100","0","0","0","100","100","100","100","Sat Sep 25 20:09:44 2021","600","The main experiment item","yes","SR-FlankerTask.osexp","C:/Users/Simon M. Rook/Documents/School/1Tarleton/Classes/Adv Quant/Lab 2","no","mono","no","18","no","white","no","no","768","legacy","20","79","C:/Users/Simon M. Rook/Documents/School/1Tarleton/Classes/Adv Quant/Lab 2/flanker-data/sr-subject-3.csv","legacy","Lentiform Loewenfeld","3.3.10","0","s","NA","h","s","NA","s","456","NA","23253","24360","NA","456","2","legacy","1024","2","48000","-16","experiment","HHSHH","3","odd","24411","184278","NA","215895","190985","1153","203059","NA","216948","1157","159917","NA","217049","217506","216946","217049","Flanker Task","98","50523","101","yes","1024"
"97.05882352941177","97.05882352941177","500.3235294117647","500.3235294117647","black","legacy","legacy","legacy","0","congruent","uniform","1","undefined","1","h","0","0","0","101","101","0","101","0","101","0","0","0","101","101","101","101","Sat Sep 25 20:09:44 2021","600","The main experiment item","yes","SR-FlankerTask.osexp","C:/Users/Simon M. Rook/Documents/School/1Tarleton/Classes/Adv Quant/Lab 2","no","mono","no","18","no","white","no","no","768","legacy","21","79","C:/Users/Simon M. Rook/Documents/School/1Tarleton/Classes/Adv Quant/Lab 2/flanker-data/sr-subject-3.csv","legacy","Lentiform Loewenfeld","3.3.10","0","h","NA","h","s","NA","h","510","NA","23253","24360","NA","510","2","legacy","1024","2","48000","-16","experiment","HHHHH","3","odd","24411","184278","NA","217509","190985","1153","203059","NA","218565","1157","159917","NA","218666","219177","218563","218666","Flanker Task","99","51033","102","yes","1024"
"97.0873786407767","97.0873786407767","499.24271844660194","499.24271844660194","black","legacy","legacy","legacy","0","incongruent","uniform","1","undefined","1","s","0","0","0","102","102","0","102","0","102","0","0","0","102","102","102","102","Sat Sep 25 20:09:44 2021","600","The main experiment item","yes","SR-FlankerTask.osexp","C:/Users/Simon M. Rook/Documents/School/1Tarleton/Classes/Adv Quant/Lab 2","no","mono","no","18","no","white","no","no","768","legacy","22","79","C:/Users/Simon M. Rook/Documents/School/1Tarleton/Classes/Adv Quant/Lab 2/flanker-data/sr-subject-3.csv","legacy","Lentiform Loewenfeld","3.3.10","0","s","NA","h","s","NA","s","389","NA","23253","24360","NA","389","2","legacy","1024","2","48000","-16","experiment","HHSHH","3","odd","24411","184278","NA","219181","190985","1153","203059","NA","220239","1157","159917","NA","220340","220730","220232","220340","Flanker Task","100","51422","103","yes","1024"
"97.11538461538461","97.11538461538461","499.0769230769231","499.0769230769231","black","legacy","legacy","legacy","0","incongruent","uniform","1","undefined","1","s","0","0","0","103","103","0","103","0","103","0","0","0","103","103","103","103","Sat Sep 25 20:09:44 2021","600","The main experiment item","yes","SR-FlankerTask.osexp","C:/Users/Simon M. Rook/Documents/School/1Tarleton/Classes/Adv Quant/Lab 2","no","mono","no","18","no","white","no","no","768","legacy","23","79","C:/Users/Simon M. Rook/Documents/School/1Tarleton/Classes/Adv Quant/Lab 2/flanker-data/sr-subject-3.csv","legacy","Lentiform Loewenfeld","3.3.10","0","s","NA","h","s","NA","s","482","NA","23253","24360","NA","482","2","legacy","1024","2","48000","-16","experiment","HHSHH","3","odd","24411","184278","NA","220733","190985","1153","203059","NA","221786","1157","159917","NA","221887","222370","221785","221887","Flanker Task","101","51904","104","yes","1024"
"97.14285714285714","97.14285714285714","498.3047619047619","498.3047619047619","black","legacy","legacy","legacy","0","congruent","uniform","1","undefined","1","s","0","0","0","104","104","0","104","0","104","0","0","0","104","104","104","104","Sat Sep 25 20:09:44 2021","600","The main experiment item","yes","SR-FlankerTask.osexp","C:/Users/Simon M. Rook/Documents/School/1Tarleton/Classes/Adv Quant/Lab 2","no","mono","no","18","no","white","no","no","768","legacy","24","79","C:/Users/Simon M. Rook/Documents/School/1Tarleton/Classes/Adv Quant/Lab 2/flanker-data/sr-subject-3.csv","legacy","Lentiform Loewenfeld","3.3.10","0","s","NA","h","s","NA","s","418","NA","23253","24360","NA","418","2","legacy","1024","2","48000","-16","experiment","SSSSS","3","odd","24411","184278","NA","222373","190985","1153","203059","NA","223426","1157","159917","NA","223527","223946","223424","223527","Flanker Task","102","52322","105","yes","1024"
"96.22641509433963","96.22641509433963","498.08490566037733","498.08490566037733","black","legacy","legacy","legacy","0","incongruent","uniform","0","undefined","0","s","0","0","0","105","105","0","105","0","105","0","0","0","105","105","105","105","Sat Sep 25 20:09:44 2021","600","The main experiment item","yes","SR-FlankerTask.osexp","C:/Users/Simon M. Rook/Documents/School/1Tarleton/Classes/Adv Quant/Lab 2","no","mono","no","18","no","white","no","no","768","legacy","25","79","C:/Users/Simon M. Rook/Documents/School/1Tarleton/Classes/Adv Quant/Lab 2/flanker-data/sr-subject-3.csv","legacy","Lentiform Loewenfeld","3.3.10","0","h","NA","h","s","NA","h","475","NA","23253","24360","NA","475","2","legacy","1024","2","48000","-16","experiment","HHSHH","3","odd","24411","184278","NA","223949","190985","1153","203059","NA","225002","1157","159917","NA","225103","225579","225000","225103","Flanker Task","102","52797","106","yes","1024"
"96.26168224299066","96.26168224299066","497.8878504672897","497.8878504672897","black","legacy","legacy","legacy","0","congruent","uniform","1","undefined","1","h","0","0","0","106","106","0","106","0","106","0","0","0","106","106","106","106","Sat Sep 25 20:09:44 2021","600","The main experiment item","yes","SR-FlankerTask.osexp","C:/Users/Simon M. Rook/Documents/School/1Tarleton/Classes/Adv Quant/Lab 2","no","mono","no","18","no","white","no","no","768","legacy","26","79","C:/Users/Simon M. Rook/Documents/School/1Tarleton/Classes/Adv Quant/Lab 2/flanker-data/sr-subject-3.csv","legacy","Lentiform Loewenfeld","3.3.10","0","h","NA","h","s","NA","h","477","NA","23253","24360","NA","477","2","legacy","1024","2","48000","-16","experiment","HHHHH","3","odd","24411","184278","NA","226083","225582","1153","203059","NA","227136","1157","159917","NA","227237","227715","227135","227237","Flanker Task","103","53274","107","yes","1024"
"96.29629629629629","96.29629629629629","496.537037037037","496.537037037037","black","legacy","legacy","legacy","0","congruent","uniform","1","undefined","1","s","0","0","0","107","107","0","107","0","107","0","0","0","107","107","107","107","Sat Sep 25 20:09:44 2021","600","The main experiment item","yes","SR-FlankerTask.osexp","C:/Users/Simon M. Rook/Documents/School/1Tarleton/Classes/Adv Quant/Lab 2","no","mono","no","18","no","white","no","no","768","legacy","27","79","C:/Users/Simon M. Rook/Documents/School/1Tarleton/Classes/Adv Quant/Lab 2/flanker-data/sr-subject-3.csv","legacy","Lentiform Loewenfeld","3.3.10","0","s","NA","h","s","NA","s","352","NA","23253","24360","NA","352","2","legacy","1024","2","48000","-16","experiment","SSSSS","3","odd","24411","184278","NA","227718","225582","1153","203059","NA","228773","1157","159917","NA","228874","229227","228772","228874","Flanker Task","104","53626","108","yes","1024"
