"acc","accuracy","average_response_time","avg_rt","background","canvas_backend","clock_backend","color_backend","compensation","condition","coordinates","correct","correct_instructions1","correct_keyboard_response","correct_response","count_InterStimulusInterval","count_block1","count_block2","count_block3","count_errorFeedback","count_experiment","count_faster","count_finish","count_fixation","count_instructions1","count_instructions2","count_instructions3","count_keyboard_response","count_logger","count_sequence","count_stimulus","datetime","deadline","description","disable_garbage_collection","experiment_file","experiment_path","font_bold","font_family","font_italic","font_size","font_underline","foreground","form_clicks","fullscreen","height","keyboard_backend","live_row","live_row_block1","logfile","mouse_backend","opensesame_codename","opensesame_version","repeat_cycle","response","response_finish","response_instructions1","response_instructions2","response_instructions3","response_keyboard_response","response_time","response_time_finish","response_time_instructions1","response_time_instructions2","response_time_instructions3","response_time_keyboard_response","round_decimals","sampler_backend","sound_buf_size","sound_channels","sound_freq","sound_sample_size","start","stimulus","subject_nr","subject_parity","time_InterStimulusInterval","time_block1","time_block2","time_block3","time_errorFeedback","time_experiment","time_faster","time_finish","time_fixation","time_instructions1","time_instructions2","time_instructions3","time_keyboard_response","time_logger","time_sequence","time_stimulus","title","total_correct","total_response_time","total_responses","uniform_coordinates","width"
"100","100","459","459","black","legacy","legacy","legacy","0","congruent","uniform","1","undefined","1","s","0","0","0","0","0","0","0","0","0","0","0","0","0","0","0","0","09/19/21 22:31:54","1500","The main experiment item","yes","FlankerTask.osexp","C:/Users/suici/Desktop/Tarleton/Fall 2021 - Graduate Studies/PSYC 5316-010 Advanced Quantitative Methods & Experiment Design/Lab 2 - the flanker task (an experiment on attention)","no","mono","no","18","no","white","no","yes","768","legacy","0","0","C:/Users/suici/Desktop/Tarleton/Fall 2021 - Graduate Studies/PSYC 5316-010 Advanced Quantitative Methods & Experiment Design/Lab 2 - the flanker task (an experiment on attention)/SM-subject-1.csv","legacy","Lentiform Loewenfeld","3.3.9","0","s","NA","s","NA","NA","s","459","NA","9457","NA","NA","459","2","legacy","1024","2","48000","-16","experiment","SSSSS","1","odd","NA","10770","NA","NA","NA","1310","NA","NA","10803","1313","NA","NA","10903","11362","10802","10903","Flanker Task","1","459","1","yes","1024"
"100","100","474.5","474.5","black","legacy","legacy","legacy","0","congruent","uniform","1","undefined","1","h","1","0","0","0","1","0","1","0","1","0","0","0","1","1","1","1","09/19/21 22:31:54","1500","The main experiment item","yes","FlankerTask.osexp","C:/Users/suici/Desktop/Tarleton/Fall 2021 - Graduate Studies/PSYC 5316-010 Advanced Quantitative Methods & Experiment Design/Lab 2 - the flanker task (an experiment on attention)","no","mono","no","18","no","white","no","yes","768","legacy","1","1","C:/Users/suici/Desktop/Tarleton/Fall 2021 - Graduate Studies/PSYC 5316-010 Advanced Quantitative Methods & Experiment Design/Lab 2 - the flanker task (an experiment on attention)/SM-subject-1.csv","legacy","Lentiform Loewenfeld","3.3.9","0","h","NA","s","NA","NA","h","490","NA","9457","NA","NA","490","2","legacy","1024","2","48000","-16","experiment","HHHHH","1","odd","11368","10770","NA","NA","NA","1310","NA","NA","12396","1313","NA","NA","12496","12986","12395","12496","Flanker Task","2","949","2","yes","1024"
"100","100","453.666666667","453.666666667","black","legacy","legacy","legacy","0","congruent","uniform","1","undefined","1","h","2","0","0","0","2","0","2","0","2","0","0","0","2","2","2","2","09/19/21 22:31:54","1500","The main experiment item","yes","FlankerTask.osexp","C:/Users/suici/Desktop/Tarleton/Fall 2021 - Graduate Studies/PSYC 5316-010 Advanced Quantitative Methods & Experiment Design/Lab 2 - the flanker task (an experiment on attention)","no","mono","no","18","no","white","no","yes","768","legacy","2","2","C:/Users/suici/Desktop/Tarleton/Fall 2021 - Graduate Studies/PSYC 5316-010 Advanced Quantitative Methods & Experiment Design/Lab 2 - the flanker task (an experiment on attention)/SM-subject-1.csv","legacy","Lentiform Loewenfeld","3.3.9","0","h","NA","s","NA","NA","h","412","NA","9457","NA","NA","412","2","legacy","1024","2","48000","-16","experiment","HHHHH","1","odd","12989","10770","NA","NA","NA","1310","NA","NA","14017","1313","NA","NA","14117","14529","14016","14117","Flanker Task","3","1361","3","yes","1024"
"100","100","441","441","black","legacy","legacy","legacy","0","congruent","uniform","1","undefined","1","h","3","0","0","0","3","0","3","0","3","0","0","0","3","3","3","3","09/19/21 22:31:54","1500","The main experiment item","yes","FlankerTask.osexp","C:/Users/suici/Desktop/Tarleton/Fall 2021 - Graduate Studies/PSYC 5316-010 Advanced Quantitative Methods & Experiment Design/Lab 2 - the flanker task (an experiment on attention)","no","mono","no","18","no","white","no","yes","768","legacy","3","3","C:/Users/suici/Desktop/Tarleton/Fall 2021 - Graduate Studies/PSYC 5316-010 Advanced Quantitative Methods & Experiment Design/Lab 2 - the flanker task (an experiment on attention)/SM-subject-1.csv","legacy","Lentiform Loewenfeld","3.3.9","0","h","NA","s","NA","NA","h","403","NA","9457","NA","NA","403","2","legacy","1024","2","48000","-16","experiment","HHHHH","1","odd","14534","10770","NA","NA","NA","1310","NA","NA","15561","1313","NA","NA","15662","16065","15560","15662","Flanker Task","4","1764","4","yes","1024"
"100","100","454.6","454.6","black","legacy","legacy","legacy","0","incongruent","uniform","1","undefined","1","h","4","0","0","0","4","0","4","0","4","0","0","0","4","4","4","4","09/19/21 22:31:54","1500","The main experiment item","yes","FlankerTask.osexp","C:/Users/suici/Desktop/Tarleton/Fall 2021 - Graduate Studies/PSYC 5316-010 Advanced Quantitative Methods & Experiment Design/Lab 2 - the flanker task (an experiment on attention)","no","mono","no","18","no","white","no","yes","768","legacy","4","4","C:/Users/suici/Desktop/Tarleton/Fall 2021 - Graduate Studies/PSYC 5316-010 Advanced Quantitative Methods & Experiment Design/Lab 2 - the flanker task (an experiment on attention)/SM-subject-1.csv","legacy","Lentiform Loewenfeld","3.3.9","0","h","NA","s","NA","NA","h","509","NA","9457","NA","NA","509","2","legacy","1024","2","48000","-16","experiment","SSHSS","1","odd","16069","10770","NA","NA","NA","1310","NA","NA","17097","1313","NA","NA","17197","17707","17095","17197","Flanker Task","5","2273","5","yes","1024"
"100","100","446.166666667","446.166666667","black","legacy","legacy","legacy","0","congruent","uniform","1","undefined","1","s","5","0","0","0","5","0","5","0","5","0","0","0","5","5","5","5","09/19/21 22:31:54","1500","The main experiment item","yes","FlankerTask.osexp","C:/Users/suici/Desktop/Tarleton/Fall 2021 - Graduate Studies/PSYC 5316-010 Advanced Quantitative Methods & Experiment Design/Lab 2 - the flanker task (an experiment on attention)","no","mono","no","18","no","white","no","yes","768","legacy","5","5","C:/Users/suici/Desktop/Tarleton/Fall 2021 - Graduate Studies/PSYC 5316-010 Advanced Quantitative Methods & Experiment Design/Lab 2 - the flanker task (an experiment on attention)/SM-subject-1.csv","legacy","Lentiform Loewenfeld","3.3.9","0","s","NA","s","NA","NA","s","404","NA","9457","NA","NA","404","2","legacy","1024","2","48000","-16","experiment","SSSSS","1","odd","17710","10770","NA","NA","NA","1310","NA","NA","18738","1313","NA","NA","18838","19243","18737","18838","Flanker Task","6","2677","6","yes","1024"
"100","100","445.857142857","445.857142857","black","legacy","legacy","legacy","0","incongruent","uniform","1","undefined","1","s","6","0","0","0","6","0","6","0","6","0","0","0","6","6","6","6","09/19/21 22:31:54","1500","The main experiment item","yes","FlankerTask.osexp","C:/Users/suici/Desktop/Tarleton/Fall 2021 - Graduate Studies/PSYC 5316-010 Advanced Quantitative Methods & Experiment Design/Lab 2 - the flanker task (an experiment on attention)","no","mono","no","18","no","white","no","yes","768","legacy","6","6","C:/Users/suici/Desktop/Tarleton/Fall 2021 - Graduate Studies/PSYC 5316-010 Advanced Quantitative Methods & Experiment Design/Lab 2 - the flanker task (an experiment on attention)/SM-subject-1.csv","legacy","Lentiform Loewenfeld","3.3.9","0","s","NA","s","NA","NA","s","444","NA","9457","NA","NA","444","2","legacy","1024","2","48000","-16","experiment","HHSHH","1","odd","19246","10770","NA","NA","NA","1310","NA","NA","20274","1313","NA","NA","20374","20819","20273","20374","Flanker Task","7","3121","7","yes","1024"
"100","100","444.75","444.75","black","legacy","legacy","legacy","0","incongruent","uniform","1","undefined","1","h","7","0","0","0","7","0","7","0","7","0","0","0","7","7","7","7","09/19/21 22:31:54","1500","The main experiment item","yes","FlankerTask.osexp","C:/Users/suici/Desktop/Tarleton/Fall 2021 - Graduate Studies/PSYC 5316-010 Advanced Quantitative Methods & Experiment Design/Lab 2 - the flanker task (an experiment on attention)","no","mono","no","18","no","white","no","yes","768","legacy","7","7","C:/Users/suici/Desktop/Tarleton/Fall 2021 - Graduate Studies/PSYC 5316-010 Advanced Quantitative Methods & Experiment Design/Lab 2 - the flanker task (an experiment on attention)/SM-subject-1.csv","legacy","Lentiform Loewenfeld","3.3.9","0","h","NA","s","NA","NA","h","437","NA","9457","NA","NA","437","2","legacy","1024","2","48000","-16","experiment","SSHSS","1","odd","20820","10770","NA","NA","NA","1310","NA","NA","21848","1313","NA","NA","21948","22386","21846","21948","Flanker Task","8","3558","8","yes","1024"
"100","100","444.888888889","444.888888889","black","legacy","legacy","legacy","0","incongruent","uniform","1","undefined","1","h","8","0","0","0","8","0","8","0","8","0","0","0","8","8","8","8","09/19/21 22:31:54","1500","The main experiment item","yes","FlankerTask.osexp","C:/Users/suici/Desktop/Tarleton/Fall 2021 - Graduate Studies/PSYC 5316-010 Advanced Quantitative Methods & Experiment Design/Lab 2 - the flanker task (an experiment on attention)","no","mono","no","18","no","white","no","yes","768","legacy","8","8","C:/Users/suici/Desktop/Tarleton/Fall 2021 - Graduate Studies/PSYC 5316-010 Advanced Quantitative Methods & Experiment Design/Lab 2 - the flanker task (an experiment on attention)/SM-subject-1.csv","legacy","Lentiform Loewenfeld","3.3.9","0","h","NA","s","NA","NA","h","446","NA","9457","NA","NA","446","2","legacy","1024","2","48000","-16","experiment","SSHSS","1","odd","22389","10770","NA","NA","NA","1310","NA","NA","23416","1313","NA","NA","23516","23962","23415","23516","Flanker Task","9","4004","9","yes","1024"
"100","100","434.4","434.4","black","legacy","legacy","legacy","0","incongruent","uniform","1","undefined","1","h","9","0","0","0","9","0","9","0","9","0","0","0","9","9","9","9","09/19/21 22:31:54","1500","The main experiment item","yes","FlankerTask.osexp","C:/Users/suici/Desktop/Tarleton/Fall 2021 - Graduate Studies/PSYC 5316-010 Advanced Quantitative Methods & Experiment Design/Lab 2 - the flanker task (an experiment on attention)","no","mono","no","18","no","white","no","yes","768","legacy","9","9","C:/Users/suici/Desktop/Tarleton/Fall 2021 - Graduate Studies/PSYC 5316-010 Advanced Quantitative Methods & Experiment Design/Lab 2 - the flanker task (an experiment on attention)/SM-subject-1.csv","legacy","Lentiform Loewenfeld","3.3.9","0","h","NA","s","NA","NA","h","340","NA","9457","NA","NA","340","2","legacy","1024","2","48000","-16","experiment","SSHSS","1","odd","23966","10770","NA","NA","NA","1310","NA","NA","24994","1313","NA","NA","25094","25434","24993","25094","Flanker Task","10","4344","10","yes","1024"
"100","100","426.545454545","426.545454545","black","legacy","legacy","legacy","0","incongruent","uniform","1","undefined","1","h","10","0","0","0","10","0","10","0","10","0","0","0","10","10","10","10","09/19/21 22:31:54","1500","The main experiment item","yes","FlankerTask.osexp","C:/Users/suici/Desktop/Tarleton/Fall 2021 - Graduate Studies/PSYC 5316-010 Advanced Quantitative Methods & Experiment Design/Lab 2 - the flanker task (an experiment on attention)","no","mono","no","18","no","white","no","yes","768","legacy","10","10","C:/Users/suici/Desktop/Tarleton/Fall 2021 - Graduate Studies/PSYC 5316-010 Advanced Quantitative Methods & Experiment Design/Lab 2 - the flanker task (an experiment on attention)/SM-subject-1.csv","legacy","Lentiform Loewenfeld","3.3.9","0","h","NA","s","NA","NA","h","348","NA","9457","NA","NA","348","2","legacy","1024","2","48000","-16","experiment","SSHSS","1","odd","25437","10770","NA","NA","NA","1310","NA","NA","26465","1313","NA","NA","26565","26913","26463","26565","Flanker Task","11","4692","11","yes","1024"
"100","100","426.666666667","426.666666667","black","legacy","legacy","legacy","0","congruent","uniform","1","undefined","1","s","11","0","0","0","11","0","11","0","11","0","0","0","11","11","11","11","09/19/21 22:31:54","1500","The main experiment item","yes","FlankerTask.osexp","C:/Users/suici/Desktop/Tarleton/Fall 2021 - Graduate Studies/PSYC 5316-010 Advanced Quantitative Methods & Experiment Design/Lab 2 - the flanker task (an experiment on attention)","no","mono","no","18","no","white","no","yes","768","legacy","11","11","C:/Users/suici/Desktop/Tarleton/Fall 2021 - Graduate Studies/PSYC 5316-010 Advanced Quantitative Methods & Experiment Design/Lab 2 - the flanker task (an experiment on attention)/SM-subject-1.csv","legacy","Lentiform Loewenfeld","3.3.9","0","s","NA","s","NA","NA","s","428","NA","9457","NA","NA","428","2","legacy","1024","2","48000","-16","experiment","SSSSS","1","odd","26917","10770","NA","NA","NA","1310","NA","NA","27945","1313","NA","NA","28045","28474","27943","28045","Flanker Task","12","5120","12","yes","1024"
"100","100","430.538461538","430.538461538","black","legacy","legacy","legacy","0","incongruent","uniform","1","undefined","1","s","12","0","0","0","12","0","12","0","12","0","0","0","12","12","12","12","09/19/21 22:31:54","1500","The main experiment item","yes","FlankerTask.osexp","C:/Users/suici/Desktop/Tarleton/Fall 2021 - Graduate Studies/PSYC 5316-010 Advanced Quantitative Methods & Experiment Design/Lab 2 - the flanker task (an experiment on attention)","no","mono","no","18","no","white","no","yes","768","legacy","12","12","C:/Users/suici/Desktop/Tarleton/Fall 2021 - Graduate Studies/PSYC 5316-010 Advanced Quantitative Methods & Experiment Design/Lab 2 - the flanker task (an experiment on attention)/SM-subject-1.csv","legacy","Lentiform Loewenfeld","3.3.9","0","s","NA","s","NA","NA","s","477","NA","9457","NA","NA","477","2","legacy","1024","2","48000","-16","experiment","HHSHH","1","odd","28477","10770","NA","NA","NA","1310","NA","NA","29505","1313","NA","NA","29605","30082","29504","29605","Flanker Task","13","5597","13","yes","1024"
"100","100","428.071428571","428.071428571","black","legacy","legacy","legacy","0","congruent","uniform","1","undefined","1","h","13","0","0","0","13","0","13","0","13","0","0","0","13","13","13","13","09/19/21 22:31:54","1500","The main experiment item","yes","FlankerTask.osexp","C:/Users/suici/Desktop/Tarleton/Fall 2021 - Graduate Studies/PSYC 5316-010 Advanced Quantitative Methods & Experiment Design/Lab 2 - the flanker task (an experiment on attention)","no","mono","no","18","no","white","no","yes","768","legacy","13","13","C:/Users/suici/Desktop/Tarleton/Fall 2021 - Graduate Studies/PSYC 5316-010 Advanced Quantitative Methods & Experiment Design/Lab 2 - the flanker task (an experiment on attention)/SM-subject-1.csv","legacy","Lentiform Loewenfeld","3.3.9","0","h","NA","s","NA","NA","h","396","NA","9457","NA","NA","396","2","legacy","1024","2","48000","-16","experiment","HHHHH","1","odd","30085","10770","NA","NA","NA","1310","NA","NA","31113","1313","NA","NA","31213","31609","31112","31213","Flanker Task","14","5993","14","yes","1024"
"100","100","420.6","420.6","black","legacy","legacy","legacy","0","congruent","uniform","1","undefined","1","s","14","0","0","0","14","0","14","0","14","0","0","0","14","14","14","14","09/19/21 22:31:54","1500","The main experiment item","yes","FlankerTask.osexp","C:/Users/suici/Desktop/Tarleton/Fall 2021 - Graduate Studies/PSYC 5316-010 Advanced Quantitative Methods & Experiment Design/Lab 2 - the flanker task (an experiment on attention)","no","mono","no","18","no","white","no","yes","768","legacy","14","14","C:/Users/suici/Desktop/Tarleton/Fall 2021 - Graduate Studies/PSYC 5316-010 Advanced Quantitative Methods & Experiment Design/Lab 2 - the flanker task (an experiment on attention)/SM-subject-1.csv","legacy","Lentiform Loewenfeld","3.3.9","0","s","NA","s","NA","NA","s","316","NA","9457","NA","NA","316","2","legacy","1024","2","48000","-16","experiment","SSSSS","1","odd","31613","10770","NA","NA","NA","1310","NA","NA","32641","1313","NA","NA","32741","33058","32640","32741","Flanker Task","15","6309","15","yes","1024"
"100","100","418.625","418.625","black","legacy","legacy","legacy","0","congruent","uniform","1","undefined","1","s","15","0","0","0","15","0","15","0","15","0","0","0","15","15","15","15","09/19/21 22:31:54","1500","The main experiment item","yes","FlankerTask.osexp","C:/Users/suici/Desktop/Tarleton/Fall 2021 - Graduate Studies/PSYC 5316-010 Advanced Quantitative Methods & Experiment Design/Lab 2 - the flanker task (an experiment on attention)","no","mono","no","18","no","white","no","yes","768","legacy","15","15","C:/Users/suici/Desktop/Tarleton/Fall 2021 - Graduate Studies/PSYC 5316-010 Advanced Quantitative Methods & Experiment Design/Lab 2 - the flanker task (an experiment on attention)/SM-subject-1.csv","legacy","Lentiform Loewenfeld","3.3.9","0","s","NA","s","NA","NA","s","389","NA","9457","NA","NA","389","2","legacy","1024","2","48000","-16","experiment","SSSSS","1","odd","33061","10770","NA","NA","NA","1310","NA","NA","34089","1313","NA","NA","34189","34578","34087","34189","Flanker Task","16","6698","16","yes","1024"
"100","100","415.941176471","415.941176471","black","legacy","legacy","legacy","0","congruent","uniform","1","undefined","1","s","16","0","0","0","16","0","16","0","16","0","0","0","16","16","16","16","09/19/21 22:31:54","1500","The main experiment item","yes","FlankerTask.osexp","C:/Users/suici/Desktop/Tarleton/Fall 2021 - Graduate Studies/PSYC 5316-010 Advanced Quantitative Methods & Experiment Design/Lab 2 - the flanker task (an experiment on attention)","no","mono","no","18","no","white","no","yes","768","legacy","16","16","C:/Users/suici/Desktop/Tarleton/Fall 2021 - Graduate Studies/PSYC 5316-010 Advanced Quantitative Methods & Experiment Design/Lab 2 - the flanker task (an experiment on attention)/SM-subject-1.csv","legacy","Lentiform Loewenfeld","3.3.9","0","s","NA","s","NA","NA","s","373","NA","9457","NA","NA","373","2","legacy","1024","2","48000","-16","experiment","SSSSS","1","odd","34581","10770","NA","NA","NA","1310","NA","NA","35609","1313","NA","NA","35709","36082","35607","35709","Flanker Task","17","7071","17","yes","1024"
"100","100","413.944444444","413.944444444","black","legacy","legacy","legacy","0","incongruent","uniform","1","undefined","1","s","17","0","0","0","17","0","17","0","17","0","0","0","17","17","17","17","09/19/21 22:31:54","1500","The main experiment item","yes","FlankerTask.osexp","C:/Users/suici/Desktop/Tarleton/Fall 2021 - Graduate Studies/PSYC 5316-010 Advanced Quantitative Methods & Experiment Design/Lab 2 - the flanker task (an experiment on attention)","no","mono","no","18","no","white","no","yes","768","legacy","17","17","C:/Users/suici/Desktop/Tarleton/Fall 2021 - Graduate Studies/PSYC 5316-010 Advanced Quantitative Methods & Experiment Design/Lab 2 - the flanker task (an experiment on attention)/SM-subject-1.csv","legacy","Lentiform Loewenfeld","3.3.9","0","s","NA","s","NA","NA","s","380","NA","9457","NA","NA","380","2","legacy","1024","2","48000","-16","experiment","HHSHH","1","odd","36086","10770","NA","NA","NA","1310","NA","NA","37114","1313","NA","NA","37214","37594","37113","37214","Flanker Task","18","7451","18","yes","1024"
"100","100","407.894736842","407.894736842","black","legacy","legacy","legacy","0","congruent","uniform","1","undefined","1","s","18","0","0","0","18","0","18","0","18","0","0","0","18","18","18","18","09/19/21 22:31:54","1500","The main experiment item","yes","FlankerTask.osexp","C:/Users/suici/Desktop/Tarleton/Fall 2021 - Graduate Studies/PSYC 5316-010 Advanced Quantitative Methods & Experiment Design/Lab 2 - the flanker task (an experiment on attention)","no","mono","no","18","no","white","no","yes","768","legacy","18","18","C:/Users/suici/Desktop/Tarleton/Fall 2021 - Graduate Studies/PSYC 5316-010 Advanced Quantitative Methods & Experiment Design/Lab 2 - the flanker task (an experiment on attention)/SM-subject-1.csv","legacy","Lentiform Loewenfeld","3.3.9","0","s","NA","s","NA","NA","s","299","NA","9457","NA","NA","299","2","legacy","1024","2","48000","-16","experiment","SSSSS","1","odd","37598","10770","NA","NA","NA","1310","NA","NA","38626","1313","NA","NA","38727","39026","38624","38726","Flanker Task","19","7750","19","yes","1024"
"100","100","407.65","407.65","black","legacy","legacy","legacy","0","congruent","uniform","1","undefined","1","h","19","0","0","0","19","0","19","0","19","0","0","0","19","19","19","19","09/19/21 22:31:54","1500","The main experiment item","yes","FlankerTask.osexp","C:/Users/suici/Desktop/Tarleton/Fall 2021 - Graduate Studies/PSYC 5316-010 Advanced Quantitative Methods & Experiment Design/Lab 2 - the flanker task (an experiment on attention)","no","mono","no","18","no","white","no","yes","768","legacy","19","19","C:/Users/suici/Desktop/Tarleton/Fall 2021 - Graduate Studies/PSYC 5316-010 Advanced Quantitative Methods & Experiment Design/Lab 2 - the flanker task (an experiment on attention)/SM-subject-1.csv","legacy","Lentiform Loewenfeld","3.3.9","0","h","NA","s","NA","NA","h","403","NA","9457","NA","NA","403","2","legacy","1024","2","48000","-16","experiment","HHHHH","1","odd","39030","10770","NA","NA","NA","1310","NA","NA","40058","1313","NA","NA","40158","40561","40056","40158","Flanker Task","20","8153","20","yes","1024"
"100","100","402.19047619","402.19047619","black","legacy","legacy","legacy","0","incongruent","uniform","1","undefined","1","s","20","0","0","0","20","0","20","0","20","0","0","0","20","20","20","20","09/19/21 22:31:54","1500","The main experiment item","yes","FlankerTask.osexp","C:/Users/suici/Desktop/Tarleton/Fall 2021 - Graduate Studies/PSYC 5316-010 Advanced Quantitative Methods & Experiment Design/Lab 2 - the flanker task (an experiment on attention)","no","mono","no","18","no","white","no","yes","768","legacy","20","20","C:/Users/suici/Desktop/Tarleton/Fall 2021 - Graduate Studies/PSYC 5316-010 Advanced Quantitative Methods & Experiment Design/Lab 2 - the flanker task (an experiment on attention)/SM-subject-1.csv","legacy","Lentiform Loewenfeld","3.3.9","0","s","NA","s","NA","NA","s","293","NA","9457","NA","NA","293","2","legacy","1024","2","48000","-16","experiment","HHSHH","1","odd","40565","10770","NA","NA","NA","1310","NA","NA","41593","1313","NA","NA","41693","41986","41591","41693","Flanker Task","21","8446","21","yes","1024"
"100","100","401.545454545","401.545454545","black","legacy","legacy","legacy","0","incongruent","uniform","1","undefined","1","s","21","0","0","0","21","0","21","0","21","0","0","0","21","21","21","21","09/19/21 22:31:54","1500","The main experiment item","yes","FlankerTask.osexp","C:/Users/suici/Desktop/Tarleton/Fall 2021 - Graduate Studies/PSYC 5316-010 Advanced Quantitative Methods & Experiment Design/Lab 2 - the flanker task (an experiment on attention)","no","mono","no","18","no","white","no","yes","768","legacy","21","21","C:/Users/suici/Desktop/Tarleton/Fall 2021 - Graduate Studies/PSYC 5316-010 Advanced Quantitative Methods & Experiment Design/Lab 2 - the flanker task (an experiment on attention)/SM-subject-1.csv","legacy","Lentiform Loewenfeld","3.3.9","0","s","NA","s","NA","NA","s","388","NA","9457","NA","NA","388","2","legacy","1024","2","48000","-16","experiment","HHSHH","1","odd","41989","10770","NA","NA","NA","1310","NA","NA","43018","1313","NA","NA","43118","43506","43017","43118","Flanker Task","22","8834","22","yes","1024"
"100","100","397.52173913","397.52173913","black","legacy","legacy","legacy","0","incongruent","uniform","1","undefined","1","s","22","0","0","0","22","0","22","0","22","0","0","0","22","22","22","22","09/19/21 22:31:54","1500","The main experiment item","yes","FlankerTask.osexp","C:/Users/suici/Desktop/Tarleton/Fall 2021 - Graduate Studies/PSYC 5316-010 Advanced Quantitative Methods & Experiment Design/Lab 2 - the flanker task (an experiment on attention)","no","mono","no","18","no","white","no","yes","768","legacy","22","22","C:/Users/suici/Desktop/Tarleton/Fall 2021 - Graduate Studies/PSYC 5316-010 Advanced Quantitative Methods & Experiment Design/Lab 2 - the flanker task (an experiment on attention)/SM-subject-1.csv","legacy","Lentiform Loewenfeld","3.3.9","0","s","NA","s","NA","NA","s","309","NA","9457","NA","NA","309","2","legacy","1024","2","48000","-16","experiment","HHSHH","1","odd","43510","10770","NA","NA","NA","1310","NA","NA","44537","1313","NA","NA","44637","44946","44536","44637","Flanker Task","23","9143","23","yes","1024"
"100","100","397.5","397.5","black","legacy","legacy","legacy","0","congruent","uniform","1","undefined","1","h","23","0","0","0","23","0","23","0","23","0","0","0","23","23","23","23","09/19/21 22:31:54","1500","The main experiment item","yes","FlankerTask.osexp","C:/Users/suici/Desktop/Tarleton/Fall 2021 - Graduate Studies/PSYC 5316-010 Advanced Quantitative Methods & Experiment Design/Lab 2 - the flanker task (an experiment on attention)","no","mono","no","18","no","white","no","yes","768","legacy","23","23","C:/Users/suici/Desktop/Tarleton/Fall 2021 - Graduate Studies/PSYC 5316-010 Advanced Quantitative Methods & Experiment Design/Lab 2 - the flanker task (an experiment on attention)/SM-subject-1.csv","legacy","Lentiform Loewenfeld","3.3.9","0","h","NA","s","NA","NA","h","397","NA","9457","NA","NA","397","2","legacy","1024","2","48000","-16","experiment","HHHHH","1","odd","44950","10770","NA","NA","NA","1310","NA","NA","45977","1313","NA","NA","46077","46474","45976","46077","Flanker Task","24","9540","24","yes","1024"
"100","100","395.84","395.84","black","legacy","legacy","legacy","0","congruent","uniform","1","undefined","1","s","24","0","0","0","24","0","24","0","24","0","0","0","24","24","24","24","09/19/21 22:31:54","1500","The main experiment item","yes","FlankerTask.osexp","C:/Users/suici/Desktop/Tarleton/Fall 2021 - Graduate Studies/PSYC 5316-010 Advanced Quantitative Methods & Experiment Design/Lab 2 - the flanker task (an experiment on attention)","no","mono","no","18","no","white","no","yes","768","legacy","24","24","C:/Users/suici/Desktop/Tarleton/Fall 2021 - Graduate Studies/PSYC 5316-010 Advanced Quantitative Methods & Experiment Design/Lab 2 - the flanker task (an experiment on attention)/SM-subject-1.csv","legacy","Lentiform Loewenfeld","3.3.9","0","s","NA","s","NA","NA","s","356","NA","9457","NA","NA","356","2","legacy","1024","2","48000","-16","experiment","SSSSS","1","odd","46478","10770","NA","NA","NA","1310","NA","NA","47506","1313","NA","NA","47606","47962","47504","47606","Flanker Task","25","9896","25","yes","1024"
"100","100","396.230769231","396.230769231","black","legacy","legacy","legacy","0","congruent","uniform","1","undefined","1","h","25","0","0","0","25","0","25","0","25","0","0","0","25","25","25","25","09/19/21 22:31:54","1500","The main experiment item","yes","FlankerTask.osexp","C:/Users/suici/Desktop/Tarleton/Fall 2021 - Graduate Studies/PSYC 5316-010 Advanced Quantitative Methods & Experiment Design/Lab 2 - the flanker task (an experiment on attention)","no","mono","no","18","no","white","no","yes","768","legacy","25","25","C:/Users/suici/Desktop/Tarleton/Fall 2021 - Graduate Studies/PSYC 5316-010 Advanced Quantitative Methods & Experiment Design/Lab 2 - the flanker task (an experiment on attention)/SM-subject-1.csv","legacy","Lentiform Loewenfeld","3.3.9","0","h","NA","s","NA","NA","h","406","NA","9457","NA","NA","406","2","legacy","1024","2","48000","-16","experiment","HHHHH","1","odd","47965","10770","NA","NA","NA","1310","NA","NA","48992","1313","NA","NA","49092","49498","48991","49092","Flanker Task","26","10302","26","yes","1024"
"100","100","393.037037037","393.037037037","black","legacy","legacy","legacy","0","congruent","uniform","1","undefined","1","h","26","0","0","0","26","0","26","0","26","0","0","0","26","26","26","26","09/19/21 22:31:54","1500","The main experiment item","yes","FlankerTask.osexp","C:/Users/suici/Desktop/Tarleton/Fall 2021 - Graduate Studies/PSYC 5316-010 Advanced Quantitative Methods & Experiment Design/Lab 2 - the flanker task (an experiment on attention)","no","mono","no","18","no","white","no","yes","768","legacy","26","26","C:/Users/suici/Desktop/Tarleton/Fall 2021 - Graduate Studies/PSYC 5316-010 Advanced Quantitative Methods & Experiment Design/Lab 2 - the flanker task (an experiment on attention)/SM-subject-1.csv","legacy","Lentiform Loewenfeld","3.3.9","0","h","NA","s","NA","NA","h","310","NA","9457","NA","NA","310","2","legacy","1024","2","48000","-16","experiment","HHHHH","1","odd","49501","10770","NA","NA","NA","1310","NA","NA","50528","1313","NA","NA","50628","50938","50527","50628","Flanker Task","27","10612","27","yes","1024"
"100","100","390.392857143","390.392857143","black","legacy","legacy","legacy","0","congruent","uniform","1","undefined","1","s","27","0","0","0","27","0","27","0","27","0","0","0","27","27","27","27","09/19/21 22:31:54","1500","The main experiment item","yes","FlankerTask.osexp","C:/Users/suici/Desktop/Tarleton/Fall 2021 - Graduate Studies/PSYC 5316-010 Advanced Quantitative Methods & Experiment Design/Lab 2 - the flanker task (an experiment on attention)","no","mono","no","18","no","white","no","yes","768","legacy","27","27","C:/Users/suici/Desktop/Tarleton/Fall 2021 - Graduate Studies/PSYC 5316-010 Advanced Quantitative Methods & Experiment Design/Lab 2 - the flanker task (an experiment on attention)/SM-subject-1.csv","legacy","Lentiform Loewenfeld","3.3.9","0","s","NA","s","NA","NA","s","319","NA","9457","NA","NA","319","2","legacy","1024","2","48000","-16","experiment","SSSSS","1","odd","50940","10770","NA","NA","NA","1310","NA","NA","51967","1313","NA","NA","52067","52386","51966","52067","Flanker Task","28","10931","28","yes","1024"
"100","100","394.75862069","394.75862069","black","legacy","legacy","legacy","0","incongruent","uniform","1","undefined","1","h","28","0","0","0","28","0","28","0","28","0","0","0","28","28","28","28","09/19/21 22:31:54","1500","The main experiment item","yes","FlankerTask.osexp","C:/Users/suici/Desktop/Tarleton/Fall 2021 - Graduate Studies/PSYC 5316-010 Advanced Quantitative Methods & Experiment Design/Lab 2 - the flanker task (an experiment on attention)","no","mono","no","18","no","white","no","yes","768","legacy","28","28","C:/Users/suici/Desktop/Tarleton/Fall 2021 - Graduate Studies/PSYC 5316-010 Advanced Quantitative Methods & Experiment Design/Lab 2 - the flanker task (an experiment on attention)/SM-subject-1.csv","legacy","Lentiform Loewenfeld","3.3.9","0","h","NA","s","NA","NA","h","517","NA","9457","NA","NA","517","2","legacy","1024","2","48000","-16","experiment","SSHSS","1","odd","52390","10770","NA","NA","NA","1310","NA","NA","53417","1313","NA","NA","53517","54034","53416","53517","Flanker Task","29","11448","29","yes","1024"
"100","100","394.5","394.5","black","legacy","legacy","legacy","0","congruent","uniform","1","undefined","1","h","29","0","0","0","29","0","29","0","29","0","0","0","29","29","29","29","09/19/21 22:31:54","1500","The main experiment item","yes","FlankerTask.osexp","C:/Users/suici/Desktop/Tarleton/Fall 2021 - Graduate Studies/PSYC 5316-010 Advanced Quantitative Methods & Experiment Design/Lab 2 - the flanker task (an experiment on attention)","no","mono","no","18","no","white","no","yes","768","legacy","29","29","C:/Users/suici/Desktop/Tarleton/Fall 2021 - Graduate Studies/PSYC 5316-010 Advanced Quantitative Methods & Experiment Design/Lab 2 - the flanker task (an experiment on attention)/SM-subject-1.csv","legacy","Lentiform Loewenfeld","3.3.9","0","h","NA","s","NA","NA","h","387","NA","9457","NA","NA","387","2","legacy","1024","2","48000","-16","experiment","HHHHH","1","odd","54038","10770","NA","NA","NA","1310","NA","NA","55066","1313","NA","NA","55166","55554","55064","55166","Flanker Task","30","11835","30","yes","1024"
"100","100","392.548387097","392.548387097","black","legacy","legacy","legacy","0","congruent","uniform","1","undefined","1","s","30","0","0","0","30","0","30","0","30","0","0","0","30","30","30","30","09/19/21 22:31:54","1500","The main experiment item","yes","FlankerTask.osexp","C:/Users/suici/Desktop/Tarleton/Fall 2021 - Graduate Studies/PSYC 5316-010 Advanced Quantitative Methods & Experiment Design/Lab 2 - the flanker task (an experiment on attention)","no","mono","no","18","no","white","no","yes","768","legacy","30","30","C:/Users/suici/Desktop/Tarleton/Fall 2021 - Graduate Studies/PSYC 5316-010 Advanced Quantitative Methods & Experiment Design/Lab 2 - the flanker task (an experiment on attention)/SM-subject-1.csv","legacy","Lentiform Loewenfeld","3.3.9","0","s","NA","s","NA","NA","s","334","NA","9457","NA","NA","334","2","legacy","1024","2","48000","-16","experiment","SSSSS","1","odd","55557","10770","NA","NA","NA","1310","NA","NA","56584","1313","NA","NA","56684","57018","56583","56684","Flanker Task","31","12169","31","yes","1024"
"100","100","391.4375","391.4375","black","legacy","legacy","legacy","0","congruent","uniform","1","undefined","1","s","31","0","0","0","31","0","31","0","31","0","0","0","31","31","31","31","09/19/21 22:31:54","1500","The main experiment item","yes","FlankerTask.osexp","C:/Users/suici/Desktop/Tarleton/Fall 2021 - Graduate Studies/PSYC 5316-010 Advanced Quantitative Methods & Experiment Design/Lab 2 - the flanker task (an experiment on attention)","no","mono","no","18","no","white","no","yes","768","legacy","31","31","C:/Users/suici/Desktop/Tarleton/Fall 2021 - Graduate Studies/PSYC 5316-010 Advanced Quantitative Methods & Experiment Design/Lab 2 - the flanker task (an experiment on attention)/SM-subject-1.csv","legacy","Lentiform Loewenfeld","3.3.9","0","s","NA","s","NA","NA","s","357","NA","9457","NA","NA","357","2","legacy","1024","2","48000","-16","experiment","SSSSS","1","odd","57021","10770","NA","NA","NA","1310","NA","NA","58049","1313","NA","NA","58149","58507","58047","58149","Flanker Task","32","12526","32","yes","1024"
"100","100","399.090909091","399.090909091","black","legacy","legacy","legacy","0","incongruent","uniform","1","undefined","1","s","32","0","0","0","32","0","32","0","32","0","0","0","32","32","32","32","09/19/21 22:31:54","1500","The main experiment item","yes","FlankerTask.osexp","C:/Users/suici/Desktop/Tarleton/Fall 2021 - Graduate Studies/PSYC 5316-010 Advanced Quantitative Methods & Experiment Design/Lab 2 - the flanker task (an experiment on attention)","no","mono","no","18","no","white","no","yes","768","legacy","32","32","C:/Users/suici/Desktop/Tarleton/Fall 2021 - Graduate Studies/PSYC 5316-010 Advanced Quantitative Methods & Experiment Design/Lab 2 - the flanker task (an experiment on attention)/SM-subject-1.csv","legacy","Lentiform Loewenfeld","3.3.9","0","s","NA","s","NA","NA","s","644","NA","9457","NA","NA","644","2","legacy","1024","2","48000","-16","experiment","HHSHH","1","odd","58510","10770","NA","NA","NA","1310","NA","NA","59538","1313","NA","NA","59638","60282","59537","59638","Flanker Task","33","13170","33","yes","1024"
"100","100","398.588235294","398.588235294","black","legacy","legacy","legacy","0","congruent","uniform","1","undefined","1","h","33","0","0","0","33","0","33","0","33","0","0","0","33","33","33","33","09/19/21 22:31:54","1500","The main experiment item","yes","FlankerTask.osexp","C:/Users/suici/Desktop/Tarleton/Fall 2021 - Graduate Studies/PSYC 5316-010 Advanced Quantitative Methods & Experiment Design/Lab 2 - the flanker task (an experiment on attention)","no","mono","no","18","no","white","no","yes","768","legacy","33","33","C:/Users/suici/Desktop/Tarleton/Fall 2021 - Graduate Studies/PSYC 5316-010 Advanced Quantitative Methods & Experiment Design/Lab 2 - the flanker task (an experiment on attention)/SM-subject-1.csv","legacy","Lentiform Loewenfeld","3.3.9","0","h","NA","s","NA","NA","h","382","NA","9457","NA","NA","382","2","legacy","1024","2","48000","-16","experiment","HHHHH","1","odd","60284","10770","NA","NA","NA","1310","NA","NA","61311","1313","NA","NA","61411","61793","61310","61411","Flanker Task","34","13552","34","yes","1024"
"100","100","397.914285714","397.914285714","black","legacy","legacy","legacy","0","congruent","uniform","1","undefined","1","h","34","0","0","0","34","0","34","0","34","0","0","0","34","34","34","34","09/19/21 22:31:54","1500","The main experiment item","yes","FlankerTask.osexp","C:/Users/suici/Desktop/Tarleton/Fall 2021 - Graduate Studies/PSYC 5316-010 Advanced Quantitative Methods & Experiment Design/Lab 2 - the flanker task (an experiment on attention)","no","mono","no","18","no","white","no","yes","768","legacy","34","34","C:/Users/suici/Desktop/Tarleton/Fall 2021 - Graduate Studies/PSYC 5316-010 Advanced Quantitative Methods & Experiment Design/Lab 2 - the flanker task (an experiment on attention)/SM-subject-1.csv","legacy","Lentiform Loewenfeld","3.3.9","0","h","NA","s","NA","NA","h","375","NA","9457","NA","NA","375","2","legacy","1024","2","48000","-16","experiment","HHHHH","1","odd","61795","10770","NA","NA","NA","1310","NA","NA","62823","1313","NA","NA","62923","63298","62822","62923","Flanker Task","35","13927","35","yes","1024"
"100","100","397.25","397.25","black","legacy","legacy","legacy","0","congruent","uniform","1","undefined","1","s","35","0","0","0","35","0","35","0","35","0","0","0","35","35","35","35","09/19/21 22:31:54","1500","The main experiment item","yes","FlankerTask.osexp","C:/Users/suici/Desktop/Tarleton/Fall 2021 - Graduate Studies/PSYC 5316-010 Advanced Quantitative Methods & Experiment Design/Lab 2 - the flanker task (an experiment on attention)","no","mono","no","18","no","white","no","yes","768","legacy","35","35","C:/Users/suici/Desktop/Tarleton/Fall 2021 - Graduate Studies/PSYC 5316-010 Advanced Quantitative Methods & Experiment Design/Lab 2 - the flanker task (an experiment on attention)/SM-subject-1.csv","legacy","Lentiform Loewenfeld","3.3.9","0","s","NA","s","NA","NA","s","374","NA","9457","NA","NA","374","2","legacy","1024","2","48000","-16","experiment","SSSSS","1","odd","63301","10770","NA","NA","NA","1310","NA","NA","64328","1313","NA","NA","64428","64802","64327","64428","Flanker Task","36","14301","36","yes","1024"
"100","100","394.837837838","394.837837838","black","legacy","legacy","legacy","0","congruent","uniform","1","undefined","1","s","36","0","0","0","36","0","36","0","36","0","0","0","36","36","36","36","09/19/21 22:31:54","1500","The main experiment item","yes","FlankerTask.osexp","C:/Users/suici/Desktop/Tarleton/Fall 2021 - Graduate Studies/PSYC 5316-010 Advanced Quantitative Methods & Experiment Design/Lab 2 - the flanker task (an experiment on attention)","no","mono","no","18","no","white","no","yes","768","legacy","36","36","C:/Users/suici/Desktop/Tarleton/Fall 2021 - Graduate Studies/PSYC 5316-010 Advanced Quantitative Methods & Experiment Design/Lab 2 - the flanker task (an experiment on attention)/SM-subject-1.csv","legacy","Lentiform Loewenfeld","3.3.9","0","s","NA","s","NA","NA","s","308","NA","9457","NA","NA","308","2","legacy","1024","2","48000","-16","experiment","SSSSS","1","odd","64806","10770","NA","NA","NA","1310","NA","NA","65834","1313","NA","NA","65934","66242","65832","65934","Flanker Task","37","14609","37","yes","1024"
"100","100","395.105263158","395.105263158","black","legacy","legacy","legacy","0","congruent","uniform","1","undefined","1","h","37","0","0","0","37","0","37","0","37","0","0","0","37","37","37","37","09/19/21 22:31:54","1500","The main experiment item","yes","FlankerTask.osexp","C:/Users/suici/Desktop/Tarleton/Fall 2021 - Graduate Studies/PSYC 5316-010 Advanced Quantitative Methods & Experiment Design/Lab 2 - the flanker task (an experiment on attention)","no","mono","no","18","no","white","no","yes","768","legacy","37","37","C:/Users/suici/Desktop/Tarleton/Fall 2021 - Graduate Studies/PSYC 5316-010 Advanced Quantitative Methods & Experiment Design/Lab 2 - the flanker task (an experiment on attention)/SM-subject-1.csv","legacy","Lentiform Loewenfeld","3.3.9","0","h","NA","s","NA","NA","h","405","NA","9457","NA","NA","405","2","legacy","1024","2","48000","-16","experiment","HHHHH","1","odd","66246","10770","NA","NA","NA","1310","NA","NA","67273","1313","NA","NA","67373","67778","67272","67373","Flanker Task","38","15014","38","yes","1024"
"100","100","395.153846154","395.153846154","black","legacy","legacy","legacy","0","congruent","uniform","1","undefined","1","h","38","0","0","0","38","0","38","0","38","0","0","0","38","38","38","38","09/19/21 22:31:54","1500","The main experiment item","yes","FlankerTask.osexp","C:/Users/suici/Desktop/Tarleton/Fall 2021 - Graduate Studies/PSYC 5316-010 Advanced Quantitative Methods & Experiment Design/Lab 2 - the flanker task (an experiment on attention)","no","mono","no","18","no","white","no","yes","768","legacy","38","38","C:/Users/suici/Desktop/Tarleton/Fall 2021 - Graduate Studies/PSYC 5316-010 Advanced Quantitative Methods & Experiment Design/Lab 2 - the flanker task (an experiment on attention)/SM-subject-1.csv","legacy","Lentiform Loewenfeld","3.3.9","0","h","NA","s","NA","NA","h","397","NA","9457","NA","NA","397","2","legacy","1024","2","48000","-16","experiment","HHHHH","1","odd","67782","10770","NA","NA","NA","1310","NA","NA","68809","1313","NA","NA","68909","69306","68808","68909","Flanker Task","39","15411","39","yes","1024"
"100","100","392.6","392.6","black","legacy","legacy","legacy","0","incongruent","uniform","1","undefined","1","s","39","0","0","0","39","0","39","0","39","0","0","0","39","39","39","39","09/19/21 22:31:54","1500","The main experiment item","yes","FlankerTask.osexp","C:/Users/suici/Desktop/Tarleton/Fall 2021 - Graduate Studies/PSYC 5316-010 Advanced Quantitative Methods & Experiment Design/Lab 2 - the flanker task (an experiment on attention)","no","mono","no","18","no","white","no","yes","768","legacy","39","39","C:/Users/suici/Desktop/Tarleton/Fall 2021 - Graduate Studies/PSYC 5316-010 Advanced Quantitative Methods & Experiment Design/Lab 2 - the flanker task (an experiment on attention)/SM-subject-1.csv","legacy","Lentiform Loewenfeld","3.3.9","0","s","NA","s","NA","NA","s","293","NA","9457","NA","NA","293","2","legacy","1024","2","48000","-16","experiment","HHSHH","1","odd","69308","10770","NA","NA","NA","1310","NA","NA","70336","1313","NA","NA","70436","70730","70334","70436","Flanker Task","40","15704","40","yes","1024"
"100","100","391.341463415","391.341463415","black","legacy","legacy","legacy","0","incongruent","uniform","1","undefined","1","s","40","0","0","0","40","0","40","0","40","0","0","0","40","40","40","40","09/19/21 22:31:54","1500","The main experiment item","yes","FlankerTask.osexp","C:/Users/suici/Desktop/Tarleton/Fall 2021 - Graduate Studies/PSYC 5316-010 Advanced Quantitative Methods & Experiment Design/Lab 2 - the flanker task (an experiment on attention)","no","mono","no","18","no","white","no","yes","768","legacy","40","40","C:/Users/suici/Desktop/Tarleton/Fall 2021 - Graduate Studies/PSYC 5316-010 Advanced Quantitative Methods & Experiment Design/Lab 2 - the flanker task (an experiment on attention)/SM-subject-1.csv","legacy","Lentiform Loewenfeld","3.3.9","0","s","NA","s","NA","NA","s","341","NA","9457","NA","NA","341","2","legacy","1024","2","48000","-16","experiment","HHSHH","1","odd","70733","10770","NA","NA","NA","1310","NA","NA","71761","1313","NA","NA","71861","72202","71759","71861","Flanker Task","41","16045","41","yes","1024"
"100","100","392.428571429","392.428571429","black","legacy","legacy","legacy","0","incongruent","uniform","1","undefined","1","h","41","0","0","0","41","0","41","0","41","0","0","0","41","41","41","41","09/19/21 22:31:54","1500","The main experiment item","yes","FlankerTask.osexp","C:/Users/suici/Desktop/Tarleton/Fall 2021 - Graduate Studies/PSYC 5316-010 Advanced Quantitative Methods & Experiment Design/Lab 2 - the flanker task (an experiment on attention)","no","mono","no","18","no","white","no","yes","768","legacy","41","41","C:/Users/suici/Desktop/Tarleton/Fall 2021 - Graduate Studies/PSYC 5316-010 Advanced Quantitative Methods & Experiment Design/Lab 2 - the flanker task (an experiment on attention)/SM-subject-1.csv","legacy","Lentiform Loewenfeld","3.3.9","0","h","NA","s","NA","NA","h","437","NA","9457","NA","NA","437","2","legacy","1024","2","48000","-16","experiment","SSHSS","1","odd","72206","10770","NA","NA","NA","1310","NA","NA","73233","1313","NA","NA","73333","73770","73232","73333","Flanker Task","42","16482","42","yes","1024"
"100","100","391.023255814","391.023255814","black","legacy","legacy","legacy","0","congruent","uniform","1","undefined","1","s","42","0","0","0","42","0","42","0","42","0","0","0","42","42","42","42","09/19/21 22:31:54","1500","The main experiment item","yes","FlankerTask.osexp","C:/Users/suici/Desktop/Tarleton/Fall 2021 - Graduate Studies/PSYC 5316-010 Advanced Quantitative Methods & Experiment Design/Lab 2 - the flanker task (an experiment on attention)","no","mono","no","18","no","white","no","yes","768","legacy","42","42","C:/Users/suici/Desktop/Tarleton/Fall 2021 - Graduate Studies/PSYC 5316-010 Advanced Quantitative Methods & Experiment Design/Lab 2 - the flanker task (an experiment on attention)/SM-subject-1.csv","legacy","Lentiform Loewenfeld","3.3.9","0","s","NA","s","NA","NA","s","332","NA","9457","NA","NA","332","2","legacy","1024","2","48000","-16","experiment","SSSSS","1","odd","73773","10770","NA","NA","NA","1310","NA","NA","74802","1313","NA","NA","74902","75234","74801","74902","Flanker Task","43","16814","43","yes","1024"
"100","100","389.818181818","389.818181818","black","legacy","legacy","legacy","0","incongruent","uniform","1","undefined","1","s","43","0","0","0","43","0","43","0","43","0","0","0","43","43","43","43","09/19/21 22:31:54","1500","The main experiment item","yes","FlankerTask.osexp","C:/Users/suici/Desktop/Tarleton/Fall 2021 - Graduate Studies/PSYC 5316-010 Advanced Quantitative Methods & Experiment Design/Lab 2 - the flanker task (an experiment on attention)","no","mono","no","18","no","white","no","yes","768","legacy","43","43","C:/Users/suici/Desktop/Tarleton/Fall 2021 - Graduate Studies/PSYC 5316-010 Advanced Quantitative Methods & Experiment Design/Lab 2 - the flanker task (an experiment on attention)/SM-subject-1.csv","legacy","Lentiform Loewenfeld","3.3.9","0","s","NA","s","NA","NA","s","338","NA","9457","NA","NA","338","2","legacy","1024","2","48000","-16","experiment","HHSHH","1","odd","75238","10770","NA","NA","NA","1310","NA","NA","76267","1313","NA","NA","76367","76706","76266","76367","Flanker Task","44","17152","44","yes","1024"
"100","100","389.111111111","389.111111111","black","legacy","legacy","legacy","0","incongruent","uniform","1","undefined","1","s","44","0","0","0","44","0","44","0","44","0","0","0","44","44","44","44","09/19/21 22:31:54","1500","The main experiment item","yes","FlankerTask.osexp","C:/Users/suici/Desktop/Tarleton/Fall 2021 - Graduate Studies/PSYC 5316-010 Advanced Quantitative Methods & Experiment Design/Lab 2 - the flanker task (an experiment on attention)","no","mono","no","18","no","white","no","yes","768","legacy","44","44","C:/Users/suici/Desktop/Tarleton/Fall 2021 - Graduate Studies/PSYC 5316-010 Advanced Quantitative Methods & Experiment Design/Lab 2 - the flanker task (an experiment on attention)/SM-subject-1.csv","legacy","Lentiform Loewenfeld","3.3.9","0","s","NA","s","NA","NA","s","358","NA","9457","NA","NA","358","2","legacy","1024","2","48000","-16","experiment","HHSHH","1","odd","76708","10770","NA","NA","NA","1310","NA","NA","77736","1313","NA","NA","77836","78194","77734","77836","Flanker Task","45","17510","45","yes","1024"
"100","100","388.760869565","388.760869565","black","legacy","legacy","legacy","0","incongruent","uniform","1","undefined","1","s","45","0","0","0","45","0","45","0","45","0","0","0","45","45","45","45","09/19/21 22:31:54","1500","The main experiment item","yes","FlankerTask.osexp","C:/Users/suici/Desktop/Tarleton/Fall 2021 - Graduate Studies/PSYC 5316-010 Advanced Quantitative Methods & Experiment Design/Lab 2 - the flanker task (an experiment on attention)","no","mono","no","18","no","white","no","yes","768","legacy","45","45","C:/Users/suici/Desktop/Tarleton/Fall 2021 - Graduate Studies/PSYC 5316-010 Advanced Quantitative Methods & Experiment Design/Lab 2 - the flanker task (an experiment on attention)/SM-subject-1.csv","legacy","Lentiform Loewenfeld","3.3.9","0","s","NA","s","NA","NA","s","373","NA","9457","NA","NA","373","2","legacy","1024","2","48000","-16","experiment","HHSHH","1","odd","78196","10770","NA","NA","NA","1310","NA","NA","79225","1313","NA","NA","79325","79698","79224","79325","Flanker Task","46","17883","46","yes","1024"
"100","100","388.063829787","388.063829787","black","legacy","legacy","legacy","0","incongruent","uniform","1","undefined","1","s","46","0","0","0","46","0","46","0","46","0","0","0","46","46","46","46","09/19/21 22:31:54","1500","The main experiment item","yes","FlankerTask.osexp","C:/Users/suici/Desktop/Tarleton/Fall 2021 - Graduate Studies/PSYC 5316-010 Advanced Quantitative Methods & Experiment Design/Lab 2 - the flanker task (an experiment on attention)","no","mono","no","18","no","white","no","yes","768","legacy","46","46","C:/Users/suici/Desktop/Tarleton/Fall 2021 - Graduate Studies/PSYC 5316-010 Advanced Quantitative Methods & Experiment Design/Lab 2 - the flanker task (an experiment on attention)/SM-subject-1.csv","legacy","Lentiform Loewenfeld","3.3.9","0","s","NA","s","NA","NA","s","356","NA","9457","NA","NA","356","2","legacy","1024","2","48000","-16","experiment","HHSHH","1","odd","79702","10770","NA","NA","NA","1310","NA","NA","80730","1313","NA","NA","80830","81186","80728","80830","Flanker Task","47","18239","47","yes","1024"
"97.9166666667","97.9166666667","385.395833333","385.395833333","black","legacy","legacy","legacy","0","incongruent","uniform","0","undefined","0","h","47","0","0","0","47","0","47","0","47","0","0","0","47","47","47","47","09/19/21 22:31:54","1500","The main experiment item","yes","FlankerTask.osexp","C:/Users/suici/Desktop/Tarleton/Fall 2021 - Graduate Studies/PSYC 5316-010 Advanced Quantitative Methods & Experiment Design/Lab 2 - the flanker task (an experiment on attention)","no","mono","no","18","no","white","no","yes","768","legacy","47","47","C:/Users/suici/Desktop/Tarleton/Fall 2021 - Graduate Studies/PSYC 5316-010 Advanced Quantitative Methods & Experiment Design/Lab 2 - the flanker task (an experiment on attention)/SM-subject-1.csv","legacy","Lentiform Loewenfeld","3.3.9","0","s","NA","s","NA","NA","s","260","NA","9457","NA","NA","260","2","legacy","1024","2","48000","-16","experiment","SSHSS","1","odd","81190","10770","NA","NA","NA","1310","NA","NA","82218","1313","NA","NA","82318","82579","82217","82318","Flanker Task","47","18499","48","yes","1024"
"97.9591836735","97.9591836735","384.387755102","384.387755102","black","legacy","legacy","legacy","0","congruent","uniform","1","undefined","1","h","48","0","0","0","48","0","48","0","48","0","0","0","48","48","48","48","09/19/21 22:31:54","1500","The main experiment item","yes","FlankerTask.osexp","C:/Users/suici/Desktop/Tarleton/Fall 2021 - Graduate Studies/PSYC 5316-010 Advanced Quantitative Methods & Experiment Design/Lab 2 - the flanker task (an experiment on attention)","no","mono","no","18","no","white","no","yes","768","legacy","48","48","C:/Users/suici/Desktop/Tarleton/Fall 2021 - Graduate Studies/PSYC 5316-010 Advanced Quantitative Methods & Experiment Design/Lab 2 - the flanker task (an experiment on attention)/SM-subject-1.csv","legacy","Lentiform Loewenfeld","3.3.9","0","h","NA","s","NA","NA","h","336","NA","9457","NA","NA","336","2","legacy","1024","2","48000","-16","experiment","HHHHH","1","odd","83082","10770","NA","NA","82582","1310","NA","NA","84110","1313","NA","NA","84210","84547","84109","84210","Flanker Task","48","18835","49","yes","1024"
"98","98","385.9","385.9","black","legacy","legacy","legacy","0","incongruent","uniform","1","undefined","1","s","49","0","0","0","49","0","49","0","49","0","0","0","49","49","49","49","09/19/21 22:31:54","1500","The main experiment item","yes","FlankerTask.osexp","C:/Users/suici/Desktop/Tarleton/Fall 2021 - Graduate Studies/PSYC 5316-010 Advanced Quantitative Methods & Experiment Design/Lab 2 - the flanker task (an experiment on attention)","no","mono","no","18","no","white","no","yes","768","legacy","49","49","C:/Users/suici/Desktop/Tarleton/Fall 2021 - Graduate Studies/PSYC 5316-010 Advanced Quantitative Methods & Experiment Design/Lab 2 - the flanker task (an experiment on attention)/SM-subject-1.csv","legacy","Lentiform Loewenfeld","3.3.9","0","s","NA","s","NA","NA","s","460","NA","9457","NA","NA","460","2","legacy","1024","2","48000","-16","experiment","HHSHH","1","odd","84550","10770","NA","NA","82582","1310","NA","NA","85578","1313","NA","NA","85678","86138","85576","85678","Flanker Task","49","19295","50","yes","1024"
"98.0392156863","98.0392156863","386.137254902","386.137254902","black","legacy","legacy","legacy","0","incongruent","uniform","1","undefined","1","s","50","0","0","0","50","0","50","0","50","0","0","0","50","50","50","50","09/19/21 22:31:54","1500","The main experiment item","yes","FlankerTask.osexp","C:/Users/suici/Desktop/Tarleton/Fall 2021 - Graduate Studies/PSYC 5316-010 Advanced Quantitative Methods & Experiment Design/Lab 2 - the flanker task (an experiment on attention)","no","mono","no","18","no","white","no","yes","768","legacy","50","50","C:/Users/suici/Desktop/Tarleton/Fall 2021 - Graduate Studies/PSYC 5316-010 Advanced Quantitative Methods & Experiment Design/Lab 2 - the flanker task (an experiment on attention)/SM-subject-1.csv","legacy","Lentiform Loewenfeld","3.3.9","0","s","NA","s","NA","NA","s","398","NA","9457","NA","NA","398","2","legacy","1024","2","48000","-16","experiment","HHSHH","1","odd","86140","10770","NA","NA","82582","1310","NA","NA","87168","1313","NA","NA","87268","87666","87167","87268","Flanker Task","50","19693","51","yes","1024"
"98.0769230769","98.0769230769","387.576923077","387.576923077","black","legacy","legacy","legacy","0","incongruent","uniform","1","undefined","1","h","51","0","0","0","51","0","51","0","51","0","0","0","51","51","51","51","09/19/21 22:31:54","1500","The main experiment item","yes","FlankerTask.osexp","C:/Users/suici/Desktop/Tarleton/Fall 2021 - Graduate Studies/PSYC 5316-010 Advanced Quantitative Methods & Experiment Design/Lab 2 - the flanker task (an experiment on attention)","no","mono","no","18","no","white","no","yes","768","legacy","51","51","C:/Users/suici/Desktop/Tarleton/Fall 2021 - Graduate Studies/PSYC 5316-010 Advanced Quantitative Methods & Experiment Design/Lab 2 - the flanker task (an experiment on attention)/SM-subject-1.csv","legacy","Lentiform Loewenfeld","3.3.9","0","h","NA","s","NA","NA","h","461","NA","9457","NA","NA","461","2","legacy","1024","2","48000","-16","experiment","SSHSS","1","odd","87668","10770","NA","NA","82582","1310","NA","NA","88696","1313","NA","NA","88796","89258","88695","88796","Flanker Task","51","20154","52","yes","1024"
"98.1132075472","98.1132075472","388.962264151","388.962264151","black","legacy","legacy","legacy","0","incongruent","uniform","1","undefined","1","h","52","0","0","0","52","0","52","0","52","0","0","0","52","52","52","52","09/19/21 22:31:54","1500","The main experiment item","yes","FlankerTask.osexp","C:/Users/suici/Desktop/Tarleton/Fall 2021 - Graduate Studies/PSYC 5316-010 Advanced Quantitative Methods & Experiment Design/Lab 2 - the flanker task (an experiment on attention)","no","mono","no","18","no","white","no","yes","768","legacy","52","52","C:/Users/suici/Desktop/Tarleton/Fall 2021 - Graduate Studies/PSYC 5316-010 Advanced Quantitative Methods & Experiment Design/Lab 2 - the flanker task (an experiment on attention)/SM-subject-1.csv","legacy","Lentiform Loewenfeld","3.3.9","0","h","NA","s","NA","NA","h","461","NA","9457","NA","NA","461","2","legacy","1024","2","48000","-16","experiment","SSHSS","1","odd","89261","10770","NA","NA","82582","1310","NA","NA","90289","1313","NA","NA","90389","90850","90287","90389","Flanker Task","52","20615","53","yes","1024"
"98.1481481481","98.1481481481","389.388888889","389.388888889","black","legacy","legacy","legacy","0","congruent","uniform","1","undefined","1","s","53","0","0","0","53","0","53","0","53","0","0","0","53","53","53","53","09/19/21 22:31:54","1500","The main experiment item","yes","FlankerTask.osexp","C:/Users/suici/Desktop/Tarleton/Fall 2021 - Graduate Studies/PSYC 5316-010 Advanced Quantitative Methods & Experiment Design/Lab 2 - the flanker task (an experiment on attention)","no","mono","no","18","no","white","no","yes","768","legacy","53","53","C:/Users/suici/Desktop/Tarleton/Fall 2021 - Graduate Studies/PSYC 5316-010 Advanced Quantitative Methods & Experiment Design/Lab 2 - the flanker task (an experiment on attention)/SM-subject-1.csv","legacy","Lentiform Loewenfeld","3.3.9","0","s","NA","s","NA","NA","s","412","NA","9457","NA","NA","412","2","legacy","1024","2","48000","-16","experiment","SSSSS","1","odd","90854","10770","NA","NA","82582","1310","NA","NA","91882","1313","NA","NA","91982","92394","91880","91982","Flanker Task","53","21027","54","yes","1024"
"98.1818181818","98.1818181818","388.472727273","388.472727273","black","legacy","legacy","legacy","0","congruent","uniform","1","undefined","1","s","54","0","0","0","54","0","54","0","54","0","0","0","54","54","54","54","09/19/21 22:31:54","1500","The main experiment item","yes","FlankerTask.osexp","C:/Users/suici/Desktop/Tarleton/Fall 2021 - Graduate Studies/PSYC 5316-010 Advanced Quantitative Methods & Experiment Design/Lab 2 - the flanker task (an experiment on attention)","no","mono","no","18","no","white","no","yes","768","legacy","54","54","C:/Users/suici/Desktop/Tarleton/Fall 2021 - Graduate Studies/PSYC 5316-010 Advanced Quantitative Methods & Experiment Design/Lab 2 - the flanker task (an experiment on attention)/SM-subject-1.csv","legacy","Lentiform Loewenfeld","3.3.9","0","s","NA","s","NA","NA","s","339","NA","9457","NA","NA","339","2","legacy","1024","2","48000","-16","experiment","SSSSS","1","odd","92398","10770","NA","NA","82582","1310","NA","NA","93426","1313","NA","NA","93526","93866","93425","93526","Flanker Task","54","21366","55","yes","1024"
"98.2142857143","98.2142857143","389.464285714","389.464285714","black","legacy","legacy","legacy","0","incongruent","uniform","1","undefined","1","h","55","0","0","0","55","0","55","0","55","0","0","0","55","55","55","55","09/19/21 22:31:54","1500","The main experiment item","yes","FlankerTask.osexp","C:/Users/suici/Desktop/Tarleton/Fall 2021 - Graduate Studies/PSYC 5316-010 Advanced Quantitative Methods & Experiment Design/Lab 2 - the flanker task (an experiment on attention)","no","mono","no","18","no","white","no","yes","768","legacy","55","55","C:/Users/suici/Desktop/Tarleton/Fall 2021 - Graduate Studies/PSYC 5316-010 Advanced Quantitative Methods & Experiment Design/Lab 2 - the flanker task (an experiment on attention)/SM-subject-1.csv","legacy","Lentiform Loewenfeld","3.3.9","0","h","NA","s","NA","NA","h","444","NA","9457","NA","NA","444","2","legacy","1024","2","48000","-16","experiment","SSHSS","1","odd","93869","10770","NA","NA","82582","1310","NA","NA","94897","1313","NA","NA","94997","95442","94896","94997","Flanker Task","55","21810","56","yes","1024"
"98.2456140351","98.2456140351","388.877192982","388.877192982","black","legacy","legacy","legacy","0","incongruent","uniform","1","undefined","1","s","56","0","0","0","56","0","56","0","56","0","0","0","56","56","56","56","09/19/21 22:31:54","1500","The main experiment item","yes","FlankerTask.osexp","C:/Users/suici/Desktop/Tarleton/Fall 2021 - Graduate Studies/PSYC 5316-010 Advanced Quantitative Methods & Experiment Design/Lab 2 - the flanker task (an experiment on attention)","no","mono","no","18","no","white","no","yes","768","legacy","56","56","C:/Users/suici/Desktop/Tarleton/Fall 2021 - Graduate Studies/PSYC 5316-010 Advanced Quantitative Methods & Experiment Design/Lab 2 - the flanker task (an experiment on attention)/SM-subject-1.csv","legacy","Lentiform Loewenfeld","3.3.9","0","s","NA","s","NA","NA","s","356","NA","9457","NA","NA","356","2","legacy","1024","2","48000","-16","experiment","HHSHH","1","odd","95445","10770","NA","NA","82582","1310","NA","NA","96474","1313","NA","NA","96574","96930","96473","96574","Flanker Task","56","22166","57","yes","1024"
"98.275862069","98.275862069","389.017241379","389.017241379","black","legacy","legacy","legacy","0","congruent","uniform","1","undefined","1","h","57","0","0","0","57","0","57","0","57","0","0","0","57","57","57","57","09/19/21 22:31:54","1500","The main experiment item","yes","FlankerTask.osexp","C:/Users/suici/Desktop/Tarleton/Fall 2021 - Graduate Studies/PSYC 5316-010 Advanced Quantitative Methods & Experiment Design/Lab 2 - the flanker task (an experiment on attention)","no","mono","no","18","no","white","no","yes","768","legacy","57","57","C:/Users/suici/Desktop/Tarleton/Fall 2021 - Graduate Studies/PSYC 5316-010 Advanced Quantitative Methods & Experiment Design/Lab 2 - the flanker task (an experiment on attention)/SM-subject-1.csv","legacy","Lentiform Loewenfeld","3.3.9","0","h","NA","s","NA","NA","h","397","NA","9457","NA","NA","397","2","legacy","1024","2","48000","-16","experiment","HHHHH","1","odd","96933","10770","NA","NA","82582","1310","NA","NA","97960","1313","NA","NA","98060","98458","97959","98060","Flanker Task","57","22563","58","yes","1024"
"98.3050847458","98.3050847458","389.288135593","389.288135593","black","legacy","legacy","legacy","0","congruent","uniform","1","undefined","1","h","58","0","0","0","58","0","58","0","58","0","0","0","58","58","58","58","09/19/21 22:31:54","1500","The main experiment item","yes","FlankerTask.osexp","C:/Users/suici/Desktop/Tarleton/Fall 2021 - Graduate Studies/PSYC 5316-010 Advanced Quantitative Methods & Experiment Design/Lab 2 - the flanker task (an experiment on attention)","no","mono","no","18","no","white","no","yes","768","legacy","58","58","C:/Users/suici/Desktop/Tarleton/Fall 2021 - Graduate Studies/PSYC 5316-010 Advanced Quantitative Methods & Experiment Design/Lab 2 - the flanker task (an experiment on attention)/SM-subject-1.csv","legacy","Lentiform Loewenfeld","3.3.9","0","h","NA","s","NA","NA","h","405","NA","9457","NA","NA","405","2","legacy","1024","2","48000","-16","experiment","HHHHH","1","odd","98461","10770","NA","NA","82582","1310","NA","NA","99489","1313","NA","NA","99589","99994","99488","99589","Flanker Task","58","22968","59","yes","1024"
"98.3333333333","98.3333333333","389.116666667","389.116666667","black","legacy","legacy","legacy","0","incongruent","uniform","1","undefined","1","h","59","0","0","0","59","0","59","0","59","0","0","0","59","59","59","59","09/19/21 22:31:54","1500","The main experiment item","yes","FlankerTask.osexp","C:/Users/suici/Desktop/Tarleton/Fall 2021 - Graduate Studies/PSYC 5316-010 Advanced Quantitative Methods & Experiment Design/Lab 2 - the flanker task (an experiment on attention)","no","mono","no","18","no","white","no","yes","768","legacy","59","59","C:/Users/suici/Desktop/Tarleton/Fall 2021 - Graduate Studies/PSYC 5316-010 Advanced Quantitative Methods & Experiment Design/Lab 2 - the flanker task (an experiment on attention)/SM-subject-1.csv","legacy","Lentiform Loewenfeld","3.3.9","0","h","NA","s","NA","NA","h","379","NA","9457","NA","NA","379","2","legacy","1024","2","48000","-16","experiment","SSHSS","1","odd","99998","10770","NA","NA","82582","1310","NA","NA","101027","1313","NA","NA","101127","101507","101026","101127","Flanker Task","59","23347","60","yes","1024"
"98.3606557377","98.3606557377","391.573770492","391.573770492","black","legacy","legacy","legacy","0","incongruent","uniform","1","undefined","1","s","60","0","0","0","60","0","60","0","60","0","0","0","60","60","60","60","09/19/21 22:31:54","1500","The main experiment item","yes","FlankerTask.osexp","C:/Users/suici/Desktop/Tarleton/Fall 2021 - Graduate Studies/PSYC 5316-010 Advanced Quantitative Methods & Experiment Design/Lab 2 - the flanker task (an experiment on attention)","no","mono","no","18","no","white","no","yes","768","legacy","60","60","C:/Users/suici/Desktop/Tarleton/Fall 2021 - Graduate Studies/PSYC 5316-010 Advanced Quantitative Methods & Experiment Design/Lab 2 - the flanker task (an experiment on attention)/SM-subject-1.csv","legacy","Lentiform Loewenfeld","3.3.9","0","s","NA","s","NA","NA","s","539","NA","9457","NA","NA","539","2","legacy","1024","2","48000","-16","experiment","HHSHH","1","odd","101511","10770","NA","NA","82582","1310","NA","NA","102539","1313","NA","NA","102639","103179","102538","102639","Flanker Task","60","23886","61","yes","1024"
"98.3870967742","98.3870967742","392.306451613","392.306451613","black","legacy","legacy","legacy","0","incongruent","uniform","1","undefined","1","h","61","0","0","0","61","0","61","0","61","0","0","0","61","61","61","61","09/19/21 22:31:54","1500","The main experiment item","yes","FlankerTask.osexp","C:/Users/suici/Desktop/Tarleton/Fall 2021 - Graduate Studies/PSYC 5316-010 Advanced Quantitative Methods & Experiment Design/Lab 2 - the flanker task (an experiment on attention)","no","mono","no","18","no","white","no","yes","768","legacy","61","61","C:/Users/suici/Desktop/Tarleton/Fall 2021 - Graduate Studies/PSYC 5316-010 Advanced Quantitative Methods & Experiment Design/Lab 2 - the flanker task (an experiment on attention)/SM-subject-1.csv","legacy","Lentiform Loewenfeld","3.3.9","0","h","NA","s","NA","NA","h","437","NA","9457","NA","NA","437","2","legacy","1024","2","48000","-16","experiment","SSHSS","1","odd","103182","10770","NA","NA","82582","1310","NA","NA","104209","1313","NA","NA","104309","104746","104208","104309","Flanker Task","61","24323","62","yes","1024"
"98.4126984127","98.4126984127","393","393","black","legacy","legacy","legacy","0","congruent","uniform","1","undefined","1","h","62","0","0","0","62","0","62","0","62","0","0","0","62","62","62","62","09/19/21 22:31:54","1500","The main experiment item","yes","FlankerTask.osexp","C:/Users/suici/Desktop/Tarleton/Fall 2021 - Graduate Studies/PSYC 5316-010 Advanced Quantitative Methods & Experiment Design/Lab 2 - the flanker task (an experiment on attention)","no","mono","no","18","no","white","no","yes","768","legacy","62","62","C:/Users/suici/Desktop/Tarleton/Fall 2021 - Graduate Studies/PSYC 5316-010 Advanced Quantitative Methods & Experiment Design/Lab 2 - the flanker task (an experiment on attention)/SM-subject-1.csv","legacy","Lentiform Loewenfeld","3.3.9","0","h","NA","s","NA","NA","h","436","NA","9457","NA","NA","436","2","legacy","1024","2","48000","-16","experiment","HHHHH","1","odd","104750","10770","NA","NA","82582","1310","NA","NA","105778","1313","NA","NA","105878","106315","105777","105878","Flanker Task","62","24759","63","yes","1024"
"98.4375","98.4375","392.796875","392.796875","black","legacy","legacy","legacy","0","congruent","uniform","1","undefined","1","h","63","0","0","0","63","0","63","0","63","0","0","0","63","63","63","63","09/19/21 22:31:54","1500","The main experiment item","yes","FlankerTask.osexp","C:/Users/suici/Desktop/Tarleton/Fall 2021 - Graduate Studies/PSYC 5316-010 Advanced Quantitative Methods & Experiment Design/Lab 2 - the flanker task (an experiment on attention)","no","mono","no","18","no","white","no","yes","768","legacy","63","63","C:/Users/suici/Desktop/Tarleton/Fall 2021 - Graduate Studies/PSYC 5316-010 Advanced Quantitative Methods & Experiment Design/Lab 2 - the flanker task (an experiment on attention)/SM-subject-1.csv","legacy","Lentiform Loewenfeld","3.3.9","0","h","NA","s","NA","NA","h","380","NA","9457","NA","NA","380","2","legacy","1024","2","48000","-16","experiment","HHHHH","1","odd","106318","10770","NA","NA","82582","1310","NA","NA","107345","1313","NA","NA","107445","107826","107344","107445","Flanker Task","63","25139","64","yes","1024"
"98.4615384615","98.4615384615","394.215384615","394.215384615","black","legacy","legacy","legacy","0","incongruent","uniform","1","undefined","1","s","64","0","0","0","64","0","64","0","64","0","0","0","64","64","64","64","09/19/21 22:31:54","1500","The main experiment item","yes","FlankerTask.osexp","C:/Users/suici/Desktop/Tarleton/Fall 2021 - Graduate Studies/PSYC 5316-010 Advanced Quantitative Methods & Experiment Design/Lab 2 - the flanker task (an experiment on attention)","no","mono","no","18","no","white","no","yes","768","legacy","64","64","C:/Users/suici/Desktop/Tarleton/Fall 2021 - Graduate Studies/PSYC 5316-010 Advanced Quantitative Methods & Experiment Design/Lab 2 - the flanker task (an experiment on attention)/SM-subject-1.csv","legacy","Lentiform Loewenfeld","3.3.9","0","s","NA","s","NA","NA","s","485","NA","9457","NA","NA","485","2","legacy","1024","2","48000","-16","experiment","HHSHH","1","odd","107829","10770","NA","NA","82582","1310","NA","NA","108857","1313","NA","NA","108957","109442","108856","108957","Flanker Task","64","25624","65","yes","1024"
"98.4848484848","98.4848484848","394","394","black","legacy","legacy","legacy","0","congruent","uniform","1","undefined","1","s","65","0","0","0","65","0","65","0","65","0","0","0","65","65","65","65","09/19/21 22:31:54","1500","The main experiment item","yes","FlankerTask.osexp","C:/Users/suici/Desktop/Tarleton/Fall 2021 - Graduate Studies/PSYC 5316-010 Advanced Quantitative Methods & Experiment Design/Lab 2 - the flanker task (an experiment on attention)","no","mono","no","18","no","white","no","yes","768","legacy","65","65","C:/Users/suici/Desktop/Tarleton/Fall 2021 - Graduate Studies/PSYC 5316-010 Advanced Quantitative Methods & Experiment Design/Lab 2 - the flanker task (an experiment on attention)/SM-subject-1.csv","legacy","Lentiform Loewenfeld","3.3.9","0","s","NA","s","NA","NA","s","380","NA","9457","NA","NA","380","2","legacy","1024","2","48000","-16","experiment","SSSSS","1","odd","109446","10770","NA","NA","82582","1310","NA","NA","110473","1313","NA","NA","110573","110954","110472","110573","Flanker Task","65","26004","66","yes","1024"
"98.5074626866","98.5074626866","394.52238806","394.52238806","black","legacy","legacy","legacy","0","incongruent","uniform","1","undefined","1","h","66","0","0","0","66","0","66","0","66","0","0","0","66","66","66","66","09/19/21 22:31:54","1500","The main experiment item","yes","FlankerTask.osexp","C:/Users/suici/Desktop/Tarleton/Fall 2021 - Graduate Studies/PSYC 5316-010 Advanced Quantitative Methods & Experiment Design/Lab 2 - the flanker task (an experiment on attention)","no","mono","no","18","no","white","no","yes","768","legacy","66","66","C:/Users/suici/Desktop/Tarleton/Fall 2021 - Graduate Studies/PSYC 5316-010 Advanced Quantitative Methods & Experiment Design/Lab 2 - the flanker task (an experiment on attention)/SM-subject-1.csv","legacy","Lentiform Loewenfeld","3.3.9","0","h","NA","s","NA","NA","h","429","NA","9457","NA","NA","429","2","legacy","1024","2","48000","-16","experiment","SSHSS","1","odd","110957","10770","NA","NA","82582","1310","NA","NA","111984","1313","NA","NA","112085","112514","111983","112085","Flanker Task","66","26433","67","yes","1024"
"98.5294117647","98.5294117647","394.558823529","394.558823529","black","legacy","legacy","legacy","0","incongruent","uniform","1","undefined","1","s","67","0","0","0","67","0","67","0","67","0","0","0","67","67","67","67","09/19/21 22:31:54","1500","The main experiment item","yes","FlankerTask.osexp","C:/Users/suici/Desktop/Tarleton/Fall 2021 - Graduate Studies/PSYC 5316-010 Advanced Quantitative Methods & Experiment Design/Lab 2 - the flanker task (an experiment on attention)","no","mono","no","18","no","white","no","yes","768","legacy","67","67","C:/Users/suici/Desktop/Tarleton/Fall 2021 - Graduate Studies/PSYC 5316-010 Advanced Quantitative Methods & Experiment Design/Lab 2 - the flanker task (an experiment on attention)/SM-subject-1.csv","legacy","Lentiform Loewenfeld","3.3.9","0","s","NA","s","NA","NA","s","397","NA","9457","NA","NA","397","2","legacy","1024","2","48000","-16","experiment","HHSHH","1","odd","112518","10770","NA","NA","82582","1310","NA","NA","113545","1313","NA","NA","113645","114042","113544","113645","Flanker Task","67","26830","68","yes","1024"
"98.5507246377","98.5507246377","393.898550725","393.898550725","black","legacy","legacy","legacy","0","congruent","uniform","1","undefined","1","s","68","0","0","0","68","0","68","0","68","0","0","0","68","68","68","68","09/19/21 22:31:54","1500","The main experiment item","yes","FlankerTask.osexp","C:/Users/suici/Desktop/Tarleton/Fall 2021 - Graduate Studies/PSYC 5316-010 Advanced Quantitative Methods & Experiment Design/Lab 2 - the flanker task (an experiment on attention)","no","mono","no","18","no","white","no","yes","768","legacy","68","68","C:/Users/suici/Desktop/Tarleton/Fall 2021 - Graduate Studies/PSYC 5316-010 Advanced Quantitative Methods & Experiment Design/Lab 2 - the flanker task (an experiment on attention)/SM-subject-1.csv","legacy","Lentiform Loewenfeld","3.3.9","0","s","NA","s","NA","NA","s","349","NA","9457","NA","NA","349","2","legacy","1024","2","48000","-16","experiment","SSSSS","1","odd","114046","10770","NA","NA","82582","1310","NA","NA","115080","1313","NA","NA","115180","115530","115079","115180","Flanker Task","68","27179","69","yes","1024"
"98.5714285714","98.5714285714","393.614285714","393.614285714","black","legacy","legacy","legacy","0","congruent","uniform","1","undefined","1","s","69","0","0","0","69","0","69","0","69","0","0","0","69","69","69","69","09/19/21 22:31:54","1500","The main experiment item","yes","FlankerTask.osexp","C:/Users/suici/Desktop/Tarleton/Fall 2021 - Graduate Studies/PSYC 5316-010 Advanced Quantitative Methods & Experiment Design/Lab 2 - the flanker task (an experiment on attention)","no","mono","no","18","no","white","no","yes","768","legacy","69","69","C:/Users/suici/Desktop/Tarleton/Fall 2021 - Graduate Studies/PSYC 5316-010 Advanced Quantitative Methods & Experiment Design/Lab 2 - the flanker task (an experiment on attention)/SM-subject-1.csv","legacy","Lentiform Loewenfeld","3.3.9","0","s","NA","s","NA","NA","s","374","NA","9457","NA","NA","374","2","legacy","1024","2","48000","-16","experiment","SSSSS","1","odd","115533","10770","NA","NA","82582","1310","NA","NA","116560","1313","NA","NA","116660","117034","116559","116660","Flanker Task","69","27553","70","yes","1024"
"98.5915492958","98.5915492958","394.464788732","394.464788732","black","legacy","legacy","legacy","0","incongruent","uniform","1","undefined","1","h","70","0","0","0","70","0","70","0","70","0","0","0","70","70","70","70","09/19/21 22:31:54","1500","The main experiment item","yes","FlankerTask.osexp","C:/Users/suici/Desktop/Tarleton/Fall 2021 - Graduate Studies/PSYC 5316-010 Advanced Quantitative Methods & Experiment Design/Lab 2 - the flanker task (an experiment on attention)","no","mono","no","18","no","white","no","yes","768","legacy","70","70","C:/Users/suici/Desktop/Tarleton/Fall 2021 - Graduate Studies/PSYC 5316-010 Advanced Quantitative Methods & Experiment Design/Lab 2 - the flanker task (an experiment on attention)/SM-subject-1.csv","legacy","Lentiform Loewenfeld","3.3.9","0","h","NA","s","NA","NA","h","454","NA","9457","NA","NA","454","2","legacy","1024","2","48000","-16","experiment","SSHSS","1","odd","117038","10770","NA","NA","82582","1310","NA","NA","118065","1313","NA","NA","118165","118619","118064","118165","Flanker Task","70","28007","71","yes","1024"
"98.6111111111","98.6111111111","393.263888889","393.263888889","black","legacy","legacy","legacy","0","congruent","uniform","1","undefined","1","s","71","0","0","0","71","0","71","0","71","0","0","0","71","71","71","71","09/19/21 22:31:54","1500","The main experiment item","yes","FlankerTask.osexp","C:/Users/suici/Desktop/Tarleton/Fall 2021 - Graduate Studies/PSYC 5316-010 Advanced Quantitative Methods & Experiment Design/Lab 2 - the flanker task (an experiment on attention)","no","mono","no","18","no","white","no","yes","768","legacy","71","71","C:/Users/suici/Desktop/Tarleton/Fall 2021 - Graduate Studies/PSYC 5316-010 Advanced Quantitative Methods & Experiment Design/Lab 2 - the flanker task (an experiment on attention)/SM-subject-1.csv","legacy","Lentiform Loewenfeld","3.3.9","0","s","NA","s","NA","NA","s","308","NA","9457","NA","NA","308","2","legacy","1024","2","48000","-16","experiment","SSSSS","1","odd","118623","10770","NA","NA","82582","1310","NA","NA","119650","1313","NA","NA","119750","120058","119649","119750","Flanker Task","71","28315","72","yes","1024"
"98.6301369863","98.6301369863","393.410958904","393.410958904","black","legacy","legacy","legacy","0","congruent","uniform","1","undefined","1","h","72","0","0","0","72","0","72","0","72","0","0","0","72","72","72","72","09/19/21 22:31:54","1500","The main experiment item","yes","FlankerTask.osexp","C:/Users/suici/Desktop/Tarleton/Fall 2021 - Graduate Studies/PSYC 5316-010 Advanced Quantitative Methods & Experiment Design/Lab 2 - the flanker task (an experiment on attention)","no","mono","no","18","no","white","no","yes","768","legacy","72","72","C:/Users/suici/Desktop/Tarleton/Fall 2021 - Graduate Studies/PSYC 5316-010 Advanced Quantitative Methods & Experiment Design/Lab 2 - the flanker task (an experiment on attention)/SM-subject-1.csv","legacy","Lentiform Loewenfeld","3.3.9","0","h","NA","s","NA","NA","h","404","NA","9457","NA","NA","404","2","legacy","1024","2","48000","-16","experiment","HHHHH","1","odd","120062","10770","NA","NA","82582","1310","NA","NA","121089","1313","NA","NA","121189","121594","121088","121189","Flanker Task","72","28719","73","yes","1024"
"98.6486486486","98.6486486486","394.243243243","394.243243243","black","legacy","legacy","legacy","0","incongruent","uniform","1","undefined","1","h","73","0","0","0","73","0","73","0","73","0","0","0","73","73","73","73","09/19/21 22:31:54","1500","The main experiment item","yes","FlankerTask.osexp","C:/Users/suici/Desktop/Tarleton/Fall 2021 - Graduate Studies/PSYC 5316-010 Advanced Quantitative Methods & Experiment Design/Lab 2 - the flanker task (an experiment on attention)","no","mono","no","18","no","white","no","yes","768","legacy","73","73","C:/Users/suici/Desktop/Tarleton/Fall 2021 - Graduate Studies/PSYC 5316-010 Advanced Quantitative Methods & Experiment Design/Lab 2 - the flanker task (an experiment on attention)/SM-subject-1.csv","legacy","Lentiform Loewenfeld","3.3.9","0","h","NA","s","NA","NA","h","455","NA","9457","NA","NA","455","2","legacy","1024","2","48000","-16","experiment","SSHSS","1","odd","121595","10770","NA","NA","82582","1310","NA","NA","122623","1313","NA","NA","122723","123179","122622","122723","Flanker Task","73","29174","74","yes","1024"
"98.6666666667","98.6666666667","394.92","394.92","black","legacy","legacy","legacy","0","incongruent","uniform","1","undefined","1","h","74","0","0","0","74","0","74","0","74","0","0","0","74","74","74","74","09/19/21 22:31:54","1500","The main experiment item","yes","FlankerTask.osexp","C:/Users/suici/Desktop/Tarleton/Fall 2021 - Graduate Studies/PSYC 5316-010 Advanced Quantitative Methods & Experiment Design/Lab 2 - the flanker task (an experiment on attention)","no","mono","no","18","no","white","no","yes","768","legacy","74","74","C:/Users/suici/Desktop/Tarleton/Fall 2021 - Graduate Studies/PSYC 5316-010 Advanced Quantitative Methods & Experiment Design/Lab 2 - the flanker task (an experiment on attention)/SM-subject-1.csv","legacy","Lentiform Loewenfeld","3.3.9","0","h","NA","s","NA","NA","h","445","NA","9457","NA","NA","445","2","legacy","1024","2","48000","-16","experiment","SSHSS","1","odd","123182","10770","NA","NA","82582","1310","NA","NA","124209","1313","NA","NA","124309","124754","124208","124309","Flanker Task","74","29619","75","yes","1024"
"98.6842105263","98.6842105263","394.381578947","394.381578947","black","legacy","legacy","legacy","0","incongruent","uniform","1","undefined","1","h","75","0","0","0","75","0","75","0","75","0","0","0","75","75","75","75","09/19/21 22:31:54","1500","The main experiment item","yes","FlankerTask.osexp","C:/Users/suici/Desktop/Tarleton/Fall 2021 - Graduate Studies/PSYC 5316-010 Advanced Quantitative Methods & Experiment Design/Lab 2 - the flanker task (an experiment on attention)","no","mono","no","18","no","white","no","yes","768","legacy","75","75","C:/Users/suici/Desktop/Tarleton/Fall 2021 - Graduate Studies/PSYC 5316-010 Advanced Quantitative Methods & Experiment Design/Lab 2 - the flanker task (an experiment on attention)/SM-subject-1.csv","legacy","Lentiform Loewenfeld","3.3.9","0","h","NA","s","NA","NA","h","354","NA","9457","NA","NA","354","2","legacy","1024","2","48000","-16","experiment","SSHSS","1","odd","124758","10770","NA","NA","82582","1310","NA","NA","125788","1313","NA","NA","125888","126242","125787","125888","Flanker Task","75","29973","76","yes","1024"
"98.7012987013","98.7012987013","393.805194805","393.805194805","black","legacy","legacy","legacy","0","congruent","uniform","1","undefined","1","h","76","0","0","0","76","0","76","0","76","0","0","0","76","76","76","76","09/19/21 22:31:54","1500","The main experiment item","yes","FlankerTask.osexp","C:/Users/suici/Desktop/Tarleton/Fall 2021 - Graduate Studies/PSYC 5316-010 Advanced Quantitative Methods & Experiment Design/Lab 2 - the flanker task (an experiment on attention)","no","mono","no","18","no","white","no","yes","768","legacy","76","76","C:/Users/suici/Desktop/Tarleton/Fall 2021 - Graduate Studies/PSYC 5316-010 Advanced Quantitative Methods & Experiment Design/Lab 2 - the flanker task (an experiment on attention)/SM-subject-1.csv","legacy","Lentiform Loewenfeld","3.3.9","0","h","NA","s","NA","NA","h","350","NA","9457","NA","NA","350","2","legacy","1024","2","48000","-16","experiment","HHHHH","1","odd","126244","10770","NA","NA","82582","1310","NA","NA","127272","1313","NA","NA","127372","127722","127271","127372","Flanker Task","76","30323","77","yes","1024"
"98.7179487179","98.7179487179","394.564102564","394.564102564","black","legacy","legacy","legacy","0","incongruent","uniform","1","undefined","1","h","77","0","0","0","77","0","77","0","77","0","0","0","77","77","77","77","09/19/21 22:31:54","1500","The main experiment item","yes","FlankerTask.osexp","C:/Users/suici/Desktop/Tarleton/Fall 2021 - Graduate Studies/PSYC 5316-010 Advanced Quantitative Methods & Experiment Design/Lab 2 - the flanker task (an experiment on attention)","no","mono","no","18","no","white","no","yes","768","legacy","77","77","C:/Users/suici/Desktop/Tarleton/Fall 2021 - Graduate Studies/PSYC 5316-010 Advanced Quantitative Methods & Experiment Design/Lab 2 - the flanker task (an experiment on attention)/SM-subject-1.csv","legacy","Lentiform Loewenfeld","3.3.9","0","h","NA","s","NA","NA","h","453","NA","9457","NA","NA","453","2","legacy","1024","2","48000","-16","experiment","SSHSS","1","odd","127726","10770","NA","NA","82582","1310","NA","NA","128753","1313","NA","NA","128853","129306","128752","128853","Flanker Task","77","30776","78","yes","1024"
"98.7341772152","98.7341772152","395.278481013","395.278481013","black","legacy","legacy","legacy","0","incongruent","uniform","1","undefined","1","s","78","0","0","0","78","0","78","0","78","0","0","0","78","78","78","78","09/19/21 22:31:54","1500","The main experiment item","yes","FlankerTask.osexp","C:/Users/suici/Desktop/Tarleton/Fall 2021 - Graduate Studies/PSYC 5316-010 Advanced Quantitative Methods & Experiment Design/Lab 2 - the flanker task (an experiment on attention)","no","mono","no","18","no","white","no","yes","768","legacy","78","78","C:/Users/suici/Desktop/Tarleton/Fall 2021 - Graduate Studies/PSYC 5316-010 Advanced Quantitative Methods & Experiment Design/Lab 2 - the flanker task (an experiment on attention)/SM-subject-1.csv","legacy","Lentiform Loewenfeld","3.3.9","0","s","NA","s","NA","NA","s","451","NA","9457","NA","NA","451","2","legacy","1024","2","48000","-16","experiment","HHSHH","1","odd","129310","10770","NA","NA","82582","1310","NA","NA","130338","1313","NA","NA","130438","130890","130337","130438","Flanker Task","78","31227","79","yes","1024"
"98.75","98.75","396.1","396.1","black","legacy","legacy","legacy","0","incongruent","uniform","1","undefined","1","h","79","0","0","0","79","0","79","0","79","0","0","0","79","79","79","79","09/19/21 22:31:54","1500","The main experiment item","yes","FlankerTask.osexp","C:/Users/suici/Desktop/Tarleton/Fall 2021 - Graduate Studies/PSYC 5316-010 Advanced Quantitative Methods & Experiment Design/Lab 2 - the flanker task (an experiment on attention)","no","mono","no","18","no","white","no","yes","768","legacy","79","79","C:/Users/suici/Desktop/Tarleton/Fall 2021 - Graduate Studies/PSYC 5316-010 Advanced Quantitative Methods & Experiment Design/Lab 2 - the flanker task (an experiment on attention)/SM-subject-1.csv","legacy","Lentiform Loewenfeld","3.3.9","0","h","NA","s","NA","NA","h","461","NA","9457","NA","NA","461","2","legacy","1024","2","48000","-16","experiment","SSHSS","1","odd","130893","10770","NA","NA","82582","1310","NA","NA","131921","1313","NA","NA","132021","132482","131919","132021","Flanker Task","79","31688","80","yes","1024"
"98.7654320988","98.7654320988","398.728395062","398.728395062","black","legacy","legacy","legacy","0","incongruent","uniform","1","undefined","1","s","80","0","0","0","80","0","80","0","80","0","0","0","80","80","80","80","09/19/21 22:31:54","600","The main experiment item","yes","FlankerTask.osexp","C:/Users/suici/Desktop/Tarleton/Fall 2021 - Graduate Studies/PSYC 5316-010 Advanced Quantitative Methods & Experiment Design/Lab 2 - the flanker task (an experiment on attention)","no","mono","no","18","no","white","no","yes","768","legacy","0","79","C:/Users/suici/Desktop/Tarleton/Fall 2021 - Graduate Studies/PSYC 5316-010 Advanced Quantitative Methods & Experiment Design/Lab 2 - the flanker task (an experiment on attention)/SM-subject-1.csv","legacy","Lentiform Loewenfeld","3.3.9","0","s","NA","s","h","NA","s","609","NA","9457","7398","NA","609","2","legacy","1024","2","48000","-16","experiment","HHSHH","1","odd","132486","10770","140890","NA","82582","1310","NA","NA","140916","1313","133492","NA","141016","141626","140915","141016","Flanker Task","80","32297","81","yes","1024"
"98.7804878049","98.7804878049","398.756097561","398.756097561","black","legacy","legacy","legacy","0","incongruent","uniform","1","undefined","1","h","81","0","0","0","81","0","81","0","81","0","0","0","81","81","81","81","09/19/21 22:31:54","600","The main experiment item","yes","FlankerTask.osexp","C:/Users/suici/Desktop/Tarleton/Fall 2021 - Graduate Studies/PSYC 5316-010 Advanced Quantitative Methods & Experiment Design/Lab 2 - the flanker task (an experiment on attention)","no","mono","no","18","no","white","no","yes","768","legacy","1","79","C:/Users/suici/Desktop/Tarleton/Fall 2021 - Graduate Studies/PSYC 5316-010 Advanced Quantitative Methods & Experiment Design/Lab 2 - the flanker task (an experiment on attention)/SM-subject-1.csv","legacy","Lentiform Loewenfeld","3.3.9","0","h","NA","s","h","NA","h","401","NA","9457","7398","NA","401","2","legacy","1024","2","48000","-16","experiment","SSHSS","1","odd","142129","10770","140890","NA","82582","1310","141629","NA","143157","1313","133492","NA","143257","143659","143156","143257","Flanker Task","81","32698","82","yes","1024"
"98.7951807229","98.7951807229","399.180722892","399.180722892","black","legacy","legacy","legacy","0","incongruent","uniform","1","undefined","1","h","82","0","0","0","82","0","82","0","82","0","0","0","82","82","82","82","09/19/21 22:31:54","600","The main experiment item","yes","FlankerTask.osexp","C:/Users/suici/Desktop/Tarleton/Fall 2021 - Graduate Studies/PSYC 5316-010 Advanced Quantitative Methods & Experiment Design/Lab 2 - the flanker task (an experiment on attention)","no","mono","no","18","no","white","no","yes","768","legacy","2","79","C:/Users/suici/Desktop/Tarleton/Fall 2021 - Graduate Studies/PSYC 5316-010 Advanced Quantitative Methods & Experiment Design/Lab 2 - the flanker task (an experiment on attention)/SM-subject-1.csv","legacy","Lentiform Loewenfeld","3.3.9","0","h","NA","s","h","NA","h","434","NA","9457","7398","NA","434","2","legacy","1024","2","48000","-16","experiment","SSHSS","1","odd","143662","10770","140890","NA","82582","1310","141629","NA","144692","1313","133492","NA","144792","145226","144690","144792","Flanker Task","82","33132","83","yes","1024"
"98.8095238095","98.8095238095","399.428571429","399.428571429","black","legacy","legacy","legacy","0","incongruent","uniform","1","undefined","1","h","83","0","0","0","83","0","83","0","83","0","0","0","83","83","83","83","09/19/21 22:31:54","600","The main experiment item","yes","FlankerTask.osexp","C:/Users/suici/Desktop/Tarleton/Fall 2021 - Graduate Studies/PSYC 5316-010 Advanced Quantitative Methods & Experiment Design/Lab 2 - the flanker task (an experiment on attention)","no","mono","no","18","no","white","no","yes","768","legacy","3","79","C:/Users/suici/Desktop/Tarleton/Fall 2021 - Graduate Studies/PSYC 5316-010 Advanced Quantitative Methods & Experiment Design/Lab 2 - the flanker task (an experiment on attention)/SM-subject-1.csv","legacy","Lentiform Loewenfeld","3.3.9","0","h","NA","s","h","NA","h","420","NA","9457","7398","NA","420","2","legacy","1024","2","48000","-16","experiment","SSHSS","1","odd","145230","10770","140890","NA","82582","1310","141629","NA","146257","1313","133492","NA","146358","146778","146256","146358","Flanker Task","83","33552","84","yes","1024"
"98.8235294118","98.8235294118","399.294117647","399.294117647","black","legacy","legacy","legacy","0","congruent","uniform","1","undefined","1","h","84","0","0","0","84","0","84","0","84","0","0","0","84","84","84","84","09/19/21 22:31:54","600","The main experiment item","yes","FlankerTask.osexp","C:/Users/suici/Desktop/Tarleton/Fall 2021 - Graduate Studies/PSYC 5316-010 Advanced Quantitative Methods & Experiment Design/Lab 2 - the flanker task (an experiment on attention)","no","mono","no","18","no","white","no","yes","768","legacy","4","79","C:/Users/suici/Desktop/Tarleton/Fall 2021 - Graduate Studies/PSYC 5316-010 Advanced Quantitative Methods & Experiment Design/Lab 2 - the flanker task (an experiment on attention)/SM-subject-1.csv","legacy","Lentiform Loewenfeld","3.3.9","0","h","NA","s","h","NA","h","388","NA","9457","7398","NA","388","2","legacy","1024","2","48000","-16","experiment","HHHHH","1","odd","146782","10770","140890","NA","82582","1310","141629","NA","147810","1313","133492","NA","147910","148299","147809","147910","Flanker Task","84","33940","85","yes","1024"
"98.8372093023","98.8372093023","398.872093023","398.872093023","black","legacy","legacy","legacy","0","congruent","uniform","1","undefined","1","h","85","0","0","0","85","0","85","0","85","0","0","0","85","85","85","85","09/19/21 22:31:54","600","The main experiment item","yes","FlankerTask.osexp","C:/Users/suici/Desktop/Tarleton/Fall 2021 - Graduate Studies/PSYC 5316-010 Advanced Quantitative Methods & Experiment Design/Lab 2 - the flanker task (an experiment on attention)","no","mono","no","18","no","white","no","yes","768","legacy","5","79","C:/Users/suici/Desktop/Tarleton/Fall 2021 - Graduate Studies/PSYC 5316-010 Advanced Quantitative Methods & Experiment Design/Lab 2 - the flanker task (an experiment on attention)/SM-subject-1.csv","legacy","Lentiform Loewenfeld","3.3.9","0","h","NA","s","h","NA","h","363","NA","9457","7398","NA","363","2","legacy","1024","2","48000","-16","experiment","HHHHH","1","odd","148302","10770","140890","NA","82582","1310","141629","NA","149330","1313","133492","NA","149430","149794","149328","149430","Flanker Task","85","34303","86","yes","1024"
"98.8505747126","98.8505747126","399.114942529","399.114942529","black","legacy","legacy","legacy","0","incongruent","uniform","1","undefined","1","s","86","0","0","0","86","0","86","0","86","0","0","0","86","86","86","86","09/19/21 22:31:54","600","The main experiment item","yes","FlankerTask.osexp","C:/Users/suici/Desktop/Tarleton/Fall 2021 - Graduate Studies/PSYC 5316-010 Advanced Quantitative Methods & Experiment Design/Lab 2 - the flanker task (an experiment on attention)","no","mono","no","18","no","white","no","yes","768","legacy","6","79","C:/Users/suici/Desktop/Tarleton/Fall 2021 - Graduate Studies/PSYC 5316-010 Advanced Quantitative Methods & Experiment Design/Lab 2 - the flanker task (an experiment on attention)/SM-subject-1.csv","legacy","Lentiform Loewenfeld","3.3.9","0","s","NA","s","h","NA","s","420","NA","9457","7398","NA","420","2","legacy","1024","2","48000","-16","experiment","HHSHH","1","odd","149797","10770","140890","NA","82582","1310","141629","NA","150826","1313","133492","NA","150926","151347","150824","150926","Flanker Task","86","34723","87","yes","1024"
"98.8636363636","98.8636363636","398.977272727","398.977272727","black","legacy","legacy","legacy","0","congruent","uniform","1","undefined","1","s","87","0","0","0","87","0","87","0","87","0","0","0","87","87","87","87","09/19/21 22:31:54","600","The main experiment item","yes","FlankerTask.osexp","C:/Users/suici/Desktop/Tarleton/Fall 2021 - Graduate Studies/PSYC 5316-010 Advanced Quantitative Methods & Experiment Design/Lab 2 - the flanker task (an experiment on attention)","no","mono","no","18","no","white","no","yes","768","legacy","7","79","C:/Users/suici/Desktop/Tarleton/Fall 2021 - Graduate Studies/PSYC 5316-010 Advanced Quantitative Methods & Experiment Design/Lab 2 - the flanker task (an experiment on attention)/SM-subject-1.csv","legacy","Lentiform Loewenfeld","3.3.9","0","s","NA","s","h","NA","s","387","NA","9457","7398","NA","387","2","legacy","1024","2","48000","-16","experiment","SSSSS","1","odd","151351","10770","140890","NA","82582","1310","141629","NA","152379","1313","133492","NA","152479","152866","152378","152479","Flanker Task","87","35110","88","yes","1024"
"98.8764044944","98.8764044944","398.134831461","398.134831461","black","legacy","legacy","legacy","0","congruent","uniform","1","undefined","1","s","88","0","0","0","88","0","88","0","88","0","0","0","88","88","88","88","09/19/21 22:31:54","600","The main experiment item","yes","FlankerTask.osexp","C:/Users/suici/Desktop/Tarleton/Fall 2021 - Graduate Studies/PSYC 5316-010 Advanced Quantitative Methods & Experiment Design/Lab 2 - the flanker task (an experiment on attention)","no","mono","no","18","no","white","no","yes","768","legacy","8","79","C:/Users/suici/Desktop/Tarleton/Fall 2021 - Graduate Studies/PSYC 5316-010 Advanced Quantitative Methods & Experiment Design/Lab 2 - the flanker task (an experiment on attention)/SM-subject-1.csv","legacy","Lentiform Loewenfeld","3.3.9","0","s","NA","s","h","NA","s","324","NA","9457","7398","NA","324","2","legacy","1024","2","48000","-16","experiment","SSSSS","1","odd","152870","10770","140890","NA","82582","1310","141629","NA","153898","1313","133492","NA","153998","154323","153897","153998","Flanker Task","88","35434","89","yes","1024"
"98.8888888889","98.8888888889","397.3","397.3","black","legacy","legacy","legacy","0","congruent","uniform","1","undefined","1","s","89","0","0","0","89","0","89","0","89","0","0","0","89","89","89","89","09/19/21 22:31:54","600","The main experiment item","yes","FlankerTask.osexp","C:/Users/suici/Desktop/Tarleton/Fall 2021 - Graduate Studies/PSYC 5316-010 Advanced Quantitative Methods & Experiment Design/Lab 2 - the flanker task (an experiment on attention)","no","mono","no","18","no","white","no","yes","768","legacy","9","79","C:/Users/suici/Desktop/Tarleton/Fall 2021 - Graduate Studies/PSYC 5316-010 Advanced Quantitative Methods & Experiment Design/Lab 2 - the flanker task (an experiment on attention)/SM-subject-1.csv","legacy","Lentiform Loewenfeld","3.3.9","0","s","NA","s","h","NA","s","323","NA","9457","7398","NA","323","2","legacy","1024","2","48000","-16","experiment","SSSSS","1","odd","154326","10770","140890","NA","82582","1310","141629","NA","155354","1313","133492","NA","155454","155778","155353","155454","Flanker Task","89","35757","90","yes","1024"
"98.9010989011","98.9010989011","397.813186813","397.813186813","black","legacy","legacy","legacy","0","congruent","uniform","1","undefined","1","h","90","0","0","0","90","0","90","0","90","0","0","0","90","90","90","90","09/19/21 22:31:54","600","The main experiment item","yes","FlankerTask.osexp","C:/Users/suici/Desktop/Tarleton/Fall 2021 - Graduate Studies/PSYC 5316-010 Advanced Quantitative Methods & Experiment Design/Lab 2 - the flanker task (an experiment on attention)","no","mono","no","18","no","white","no","yes","768","legacy","10","79","C:/Users/suici/Desktop/Tarleton/Fall 2021 - Graduate Studies/PSYC 5316-010 Advanced Quantitative Methods & Experiment Design/Lab 2 - the flanker task (an experiment on attention)/SM-subject-1.csv","legacy","Lentiform Loewenfeld","3.3.9","0","h","NA","s","h","NA","h","444","NA","9457","7398","NA","444","2","legacy","1024","2","48000","-16","experiment","HHHHH","1","odd","155781","10770","140890","NA","82582","1310","141629","NA","156809","1313","133492","NA","156909","157354","156807","156909","Flanker Task","90","36201","91","yes","1024"
"98.9130434783","98.9130434783","397.282608696","397.282608696","black","legacy","legacy","legacy","0","congruent","uniform","1","undefined","1","h","91","0","0","0","91","0","91","0","91","0","0","0","91","91","91","91","09/19/21 22:31:54","600","The main experiment item","yes","FlankerTask.osexp","C:/Users/suici/Desktop/Tarleton/Fall 2021 - Graduate Studies/PSYC 5316-010 Advanced Quantitative Methods & Experiment Design/Lab 2 - the flanker task (an experiment on attention)","no","mono","no","18","no","white","no","yes","768","legacy","11","79","C:/Users/suici/Desktop/Tarleton/Fall 2021 - Graduate Studies/PSYC 5316-010 Advanced Quantitative Methods & Experiment Design/Lab 2 - the flanker task (an experiment on attention)/SM-subject-1.csv","legacy","Lentiform Loewenfeld","3.3.9","0","h","NA","s","h","NA","h","349","NA","9457","7398","NA","349","2","legacy","1024","2","48000","-16","experiment","HHHHH","1","odd","157357","10770","140890","NA","82582","1310","141629","NA","158384","1313","133492","NA","158485","158834","158383","158485","Flanker Task","91","36550","92","yes","1024"
