"acc","accuracy","average_response_time","avg_rt","background","canvas_backend","clock_backend","color_backend","compensation","condition","coordinates","correct","correct_instructions1","correct_keyboard_response","correct_response","count_ISI","count_Sequence","count_block1","count_block2","count_block3","count_errorFeedback","count_experiment","count_faster","count_finish","count_fixation","count_instructions1","count_instructions2","count_instructions3","count_keyboard_response","count_logger","count_stimulus","datetime","deadline","description","disable_garbage_collection","experiment_file","experiment_path","font_bold","font_family","font_italic","font_size","font_underline","foreground","form_clicks","fullscreen","height","keyboard_backend","live_row","live_row_block1","logfile","mouse_backend","opensesame_codename","opensesame_version","repeat_cycle","response","response_finish","response_instructions1","response_instructions2","response_instructions3","response_keyboard_response","response_time","response_time_finish","response_time_instructions1","response_time_instructions2","response_time_instructions3","response_time_keyboard_response","round_decimals","sampler_backend","sound_buf_size","sound_channels","sound_freq","sound_sample_size","start","stimulus","subject_nr","subject_parity","time_ISI","time_Sequence","time_block1","time_block2","time_block3","time_errorFeedback","time_experiment","time_faster","time_finish","time_fixation","time_instructions1","time_instructions2","time_instructions3","time_keyboard_response","time_logger","time_stimulus","title","total_correct","total_response_time","total_responses","uniform_coordinates","width"
"100","100","1033","1033","black","legacy","legacy","legacy","0","congruent","uniform","1","undefined","1","h","0","0","0","0","0","0","0","0","0","0","0","0","0","0","0","0","Sat Sep 25 17:53:42 2021","1500","The main experiment item","yes","FlankerTask.osexp","C:/Users/User/Desktop/School/Research Methods","no","mono","no","18","no","white","no","yes","768","legacy","0","0","C:/Users/User/Desktop/School/Research Methods/LW-subject-3.csv","legacy","Lentiform Loewenfeld","3.3.9","0","h","NA","s","NA","NA","h","1033","NA","46032","NA","NA","1033","2","legacy","1024","2","48000","-16","experiment","HHHHH","3","odd","NA","47868","47793","NA","NA","NA","1754","NA","NA","47871","1760","NA","NA","47973","49007","47973","Flanker Task","1","1033","1","yes","1024"
"100","100","783.5","783.5","black","legacy","legacy","legacy","0","congruent","uniform","1","undefined","1","h","1","1","0","0","0","1","0","1","0","1","0","0","0","1","1","1","Sat Sep 25 17:53:42 2021","1500","The main experiment item","yes","FlankerTask.osexp","C:/Users/User/Desktop/School/Research Methods","no","mono","no","18","no","white","no","yes","768","legacy","1","1","C:/Users/User/Desktop/School/Research Methods/LW-subject-3.csv","legacy","Lentiform Loewenfeld","3.3.9","0","h","NA","s","NA","NA","h","534","NA","46032","NA","NA","534","2","legacy","1024","2","48000","-16","experiment","HHHHH","3","odd","49015","50088","47793","NA","NA","NA","1754","NA","NA","50091","1760","NA","NA","50193","50728","50193","Flanker Task","2","1567","2","yes","1024"
"100","100","802.3333333333334","802.3333333333334","black","legacy","legacy","legacy","0","congruent","uniform","1","undefined","1","h","2","2","0","0","0","2","0","2","0","2","0","0","0","2","2","2","Sat Sep 25 17:53:42 2021","1500","The main experiment item","yes","FlankerTask.osexp","C:/Users/User/Desktop/School/Research Methods","no","mono","no","18","no","white","no","yes","768","legacy","2","2","C:/Users/User/Desktop/School/Research Methods/LW-subject-3.csv","legacy","Lentiform Loewenfeld","3.3.9","0","h","NA","s","NA","NA","h","840","NA","46032","NA","NA","840","2","legacy","1024","2","48000","-16","experiment","HHHHH","3","odd","50732","51806","47793","NA","NA","NA","1754","NA","NA","51809","1760","NA","NA","51911","52752","51911","Flanker Task","3","2407","3","yes","1024"
"100","100","789.75","789.75","black","legacy","legacy","legacy","0","incongruent","uniform","1","undefined","1","s","3","3","0","0","0","3","0","3","0","3","0","0","0","3","3","3","Sat Sep 25 17:53:42 2021","1500","The main experiment item","yes","FlankerTask.osexp","C:/Users/User/Desktop/School/Research Methods","no","mono","no","18","no","white","no","yes","768","legacy","3","3","C:/Users/User/Desktop/School/Research Methods/LW-subject-3.csv","legacy","Lentiform Loewenfeld","3.3.9","0","s","NA","s","NA","NA","s","752","NA","46032","NA","NA","752","2","legacy","1024","2","48000","-16","experiment","HHSHH","3","odd","52756","53829","47793","NA","NA","NA","1754","NA","NA","53832","1760","NA","NA","53934","54687","53934","Flanker Task","4","3159","4","yes","1024"
"100","100","736","736","black","legacy","legacy","legacy","0","congruent","uniform","1","undefined","1","s","4","4","0","0","0","4","0","4","0","4","0","0","0","4","4","4","Sat Sep 25 17:53:42 2021","1500","The main experiment item","yes","FlankerTask.osexp","C:/Users/User/Desktop/School/Research Methods","no","mono","no","18","no","white","no","yes","768","legacy","4","4","C:/Users/User/Desktop/School/Research Methods/LW-subject-3.csv","legacy","Lentiform Loewenfeld","3.3.9","0","s","NA","s","NA","NA","s","521","NA","46032","NA","NA","521","2","legacy","1024","2","48000","-16","experiment","SSSSS","3","odd","54692","55763","47793","NA","NA","NA","1754","NA","NA","55766","1760","NA","NA","55868","56390","55867","Flanker Task","5","3680","5","yes","1024"
"100","100","704.8333333333334","704.8333333333334","black","legacy","legacy","legacy","0","incongruent","uniform","1","undefined","1","h","5","5","0","0","0","5","0","5","0","5","0","0","0","5","5","5","Sat Sep 25 17:53:42 2021","1500","The main experiment item","yes","FlankerTask.osexp","C:/Users/User/Desktop/School/Research Methods","no","mono","no","18","no","white","no","yes","768","legacy","5","5","C:/Users/User/Desktop/School/Research Methods/LW-subject-3.csv","legacy","Lentiform Loewenfeld","3.3.9","0","h","NA","s","NA","NA","h","549","NA","46032","NA","NA","549","2","legacy","1024","2","48000","-16","experiment","SSHSS","3","odd","56394","57469","47793","NA","NA","NA","1754","NA","NA","57472","1760","NA","NA","57574","58124","57573","Flanker Task","6","4229","6","yes","1024"
"100","100","694.4285714285714","694.4285714285714","black","legacy","legacy","legacy","0","incongruent","uniform","1","undefined","1","s","6","6","0","0","0","6","0","6","0","6","0","0","0","6","6","6","Sat Sep 25 17:53:42 2021","1500","The main experiment item","yes","FlankerTask.osexp","C:/Users/User/Desktop/School/Research Methods","no","mono","no","18","no","white","no","yes","768","legacy","6","6","C:/Users/User/Desktop/School/Research Methods/LW-subject-3.csv","legacy","Lentiform Loewenfeld","3.3.9","0","s","NA","s","NA","NA","s","632","NA","46032","NA","NA","632","2","legacy","1024","2","48000","-16","experiment","HHSHH","3","odd","58128","59200","47793","NA","NA","NA","1754","NA","NA","59202","1760","NA","NA","59305","59938","59304","Flanker Task","7","4861","7","yes","1024"
"100","100","684.75","684.75","black","legacy","legacy","legacy","0","congruent","uniform","1","undefined","1","s","7","7","0","0","0","7","0","7","0","7","0","0","0","7","7","7","Sat Sep 25 17:53:42 2021","1500","The main experiment item","yes","FlankerTask.osexp","C:/Users/User/Desktop/School/Research Methods","no","mono","no","18","no","white","no","yes","768","legacy","7","7","C:/Users/User/Desktop/School/Research Methods/LW-subject-3.csv","legacy","Lentiform Loewenfeld","3.3.9","0","s","NA","s","NA","NA","s","617","NA","46032","NA","NA","617","2","legacy","1024","2","48000","-16","experiment","SSSSS","3","odd","59942","61015","47793","NA","NA","NA","1754","NA","NA","61018","1760","NA","NA","61120","61737","61119","Flanker Task","8","5478","8","yes","1024"
"100","100","686.3333333333334","686.3333333333334","black","legacy","legacy","legacy","0","congruent","uniform","1","undefined","1","h","8","8","0","0","0","8","0","8","0","8","0","0","0","8","8","8","Sat Sep 25 17:53:42 2021","1500","The main experiment item","yes","FlankerTask.osexp","C:/Users/User/Desktop/School/Research Methods","no","mono","no","18","no","white","no","yes","768","legacy","8","8","C:/Users/User/Desktop/School/Research Methods/LW-subject-3.csv","legacy","Lentiform Loewenfeld","3.3.9","0","h","NA","s","NA","NA","h","699","NA","46032","NA","NA","699","2","legacy","1024","2","48000","-16","experiment","HHHHH","3","odd","61741","62814","47793","NA","NA","NA","1754","NA","NA","62816","1760","NA","NA","62918","63618","62917","Flanker Task","9","6177","9","yes","1024"
"100","100","681","681","black","legacy","legacy","legacy","0","incongruent","uniform","1","undefined","1","s","9","9","0","0","0","9","0","9","0","9","0","0","0","9","9","9","Sat Sep 25 17:53:42 2021","1500","The main experiment item","yes","FlankerTask.osexp","C:/Users/User/Desktop/School/Research Methods","no","mono","no","18","no","white","no","yes","768","legacy","9","9","C:/Users/User/Desktop/School/Research Methods/LW-subject-3.csv","legacy","Lentiform Loewenfeld","3.3.9","0","s","NA","s","NA","NA","s","633","NA","46032","NA","NA","633","2","legacy","1024","2","48000","-16","experiment","HHSHH","3","odd","63622","64694","47793","NA","NA","NA","1754","NA","NA","64696","1760","NA","NA","64798","65431","64797","Flanker Task","10","6810","10","yes","1024"
"100","100","685","685","black","legacy","legacy","legacy","0","incongruent","uniform","1","undefined","1","h","10","10","0","0","0","10","0","10","0","10","0","0","0","10","10","10","Sat Sep 25 17:53:42 2021","1500","The main experiment item","yes","FlankerTask.osexp","C:/Users/User/Desktop/School/Research Methods","no","mono","no","18","no","white","no","yes","768","legacy","10","10","C:/Users/User/Desktop/School/Research Methods/LW-subject-3.csv","legacy","Lentiform Loewenfeld","3.3.9","0","h","NA","s","NA","NA","h","725","NA","46032","NA","NA","725","2","legacy","1024","2","48000","-16","experiment","SSHSS","3","odd","65435","66508","47793","NA","NA","NA","1754","NA","NA","66511","1760","NA","NA","66613","67338","66613","Flanker Task","11","7535","11","yes","1024"
"100","100","677.6666666666666","677.6666666666666","black","legacy","legacy","legacy","0","incongruent","uniform","1","undefined","1","h","11","11","0","0","0","11","0","11","0","11","0","0","0","11","11","11","Sat Sep 25 17:53:42 2021","1500","The main experiment item","yes","FlankerTask.osexp","C:/Users/User/Desktop/School/Research Methods","no","mono","no","18","no","white","no","yes","768","legacy","11","11","C:/Users/User/Desktop/School/Research Methods/LW-subject-3.csv","legacy","Lentiform Loewenfeld","3.3.9","0","h","NA","s","NA","NA","h","597","NA","46032","NA","NA","597","2","legacy","1024","2","48000","-16","experiment","SSHSS","3","odd","67342","68414","47793","NA","NA","NA","1754","NA","NA","68416","1760","NA","NA","68518","69116","68517","Flanker Task","12","8132","12","yes","1024"
"100","100","662","662","black","legacy","legacy","legacy","0","incongruent","uniform","1","undefined","1","h","12","12","0","0","0","12","0","12","0","12","0","0","0","12","12","12","Sat Sep 25 17:53:42 2021","1500","The main experiment item","yes","FlankerTask.osexp","C:/Users/User/Desktop/School/Research Methods","no","mono","no","18","no","white","no","yes","768","legacy","12","12","C:/Users/User/Desktop/School/Research Methods/LW-subject-3.csv","legacy","Lentiform Loewenfeld","3.3.9","0","h","NA","s","NA","NA","h","474","NA","46032","NA","NA","474","2","legacy","1024","2","48000","-16","experiment","SSHSS","3","odd","69120","70192","47793","NA","NA","NA","1754","NA","NA","70195","1760","NA","NA","70297","70772","70297","Flanker Task","13","8606","13","yes","1024"
"100","100","649.2142857142857","649.2142857142857","black","legacy","legacy","legacy","0","congruent","uniform","1","undefined","1","s","13","13","0","0","0","13","0","13","0","13","0","0","0","13","13","13","Sat Sep 25 17:53:42 2021","1500","The main experiment item","yes","FlankerTask.osexp","C:/Users/User/Desktop/School/Research Methods","no","mono","no","18","no","white","no","yes","768","legacy","13","13","C:/Users/User/Desktop/School/Research Methods/LW-subject-3.csv","legacy","Lentiform Loewenfeld","3.3.9","0","s","NA","s","NA","NA","s","483","NA","46032","NA","NA","483","2","legacy","1024","2","48000","-16","experiment","SSSSS","3","odd","70776","71848","47793","NA","NA","NA","1754","NA","NA","71850","1760","NA","NA","71953","72436","71953","Flanker Task","14","9089","14","yes","1024"
"100","100","647.6666666666666","647.6666666666666","black","legacy","legacy","legacy","0","incongruent","uniform","1","undefined","1","s","14","14","0","0","0","14","0","14","0","14","0","0","0","14","14","14","Sat Sep 25 17:53:42 2021","1500","The main experiment item","yes","FlankerTask.osexp","C:/Users/User/Desktop/School/Research Methods","no","mono","no","18","no","white","no","yes","768","legacy","14","14","C:/Users/User/Desktop/School/Research Methods/LW-subject-3.csv","legacy","Lentiform Loewenfeld","3.3.9","0","s","NA","s","NA","NA","s","626","NA","46032","NA","NA","626","2","legacy","1024","2","48000","-16","experiment","HHSHH","3","odd","72440","73513","47793","NA","NA","NA","1754","NA","NA","73516","1760","NA","NA","73618","74245","73617","Flanker Task","15","9715","15","yes","1024"
"100","100","635.875","635.875","black","legacy","legacy","legacy","0","incongruent","uniform","1","undefined","1","s","15","15","0","0","0","15","0","15","0","15","0","0","0","15","15","15","Sat Sep 25 17:53:42 2021","1500","The main experiment item","yes","FlankerTask.osexp","C:/Users/User/Desktop/School/Research Methods","no","mono","no","18","no","white","no","yes","768","legacy","15","15","C:/Users/User/Desktop/School/Research Methods/LW-subject-3.csv","legacy","Lentiform Loewenfeld","3.3.9","0","s","NA","s","NA","NA","s","459","NA","46032","NA","NA","459","2","legacy","1024","2","48000","-16","experiment","HHSHH","3","odd","74249","75323","47793","NA","NA","NA","1754","NA","NA","75326","1760","NA","NA","75428","75887","75428","Flanker Task","16","10174","16","yes","1024"
"100","100","631.4117647058823","631.4117647058823","black","legacy","legacy","legacy","0","incongruent","uniform","1","undefined","1","h","16","16","0","0","0","16","0","16","0","16","0","0","0","16","16","16","Sat Sep 25 17:53:42 2021","1500","The main experiment item","yes","FlankerTask.osexp","C:/Users/User/Desktop/School/Research Methods","no","mono","no","18","no","white","no","yes","768","legacy","16","16","C:/Users/User/Desktop/School/Research Methods/LW-subject-3.csv","legacy","Lentiform Loewenfeld","3.3.9","0","h","NA","s","NA","NA","h","560","NA","46032","NA","NA","560","2","legacy","1024","2","48000","-16","experiment","SSHSS","3","odd","75891","76964","47793","NA","NA","NA","1754","NA","NA","76967","1760","NA","NA","77069","77630","77069","Flanker Task","17","10734","17","yes","1024"
"100","100","620.2222222222222","620.2222222222222","black","legacy","legacy","legacy","0","congruent","uniform","1","undefined","1","h","17","17","0","0","0","17","0","17","0","17","0","0","0","17","17","17","Sat Sep 25 17:53:42 2021","1500","The main experiment item","yes","FlankerTask.osexp","C:/Users/User/Desktop/School/Research Methods","no","mono","no","18","no","white","no","yes","768","legacy","17","17","C:/Users/User/Desktop/School/Research Methods/LW-subject-3.csv","legacy","Lentiform Loewenfeld","3.3.9","0","h","NA","s","NA","NA","h","430","NA","46032","NA","NA","430","2","legacy","1024","2","48000","-16","experiment","HHHHH","3","odd","77634","78710","47793","NA","NA","NA","1754","NA","NA","78713","1760","NA","NA","78815","79246","78815","Flanker Task","18","11164","18","yes","1024"
"100","100","609.9473684210526","609.9473684210526","black","legacy","legacy","legacy","0","incongruent","uniform","1","undefined","1","h","18","18","0","0","0","18","0","18","0","18","0","0","0","18","18","18","Sat Sep 25 17:53:42 2021","1500","The main experiment item","yes","FlankerTask.osexp","C:/Users/User/Desktop/School/Research Methods","no","mono","no","18","no","white","no","yes","768","legacy","18","18","C:/Users/User/Desktop/School/Research Methods/LW-subject-3.csv","legacy","Lentiform Loewenfeld","3.3.9","0","h","NA","s","NA","NA","h","425","NA","46032","NA","NA","425","2","legacy","1024","2","48000","-16","experiment","SSHSS","3","odd","79250","80325","47793","NA","NA","NA","1754","NA","NA","80327","1760","NA","NA","80429","80855","80429","Flanker Task","19","11589","19","yes","1024"
"95","95","597.4","597.4","black","legacy","legacy","legacy","0","incongruent","uniform","0","undefined","0","s","19","19","0","0","0","19","0","19","0","19","0","0","0","19","19","19","Sat Sep 25 17:53:42 2021","1500","The main experiment item","yes","FlankerTask.osexp","C:/Users/User/Desktop/School/Research Methods","no","mono","no","18","no","white","no","yes","768","legacy","19","19","C:/Users/User/Desktop/School/Research Methods/LW-subject-3.csv","legacy","Lentiform Loewenfeld","3.3.9","0","h","NA","s","NA","NA","h","359","NA","46032","NA","NA","359","2","legacy","1024","2","48000","-16","experiment","HHSHH","3","odd","80860","81932","47793","NA","NA","NA","1754","NA","NA","81935","1760","NA","NA","82037","82397","82037","Flanker Task","19","11948","20","yes","1024"
"95.23809523809524","95.23809523809524","591.5714285714286","591.5714285714286","black","legacy","legacy","legacy","0","incongruent","uniform","1","undefined","1","h","20","20","0","0","0","20","0","20","0","20","0","0","0","20","20","20","Sat Sep 25 17:53:42 2021","1500","The main experiment item","yes","FlankerTask.osexp","C:/Users/User/Desktop/School/Research Methods","no","mono","no","18","no","white","no","yes","768","legacy","20","20","C:/Users/User/Desktop/School/Research Methods/LW-subject-3.csv","legacy","Lentiform Loewenfeld","3.3.9","0","h","NA","s","NA","NA","h","475","NA","46032","NA","NA","475","2","legacy","1024","2","48000","-16","experiment","SSHSS","3","odd","82903","83978","47793","NA","NA","82401","1754","NA","NA","83981","1760","NA","NA","84083","84559","84083","Flanker Task","20","12423","21","yes","1024"
"95.45454545454545","95.45454545454545","588.1363636363636","588.1363636363636","black","legacy","legacy","legacy","0","congruent","uniform","1","undefined","1","s","21","21","0","0","0","21","0","21","0","21","0","0","0","21","21","21","Sat Sep 25 17:53:42 2021","1500","The main experiment item","yes","FlankerTask.osexp","C:/Users/User/Desktop/School/Research Methods","no","mono","no","18","no","white","no","yes","768","legacy","21","21","C:/Users/User/Desktop/School/Research Methods/LW-subject-3.csv","legacy","Lentiform Loewenfeld","3.3.9","0","s","NA","s","NA","NA","s","516","NA","46032","NA","NA","516","2","legacy","1024","2","48000","-16","experiment","SSSSS","3","odd","84564","85639","47793","NA","NA","82401","1754","NA","NA","85641","1760","NA","NA","85743","86260","85743","Flanker Task","21","12939","22","yes","1024"
"95.65217391304348","95.65217391304348","590.1739130434783","590.1739130434783","black","legacy","legacy","legacy","0","incongruent","uniform","1","undefined","1","s","22","22","0","0","0","22","0","22","0","22","0","0","0","22","22","22","Sat Sep 25 17:53:42 2021","1500","The main experiment item","yes","FlankerTask.osexp","C:/Users/User/Desktop/School/Research Methods","no","mono","no","18","no","white","no","yes","768","legacy","22","22","C:/Users/User/Desktop/School/Research Methods/LW-subject-3.csv","legacy","Lentiform Loewenfeld","3.3.9","0","s","NA","s","NA","NA","s","635","NA","46032","NA","NA","635","2","legacy","1024","2","48000","-16","experiment","HHSHH","3","odd","86264","87350","47793","NA","NA","82401","1754","NA","NA","87353","1760","NA","NA","87455","88090","87455","Flanker Task","22","13574","23","yes","1024"
"95.83333333333333","95.83333333333333","587.625","587.625","black","legacy","legacy","legacy","0","incongruent","uniform","1","undefined","1","h","23","23","0","0","0","23","0","23","0","23","0","0","0","23","23","23","Sat Sep 25 17:53:42 2021","1500","The main experiment item","yes","FlankerTask.osexp","C:/Users/User/Desktop/School/Research Methods","no","mono","no","18","no","white","no","yes","768","legacy","23","23","C:/Users/User/Desktop/School/Research Methods/LW-subject-3.csv","legacy","Lentiform Loewenfeld","3.3.9","0","h","NA","s","NA","NA","h","529","NA","46032","NA","NA","529","2","legacy","1024","2","48000","-16","experiment","SSHSS","3","odd","88095","89168","47793","NA","NA","82401","1754","NA","NA","89171","1760","NA","NA","89273","89803","89273","Flanker Task","23","14103","24","yes","1024"
"96","96","582.6","582.6","black","legacy","legacy","legacy","0","congruent","uniform","1","undefined","1","s","24","24","0","0","0","24","0","24","0","24","0","0","0","24","24","24","Sat Sep 25 17:53:42 2021","1500","The main experiment item","yes","FlankerTask.osexp","C:/Users/User/Desktop/School/Research Methods","no","mono","no","18","no","white","no","yes","768","legacy","24","24","C:/Users/User/Desktop/School/Research Methods/LW-subject-3.csv","legacy","Lentiform Loewenfeld","3.3.9","0","s","NA","s","NA","NA","s","462","NA","46032","NA","NA","462","2","legacy","1024","2","48000","-16","experiment","SSSSS","3","odd","89807","90880","47793","NA","NA","82401","1754","NA","NA","90882","1760","NA","NA","90984","91447","90984","Flanker Task","24","14565","25","yes","1024"
"96.15384615384616","96.15384615384616","575.8461538461538","575.8461538461538","black","legacy","legacy","legacy","0","congruent","uniform","1","undefined","1","h","25","25","0","0","0","25","0","25","0","25","0","0","0","25","25","25","Sat Sep 25 17:53:42 2021","1500","The main experiment item","yes","FlankerTask.osexp","C:/Users/User/Desktop/School/Research Methods","no","mono","no","18","no","white","no","yes","768","legacy","25","25","C:/Users/User/Desktop/School/Research Methods/LW-subject-3.csv","legacy","Lentiform Loewenfeld","3.3.9","0","h","NA","s","NA","NA","h","407","NA","46032","NA","NA","407","2","legacy","1024","2","48000","-16","experiment","HHHHH","3","odd","91451","92524","47793","NA","NA","82401","1754","NA","NA","92527","1760","NA","NA","92629","93037","92629","Flanker Task","25","14972","26","yes","1024"
"96.29629629629629","96.29629629629629","567.8518518518518","567.8518518518518","black","legacy","legacy","legacy","0","incongruent","uniform","1","undefined","1","h","26","26","0","0","0","26","0","26","0","26","0","0","0","26","26","26","Sat Sep 25 17:53:42 2021","1500","The main experiment item","yes","FlankerTask.osexp","C:/Users/User/Desktop/School/Research Methods","no","mono","no","18","no","white","no","yes","768","legacy","26","26","C:/Users/User/Desktop/School/Research Methods/LW-subject-3.csv","legacy","Lentiform Loewenfeld","3.3.9","0","h","NA","s","NA","NA","h","360","NA","46032","NA","NA","360","2","legacy","1024","2","48000","-16","experiment","SSHSS","3","odd","93041","94115","47793","NA","NA","82401","1754","NA","NA","94118","1760","NA","NA","94220","94581","94220","Flanker Task","26","15332","27","yes","1024"
"96.42857142857143","96.42857142857143","565","565","black","legacy","legacy","legacy","0","incongruent","uniform","1","undefined","1","h","27","27","0","0","0","27","0","27","0","27","0","0","0","27","27","27","Sat Sep 25 17:53:42 2021","1500","The main experiment item","yes","FlankerTask.osexp","C:/Users/User/Desktop/School/Research Methods","no","mono","no","18","no","white","no","yes","768","legacy","27","27","C:/Users/User/Desktop/School/Research Methods/LW-subject-3.csv","legacy","Lentiform Loewenfeld","3.3.9","0","h","NA","s","NA","NA","h","488","NA","46032","NA","NA","488","2","legacy","1024","2","48000","-16","experiment","SSHSS","3","odd","94585","95659","47793","NA","NA","82401","1754","NA","NA","95662","1760","NA","NA","95764","96253","95764","Flanker Task","27","15820","28","yes","1024"
"96.55172413793103","96.55172413793103","562.6551724137931","562.6551724137931","black","legacy","legacy","legacy","0","incongruent","uniform","1","undefined","1","s","28","28","0","0","0","28","0","28","0","28","0","0","0","28","28","28","Sat Sep 25 17:53:42 2021","1500","The main experiment item","yes","FlankerTask.osexp","C:/Users/User/Desktop/School/Research Methods","no","mono","no","18","no","white","no","yes","768","legacy","28","28","C:/Users/User/Desktop/School/Research Methods/LW-subject-3.csv","legacy","Lentiform Loewenfeld","3.3.9","0","s","NA","s","NA","NA","s","497","NA","46032","NA","NA","497","2","legacy","1024","2","48000","-16","experiment","HHSHH","3","odd","96257","97330","47793","NA","NA","82401","1754","NA","NA","97333","1760","NA","NA","97435","97932","97435","Flanker Task","28","16317","29","yes","1024"
"96.66666666666667","96.66666666666667","558.9333333333333","558.9333333333333","black","legacy","legacy","legacy","0","incongruent","uniform","1","undefined","1","h","29","29","0","0","0","29","0","29","0","29","0","0","0","29","29","29","Sat Sep 25 17:53:42 2021","1500","The main experiment item","yes","FlankerTask.osexp","C:/Users/User/Desktop/School/Research Methods","no","mono","no","18","no","white","no","yes","768","legacy","29","29","C:/Users/User/Desktop/School/Research Methods/LW-subject-3.csv","legacy","Lentiform Loewenfeld","3.3.9","0","h","NA","s","NA","NA","h","451","NA","46032","NA","NA","451","2","legacy","1024","2","48000","-16","experiment","SSHSS","3","odd","97936","99010","47793","NA","NA","82401","1754","NA","NA","99013","1760","NA","NA","99115","99567","99115","Flanker Task","29","16768","30","yes","1024"
"96.7741935483871","96.7741935483871","555.2258064516129","555.2258064516129","black","legacy","legacy","legacy","0","congruent","uniform","1","undefined","1","h","30","30","0","0","0","30","0","30","0","30","0","0","0","30","30","30","Sat Sep 25 17:53:42 2021","1500","The main experiment item","yes","FlankerTask.osexp","C:/Users/User/Desktop/School/Research Methods","no","mono","no","18","no","white","no","yes","768","legacy","30","30","C:/Users/User/Desktop/School/Research Methods/LW-subject-3.csv","legacy","Lentiform Loewenfeld","3.3.9","0","h","NA","s","NA","NA","h","444","NA","46032","NA","NA","444","2","legacy","1024","2","48000","-16","experiment","HHHHH","3","odd","99571","100644","47793","NA","NA","82401","1754","NA","NA","100646","1760","NA","NA","100748","101193","100748","Flanker Task","30","17212","31","yes","1024"
"96.875","96.875","553.25","553.25","black","legacy","legacy","legacy","0","incongruent","uniform","1","undefined","1","h","31","31","0","0","0","31","0","31","0","31","0","0","0","31","31","31","Sat Sep 25 17:53:42 2021","1500","The main experiment item","yes","FlankerTask.osexp","C:/Users/User/Desktop/School/Research Methods","no","mono","no","18","no","white","no","yes","768","legacy","31","31","C:/Users/User/Desktop/School/Research Methods/LW-subject-3.csv","legacy","Lentiform Loewenfeld","3.3.9","0","h","NA","s","NA","NA","h","492","NA","46032","NA","NA","492","2","legacy","1024","2","48000","-16","experiment","SSHSS","3","odd","101198","102272","47793","NA","NA","82401","1754","NA","NA","102275","1760","NA","NA","102377","102870","102377","Flanker Task","31","17704","32","yes","1024"
"96.96969696969697","96.96969696969697","552.6666666666666","552.6666666666666","black","legacy","legacy","legacy","0","incongruent","uniform","1","undefined","1","s","32","32","0","0","0","32","0","32","0","32","0","0","0","32","32","32","Sat Sep 25 17:53:42 2021","1500","The main experiment item","yes","FlankerTask.osexp","C:/Users/User/Desktop/School/Research Methods","no","mono","no","18","no","white","no","yes","768","legacy","32","32","C:/Users/User/Desktop/School/Research Methods/LW-subject-3.csv","legacy","Lentiform Loewenfeld","3.3.9","0","s","NA","s","NA","NA","s","534","NA","46032","NA","NA","534","2","legacy","1024","2","48000","-16","experiment","HHSHH","3","odd","102874","103948","47793","NA","NA","82401","1754","NA","NA","103951","1760","NA","NA","104053","104588","104053","Flanker Task","32","18238","33","yes","1024"
"97.05882352941177","97.05882352941177","550.1470588235294","550.1470588235294","black","legacy","legacy","legacy","0","incongruent","uniform","1","undefined","1","s","33","33","0","0","0","33","0","33","0","33","0","0","0","33","33","33","Sat Sep 25 17:53:42 2021","1500","The main experiment item","yes","FlankerTask.osexp","C:/Users/User/Desktop/School/Research Methods","no","mono","no","18","no","white","no","yes","768","legacy","33","33","C:/Users/User/Desktop/School/Research Methods/LW-subject-3.csv","legacy","Lentiform Loewenfeld","3.3.9","0","s","NA","s","NA","NA","s","467","NA","46032","NA","NA","467","2","legacy","1024","2","48000","-16","experiment","HHSHH","3","odd","104592","105664","47793","NA","NA","82401","1754","NA","NA","105666","1760","NA","NA","105768","106236","105767","Flanker Task","33","18705","34","yes","1024"
"97.14285714285714","97.14285714285714","546.2857142857143","546.2857142857143","black","legacy","legacy","legacy","0","congruent","uniform","1","undefined","1","s","34","34","0","0","0","34","0","34","0","34","0","0","0","34","34","34","Sat Sep 25 17:53:42 2021","1500","The main experiment item","yes","FlankerTask.osexp","C:/Users/User/Desktop/School/Research Methods","no","mono","no","18","no","white","no","yes","768","legacy","34","34","C:/Users/User/Desktop/School/Research Methods/LW-subject-3.csv","legacy","Lentiform Loewenfeld","3.3.9","0","s","NA","s","NA","NA","s","415","NA","46032","NA","NA","415","2","legacy","1024","2","48000","-16","experiment","SSSSS","3","odd","106240","107315","47793","NA","NA","82401","1754","NA","NA","107318","1760","NA","NA","107420","107836","107419","Flanker Task","34","19120","35","yes","1024"
"97.22222222222223","97.22222222222223","544.7777777777778","544.7777777777778","black","legacy","legacy","legacy","0","incongruent","uniform","1","undefined","1","h","35","35","0","0","0","35","0","35","0","35","0","0","0","35","35","35","Sat Sep 25 17:53:42 2021","1500","The main experiment item","yes","FlankerTask.osexp","C:/Users/User/Desktop/School/Research Methods","no","mono","no","18","no","white","no","yes","768","legacy","35","35","C:/Users/User/Desktop/School/Research Methods/LW-subject-3.csv","legacy","Lentiform Loewenfeld","3.3.9","0","h","NA","s","NA","NA","h","492","NA","46032","NA","NA","492","2","legacy","1024","2","48000","-16","experiment","SSHSS","3","odd","107840","108915","47793","NA","NA","82401","1754","NA","NA","108917","1760","NA","NA","109019","109512","109018","Flanker Task","35","19612","36","yes","1024"
"97.29729729729729","97.29729729729729","540.3513513513514","540.3513513513514","black","legacy","legacy","legacy","0","congruent","uniform","1","undefined","1","s","36","36","0","0","0","36","0","36","0","36","0","0","0","36","36","36","Sat Sep 25 17:53:42 2021","1500","The main experiment item","yes","FlankerTask.osexp","C:/Users/User/Desktop/School/Research Methods","no","mono","no","18","no","white","no","yes","768","legacy","36","36","C:/Users/User/Desktop/School/Research Methods/LW-subject-3.csv","legacy","Lentiform Loewenfeld","3.3.9","0","s","NA","s","NA","NA","s","381","NA","46032","NA","NA","381","2","legacy","1024","2","48000","-16","experiment","SSSSS","3","odd","109516","110605","47793","NA","NA","82401","1754","NA","NA","110607","1760","NA","NA","110709","111091","110708","Flanker Task","36","19993","37","yes","1024"
"97.36842105263158","97.36842105263158","536.1842105263158","536.1842105263158","black","legacy","legacy","legacy","0","congruent","uniform","1","undefined","1","s","37","37","0","0","0","37","0","37","0","37","0","0","0","37","37","37","Sat Sep 25 17:53:42 2021","1500","The main experiment item","yes","FlankerTask.osexp","C:/Users/User/Desktop/School/Research Methods","no","mono","no","18","no","white","no","yes","768","legacy","37","37","C:/Users/User/Desktop/School/Research Methods/LW-subject-3.csv","legacy","Lentiform Loewenfeld","3.3.9","0","s","NA","s","NA","NA","s","382","NA","46032","NA","NA","382","2","legacy","1024","2","48000","-16","experiment","SSSSS","3","odd","111095","112167","47793","NA","NA","82401","1754","NA","NA","112169","1760","NA","NA","112271","112654","112271","Flanker Task","37","20375","38","yes","1024"
"97.43589743589743","97.43589743589743","532.6153846153846","532.6153846153846","black","legacy","legacy","legacy","0","congruent","uniform","1","undefined","1","s","38","38","0","0","0","38","0","38","0","38","0","0","0","38","38","38","Sat Sep 25 17:53:42 2021","1500","The main experiment item","yes","FlankerTask.osexp","C:/Users/User/Desktop/School/Research Methods","no","mono","no","18","no","white","no","yes","768","legacy","38","38","C:/Users/User/Desktop/School/Research Methods/LW-subject-3.csv","legacy","Lentiform Loewenfeld","3.3.9","0","s","NA","s","NA","NA","s","397","NA","46032","NA","NA","397","2","legacy","1024","2","48000","-16","experiment","SSSSS","3","odd","112658","113730","47793","NA","NA","82401","1754","NA","NA","113732","1760","NA","NA","113834","114233","113833","Flanker Task","38","20772","39","yes","1024"
"97.5","97.5","528.825","528.825","black","legacy","legacy","legacy","0","congruent","uniform","1","undefined","1","h","39","39","0","0","0","39","0","39","0","39","0","0","0","39","39","39","Sat Sep 25 17:53:42 2021","1500","The main experiment item","yes","FlankerTask.osexp","C:/Users/User/Desktop/School/Research Methods","no","mono","no","18","no","white","no","yes","768","legacy","39","39","C:/Users/User/Desktop/School/Research Methods/LW-subject-3.csv","legacy","Lentiform Loewenfeld","3.3.9","0","h","NA","s","NA","NA","h","381","NA","46032","NA","NA","381","2","legacy","1024","2","48000","-16","experiment","HHHHH","3","odd","114236","115308","47793","NA","NA","82401","1754","NA","NA","115310","1760","NA","NA","115412","115794","115411","Flanker Task","39","21153","40","yes","1024"
"97.5609756097561","97.5609756097561","528.560975609756","528.560975609756","black","legacy","legacy","legacy","0","incongruent","uniform","1","undefined","1","s","40","40","0","0","0","40","0","40","0","40","0","0","0","40","40","40","Sat Sep 25 17:53:42 2021","1500","The main experiment item","yes","FlankerTask.osexp","C:/Users/User/Desktop/School/Research Methods","no","mono","no","18","no","white","no","yes","768","legacy","40","40","C:/Users/User/Desktop/School/Research Methods/LW-subject-3.csv","legacy","Lentiform Loewenfeld","3.3.9","0","s","NA","s","NA","NA","s","518","NA","46032","NA","NA","518","2","legacy","1024","2","48000","-16","experiment","HHSHH","3","odd","115798","116870","47793","NA","NA","82401","1754","NA","NA","116873","1760","NA","NA","116975","117494","116975","Flanker Task","40","21671","41","yes","1024"
"97.61904761904762","97.61904761904762","527.047619047619","527.047619047619","black","legacy","legacy","legacy","0","incongruent","uniform","1","undefined","1","s","41","41","0","0","0","41","0","41","0","41","0","0","0","41","41","41","Sat Sep 25 17:53:42 2021","1500","The main experiment item","yes","FlankerTask.osexp","C:/Users/User/Desktop/School/Research Methods","no","mono","no","18","no","white","no","yes","768","legacy","41","41","C:/Users/User/Desktop/School/Research Methods/LW-subject-3.csv","legacy","Lentiform Loewenfeld","3.3.9","0","s","NA","s","NA","NA","s","465","NA","46032","NA","NA","465","2","legacy","1024","2","48000","-16","experiment","HHSHH","3","odd","117498","118574","47793","NA","NA","82401","1754","NA","NA","118577","1760","NA","NA","118679","119146","118678","Flanker Task","41","22136","42","yes","1024"
"97.67441860465117","97.67441860465117","526.3023255813954","526.3023255813954","black","legacy","legacy","legacy","0","congruent","uniform","1","undefined","1","s","42","42","0","0","0","42","0","42","0","42","0","0","0","42","42","42","Sat Sep 25 17:53:42 2021","1500","The main experiment item","yes","FlankerTask.osexp","C:/Users/User/Desktop/School/Research Methods","no","mono","no","18","no","white","no","yes","768","legacy","42","42","C:/Users/User/Desktop/School/Research Methods/LW-subject-3.csv","legacy","Lentiform Loewenfeld","3.3.9","0","s","NA","s","NA","NA","s","495","NA","46032","NA","NA","495","2","legacy","1024","2","48000","-16","experiment","SSSSS","3","odd","119150","120222","47793","NA","NA","82401","1754","NA","NA","120225","1760","NA","NA","120327","120823","120327","Flanker Task","42","22631","43","yes","1024"
"97.72727272727273","97.72727272727273","523.4318181818181","523.4318181818181","black","legacy","legacy","legacy","0","congruent","uniform","1","undefined","1","s","43","43","0","0","0","43","0","43","0","43","0","0","0","43","43","43","Sat Sep 25 17:53:42 2021","1500","The main experiment item","yes","FlankerTask.osexp","C:/Users/User/Desktop/School/Research Methods","no","mono","no","18","no","white","no","yes","768","legacy","43","43","C:/Users/User/Desktop/School/Research Methods/LW-subject-3.csv","legacy","Lentiform Loewenfeld","3.3.9","0","s","NA","s","NA","NA","s","400","NA","46032","NA","NA","400","2","legacy","1024","2","48000","-16","experiment","SSSSS","3","odd","120827","121901","47793","NA","NA","82401","1754","NA","NA","121903","1760","NA","NA","122005","122407","122005","Flanker Task","43","23031","44","yes","1024"
"97.77777777777777","97.77777777777777","520.3333333333334","520.3333333333334","black","legacy","legacy","legacy","0","congruent","uniform","1","undefined","1","s","44","44","0","0","0","44","0","44","0","44","0","0","0","44","44","44","Sat Sep 25 17:53:42 2021","1500","The main experiment item","yes","FlankerTask.osexp","C:/Users/User/Desktop/School/Research Methods","no","mono","no","18","no","white","no","yes","768","legacy","44","44","C:/Users/User/Desktop/School/Research Methods/LW-subject-3.csv","legacy","Lentiform Loewenfeld","3.3.9","0","s","NA","s","NA","NA","s","384","NA","46032","NA","NA","384","2","legacy","1024","2","48000","-16","experiment","SSSSS","3","odd","122410","123482","47793","NA","NA","82401","1754","NA","NA","123484","1760","NA","NA","123586","123971","123586","Flanker Task","44","23415","45","yes","1024"
"97.82608695652173","97.82608695652173","519.5869565217391","519.5869565217391","black","legacy","legacy","legacy","0","incongruent","uniform","1","undefined","1","h","45","45","0","0","0","45","0","45","0","45","0","0","0","45","45","45","Sat Sep 25 17:53:42 2021","1500","The main experiment item","yes","FlankerTask.osexp","C:/Users/User/Desktop/School/Research Methods","no","mono","no","18","no","white","no","yes","768","legacy","45","45","C:/Users/User/Desktop/School/Research Methods/LW-subject-3.csv","legacy","Lentiform Loewenfeld","3.3.9","0","h","NA","s","NA","NA","h","486","NA","46032","NA","NA","486","2","legacy","1024","2","48000","-16","experiment","SSHSS","3","odd","123975","125048","47793","NA","NA","82401","1754","NA","NA","125051","1760","NA","NA","125153","125640","125152","Flanker Task","45","23901","46","yes","1024"
"97.87234042553192","97.87234042553192","517.3617021276596","517.3617021276596","black","legacy","legacy","legacy","0","congruent","uniform","1","undefined","1","s","46","46","0","0","0","46","0","46","0","46","0","0","0","46","46","46","Sat Sep 25 17:53:42 2021","1500","The main experiment item","yes","FlankerTask.osexp","C:/Users/User/Desktop/School/Research Methods","no","mono","no","18","no","white","no","yes","768","legacy","46","46","C:/Users/User/Desktop/School/Research Methods/LW-subject-3.csv","legacy","Lentiform Loewenfeld","3.3.9","0","s","NA","s","NA","NA","s","415","NA","46032","NA","NA","415","2","legacy","1024","2","48000","-16","experiment","SSSSS","3","odd","125644","126716","47793","NA","NA","82401","1754","NA","NA","126718","1760","NA","NA","126820","127237","126820","Flanker Task","46","24316","47","yes","1024"
"97.91666666666667","97.91666666666667","515.2291666666666","515.2291666666666","black","legacy","legacy","legacy","0","congruent","uniform","1","undefined","1","h","47","47","0","0","0","47","0","47","0","47","0","0","0","47","47","47","Sat Sep 25 17:53:42 2021","1500","The main experiment item","yes","FlankerTask.osexp","C:/Users/User/Desktop/School/Research Methods","no","mono","no","18","no","white","no","yes","768","legacy","47","47","C:/Users/User/Desktop/School/Research Methods/LW-subject-3.csv","legacy","Lentiform Loewenfeld","3.3.9","0","h","NA","s","NA","NA","h","415","NA","46032","NA","NA","415","2","legacy","1024","2","48000","-16","experiment","HHHHH","3","odd","127241","128313","47793","NA","NA","82401","1754","NA","NA","128316","1760","NA","NA","128418","128834","128417","Flanker Task","47","24731","48","yes","1024"
"97.95918367346938","97.95918367346938","513.3061224489796","513.3061224489796","black","legacy","legacy","legacy","0","incongruent","uniform","1","undefined","1","s","48","48","0","0","0","48","0","48","0","48","0","0","0","48","48","48","Sat Sep 25 17:53:42 2021","1500","The main experiment item","yes","FlankerTask.osexp","C:/Users/User/Desktop/School/Research Methods","no","mono","no","18","no","white","no","yes","768","legacy","48","48","C:/Users/User/Desktop/School/Research Methods/LW-subject-3.csv","legacy","Lentiform Loewenfeld","3.3.9","0","s","NA","s","NA","NA","s","421","NA","46032","NA","NA","421","2","legacy","1024","2","48000","-16","experiment","HHSHH","3","odd","128838","129912","47793","NA","NA","82401","1754","NA","NA","129914","1760","NA","NA","130016","130438","130015","Flanker Task","48","25152","49","yes","1024"
"98","98","513.9","513.9","black","legacy","legacy","legacy","0","incongruent","uniform","1","undefined","1","s","49","49","0","0","0","49","0","49","0","49","0","0","0","49","49","49","Sat Sep 25 17:53:42 2021","1500","The main experiment item","yes","FlankerTask.osexp","C:/Users/User/Desktop/School/Research Methods","no","mono","no","18","no","white","no","yes","768","legacy","49","49","C:/Users/User/Desktop/School/Research Methods/LW-subject-3.csv","legacy","Lentiform Loewenfeld","3.3.9","0","s","NA","s","NA","NA","s","543","NA","46032","NA","NA","543","2","legacy","1024","2","48000","-16","experiment","HHSHH","3","odd","130443","131515","47793","NA","NA","82401","1754","NA","NA","131518","1760","NA","NA","131620","132164","131620","Flanker Task","49","25695","50","yes","1024"
"98.03921568627452","98.03921568627452","511.84313725490193","511.84313725490193","black","legacy","legacy","legacy","0","incongruent","uniform","1","undefined","1","s","50","50","0","0","0","50","0","50","0","50","0","0","0","50","50","50","Sat Sep 25 17:53:42 2021","1500","The main experiment item","yes","FlankerTask.osexp","C:/Users/User/Desktop/School/Research Methods","no","mono","no","18","no","white","no","yes","768","legacy","50","50","C:/Users/User/Desktop/School/Research Methods/LW-subject-3.csv","legacy","Lentiform Loewenfeld","3.3.9","0","s","NA","s","NA","NA","s","409","NA","46032","NA","NA","409","2","legacy","1024","2","48000","-16","experiment","HHSHH","3","odd","132168","133241","47793","NA","NA","82401","1754","NA","NA","133244","1760","NA","NA","133346","133757","133346","Flanker Task","50","26104","51","yes","1024"
"98.07692307692308","98.07692307692308","509.61538461538464","509.61538461538464","black","legacy","legacy","legacy","0","congruent","uniform","1","undefined","1","h","51","51","0","0","0","51","0","51","0","51","0","0","0","51","51","51","Sat Sep 25 17:53:42 2021","1500","The main experiment item","yes","FlankerTask.osexp","C:/Users/User/Desktop/School/Research Methods","no","mono","no","18","no","white","no","yes","768","legacy","51","51","C:/Users/User/Desktop/School/Research Methods/LW-subject-3.csv","legacy","Lentiform Loewenfeld","3.3.9","0","h","NA","s","NA","NA","h","396","NA","46032","NA","NA","396","2","legacy","1024","2","48000","-16","experiment","HHHHH","3","odd","133760","134833","47793","NA","NA","82401","1754","NA","NA","134835","1760","NA","NA","134937","135334","134937","Flanker Task","51","26500","52","yes","1024"
"98.11320754716981","98.11320754716981","507.6981132075472","507.6981132075472","black","legacy","legacy","legacy","0","incongruent","uniform","1","undefined","1","h","52","52","0","0","0","52","0","52","0","52","0","0","0","52","52","52","Sat Sep 25 17:53:42 2021","1500","The main experiment item","yes","FlankerTask.osexp","C:/Users/User/Desktop/School/Research Methods","no","mono","no","18","no","white","no","yes","768","legacy","52","52","C:/Users/User/Desktop/School/Research Methods/LW-subject-3.csv","legacy","Lentiform Loewenfeld","3.3.9","0","h","NA","s","NA","NA","h","408","NA","46032","NA","NA","408","2","legacy","1024","2","48000","-16","experiment","SSHSS","3","odd","135338","136413","47793","NA","NA","82401","1754","NA","NA","136416","1760","NA","NA","136518","136928","136518","Flanker Task","52","26908","53","yes","1024"
"98.14814814814815","98.14814814814815","505.55555555555554","505.55555555555554","black","legacy","legacy","legacy","0","congruent","uniform","1","undefined","1","h","53","53","0","0","0","53","0","53","0","53","0","0","0","53","53","53","Sat Sep 25 17:53:42 2021","1500","The main experiment item","yes","FlankerTask.osexp","C:/Users/User/Desktop/School/Research Methods","no","mono","no","18","no","white","no","yes","768","legacy","53","53","C:/Users/User/Desktop/School/Research Methods/LW-subject-3.csv","legacy","Lentiform Loewenfeld","3.3.9","0","h","NA","s","NA","NA","h","392","NA","46032","NA","NA","392","2","legacy","1024","2","48000","-16","experiment","HHHHH","3","odd","136932","138007","47793","NA","NA","82401","1754","NA","NA","138010","1760","NA","NA","138112","138505","138112","Flanker Task","53","27300","54","yes","1024"
"98.18181818181819","98.18181818181819","503.6181818181818","503.6181818181818","black","legacy","legacy","legacy","0","congruent","uniform","1","undefined","1","h","54","54","0","0","0","54","0","54","0","54","0","0","0","54","54","54","Sat Sep 25 17:53:42 2021","1500","The main experiment item","yes","FlankerTask.osexp","C:/Users/User/Desktop/School/Research Methods","no","mono","no","18","no","white","no","yes","768","legacy","54","54","C:/Users/User/Desktop/School/Research Methods/LW-subject-3.csv","legacy","Lentiform Loewenfeld","3.3.9","0","h","NA","s","NA","NA","h","399","NA","46032","NA","NA","399","2","legacy","1024","2","48000","-16","experiment","HHHHH","3","odd","138509","139585","47793","NA","NA","82401","1754","NA","NA","139587","1760","NA","NA","139689","140089","139689","Flanker Task","54","27699","55","yes","1024"
"98.21428571428571","98.21428571428571","501.39285714285717","501.39285714285717","black","legacy","legacy","legacy","0","congruent","uniform","1","undefined","1","h","55","55","0","0","0","55","0","55","0","55","0","0","0","55","55","55","Sat Sep 25 17:53:42 2021","1500","The main experiment item","yes","FlankerTask.osexp","C:/Users/User/Desktop/School/Research Methods","no","mono","no","18","no","white","no","yes","768","legacy","55","55","C:/Users/User/Desktop/School/Research Methods/LW-subject-3.csv","legacy","Lentiform Loewenfeld","3.3.9","0","h","NA","s","NA","NA","h","379","NA","46032","NA","NA","379","2","legacy","1024","2","48000","-16","experiment","HHHHH","3","odd","140093","141169","47793","NA","NA","82401","1754","NA","NA","141171","1760","NA","NA","141273","141654","141273","Flanker Task","55","28078","56","yes","1024"
"98.24561403508773","98.24561403508773","500.2280701754386","500.2280701754386","black","legacy","legacy","legacy","0","incongruent","uniform","1","undefined","1","h","56","56","0","0","0","56","0","56","0","56","0","0","0","56","56","56","Sat Sep 25 17:53:42 2021","1500","The main experiment item","yes","FlankerTask.osexp","C:/Users/User/Desktop/School/Research Methods","no","mono","no","18","no","white","no","yes","768","legacy","56","56","C:/Users/User/Desktop/School/Research Methods/LW-subject-3.csv","legacy","Lentiform Loewenfeld","3.3.9","0","h","NA","s","NA","NA","h","435","NA","46032","NA","NA","435","2","legacy","1024","2","48000","-16","experiment","SSHSS","3","odd","141658","142732","47793","NA","NA","82401","1754","NA","NA","142735","1760","NA","NA","142837","143273","142836","Flanker Task","56","28513","57","yes","1024"
"98.27586206896552","98.27586206896552","497.91379310344826","497.91379310344826","black","legacy","legacy","legacy","0","congruent","uniform","1","undefined","1","s","57","57","0","0","0","57","0","57","0","57","0","0","0","57","57","57","Sat Sep 25 17:53:42 2021","1500","The main experiment item","yes","FlankerTask.osexp","C:/Users/User/Desktop/School/Research Methods","no","mono","no","18","no","white","no","yes","768","legacy","57","57","C:/Users/User/Desktop/School/Research Methods/LW-subject-3.csv","legacy","Lentiform Loewenfeld","3.3.9","0","s","NA","s","NA","NA","s","366","NA","46032","NA","NA","366","2","legacy","1024","2","48000","-16","experiment","SSSSS","3","odd","143277","144352","47793","NA","NA","82401","1754","NA","NA","144355","1760","NA","NA","144457","144825","144456","Flanker Task","57","28879","58","yes","1024"
"98.30508474576271","98.30508474576271","497.7457627118644","497.7457627118644","black","legacy","legacy","legacy","0","incongruent","uniform","1","undefined","1","s","58","58","0","0","0","58","0","58","0","58","0","0","0","58","58","58","Sat Sep 25 17:53:42 2021","1500","The main experiment item","yes","FlankerTask.osexp","C:/Users/User/Desktop/School/Research Methods","no","mono","no","18","no","white","no","yes","768","legacy","58","58","C:/Users/User/Desktop/School/Research Methods/LW-subject-3.csv","legacy","Lentiform Loewenfeld","3.3.9","0","s","NA","s","NA","NA","s","488","NA","46032","NA","NA","488","2","legacy","1024","2","48000","-16","experiment","HHSHH","3","odd","144829","145905","47793","NA","NA","82401","1754","NA","NA","145907","1760","NA","NA","146009","146498","146009","Flanker Task","58","29367","59","yes","1024"
"98.33333333333333","98.33333333333333","497.1","497.1","black","legacy","legacy","legacy","0","incongruent","uniform","1","undefined","1","h","59","59","0","0","0","59","0","59","0","59","0","0","0","59","59","59","Sat Sep 25 17:53:42 2021","1500","The main experiment item","yes","FlankerTask.osexp","C:/Users/User/Desktop/School/Research Methods","no","mono","no","18","no","white","no","yes","768","legacy","59","59","C:/Users/User/Desktop/School/Research Methods/LW-subject-3.csv","legacy","Lentiform Loewenfeld","3.3.9","0","h","NA","s","NA","NA","h","459","NA","46032","NA","NA","459","2","legacy","1024","2","48000","-16","experiment","SSHSS","3","odd","146503","147576","47793","NA","NA","82401","1754","NA","NA","147579","1760","NA","NA","147681","148141","147681","Flanker Task","59","29826","60","yes","1024"
"98.36065573770492","98.36065573770492","496.1475409836066","496.1475409836066","black","legacy","legacy","legacy","0","congruent","uniform","1","undefined","1","h","60","60","0","0","0","60","0","60","0","60","0","0","0","60","60","60","Sat Sep 25 17:53:42 2021","1500","The main experiment item","yes","FlankerTask.osexp","C:/Users/User/Desktop/School/Research Methods","no","mono","no","18","no","white","no","yes","768","legacy","60","60","C:/Users/User/Desktop/School/Research Methods/LW-subject-3.csv","legacy","Lentiform Loewenfeld","3.3.9","0","h","NA","s","NA","NA","h","439","NA","46032","NA","NA","439","2","legacy","1024","2","48000","-16","experiment","HHHHH","3","odd","148145","149221","47793","NA","NA","82401","1754","NA","NA","149223","1760","NA","NA","149325","149766","149325","Flanker Task","60","30265","61","yes","1024"
"98.38709677419355","98.38709677419355","495.2258064516129","495.2258064516129","black","legacy","legacy","legacy","0","incongruent","uniform","1","undefined","1","s","61","61","0","0","0","61","0","61","0","61","0","0","0","61","61","61","Sat Sep 25 17:53:42 2021","1500","The main experiment item","yes","FlankerTask.osexp","C:/Users/User/Desktop/School/Research Methods","no","mono","no","18","no","white","no","yes","768","legacy","61","61","C:/Users/User/Desktop/School/Research Methods/LW-subject-3.csv","legacy","Lentiform Loewenfeld","3.3.9","0","s","NA","s","NA","NA","s","439","NA","46032","NA","NA","439","2","legacy","1024","2","48000","-16","experiment","HHSHH","3","odd","149770","150845","47793","NA","NA","82401","1754","NA","NA","150847","1760","NA","NA","150949","151389","150949","Flanker Task","61","30704","62","yes","1024"
"98.41269841269842","98.41269841269842","494.44444444444446","494.44444444444446","black","legacy","legacy","legacy","0","incongruent","uniform","1","undefined","1","h","62","62","0","0","0","62","0","62","0","62","0","0","0","62","62","62","Sat Sep 25 17:53:42 2021","1500","The main experiment item","yes","FlankerTask.osexp","C:/Users/User/Desktop/School/Research Methods","no","mono","no","18","no","white","no","yes","768","legacy","62","62","C:/Users/User/Desktop/School/Research Methods/LW-subject-3.csv","legacy","Lentiform Loewenfeld","3.3.9","0","h","NA","s","NA","NA","h","446","NA","46032","NA","NA","446","2","legacy","1024","2","48000","-16","experiment","SSHSS","3","odd","151393","152468","47793","NA","NA","82401","1754","NA","NA","152471","1760","NA","NA","152573","153020","152573","Flanker Task","62","31150","63","yes","1024"
"98.4375","98.4375","493.34375","493.34375","black","legacy","legacy","legacy","0","congruent","uniform","1","undefined","1","s","63","63","0","0","0","63","0","63","0","63","0","0","0","63","63","63","Sat Sep 25 17:53:42 2021","1500","The main experiment item","yes","FlankerTask.osexp","C:/Users/User/Desktop/School/Research Methods","no","mono","no","18","no","white","no","yes","768","legacy","63","63","C:/Users/User/Desktop/School/Research Methods/LW-subject-3.csv","legacy","Lentiform Loewenfeld","3.3.9","0","s","NA","s","NA","NA","s","424","NA","46032","NA","NA","424","2","legacy","1024","2","48000","-16","experiment","SSSSS","3","odd","153024","154097","47793","NA","NA","82401","1754","NA","NA","154099","1760","NA","NA","154201","154627","154201","Flanker Task","63","31574","64","yes","1024"
"98.46153846153847","98.46153846153847","493.2153846153846","493.2153846153846","black","legacy","legacy","legacy","0","incongruent","uniform","1","undefined","1","s","64","64","0","0","0","64","0","64","0","64","0","0","0","64","64","64","Sat Sep 25 17:53:42 2021","1500","The main experiment item","yes","FlankerTask.osexp","C:/Users/User/Desktop/School/Research Methods","no","mono","no","18","no","white","no","yes","768","legacy","64","64","C:/Users/User/Desktop/School/Research Methods/LW-subject-3.csv","legacy","Lentiform Loewenfeld","3.3.9","0","s","NA","s","NA","NA","s","485","NA","46032","NA","NA","485","2","legacy","1024","2","48000","-16","experiment","HHSHH","3","odd","154631","155704","47793","NA","NA","82401","1754","NA","NA","155707","1760","NA","NA","155809","156295","155809","Flanker Task","64","32059","65","yes","1024"
"98.48484848484848","98.48484848484848","492.09090909090907","492.09090909090907","black","legacy","legacy","legacy","0","congruent","uniform","1","undefined","1","h","65","65","0","0","0","65","0","65","0","65","0","0","0","65","65","65","Sat Sep 25 17:53:42 2021","1500","The main experiment item","yes","FlankerTask.osexp","C:/Users/User/Desktop/School/Research Methods","no","mono","no","18","no","white","no","yes","768","legacy","65","65","C:/Users/User/Desktop/School/Research Methods/LW-subject-3.csv","legacy","Lentiform Loewenfeld","3.3.9","0","h","NA","s","NA","NA","h","419","NA","46032","NA","NA","419","2","legacy","1024","2","48000","-16","experiment","HHHHH","3","odd","156299","157376","47793","NA","NA","82401","1754","NA","NA","157378","1760","NA","NA","157480","157900","157480","Flanker Task","65","32478","66","yes","1024"
"98.50746268656717","98.50746268656717","490.7910447761194","490.7910447761194","black","legacy","legacy","legacy","0","congruent","uniform","1","undefined","1","s","66","66","0","0","0","66","0","66","0","66","0","0","0","66","66","66","Sat Sep 25 17:53:42 2021","1500","The main experiment item","yes","FlankerTask.osexp","C:/Users/User/Desktop/School/Research Methods","no","mono","no","18","no","white","no","yes","768","legacy","66","66","C:/Users/User/Desktop/School/Research Methods/LW-subject-3.csv","legacy","Lentiform Loewenfeld","3.3.9","0","s","NA","s","NA","NA","s","405","NA","46032","NA","NA","405","2","legacy","1024","2","48000","-16","experiment","SSSSS","3","odd","157904","158978","47793","NA","NA","82401","1754","NA","NA","158981","1760","NA","NA","159083","159489","159083","Flanker Task","66","32883","67","yes","1024"
"98.52941176470588","98.52941176470588","488.77941176470586","488.77941176470586","black","legacy","legacy","legacy","0","congruent","uniform","1","undefined","1","h","67","67","0","0","0","67","0","67","0","67","0","0","0","67","67","67","Sat Sep 25 17:53:42 2021","1500","The main experiment item","yes","FlankerTask.osexp","C:/Users/User/Desktop/School/Research Methods","no","mono","no","18","no","white","no","yes","768","legacy","67","67","C:/Users/User/Desktop/School/Research Methods/LW-subject-3.csv","legacy","Lentiform Loewenfeld","3.3.9","0","h","NA","s","NA","NA","h","354","NA","46032","NA","NA","354","2","legacy","1024","2","48000","-16","experiment","HHHHH","3","odd","159494","160567","47793","NA","NA","82401","1754","NA","NA","160569","1760","NA","NA","160671","161026","160671","Flanker Task","67","33237","68","yes","1024"
"98.55072463768116","98.55072463768116","487.8550724637681","487.8550724637681","black","legacy","legacy","legacy","0","incongruent","uniform","1","undefined","1","h","68","68","0","0","0","68","0","68","0","68","0","0","0","68","68","68","Sat Sep 25 17:53:42 2021","1500","The main experiment item","yes","FlankerTask.osexp","C:/Users/User/Desktop/School/Research Methods","no","mono","no","18","no","white","no","yes","768","legacy","68","68","C:/Users/User/Desktop/School/Research Methods/LW-subject-3.csv","legacy","Lentiform Loewenfeld","3.3.9","0","h","NA","s","NA","NA","h","425","NA","46032","NA","NA","425","2","legacy","1024","2","48000","-16","experiment","SSHSS","3","odd","161030","162104","47793","NA","NA","82401","1754","NA","NA","162106","1760","NA","NA","162208","162635","162208","Flanker Task","68","33662","69","yes","1024"
"98.57142857142857","98.57142857142857","486.8285714285714","486.8285714285714","black","legacy","legacy","legacy","0","congruent","uniform","1","undefined","1","h","69","69","0","0","0","69","0","69","0","69","0","0","0","69","69","69","Sat Sep 25 17:53:42 2021","1500","The main experiment item","yes","FlankerTask.osexp","C:/Users/User/Desktop/School/Research Methods","no","mono","no","18","no","white","no","yes","768","legacy","69","69","C:/Users/User/Desktop/School/Research Methods/LW-subject-3.csv","legacy","Lentiform Loewenfeld","3.3.9","0","h","NA","s","NA","NA","h","416","NA","46032","NA","NA","416","2","legacy","1024","2","48000","-16","experiment","HHHHH","3","odd","162639","163713","47793","NA","NA","82401","1754","NA","NA","163715","1760","NA","NA","163817","164234","163817","Flanker Task","69","34078","70","yes","1024"
"98.59154929577464","98.59154929577464","485.3521126760563","485.3521126760563","black","legacy","legacy","legacy","0","congruent","uniform","1","undefined","1","s","70","70","0","0","0","70","0","70","0","70","0","0","0","70","70","70","Sat Sep 25 17:53:42 2021","1500","The main experiment item","yes","FlankerTask.osexp","C:/Users/User/Desktop/School/Research Methods","no","mono","no","18","no","white","no","yes","768","legacy","70","70","C:/Users/User/Desktop/School/Research Methods/LW-subject-3.csv","legacy","Lentiform Loewenfeld","3.3.9","0","s","NA","s","NA","NA","s","382","NA","46032","NA","NA","382","2","legacy","1024","2","48000","-16","experiment","SSSSS","3","odd","164238","165312","47793","NA","NA","82401","1754","NA","NA","165314","1760","NA","NA","165416","165799","165416","Flanker Task","70","34460","71","yes","1024"
"98.61111111111111","98.61111111111111","485.18055555555554","485.18055555555554","black","legacy","legacy","legacy","0","congruent","uniform","1","undefined","1","s","71","71","0","0","0","71","0","71","0","71","0","0","0","71","71","71","Sat Sep 25 17:53:42 2021","1500","The main experiment item","yes","FlankerTask.osexp","C:/Users/User/Desktop/School/Research Methods","no","mono","no","18","no","white","no","yes","768","legacy","71","71","C:/Users/User/Desktop/School/Research Methods/LW-subject-3.csv","legacy","Lentiform Loewenfeld","3.3.9","0","s","NA","s","NA","NA","s","473","NA","46032","NA","NA","473","2","legacy","1024","2","48000","-16","experiment","SSSSS","3","odd","165803","166876","47793","NA","NA","82401","1754","NA","NA","166879","1760","NA","NA","166981","167456","166980","Flanker Task","71","34933","72","yes","1024"
"98.63013698630137","98.63013698630137","483.4931506849315","483.4931506849315","black","legacy","legacy","legacy","0","incongruent","uniform","1","undefined","1","h","72","72","0","0","0","72","0","72","0","72","0","0","0","72","72","72","Sat Sep 25 17:53:42 2021","1500","The main experiment item","yes","FlankerTask.osexp","C:/Users/User/Desktop/School/Research Methods","no","mono","no","18","no","white","no","yes","768","legacy","72","72","C:/Users/User/Desktop/School/Research Methods/LW-subject-3.csv","legacy","Lentiform Loewenfeld","3.3.9","0","h","NA","s","NA","NA","h","362","NA","46032","NA","NA","362","2","legacy","1024","2","48000","-16","experiment","SSHSS","3","odd","167460","168532","47793","NA","NA","82401","1754","NA","NA","168535","1760","NA","NA","168637","169000","168636","Flanker Task","72","35295","73","yes","1024"
"98.64864864864865","98.64864864864865","482.5945945945946","482.5945945945946","black","legacy","legacy","legacy","0","congruent","uniform","1","undefined","1","h","73","73","0","0","0","73","0","73","0","73","0","0","0","73","73","73","Sat Sep 25 17:53:42 2021","1500","The main experiment item","yes","FlankerTask.osexp","C:/Users/User/Desktop/School/Research Methods","no","mono","no","18","no","white","no","yes","768","legacy","73","73","C:/Users/User/Desktop/School/Research Methods/LW-subject-3.csv","legacy","Lentiform Loewenfeld","3.3.9","0","h","NA","s","NA","NA","h","417","NA","46032","NA","NA","417","2","legacy","1024","2","48000","-16","experiment","HHHHH","3","odd","169004","170076","47793","NA","NA","82401","1754","NA","NA","170079","1760","NA","NA","170181","170600","170180","Flanker Task","73","35712","74","yes","1024"
"98.66666666666667","98.66666666666667","482.7866666666667","482.7866666666667","black","legacy","legacy","legacy","0","incongruent","uniform","1","undefined","1","s","74","74","0","0","0","74","0","74","0","74","0","0","0","74","74","74","Sat Sep 25 17:53:42 2021","1500","The main experiment item","yes","FlankerTask.osexp","C:/Users/User/Desktop/School/Research Methods","no","mono","no","18","no","white","no","yes","768","legacy","74","74","C:/Users/User/Desktop/School/Research Methods/LW-subject-3.csv","legacy","Lentiform Loewenfeld","3.3.9","0","s","NA","s","NA","NA","s","497","NA","46032","NA","NA","497","2","legacy","1024","2","48000","-16","experiment","HHSHH","3","odd","170604","171680","47793","NA","NA","82401","1754","NA","NA","171682","1760","NA","NA","171784","172282","171783","Flanker Task","74","36209","75","yes","1024"
"98.6842105263158","98.6842105263158","481.9078947368421","481.9078947368421","black","legacy","legacy","legacy","0","incongruent","uniform","1","undefined","1","s","75","75","0","0","0","75","0","75","0","75","0","0","0","75","75","75","Sat Sep 25 17:53:42 2021","1500","The main experiment item","yes","FlankerTask.osexp","C:/Users/User/Desktop/School/Research Methods","no","mono","no","18","no","white","no","yes","768","legacy","75","75","C:/Users/User/Desktop/School/Research Methods/LW-subject-3.csv","legacy","Lentiform Loewenfeld","3.3.9","0","s","NA","s","NA","NA","s","416","NA","46032","NA","NA","416","2","legacy","1024","2","48000","-16","experiment","HHSHH","3","odd","172286","173358","47793","NA","NA","82401","1754","NA","NA","173360","1760","NA","NA","173462","173879","173461","Flanker Task","75","36625","76","yes","1024"
"98.7012987012987","98.7012987012987","480.7142857142857","480.7142857142857","black","legacy","legacy","legacy","0","congruent","uniform","1","undefined","1","h","76","76","0","0","0","76","0","76","0","76","0","0","0","76","76","76","Sat Sep 25 17:53:42 2021","1500","The main experiment item","yes","FlankerTask.osexp","C:/Users/User/Desktop/School/Research Methods","no","mono","no","18","no","white","no","yes","768","legacy","76","76","C:/Users/User/Desktop/School/Research Methods/LW-subject-3.csv","legacy","Lentiform Loewenfeld","3.3.9","0","h","NA","s","NA","NA","h","390","NA","46032","NA","NA","390","2","legacy","1024","2","48000","-16","experiment","HHHHH","3","odd","173883","174956","47793","NA","NA","82401","1754","NA","NA","174958","1760","NA","NA","175060","175451","175059","Flanker Task","76","37015","77","yes","1024"
"98.71794871794872","98.71794871794872","479.43589743589746","479.43589743589746","black","legacy","legacy","legacy","0","congruent","uniform","1","undefined","1","s","77","77","0","0","0","77","0","77","0","77","0","0","0","77","77","77","Sat Sep 25 17:53:42 2021","1500","The main experiment item","yes","FlankerTask.osexp","C:/Users/User/Desktop/School/Research Methods","no","mono","no","18","no","white","no","yes","768","legacy","77","77","C:/Users/User/Desktop/School/Research Methods/LW-subject-3.csv","legacy","Lentiform Loewenfeld","3.3.9","0","s","NA","s","NA","NA","s","381","NA","46032","NA","NA","381","2","legacy","1024","2","48000","-16","experiment","SSSSS","3","odd","175455","176527","47793","NA","NA","82401","1754","NA","NA","176529","1760","NA","NA","176631","177014","176631","Flanker Task","77","37396","78","yes","1024"
"98.73417721518987","98.73417721518987","478.2151898734177","478.2151898734177","black","legacy","legacy","legacy","0","congruent","uniform","1","undefined","1","h","78","78","0","0","0","78","0","78","0","78","0","0","0","78","78","78","Sat Sep 25 17:53:42 2021","1500","The main experiment item","yes","FlankerTask.osexp","C:/Users/User/Desktop/School/Research Methods","no","mono","no","18","no","white","no","yes","768","legacy","78","78","C:/Users/User/Desktop/School/Research Methods/LW-subject-3.csv","legacy","Lentiform Loewenfeld","3.3.9","0","h","NA","s","NA","NA","h","383","NA","46032","NA","NA","383","2","legacy","1024","2","48000","-16","experiment","HHHHH","3","odd","177018","178092","47793","NA","NA","82401","1754","NA","NA","178095","1760","NA","NA","178197","178582","178197","Flanker Task","78","37779","79","yes","1024"
"98.75","98.75","477.7875","477.7875","black","legacy","legacy","legacy","0","congruent","uniform","1","undefined","1","s","79","79","0","0","0","79","0","79","0","79","0","0","0","79","79","79","Sat Sep 25 17:53:42 2021","1500","The main experiment item","yes","FlankerTask.osexp","C:/Users/User/Desktop/School/Research Methods","no","mono","no","18","no","white","no","yes","768","legacy","79","79","C:/Users/User/Desktop/School/Research Methods/LW-subject-3.csv","legacy","Lentiform Loewenfeld","3.3.9","0","s","NA","s","NA","NA","s","444","NA","46032","NA","NA","444","2","legacy","1024","2","48000","-16","experiment","SSSSS","3","odd","178587","179659","47793","NA","NA","82401","1754","NA","NA","179661","1760","NA","NA","179763","180208","179762","Flanker Task","79","38223","80","yes","1024"
"98.76543209876543","98.76543209876543","478.60493827160496","478.60493827160496","black","legacy","legacy","legacy","0","congruent","uniform","1","undefined","1","h","80","80","0","0","0","80","0","80","0","80","0","0","0","80","80","80","Sat Sep 25 17:53:42 2021","600","The main experiment item","yes","FlankerTask.osexp","C:/Users/User/Desktop/School/Research Methods","no","mono","no","18","no","white","no","yes","768","legacy","0","79","C:/Users/User/Desktop/School/Research Methods/LW-subject-3.csv","legacy","Lentiform Loewenfeld","3.3.9","0","h","NA","s","s","NA","h","544","NA","46032","30242","NA","544","2","legacy","1024","2","48000","-16","experiment","HHHHH","3","odd","180212","211546","47793","211479","NA","82401","1754","NA","NA","211548","1760","181236","NA","211650","212196","211650","Flanker Task","80","38767","81","yes","1024"
"97.5609756097561","97.5609756097561","477.9268292682927","477.9268292682927","black","legacy","legacy","legacy","0","incongruent","uniform","0","undefined","0","h","81","81","0","0","0","81","0","81","0","81","0","0","0","81","81","81","Sat Sep 25 17:53:42 2021","600","The main experiment item","yes","FlankerTask.osexp","C:/Users/User/Desktop/School/Research Methods","no","mono","no","18","no","white","no","yes","768","legacy","1","79","C:/Users/User/Desktop/School/Research Methods/LW-subject-3.csv","legacy","Lentiform Loewenfeld","3.3.9","0","s","NA","s","s","NA","s","423","NA","46032","30242","NA","423","2","legacy","1024","2","48000","-16","experiment","SSHSS","3","odd","212200","213275","47793","211479","NA","82401","1754","NA","NA","213278","1760","181236","NA","213380","213804","213380","Flanker Task","80","39190","82","yes","1024"
"97.59036144578313","97.59036144578313","477.4096385542169","477.4096385542169","black","legacy","legacy","legacy","0","congruent","uniform","1","undefined","1","s","82","82","0","0","0","82","0","82","0","82","0","0","0","82","82","82","Sat Sep 25 17:53:42 2021","600","The main experiment item","yes","FlankerTask.osexp","C:/Users/User/Desktop/School/Research Methods","no","mono","no","18","no","white","no","yes","768","legacy","2","79","C:/Users/User/Desktop/School/Research Methods/LW-subject-3.csv","legacy","Lentiform Loewenfeld","3.3.9","0","s","NA","s","s","NA","s","435","NA","46032","30242","NA","435","2","legacy","1024","2","48000","-16","experiment","SSSSS","3","odd","214311","215384","47793","211479","NA","213809","1754","NA","NA","215386","1760","181236","NA","215488","215924","215488","Flanker Task","81","39625","83","yes","1024"
"97.61904761904762","97.61904761904762","477.5595238095238","477.5595238095238","black","legacy","legacy","legacy","0","incongruent","uniform","1","undefined","1","s","83","83","0","0","0","83","0","83","0","83","0","0","0","83","83","83","Sat Sep 25 17:53:42 2021","600","The main experiment item","yes","FlankerTask.osexp","C:/Users/User/Desktop/School/Research Methods","no","mono","no","18","no","white","no","yes","768","legacy","3","79","C:/Users/User/Desktop/School/Research Methods/LW-subject-3.csv","legacy","Lentiform Loewenfeld","3.3.9","0","s","NA","s","s","NA","s","490","NA","46032","30242","NA","490","2","legacy","1024","2","48000","-16","experiment","HHSHH","3","odd","215929","217004","47793","211479","NA","213809","1754","NA","NA","217007","1760","181236","NA","217109","217601","217108","Flanker Task","82","40115","84","yes","1024"
"97.6470588235294","97.6470588235294","476.9764705882353","476.9764705882353","black","legacy","legacy","legacy","0","congruent","uniform","1","undefined","1","s","84","84","0","0","0","84","0","84","0","84","0","0","0","84","84","84","Sat Sep 25 17:53:42 2021","600","The main experiment item","yes","FlankerTask.osexp","C:/Users/User/Desktop/School/Research Methods","no","mono","no","18","no","white","no","yes","768","legacy","4","79","C:/Users/User/Desktop/School/Research Methods/LW-subject-3.csv","legacy","Lentiform Loewenfeld","3.3.9","0","s","NA","s","s","NA","s","428","NA","46032","30242","NA","428","2","legacy","1024","2","48000","-16","experiment","SSSSS","3","odd","217605","218679","47793","211479","NA","213809","1754","NA","NA","218681","1760","181236","NA","218783","219212","218783","Flanker Task","83","40543","85","yes","1024"
"97.67441860465117","97.67441860465117","475.7674418604651","475.7674418604651","black","legacy","legacy","legacy","0","incongruent","uniform","1","undefined","1","h","85","85","0","0","0","85","0","85","0","85","0","0","0","85","85","85","Sat Sep 25 17:53:42 2021","600","The main experiment item","yes","FlankerTask.osexp","C:/Users/User/Desktop/School/Research Methods","no","mono","no","18","no","white","no","yes","768","legacy","5","79","C:/Users/User/Desktop/School/Research Methods/LW-subject-3.csv","legacy","Lentiform Loewenfeld","3.3.9","0","h","NA","s","s","NA","h","373","NA","46032","30242","NA","373","2","legacy","1024","2","48000","-16","experiment","SSHSS","3","odd","219217","220290","47793","211479","NA","213809","1754","NA","NA","220293","1760","181236","NA","220395","220770","220395","Flanker Task","84","40916","86","yes","1024"
"97.70114942528735","97.70114942528735","474.6896551724138","474.6896551724138","black","legacy","legacy","legacy","0","incongruent","uniform","1","undefined","1","h","86","86","0","0","0","86","0","86","0","86","0","0","0","86","86","86","Sat Sep 25 17:53:42 2021","600","The main experiment item","yes","FlankerTask.osexp","C:/Users/User/Desktop/School/Research Methods","no","mono","no","18","no","white","no","yes","768","legacy","6","79","C:/Users/User/Desktop/School/Research Methods/LW-subject-3.csv","legacy","Lentiform Loewenfeld","3.3.9","0","h","NA","s","s","NA","h","382","NA","46032","30242","NA","382","2","legacy","1024","2","48000","-16","experiment","SSHSS","3","odd","220775","221848","47793","211479","NA","213809","1754","NA","NA","221851","1760","181236","NA","221953","222337","221953","Flanker Task","85","41298","87","yes","1024"
"97.72727272727273","97.72727272727273","473.71590909090907","473.71590909090907","black","legacy","legacy","legacy","0","congruent","uniform","1","undefined","1","h","87","87","0","0","0","87","0","87","0","87","0","0","0","87","87","87","Sat Sep 25 17:53:42 2021","600","The main experiment item","yes","FlankerTask.osexp","C:/Users/User/Desktop/School/Research Methods","no","mono","no","18","no","white","no","yes","768","legacy","7","79","C:/Users/User/Desktop/School/Research Methods/LW-subject-3.csv","legacy","Lentiform Loewenfeld","3.3.9","0","h","NA","s","s","NA","h","389","NA","46032","30242","NA","389","2","legacy","1024","2","48000","-16","experiment","HHHHH","3","odd","222341","223414","47793","211479","NA","213809","1754","NA","NA","223417","1760","181236","NA","223519","223909","223519","Flanker Task","86","41687","88","yes","1024"
"97.75280898876404","97.75280898876404","473.8876404494382","473.8876404494382","black","legacy","legacy","legacy","0","incongruent","uniform","1","undefined","1","s","88","88","0","0","0","88","0","88","0","88","0","0","0","88","88","88","Sat Sep 25 17:53:42 2021","600","The main experiment item","yes","FlankerTask.osexp","C:/Users/User/Desktop/School/Research Methods","no","mono","no","18","no","white","no","yes","768","legacy","8","79","C:/Users/User/Desktop/School/Research Methods/LW-subject-3.csv","legacy","Lentiform Loewenfeld","3.3.9","0","s","NA","s","s","NA","s","489","NA","46032","30242","NA","489","2","legacy","1024","2","48000","-16","experiment","HHSHH","3","odd","223914","224988","47793","211479","NA","213809","1754","NA","NA","224990","1760","181236","NA","225092","225582","225092","Flanker Task","87","42176","89","yes","1024"
"97.77777777777777","97.77777777777777","473.74444444444447","473.74444444444447","black","legacy","legacy","legacy","0","congruent","uniform","1","undefined","1","h","89","89","0","0","0","89","0","89","0","89","0","0","0","89","89","89","Sat Sep 25 17:53:42 2021","600","The main experiment item","yes","FlankerTask.osexp","C:/Users/User/Desktop/School/Research Methods","no","mono","no","18","no","white","no","yes","768","legacy","9","79","C:/Users/User/Desktop/School/Research Methods/LW-subject-3.csv","legacy","Lentiform Loewenfeld","3.3.9","0","h","NA","s","s","NA","h","461","NA","46032","30242","NA","461","2","legacy","1024","2","48000","-16","experiment","HHHHH","3","odd","225587","226661","47793","211479","NA","213809","1754","NA","NA","226663","1760","181236","NA","226765","227228","226764","Flanker Task","88","42637","90","yes","1024"
"97.8021978021978","97.8021978021978","473.02197802197804","473.02197802197804","black","legacy","legacy","legacy","0","congruent","uniform","1","undefined","1","s","90","90","0","0","0","90","0","90","0","90","0","0","0","90","90","90","Sat Sep 25 17:53:42 2021","600","The main experiment item","yes","FlankerTask.osexp","C:/Users/User/Desktop/School/Research Methods","no","mono","no","18","no","white","no","yes","768","legacy","10","79","C:/Users/User/Desktop/School/Research Methods/LW-subject-3.csv","legacy","Lentiform Loewenfeld","3.3.9","0","s","NA","s","s","NA","s","408","NA","46032","30242","NA","408","2","legacy","1024","2","48000","-16","experiment","SSSSS","3","odd","227231","228304","47793","211479","NA","213809","1754","NA","NA","228307","1760","181236","NA","228409","228819","228408","Flanker Task","89","43045","91","yes","1024"
"97.82608695652173","97.82608695652173","472.45652173913044","472.45652173913044","black","legacy","legacy","legacy","0","congruent","uniform","1","undefined","1","s","91","91","0","0","0","91","0","91","0","91","0","0","0","91","91","91","Sat Sep 25 17:53:42 2021","600","The main experiment item","yes","FlankerTask.osexp","C:/Users/User/Desktop/School/Research Methods","no","mono","no","18","no","white","no","yes","768","legacy","11","79","C:/Users/User/Desktop/School/Research Methods/LW-subject-3.csv","legacy","Lentiform Loewenfeld","3.3.9","0","s","NA","s","s","NA","s","421","NA","46032","30242","NA","421","2","legacy","1024","2","48000","-16","experiment","SSSSS","3","odd","228823","229896","47793","211479","NA","213809","1754","NA","NA","229898","1760","181236","NA","230000","230423","229999","Flanker Task","90","43466","92","yes","1024"
"97.84946236559139","97.84946236559139","471","471","black","legacy","legacy","legacy","0","congruent","uniform","1","undefined","1","h","92","92","0","0","0","92","0","92","0","92","0","0","0","92","92","92","Sat Sep 25 17:53:42 2021","600","The main experiment item","yes","FlankerTask.osexp","C:/Users/User/Desktop/School/Research Methods","no","mono","no","18","no","white","no","yes","768","legacy","12","79","C:/Users/User/Desktop/School/Research Methods/LW-subject-3.csv","legacy","Lentiform Loewenfeld","3.3.9","0","h","NA","s","s","NA","h","337","NA","46032","30242","NA","337","2","legacy","1024","2","48000","-16","experiment","HHHHH","3","odd","230426","231499","47793","211479","NA","213809","1754","NA","NA","231502","1760","181236","NA","231604","231942","231604","Flanker Task","91","43803","93","yes","1024"
"97.87234042553192","97.87234042553192","469.74468085106383","469.74468085106383","black","legacy","legacy","legacy","0","incongruent","uniform","1","undefined","1","s","93","93","0","0","0","93","0","93","0","93","0","0","0","93","93","93","Sat Sep 25 17:53:42 2021","600","The main experiment item","yes","FlankerTask.osexp","C:/Users/User/Desktop/School/Research Methods","no","mono","no","18","no","white","no","yes","768","legacy","13","79","C:/Users/User/Desktop/School/Research Methods/LW-subject-3.csv","legacy","Lentiform Loewenfeld","3.3.9","0","s","NA","s","s","NA","s","353","NA","46032","30242","NA","353","2","legacy","1024","2","48000","-16","experiment","HHSHH","3","odd","231946","233019","47793","211479","NA","213809","1754","NA","NA","233021","1760","181236","NA","233123","233478","233122","Flanker Task","92","44156","94","yes","1024"
"97.89473684210526","97.89473684210526","469.14736842105265","469.14736842105265","black","legacy","legacy","legacy","0","incongruent","uniform","1","undefined","1","s","94","94","0","0","0","94","0","94","0","94","0","0","0","94","94","94","Sat Sep 25 17:53:42 2021","600","The main experiment item","yes","FlankerTask.osexp","C:/Users/User/Desktop/School/Research Methods","no","mono","no","18","no","white","no","yes","768","legacy","14","79","C:/Users/User/Desktop/School/Research Methods/LW-subject-3.csv","legacy","Lentiform Loewenfeld","3.3.9","0","s","NA","s","s","NA","s","413","NA","46032","30242","NA","413","2","legacy","1024","2","48000","-16","experiment","HHSHH","3","odd","233482","234556","47793","211479","NA","213809","1754","NA","NA","234558","1760","181236","NA","234660","235075","234659","Flanker Task","93","44569","95","yes","1024"
"97.91666666666667","97.91666666666667","468.3020833333333","468.3020833333333","black","legacy","legacy","legacy","0","congruent","uniform","1","undefined","1","h","95","95","0","0","0","95","0","95","0","95","0","0","0","95","95","95","Sat Sep 25 17:53:42 2021","600","The main experiment item","yes","FlankerTask.osexp","C:/Users/User/Desktop/School/Research Methods","no","mono","no","18","no","white","no","yes","768","legacy","15","79","C:/Users/User/Desktop/School/Research Methods/LW-subject-3.csv","legacy","Lentiform Loewenfeld","3.3.9","0","h","NA","s","s","NA","h","388","NA","46032","30242","NA","388","2","legacy","1024","2","48000","-16","experiment","HHHHH","3","odd","235079","236155","47793","211479","NA","213809","1754","NA","NA","236157","1760","181236","NA","236259","236649","236259","Flanker Task","94","44957","96","yes","1024"
"97.9381443298969","97.9381443298969","468.2371134020619","468.2371134020619","black","legacy","legacy","legacy","0","incongruent","uniform","1","undefined","1","h","96","96","0","0","0","96","0","96","0","96","0","0","0","96","96","96","Sat Sep 25 17:53:42 2021","600","The main experiment item","yes","FlankerTask.osexp","C:/Users/User/Desktop/School/Research Methods","no","mono","no","18","no","white","no","yes","768","legacy","16","79","C:/Users/User/Desktop/School/Research Methods/LW-subject-3.csv","legacy","Lentiform Loewenfeld","3.3.9","0","h","NA","s","s","NA","h","462","NA","46032","30242","NA","462","2","legacy","1024","2","48000","-16","experiment","SSHSS","3","odd","236653","237728","47793","211479","NA","213809","1754","NA","NA","237731","1760","181236","NA","237833","238296","237832","Flanker Task","95","45419","97","yes","1024"
"97.95918367346938","97.95918367346938","466.98979591836735","466.98979591836735","black","legacy","legacy","legacy","0","congruent","uniform","1","undefined","1","h","97","97","0","0","0","97","0","97","0","97","0","0","0","97","97","97","Sat Sep 25 17:53:42 2021","600","The main experiment item","yes","FlankerTask.osexp","C:/Users/User/Desktop/School/Research Methods","no","mono","no","18","no","white","no","yes","768","legacy","17","79","C:/Users/User/Desktop/School/Research Methods/LW-subject-3.csv","legacy","Lentiform Loewenfeld","3.3.9","0","h","NA","s","s","NA","h","346","NA","46032","30242","NA","346","2","legacy","1024","2","48000","-16","experiment","HHHHH","3","odd","238301","239372","47793","211479","NA","213809","1754","NA","NA","239375","1760","181236","NA","239477","239825","239476","Flanker Task","96","45765","98","yes","1024"
"97.97979797979798","97.97979797979798","467.3939393939394","467.3939393939394","black","legacy","legacy","legacy","0","incongruent","uniform","1","undefined","1","h","98","98","0","0","0","98","0","98","0","98","0","0","0","98","98","98","Sat Sep 25 17:53:42 2021","600","The main experiment item","yes","FlankerTask.osexp","C:/Users/User/Desktop/School/Research Methods","no","mono","no","18","no","white","no","yes","768","legacy","18","79","C:/Users/User/Desktop/School/Research Methods/LW-subject-3.csv","legacy","Lentiform Loewenfeld","3.3.9","0","h","NA","s","s","NA","h","507","NA","46032","30242","NA","507","2","legacy","1024","2","48000","-16","experiment","SSHSS","3","odd","239829","240901","47793","211479","NA","213809","1754","NA","NA","240904","1760","181236","NA","241006","241515","241005","Flanker Task","97","46272","99","yes","1024"
"98","98","466.5","466.5","black","legacy","legacy","legacy","0","incongruent","uniform","1","undefined","1","s","99","99","0","0","0","99","0","99","0","99","0","0","0","99","99","99","Sat Sep 25 17:53:42 2021","600","The main experiment item","yes","FlankerTask.osexp","C:/Users/User/Desktop/School/Research Methods","no","mono","no","18","no","white","no","yes","768","legacy","19","79","C:/Users/User/Desktop/School/Research Methods/LW-subject-3.csv","legacy","Lentiform Loewenfeld","3.3.9","0","s","NA","s","s","NA","s","378","NA","46032","30242","NA","378","2","legacy","1024","2","48000","-16","experiment","HHSHH","3","odd","241519","242592","47793","211479","NA","213809","1754","NA","NA","242594","1760","181236","NA","242696","243075","242695","Flanker Task","98","46650","100","yes","1024"
"98.01980198019803","98.01980198019803","465.8514851485148","465.8514851485148","black","legacy","legacy","legacy","0","congruent","uniform","1","undefined","1","h","100","100","0","0","0","100","0","100","0","100","0","0","0","100","100","100","Sat Sep 25 17:53:42 2021","600","The main experiment item","yes","FlankerTask.osexp","C:/Users/User/Desktop/School/Research Methods","no","mono","no","18","no","white","no","yes","768","legacy","20","79","C:/Users/User/Desktop/School/Research Methods/LW-subject-3.csv","legacy","Lentiform Loewenfeld","3.3.9","0","h","NA","s","s","NA","h","401","NA","46032","30242","NA","401","2","legacy","1024","2","48000","-16","experiment","HHHHH","3","odd","243080","244153","47793","211479","NA","213809","1754","NA","NA","244156","1760","181236","NA","244258","244661","244257","Flanker Task","99","47051","101","yes","1024"
"98.03921568627452","98.03921568627452","465.0980392156863","465.0980392156863","black","legacy","legacy","legacy","0","congruent","uniform","1","undefined","1","h","101","101","0","0","0","101","0","101","0","101","0","0","0","101","101","101","Sat Sep 25 17:53:42 2021","600","The main experiment item","yes","FlankerTask.osexp","C:/Users/User/Desktop/School/Research Methods","no","mono","no","18","no","white","no","yes","768","legacy","21","79","C:/Users/User/Desktop/School/Research Methods/LW-subject-3.csv","legacy","Lentiform Loewenfeld","3.3.9","0","h","NA","s","s","NA","h","389","NA","46032","30242","NA","389","2","legacy","1024","2","48000","-16","experiment","HHHHH","3","odd","244665","245737","47793","211479","NA","213809","1754","NA","NA","245740","1760","181236","NA","245842","246233","245841","Flanker Task","100","47440","102","yes","1024"
"98.05825242718447","98.05825242718447","464.2718446601942","464.2718446601942","black","legacy","legacy","legacy","0","congruent","uniform","1","undefined","1","s","102","102","0","0","0","102","0","102","0","102","0","0","0","102","102","102","Sat Sep 25 17:53:42 2021","600","The main experiment item","yes","FlankerTask.osexp","C:/Users/User/Desktop/School/Research Methods","no","mono","no","18","no","white","no","yes","768","legacy","22","79","C:/Users/User/Desktop/School/Research Methods/LW-subject-3.csv","legacy","Lentiform Loewenfeld","3.3.9","0","s","NA","s","s","NA","s","380","NA","46032","30242","NA","380","2","legacy","1024","2","48000","-16","experiment","SSSSS","3","odd","246237","247311","47793","211479","NA","213809","1754","NA","NA","247313","1760","181236","NA","247415","247797","247414","Flanker Task","101","47820","103","yes","1024"
"97.11538461538461","97.11538461538461","463.28846153846155","463.28846153846155","black","legacy","legacy","legacy","0","incongruent","uniform","0","undefined","0","s","103","103","0","0","0","103","0","103","0","103","0","0","0","103","103","103","Sat Sep 25 17:53:42 2021","600","The main experiment item","yes","FlankerTask.osexp","C:/Users/User/Desktop/School/Research Methods","no","mono","no","18","no","white","no","yes","768","legacy","23","79","C:/Users/User/Desktop/School/Research Methods/LW-subject-3.csv","legacy","Lentiform Loewenfeld","3.3.9","0","h","NA","s","s","NA","h","362","NA","46032","30242","NA","362","2","legacy","1024","2","48000","-16","experiment","HHSHH","3","odd","247801","248873","47793","211479","NA","213809","1754","NA","NA","248876","1760","181236","NA","248978","249340","248977","Flanker Task","101","48182","104","yes","1024"
"97.14285714285714","97.14285714285714","463.87619047619046","463.87619047619046","black","legacy","legacy","legacy","0","incongruent","uniform","1","undefined","1","h","104","104","0","0","0","104","0","104","0","104","0","0","0","104","104","104","Sat Sep 25 17:53:42 2021","600","The main experiment item","yes","FlankerTask.osexp","C:/Users/User/Desktop/School/Research Methods","no","mono","no","18","no","white","no","yes","768","legacy","24","79","C:/Users/User/Desktop/School/Research Methods/LW-subject-3.csv","legacy","Lentiform Loewenfeld","3.3.9","0","h","NA","s","s","NA","h","525","NA","46032","30242","NA","525","2","legacy","1024","2","48000","-16","experiment","SSHSS","3","odd","249847","250919","47793","211479","NA","249345","1754","NA","NA","250922","1760","181236","NA","251024","251551","251023","Flanker Task","102","48707","105","yes","1024"
"97.16981132075472","97.16981132075472","463.6132075471698","463.6132075471698","black","legacy","legacy","legacy","0","incongruent","uniform","1","undefined","1","h","105","105","0","0","0","105","0","105","0","105","0","0","0","105","105","105","Sat Sep 25 17:53:42 2021","600","The main experiment item","yes","FlankerTask.osexp","C:/Users/User/Desktop/School/Research Methods","no","mono","no","18","no","white","no","yes","768","legacy","25","79","C:/Users/User/Desktop/School/Research Methods/LW-subject-3.csv","legacy","Lentiform Loewenfeld","3.3.9","0","h","NA","s","s","NA","h","436","NA","46032","30242","NA","436","2","legacy","1024","2","48000","-16","experiment","SSHSS","3","odd","251555","252628","47793","211479","NA","249345","1754","NA","NA","252630","1760","181236","NA","252732","253170","252732","Flanker Task","103","49143","106","yes","1024"
"97.19626168224299","97.19626168224299","463.2803738317757","463.2803738317757","black","legacy","legacy","legacy","0","incongruent","uniform","1","undefined","1","h","106","106","0","0","0","106","0","106","0","106","0","0","0","106","106","106","Sat Sep 25 17:53:42 2021","600","The main experiment item","yes","FlankerTask.osexp","C:/Users/User/Desktop/School/Research Methods","no","mono","no","18","no","white","no","yes","768","legacy","26","79","C:/Users/User/Desktop/School/Research Methods/LW-subject-3.csv","legacy","Lentiform Loewenfeld","3.3.9","0","h","NA","s","s","NA","h","428","NA","46032","30242","NA","428","2","legacy","1024","2","48000","-16","experiment","SSHSS","3","odd","253174","254246","47793","211479","NA","249345","1754","NA","NA","254248","1760","181236","NA","254350","254780","254350","Flanker Task","104","49571","107","yes","1024"
"97.22222222222223","97.22222222222223","462.85185185185185","462.85185185185185","black","legacy","legacy","legacy","0","congruent","uniform","1","undefined","1","s","107","107","0","0","0","107","0","107","0","107","0","0","0","107","107","107","Sat Sep 25 17:53:42 2021","600","The main experiment item","yes","FlankerTask.osexp","C:/Users/User/Desktop/School/Research Methods","no","mono","no","18","no","white","no","yes","768","legacy","27","79","C:/Users/User/Desktop/School/Research Methods/LW-subject-3.csv","legacy","Lentiform Loewenfeld","3.3.9","0","s","NA","s","s","NA","s","417","NA","46032","30242","NA","417","2","legacy","1024","2","48000","-16","experiment","SSSSS","3","odd","254784","255858","47793","211479","NA","249345","1754","NA","NA","255860","1760","181236","NA","255962","256381","255961","Flanker Task","105","49988","108","yes","1024"
"97.24770642201835","97.24770642201835","462.92660550458714","462.92660550458714","black","legacy","legacy","legacy","0","congruent","uniform","1","undefined","1","h","108","108","0","0","0","108","0","108","0","108","0","0","0","108","108","108","Sat Sep 25 17:53:42 2021","600","The main experiment item","yes","FlankerTask.osexp","C:/Users/User/Desktop/School/Research Methods","no","mono","no","18","no","white","no","yes","768","legacy","28","79","C:/Users/User/Desktop/School/Research Methods/LW-subject-3.csv","legacy","Lentiform Loewenfeld","3.3.9","0","h","NA","s","s","NA","h","471","NA","46032","30242","NA","471","2","legacy","1024","2","48000","-16","experiment","HHHHH","3","odd","256385","257458","47793","211479","NA","249345","1754","NA","NA","257461","1760","181236","NA","257563","258036","257563","Flanker Task","106","50459","109","yes","1024"
"97.27272727272727","97.27272727272727","462.56363636363636","462.56363636363636","black","legacy","legacy","legacy","0","congruent","uniform","1","undefined","1","s","109","109","0","0","0","109","0","109","0","109","0","0","0","109","109","109","Sat Sep 25 17:53:42 2021","600","The main experiment item","yes","FlankerTask.osexp","C:/Users/User/Desktop/School/Research Methods","no","mono","no","18","no","white","no","yes","768","legacy","29","79","C:/Users/User/Desktop/School/Research Methods/LW-subject-3.csv","legacy","Lentiform Loewenfeld","3.3.9","0","s","NA","s","s","NA","s","423","NA","46032","30242","NA","423","2","legacy","1024","2","48000","-16","experiment","SSSSS","3","odd","258040","259113","47793","211479","NA","249345","1754","NA","NA","259116","1760","181236","NA","259218","259643","259218","Flanker Task","107","50882","110","yes","1024"
"97.29729729729729","97.29729729729729","462.22522522522524","462.22522522522524","black","legacy","legacy","legacy","0","congruent","uniform","1","undefined","1","s","110","110","0","0","0","110","0","110","0","110","0","0","0","110","110","110","Sat Sep 25 17:53:42 2021","600","The main experiment item","yes","FlankerTask.osexp","C:/Users/User/Desktop/School/Research Methods","no","mono","no","18","no","white","no","yes","768","legacy","30","79","C:/Users/User/Desktop/School/Research Methods/LW-subject-3.csv","legacy","Lentiform Loewenfeld","3.3.9","0","s","NA","s","s","NA","s","425","NA","46032","30242","NA","425","2","legacy","1024","2","48000","-16","experiment","SSSSS","3","odd","259647","260722","47793","211479","NA","249345","1754","NA","NA","260725","1760","181236","NA","260827","261253","260826","Flanker Task","108","51307","111","yes","1024"
"97.32142857142857","97.32142857142857","461.89285714285717","461.89285714285717","black","legacy","legacy","legacy","0","congruent","uniform","1","undefined","1","s","111","111","0","0","0","111","0","111","0","111","0","0","0","111","111","111","Sat Sep 25 17:53:42 2021","600","The main experiment item","yes","FlankerTask.osexp","C:/Users/User/Desktop/School/Research Methods","no","mono","no","18","no","white","no","yes","768","legacy","31","79","C:/Users/User/Desktop/School/Research Methods/LW-subject-3.csv","legacy","Lentiform Loewenfeld","3.3.9","0","s","NA","s","s","NA","s","425","NA","46032","30242","NA","425","2","legacy","1024","2","48000","-16","experiment","SSSSS","3","odd","261257","262334","47793","211479","NA","249345","1754","NA","NA","262337","1760","181236","NA","262439","262866","262439","Flanker Task","109","51732","112","yes","1024"
"97.34513274336283","97.34513274336283","462.2212389380531","462.2212389380531","black","legacy","legacy","legacy","0","incongruent","uniform","1","undefined","1","h","112","112","0","0","0","112","0","112","0","112","0","0","0","112","112","112","Sat Sep 25 17:53:42 2021","600","The main experiment item","yes","FlankerTask.osexp","C:/Users/User/Desktop/School/Research Methods","no","mono","no","18","no","white","no","yes","768","legacy","32","79","C:/Users/User/Desktop/School/Research Methods/LW-subject-3.csv","legacy","Lentiform Loewenfeld","3.3.9","0","h","NA","s","s","NA","h","499","NA","46032","30242","NA","499","2","legacy","1024","2","48000","-16","experiment","SSHSS","3","odd","262870","263944","47793","211479","NA","249345","1754","NA","NA","263946","1760","181236","NA","264048","264549","264048","Flanker Task","110","52231","113","yes","1024"
"97.36842105263158","97.36842105263158","461.7280701754386","461.7280701754386","black","legacy","legacy","legacy","0","congruent","uniform","1","undefined","1","h","113","113","0","0","0","113","0","113","0","113","0","0","0","113","113","113","Sat Sep 25 17:53:42 2021","600","The main experiment item","yes","FlankerTask.osexp","C:/Users/User/Desktop/School/Research Methods","no","mono","no","18","no","white","no","yes","768","legacy","33","79","C:/Users/User/Desktop/School/Research Methods/LW-subject-3.csv","legacy","Lentiform Loewenfeld","3.3.9","0","h","NA","s","s","NA","h","406","NA","46032","30242","NA","406","2","legacy","1024","2","48000","-16","experiment","HHHHH","3","odd","264553","265626","47793","211479","NA","249345","1754","NA","NA","265628","1760","181236","NA","265730","266138","265730","Flanker Task","111","52637","114","yes","1024"
"97.3913043478261","97.3913043478261","461.8086956521739","461.8086956521739","black","legacy","legacy","legacy","0","incongruent","uniform","1","undefined","1","h","114","114","0","0","0","114","0","114","0","114","0","0","0","114","114","114","Sat Sep 25 17:53:42 2021","600","The main experiment item","yes","FlankerTask.osexp","C:/Users/User/Desktop/School/Research Methods","no","mono","no","18","no","white","no","yes","768","legacy","34","79","C:/Users/User/Desktop/School/Research Methods/LW-subject-3.csv","legacy","Lentiform Loewenfeld","3.3.9","0","h","NA","s","s","NA","h","471","NA","46032","30242","NA","471","2","legacy","1024","2","48000","-16","experiment","SSHSS","3","odd","266142","267218","47793","211479","NA","249345","1754","NA","NA","267221","1760","181236","NA","267323","267795","267322","Flanker Task","112","53108","115","yes","1024"
"97.41379310344827","97.41379310344827","460.9396551724138","460.9396551724138","black","legacy","legacy","legacy","0","congruent","uniform","1","undefined","1","h","115","115","0","0","0","115","0","115","0","115","0","0","0","115","115","115","Sat Sep 25 17:53:42 2021","600","The main experiment item","yes","FlankerTask.osexp","C:/Users/User/Desktop/School/Research Methods","no","mono","no","18","no","white","no","yes","768","legacy","35","79","C:/Users/User/Desktop/School/Research Methods/LW-subject-3.csv","legacy","Lentiform Loewenfeld","3.3.9","0","h","NA","s","s","NA","h","361","NA","46032","30242","NA","361","2","legacy","1024","2","48000","-16","experiment","HHHHH","3","odd","267800","268875","47793","211479","NA","249345","1754","NA","NA","268878","1760","181236","NA","268980","269342","268980","Flanker Task","113","53469","116","yes","1024"
"97.43589743589743","97.43589743589743","460.29059829059827","460.29059829059827","black","legacy","legacy","legacy","0","congruent","uniform","1","undefined","1","s","116","116","0","0","0","116","0","116","0","116","0","0","0","116","116","116","Sat Sep 25 17:53:42 2021","600","The main experiment item","yes","FlankerTask.osexp","C:/Users/User/Desktop/School/Research Methods","no","mono","no","18","no","white","no","yes","768","legacy","36","79","C:/Users/User/Desktop/School/Research Methods/LW-subject-3.csv","legacy","Lentiform Loewenfeld","3.3.9","0","s","NA","s","s","NA","s","385","NA","46032","30242","NA","385","2","legacy","1024","2","48000","-16","experiment","SSSSS","3","odd","269347","270423","47793","211479","NA","249345","1754","NA","NA","270425","1760","181236","NA","270527","270914","270527","Flanker Task","114","53854","117","yes","1024"
