acc,accuracy,average_response_time,avg_rt,background,canvas_backend,clock_backend,color_backend,compensation,condition,coordinates,correct,correct_instructions1,correct_keyboard_response,correct_response,count_Finish,count_ISI,count_block1,count_block2,count_block3,count_errorFeedback,count_experiment,count_faster,count_fixation,count_instructions1,count_instructions2,count_instructions3,count_keyboard_response,count_logger,count_sequence_1,count_stimulus,datetime,deadline,description,disable_garbage_collection,experiment_file,experiment_path,font_bold,font_family,font_italic,font_size,font_underline,foreground,form_clicks,fullscreen,height,keyboard_backend,live_row,live_row_block1,logfile,mouse_backend,opensesame_codename,opensesame_version,repeat_cycle,response,response_Finish,response_instructions1,response_instructions2,response_instructions3,response_keyboard_response,response_time,response_time_Finish,response_time_instructions1,response_time_instructions2,response_time_instructions3,response_time_keyboard_response,round_decimals,sampler_backend,sound_buf_size,sound_channels,sound_freq,sound_sample_size,start,stimulus,subject_nr,subject_parity,time_Finish,time_ISI,time_block1,time_block2,time_block3,time_errorFeedback,time_experiment,time_faster,time_fixation,time_instructions1,time_instructions2,time_instructions3,time_keyboard_response,time_logger,time_sequence_1,time_stimulus,title,total_correct,total_response_time,total_responses,uniform_coordinates,width
100,100,615,615,black,legacy,legacy,legacy,0,congruent,uniform,1,undefined,1,h,0,0,0,0,0,0,0,0,0,0,0,0,0,0,0,0,9/23/2021 11:28,1500,The main experiment item,yes,Flankertask.osexp,C:/Users/borna.000/Documents/PSYC/PSYC5316,no,mono,no,18,no,white,no,yes,768,legacy,0,0,C:/Users/borna.000/Desktop/MH-subject-2.csv,legacy,Lentiform Loewenfeld,3.3.9,0,h,NA,s,NA,NA,h,615,NA,16996,NA,NA,615,2,legacy,1024,2,48000,-16,experiment,HHHHH,1,odd,NA,NA,18891,NA,NA,NA,1891,NA,18969,1894,NA,NA,19071,19687,18967,19070,Flanker task,1,615,1,yes,1024
100,100,537,537,black,legacy,legacy,legacy,0,congruent,uniform,1,undefined,1,s,0,1,0,0,0,1,0,1,1,0,0,0,1,1,1,1,9/23/2021 11:28,1500,The main experiment item,yes,Flankertask.osexp,C:/Users/borna.000/Documents/PSYC/PSYC5316,no,mono,no,18,no,white,no,yes,768,legacy,1,1,C:/Users/borna.000/Desktop/MH-subject-2.csv,legacy,Lentiform Loewenfeld,3.3.9,0,s,NA,s,NA,NA,s,459,NA,16996,NA,NA,459,2,legacy,1024,2,48000,-16,experiment,SSSSS,1,odd,NA,19700,18891,NA,NA,NA,1891,NA,20780,1894,NA,NA,20881,21341,20778,20881,Flanker task,2,1074,2,yes,1024
100,100,511,511,black,legacy,legacy,legacy,0,congruent,uniform,1,undefined,1,s,0,2,0,0,0,2,0,2,2,0,0,0,2,2,2,2,9/23/2021 11:28,1500,The main experiment item,yes,Flankertask.osexp,C:/Users/borna.000/Documents/PSYC/PSYC5316,no,mono,no,18,no,white,no,yes,768,legacy,2,2,C:/Users/borna.000/Desktop/MH-subject-2.csv,legacy,Lentiform Loewenfeld,3.3.9,0,s,NA,s,NA,NA,s,459,NA,16996,NA,NA,459,2,legacy,1024,2,48000,-16,experiment,SSSSS,1,odd,NA,21350,18891,NA,NA,NA,1891,NA,22417,1894,NA,NA,22518,22978,22414,22518,Flanker task,3,1533,3,yes,1024
75,75,499,499,black,legacy,legacy,legacy,0,incongruent,uniform,0,undefined,0,h,0,3,0,0,0,3,0,3,3,0,0,0,3,3,3,3,9/23/2021 11:28,1500,The main experiment item,yes,Flankertask.osexp,C:/Users/borna.000/Documents/PSYC/PSYC5316,no,mono,no,18,no,white,no,yes,768,legacy,3,3,C:/Users/borna.000/Desktop/MH-subject-2.csv,legacy,Lentiform Loewenfeld,3.3.9,0,s,NA,s,NA,NA,s,463,NA,16996,NA,NA,463,2,legacy,1024,2,48000,-16,experiment,SSHSS,1,odd,NA,22986,18891,NA,NA,NA,1891,NA,24053,1894,NA,NA,24154,24617,24051,24154,Flanker task,3,1996,4,yes,1024
80,80,492.8,492.8,black,legacy,legacy,legacy,0,congruent,uniform,1,undefined,1,s,0,4,0,0,0,4,0,4,4,0,0,0,4,4,4,4,9/23/2021 11:28,1500,The main experiment item,yes,Flankertask.osexp,C:/Users/borna.000/Documents/PSYC/PSYC5316,no,mono,no,18,no,white,no,yes,768,legacy,4,4,C:/Users/borna.000/Desktop/MH-subject-2.csv,legacy,Lentiform Loewenfeld,3.3.9,0,s,NA,s,NA,NA,s,468,NA,16996,NA,NA,468,2,legacy,1024,2,48000,-16,experiment,SSSSS,1,odd,NA,25126,18891,NA,NA,24625,1891,NA,26183,1894,NA,NA,26284,26753,26181,26284,Flanker task,4,2464,5,yes,1024
83.33333333,83.33333333,502.1666667,502.1666667,black,legacy,legacy,legacy,0,incongruent,uniform,1,undefined,1,s,0,5,0,0,0,5,0,5,5,0,0,0,5,5,5,5,9/23/2021 11:28,1500,The main experiment item,yes,Flankertask.osexp,C:/Users/borna.000/Documents/PSYC/PSYC5316,no,mono,no,18,no,white,no,yes,768,legacy,5,5,C:/Users/borna.000/Desktop/MH-subject-2.csv,legacy,Lentiform Loewenfeld,3.3.9,0,s,NA,s,NA,NA,s,549,NA,16996,NA,NA,549,2,legacy,1024,2,48000,-16,experiment,HHSHH,1,odd,NA,26762,18891,NA,NA,24625,1891,NA,27827,1894,NA,NA,27928,28477,27825,27928,Flanker task,5,3013,6,yes,1024
85.71428571,85.71428571,514.1428571,514.1428571,black,legacy,legacy,legacy,0,incongruent,uniform,1,undefined,1,h,0,6,0,0,0,6,0,6,6,0,0,0,6,6,6,6,9/23/2021 11:28,1500,The main experiment item,yes,Flankertask.osexp,C:/Users/borna.000/Documents/PSYC/PSYC5316,no,mono,no,18,no,white,no,yes,768,legacy,6,6,C:/Users/borna.000/Desktop/MH-subject-2.csv,legacy,Lentiform Loewenfeld,3.3.9,0,h,NA,s,NA,NA,h,586,NA,16996,NA,NA,586,2,legacy,1024,2,48000,-16,experiment,SSHSS,1,odd,NA,28485,18891,NA,NA,24625,1891,NA,29552,1894,NA,NA,29654,30240,29550,29654,Flanker task,6,3599,7,yes,1024
87.5,87.5,514,514,black,legacy,legacy,legacy,0,congruent,uniform,1,undefined,1,s,0,7,0,0,0,7,0,7,7,0,0,0,7,7,7,7,9/23/2021 11:28,1500,The main experiment item,yes,Flankertask.osexp,C:/Users/borna.000/Documents/PSYC/PSYC5316,no,mono,no,18,no,white,no,yes,768,legacy,7,7,C:/Users/borna.000/Desktop/MH-subject-2.csv,legacy,Lentiform Loewenfeld,3.3.9,0,s,NA,s,NA,NA,s,513,NA,16996,NA,NA,513,2,legacy,1024,2,48000,-16,experiment,SSSSS,1,odd,NA,30249,18891,NA,NA,24625,1891,NA,31315,1894,NA,NA,31416,31929,31312,31416,Flanker task,7,4112,8,yes,1024
88.88888889,88.88888889,532.3333333,532.3333333,black,legacy,legacy,legacy,0,congruent,uniform,1,undefined,1,h,0,8,0,0,0,8,0,8,8,0,0,0,8,8,8,8,9/23/2021 11:28,1500,The main experiment item,yes,Flankertask.osexp,C:/Users/borna.000/Documents/PSYC/PSYC5316,no,mono,no,18,no,white,no,yes,768,legacy,8,8,C:/Users/borna.000/Desktop/MH-subject-2.csv,legacy,Lentiform Loewenfeld,3.3.9,0,h,NA,s,NA,NA,h,679,NA,16996,NA,NA,679,2,legacy,1024,2,48000,-16,experiment,HHHHH,1,odd,NA,31937,18891,NA,NA,24625,1891,NA,33004,1894,NA,NA,33105,33785,33002,33105,Flanker task,8,4791,9,yes,1024
90,90,545.9,545.9,black,legacy,legacy,legacy,0,incongruent,uniform,1,undefined,1,s,0,9,0,0,0,9,0,9,9,0,0,0,9,9,9,9,9/23/2021 11:28,1500,The main experiment item,yes,Flankertask.osexp,C:/Users/borna.000/Documents/PSYC/PSYC5316,no,mono,no,18,no,white,no,yes,768,legacy,9,9,C:/Users/borna.000/Desktop/MH-subject-2.csv,legacy,Lentiform Loewenfeld,3.3.9,0,s,NA,s,NA,NA,s,668,NA,16996,NA,NA,668,2,legacy,1024,2,48000,-16,experiment,HHSHH,1,odd,NA,33793,18891,NA,NA,24625,1891,NA,34858,1894,NA,NA,34959,35627,34856,34959,Flanker task,9,5459,10,yes,1024
90.90909091,90.90909091,547.0909091,547.0909091,black,legacy,legacy,legacy,0,incongruent,uniform,1,undefined,1,s,0,10,0,0,0,10,0,10,10,0,0,0,10,10,10,10,9/23/2021 11:28,1500,The main experiment item,yes,Flankertask.osexp,C:/Users/borna.000/Documents/PSYC/PSYC5316,no,mono,no,18,no,white,no,yes,768,legacy,10,10,C:/Users/borna.000/Desktop/MH-subject-2.csv,legacy,Lentiform Loewenfeld,3.3.9,0,s,NA,s,NA,NA,s,559,NA,16996,NA,NA,559,2,legacy,1024,2,48000,-16,experiment,HHSHH,1,odd,NA,35635,18891,NA,NA,24625,1891,NA,36699,1894,NA,NA,36800,37360,36697,36800,Flanker task,10,6018,11,yes,1024
91.66666667,91.66666667,549,549,black,legacy,legacy,legacy,0,incongruent,uniform,1,undefined,1,h,0,11,0,0,0,11,0,11,11,0,0,0,11,11,11,11,9/23/2021 11:28,1500,The main experiment item,yes,Flankertask.osexp,C:/Users/borna.000/Documents/PSYC/PSYC5316,no,mono,no,18,no,white,no,yes,768,legacy,11,11,C:/Users/borna.000/Desktop/MH-subject-2.csv,legacy,Lentiform Loewenfeld,3.3.9,0,h,NA,s,NA,NA,h,570,NA,16996,NA,NA,570,2,legacy,1024,2,48000,-16,experiment,SSHSS,1,odd,NA,37368,18891,NA,NA,24625,1891,NA,38432,1894,NA,NA,38533,39103,38430,38533,Flanker task,11,6588,12,yes,1024
92.30769231,92.30769231,544.9230769,544.9230769,black,legacy,legacy,legacy,0,incongruent,uniform,1,undefined,1,s,0,12,0,0,0,12,0,12,12,0,0,0,12,12,12,12,9/23/2021 11:28,1500,The main experiment item,yes,Flankertask.osexp,C:/Users/borna.000/Documents/PSYC/PSYC5316,no,mono,no,18,no,white,no,yes,768,legacy,12,12,C:/Users/borna.000/Desktop/MH-subject-2.csv,legacy,Lentiform Loewenfeld,3.3.9,0,s,NA,s,NA,NA,s,496,NA,16996,NA,NA,496,2,legacy,1024,2,48000,-16,experiment,HHSHH,1,odd,NA,39112,18891,NA,NA,24625,1891,NA,40174,1894,NA,NA,40275,40772,40172,40275,Flanker task,12,7084,13,yes,1024
92.85714286,92.85714286,543.3571429,543.3571429,black,legacy,legacy,legacy,0,incongruent,uniform,1,undefined,1,h,0,13,0,0,0,13,0,13,13,0,0,0,13,13,13,13,9/23/2021 11:28,1500,The main experiment item,yes,Flankertask.osexp,C:/Users/borna.000/Documents/PSYC/PSYC5316,no,mono,no,18,no,white,no,yes,768,legacy,13,13,C:/Users/borna.000/Desktop/MH-subject-2.csv,legacy,Lentiform Loewenfeld,3.3.9,0,h,NA,s,NA,NA,h,523,NA,16996,NA,NA,523,2,legacy,1024,2,48000,-16,experiment,SSHSS,1,odd,NA,40780,18891,NA,NA,24625,1891,NA,41844,1894,NA,NA,41945,42468,41842,41945,Flanker task,13,7607,14,yes,1024
93.33333333,93.33333333,538.2,538.2,black,legacy,legacy,legacy,0,incongruent,uniform,1,undefined,1,s,0,14,0,0,0,14,0,14,14,0,0,0,14,14,14,14,9/23/2021 11:28,1500,The main experiment item,yes,Flankertask.osexp,C:/Users/borna.000/Documents/PSYC/PSYC5316,no,mono,no,18,no,white,no,yes,768,legacy,14,14,C:/Users/borna.000/Desktop/MH-subject-2.csv,legacy,Lentiform Loewenfeld,3.3.9,0,s,NA,s,NA,NA,s,466,NA,16996,NA,NA,466,2,legacy,1024,2,48000,-16,experiment,HHSHH,1,odd,NA,42476,18891,NA,NA,24625,1891,NA,43537,1894,NA,NA,43638,44105,43535,43638,Flanker task,14,8073,15,yes,1024
87.5,87.5,530,530,black,legacy,legacy,legacy,0,incongruent,uniform,0,undefined,0,h,0,15,0,0,0,15,0,15,15,0,0,0,15,15,15,15,9/23/2021 11:28,1500,The main experiment item,yes,Flankertask.osexp,C:/Users/borna.000/Documents/PSYC/PSYC5316,no,mono,no,18,no,white,no,yes,768,legacy,15,15,C:/Users/borna.000/Desktop/MH-subject-2.csv,legacy,Lentiform Loewenfeld,3.3.9,0,s,NA,s,NA,NA,s,407,NA,16996,NA,NA,407,2,legacy,1024,2,48000,-16,experiment,SSHSS,1,odd,NA,44113,18891,NA,NA,24625,1891,NA,45175,1894,NA,NA,45276,45684,45173,45276,Flanker task,14,8480,16,yes,1024
88.23529412,88.23529412,529.3529412,529.3529412,black,legacy,legacy,legacy,0,congruent,uniform,1,undefined,1,s,0,16,0,0,0,16,0,16,16,0,0,0,16,16,16,16,9/23/2021 11:28,1500,The main experiment item,yes,Flankertask.osexp,C:/Users/borna.000/Documents/PSYC/PSYC5316,no,mono,no,18,no,white,no,yes,768,legacy,16,16,C:/Users/borna.000/Desktop/MH-subject-2.csv,legacy,Lentiform Loewenfeld,3.3.9,0,s,NA,s,NA,NA,s,519,NA,16996,NA,NA,519,2,legacy,1024,2,48000,-16,experiment,SSSSS,1,odd,NA,46194,18891,NA,NA,45693,1891,NA,47250,1894,NA,NA,47351,47871,47248,47351,Flanker task,15,8999,17,yes,1024
88.88888889,88.88888889,527,527,black,legacy,legacy,legacy,0,congruent,uniform,1,undefined,1,h,0,17,0,0,0,17,0,17,17,0,0,0,17,17,17,17,9/23/2021 11:28,1500,The main experiment item,yes,Flankertask.osexp,C:/Users/borna.000/Documents/PSYC/PSYC5316,no,mono,no,18,no,white,no,yes,768,legacy,17,17,C:/Users/borna.000/Desktop/MH-subject-2.csv,legacy,Lentiform Loewenfeld,3.3.9,0,h,NA,s,NA,NA,h,487,NA,16996,NA,NA,487,2,legacy,1024,2,48000,-16,experiment,HHHHH,1,odd,NA,47879,18891,NA,NA,45693,1891,NA,48950,1894,NA,NA,49051,49538,48948,49051,Flanker task,16,9486,18,yes,1024
89.47368421,89.47368421,521.3157895,521.3157895,black,legacy,legacy,legacy,0,congruent,uniform,1,undefined,1,h,0,18,0,0,0,18,0,18,18,0,0,0,18,18,18,18,9/23/2021 11:28,1500,The main experiment item,yes,Flankertask.osexp,C:/Users/borna.000/Documents/PSYC/PSYC5316,no,mono,no,18,no,white,no,yes,768,legacy,18,18,C:/Users/borna.000/Desktop/MH-subject-2.csv,legacy,Lentiform Loewenfeld,3.3.9,0,h,NA,s,NA,NA,h,419,NA,16996,NA,NA,419,2,legacy,1024,2,48000,-16,experiment,HHHHH,1,odd,NA,49547,18891,NA,NA,45693,1891,NA,50610,1894,NA,NA,50711,51130,50608,50711,Flanker task,17,9905,19,yes,1024
90,90,517.9,517.9,black,legacy,legacy,legacy,0,incongruent,uniform,1,undefined,1,s,0,19,0,0,0,19,0,19,19,0,0,0,19,19,19,19,9/23/2021 11:28,1500,The main experiment item,yes,Flankertask.osexp,C:/Users/borna.000/Documents/PSYC/PSYC5316,no,mono,no,18,no,white,no,yes,768,legacy,19,19,C:/Users/borna.000/Desktop/MH-subject-2.csv,legacy,Lentiform Loewenfeld,3.3.9,0,s,NA,s,NA,NA,s,453,NA,16996,NA,NA,453,2,legacy,1024,2,48000,-16,experiment,HHSHH,1,odd,NA,51139,18891,NA,NA,45693,1891,NA,52206,1894,NA,NA,52307,52761,52204,52307,Flanker task,18,10358,20,yes,1024
90.47619048,90.47619048,515.0952381,515.0952381,black,legacy,legacy,legacy,0,congruent,uniform,1,undefined,1,h,0,20,0,0,0,20,0,20,20,0,0,0,20,20,20,20,9/23/2021 11:28,1500,The main experiment item,yes,Flankertask.osexp,C:/Users/borna.000/Documents/PSYC/PSYC5316,no,mono,no,18,no,white,no,yes,768,legacy,20,20,C:/Users/borna.000/Desktop/MH-subject-2.csv,legacy,Lentiform Loewenfeld,3.3.9,0,h,NA,s,NA,NA,h,459,NA,16996,NA,NA,459,2,legacy,1024,2,48000,-16,experiment,HHHHH,1,odd,NA,52769,18891,NA,NA,45693,1891,NA,53840,1894,NA,NA,53941,54400,53837,53941,Flanker task,19,10817,21,yes,1024
90.90909091,90.90909091,513.1818182,513.1818182,black,legacy,legacy,legacy,0,congruent,uniform,1,undefined,1,s,0,21,0,0,0,21,0,21,21,0,0,0,21,21,21,21,9/23/2021 11:28,1500,The main experiment item,yes,Flankertask.osexp,C:/Users/borna.000/Documents/PSYC/PSYC5316,no,mono,no,18,no,white,no,yes,768,legacy,21,21,C:/Users/borna.000/Desktop/MH-subject-2.csv,legacy,Lentiform Loewenfeld,3.3.9,0,s,NA,s,NA,NA,s,473,NA,16996,NA,NA,473,2,legacy,1024,2,48000,-16,experiment,SSSSS,1,odd,NA,54409,18891,NA,NA,45693,1891,NA,55472,1894,NA,NA,55573,56046,55470,55573,Flanker task,20,11290,22,yes,1024
86.95652174,86.95652174,510.4782609,510.4782609,black,legacy,legacy,legacy,0,incongruent,uniform,0,undefined,0,h,0,22,0,0,0,22,0,22,22,0,0,0,22,22,22,22,9/23/2021 11:28,1500,The main experiment item,yes,Flankertask.osexp,C:/Users/borna.000/Documents/PSYC/PSYC5316,no,mono,no,18,no,white,no,yes,768,legacy,22,22,C:/Users/borna.000/Desktop/MH-subject-2.csv,legacy,Lentiform Loewenfeld,3.3.9,0,s,NA,s,NA,NA,s,451,NA,16996,NA,NA,451,2,legacy,1024,2,48000,-16,experiment,SSHSS,1,odd,NA,56055,18891,NA,NA,45693,1891,NA,57120,1894,NA,NA,57221,57672,57117,57221,Flanker task,20,11741,23,yes,1024
87.5,87.5,509.5416667,509.5416667,black,legacy,legacy,legacy,0,congruent,uniform,1,undefined,1,h,0,23,0,0,0,23,0,23,23,0,0,0,23,23,23,23,9/23/2021 11:28,1500,The main experiment item,yes,Flankertask.osexp,C:/Users/borna.000/Documents/PSYC/PSYC5316,no,mono,no,18,no,white,no,yes,768,legacy,23,23,C:/Users/borna.000/Desktop/MH-subject-2.csv,legacy,Lentiform Loewenfeld,3.3.9,0,h,NA,s,NA,NA,h,488,NA,16996,NA,NA,488,2,legacy,1024,2,48000,-16,experiment,HHHHH,1,odd,NA,58181,18891,NA,NA,57680,1891,NA,59237,1894,NA,NA,59338,59827,59235,59338,Flanker task,21,12229,24,yes,1024
88,88,505.12,505.12,black,legacy,legacy,legacy,0,incongruent,uniform,1,undefined,1,s,0,24,0,0,0,24,0,24,24,0,0,0,24,24,24,24,9/23/2021 11:28,1500,The main experiment item,yes,Flankertask.osexp,C:/Users/borna.000/Documents/PSYC/PSYC5316,no,mono,no,18,no,white,no,yes,768,legacy,24,24,C:/Users/borna.000/Desktop/MH-subject-2.csv,legacy,Lentiform Loewenfeld,3.3.9,0,s,NA,s,NA,NA,s,399,NA,16996,NA,NA,399,2,legacy,1024,2,48000,-16,experiment,HHSHH,1,odd,NA,59835,18891,NA,NA,57680,1891,NA,60902,1894,NA,NA,61003,61403,60900,61003,Flanker task,22,12628,25,yes,1024
88.46153846,88.46153846,496.8076923,496.8076923,black,legacy,legacy,legacy,0,congruent,uniform,1,undefined,1,h,0,25,0,0,0,25,0,25,25,0,0,0,25,25,25,25,9/23/2021 11:28,1500,The main experiment item,yes,Flankertask.osexp,C:/Users/borna.000/Documents/PSYC/PSYC5316,no,mono,no,18,no,white,no,yes,768,legacy,25,25,C:/Users/borna.000/Desktop/MH-subject-2.csv,legacy,Lentiform Loewenfeld,3.3.9,0,h,NA,s,NA,NA,h,289,NA,16996,NA,NA,289,2,legacy,1024,2,48000,-16,experiment,HHHHH,1,odd,NA,61412,18891,NA,NA,57680,1891,NA,62473,1894,NA,NA,62574,62863,62471,62574,Flanker task,23,12917,26,yes,1024
88.88888889,88.88888889,489.3703704,489.3703704,black,legacy,legacy,legacy,0,incongruent,uniform,1,undefined,1,s,0,26,0,0,0,26,0,26,26,0,0,0,26,26,26,26,9/23/2021 11:28,1500,The main experiment item,yes,Flankertask.osexp,C:/Users/borna.000/Documents/PSYC/PSYC5316,no,mono,no,18,no,white,no,yes,768,legacy,26,26,C:/Users/borna.000/Desktop/MH-subject-2.csv,legacy,Lentiform Loewenfeld,3.3.9,0,s,NA,s,NA,NA,s,296,NA,16996,NA,NA,296,2,legacy,1024,2,48000,-16,experiment,HHSHH,1,odd,NA,62872,18891,NA,NA,57680,1891,NA,63927,1894,NA,NA,64028,64325,63925,64028,Flanker task,24,13213,27,yes,1024
85.71428571,85.71428571,481.5,481.5,black,legacy,legacy,legacy,0,congruent,uniform,0,undefined,0,s,0,27,0,0,0,27,0,27,27,0,0,0,27,27,27,27,9/23/2021 11:28,1500,The main experiment item,yes,Flankertask.osexp,C:/Users/borna.000/Documents/PSYC/PSYC5316,no,mono,no,18,no,white,no,yes,768,legacy,27,27,C:/Users/borna.000/Desktop/MH-subject-2.csv,legacy,Lentiform Loewenfeld,3.3.9,0,h,NA,s,NA,NA,h,269,NA,16996,NA,NA,269,2,legacy,1024,2,48000,-16,experiment,SSSSS,1,odd,NA,64333,18891,NA,NA,57680,1891,NA,65398,1894,NA,NA,65499,65769,65396,65499,Flanker task,24,13482,28,yes,1024
86.20689655,86.20689655,486.2413793,486.2413793,black,legacy,legacy,legacy,0,congruent,uniform,1,undefined,1,h,0,28,0,0,0,28,0,28,28,0,0,0,28,28,28,28,9/23/2021 11:28,1500,The main experiment item,yes,Flankertask.osexp,C:/Users/borna.000/Documents/PSYC/PSYC5316,no,mono,no,18,no,white,no,yes,768,legacy,28,28,C:/Users/borna.000/Desktop/MH-subject-2.csv,legacy,Lentiform Loewenfeld,3.3.9,0,h,NA,s,NA,NA,h,619,NA,16996,NA,NA,619,2,legacy,1024,2,48000,-16,experiment,HHHHH,1,odd,NA,66278,18891,NA,NA,65777,1891,NA,67335,1894,NA,NA,67436,68056,67332,67436,Flanker task,25,14101,29,yes,1024
86.66666667,86.66666667,480.7,480.7,black,legacy,legacy,legacy,0,congruent,uniform,1,undefined,1,s,0,29,0,0,0,29,0,29,29,0,0,0,29,29,29,29,9/23/2021 11:28,1500,The main experiment item,yes,Flankertask.osexp,C:/Users/borna.000/Documents/PSYC/PSYC5316,no,mono,no,18,no,white,no,yes,768,legacy,29,29,C:/Users/borna.000/Desktop/MH-subject-2.csv,legacy,Lentiform Loewenfeld,3.3.9,0,s,NA,s,NA,NA,s,320,NA,16996,NA,NA,320,2,legacy,1024,2,48000,-16,experiment,SSSSS,1,odd,NA,68064,18891,NA,NA,65777,1891,NA,69126,1894,NA,NA,69228,69549,69123,69227,Flanker task,26,14421,30,yes,1024
87.09677419,87.09677419,480.0645161,480.0645161,black,legacy,legacy,legacy,0,congruent,uniform,1,undefined,1,s,0,30,0,0,0,30,0,30,30,0,0,0,30,30,30,30,9/23/2021 11:28,1500,The main experiment item,yes,Flankertask.osexp,C:/Users/borna.000/Documents/PSYC/PSYC5316,no,mono,no,18,no,white,no,yes,768,legacy,30,30,C:/Users/borna.000/Desktop/MH-subject-2.csv,legacy,Lentiform Loewenfeld,3.3.9,0,s,NA,s,NA,NA,s,461,NA,16996,NA,NA,461,2,legacy,1024,2,48000,-16,experiment,SSSSS,1,odd,NA,69557,18891,NA,NA,65777,1891,NA,70624,1894,NA,NA,70725,71186,70622,70725,Flanker task,27,14882,31,yes,1024
87.5,87.5,477.625,477.625,black,legacy,legacy,legacy,0,incongruent,uniform,1,undefined,1,s,0,31,0,0,0,31,0,31,31,0,0,0,31,31,31,31,9/23/2021 11:28,1500,The main experiment item,yes,Flankertask.osexp,C:/Users/borna.000/Documents/PSYC/PSYC5316,no,mono,no,18,no,white,no,yes,768,legacy,31,31,C:/Users/borna.000/Desktop/MH-subject-2.csv,legacy,Lentiform Loewenfeld,3.3.9,0,s,NA,s,NA,NA,s,402,NA,16996,NA,NA,402,2,legacy,1024,2,48000,-16,experiment,HHSHH,1,odd,NA,71195,18891,NA,NA,65777,1891,NA,72262,1894,NA,NA,72364,72767,72260,72364,Flanker task,28,15284,32,yes,1024
84.84848485,84.84848485,477.6363636,477.6363636,black,legacy,legacy,legacy,0,incongruent,uniform,0,undefined,0,s,0,32,0,0,0,32,0,32,32,0,0,0,32,32,32,32,9/23/2021 11:28,1500,The main experiment item,yes,Flankertask.osexp,C:/Users/borna.000/Documents/PSYC/PSYC5316,no,mono,no,18,no,white,no,yes,768,legacy,32,32,C:/Users/borna.000/Desktop/MH-subject-2.csv,legacy,Lentiform Loewenfeld,3.3.9,0,h,NA,s,NA,NA,h,478,NA,16996,NA,NA,478,2,legacy,1024,2,48000,-16,experiment,HHSHH,1,odd,NA,72775,18891,NA,NA,65777,1891,NA,73840,1894,NA,NA,73941,74419,73837,73941,Flanker task,28,15762,33,yes,1024
85.29411765,85.29411765,481.5,481.5,black,legacy,legacy,legacy,0,incongruent,uniform,1,undefined,1,h,0,33,0,0,0,33,0,33,33,0,0,0,33,33,33,33,9/23/2021 11:28,1500,The main experiment item,yes,Flankertask.osexp,C:/Users/borna.000/Documents/PSYC/PSYC5316,no,mono,no,18,no,white,no,yes,768,legacy,33,33,C:/Users/borna.000/Desktop/MH-subject-2.csv,legacy,Lentiform Loewenfeld,3.3.9,0,h,NA,s,NA,NA,h,609,NA,16996,NA,NA,609,2,legacy,1024,2,48000,-16,experiment,SSHSS,1,odd,NA,74929,18891,NA,NA,74428,1891,NA,75985,1894,NA,NA,76086,76696,75983,76086,Flanker task,29,16371,34,yes,1024
85.71428571,85.71428571,479.8857143,479.8857143,black,legacy,legacy,legacy,0,incongruent,uniform,1,undefined,1,s,0,34,0,0,0,34,0,34,34,0,0,0,34,34,34,34,9/23/2021 11:28,1500,The main experiment item,yes,Flankertask.osexp,C:/Users/borna.000/Documents/PSYC/PSYC5316,no,mono,no,18,no,white,no,yes,768,legacy,34,34,C:/Users/borna.000/Desktop/MH-subject-2.csv,legacy,Lentiform Loewenfeld,3.3.9,0,s,NA,s,NA,NA,s,425,NA,16996,NA,NA,425,2,legacy,1024,2,48000,-16,experiment,HHSHH,1,odd,NA,76705,18891,NA,NA,74428,1891,NA,77767,1894,NA,NA,77868,78293,77765,77868,Flanker task,30,16796,35,yes,1024
86.11111111,86.11111111,477.2222222,477.2222222,black,legacy,legacy,legacy,0,congruent,uniform,1,undefined,1,s,0,35,0,0,0,35,0,35,35,0,0,0,35,35,35,35,9/23/2021 11:28,1500,The main experiment item,yes,Flankertask.osexp,C:/Users/borna.000/Documents/PSYC/PSYC5316,no,mono,no,18,no,white,no,yes,768,legacy,35,35,C:/Users/borna.000/Desktop/MH-subject-2.csv,legacy,Lentiform Loewenfeld,3.3.9,0,s,NA,s,NA,NA,s,384,NA,16996,NA,NA,384,2,legacy,1024,2,48000,-16,experiment,SSSSS,1,odd,NA,78301,18891,NA,NA,74428,1891,NA,79363,1894,NA,NA,79465,79849,79360,79465,Flanker task,31,17180,36,yes,1024
86.48648649,86.48648649,479.6756757,479.6756757,black,legacy,legacy,legacy,0,congruent,uniform,1,undefined,1,h,0,36,0,0,0,36,0,36,36,0,0,0,36,36,36,36,9/23/2021 11:28,1500,The main experiment item,yes,Flankertask.osexp,C:/Users/borna.000/Documents/PSYC/PSYC5316,no,mono,no,18,no,white,no,yes,768,legacy,36,36,C:/Users/borna.000/Desktop/MH-subject-2.csv,legacy,Lentiform Loewenfeld,3.3.9,0,h,NA,s,NA,NA,h,568,NA,16996,NA,NA,568,2,legacy,1024,2,48000,-16,experiment,HHHHH,1,odd,NA,79853,18891,NA,NA,74428,1891,NA,80918,1894,NA,NA,81019,81587,80916,81019,Flanker task,32,17748,37,yes,1024
84.21052632,84.21052632,477.7894737,477.7894737,black,legacy,legacy,legacy,0,incongruent,uniform,0,undefined,0,h,0,37,0,0,0,37,0,37,37,0,0,0,37,37,37,37,9/23/2021 11:28,1500,The main experiment item,yes,Flankertask.osexp,C:/Users/borna.000/Documents/PSYC/PSYC5316,no,mono,no,18,no,white,no,yes,768,legacy,37,37,C:/Users/borna.000/Desktop/MH-subject-2.csv,legacy,Lentiform Loewenfeld,3.3.9,0,s,NA,s,NA,NA,s,408,NA,16996,NA,NA,408,2,legacy,1024,2,48000,-16,experiment,SSHSS,1,odd,NA,81595,18891,NA,NA,74428,1891,NA,82662,1894,NA,NA,82763,83171,82659,82763,Flanker task,32,18156,38,yes,1024
82.05128205,82.05128205,478.9230769,478.9230769,black,legacy,legacy,legacy,0,incongruent,uniform,0,undefined,0,h,0,38,0,0,0,38,0,38,38,0,0,0,38,38,38,38,9/23/2021 11:28,1500,The main experiment item,yes,Flankertask.osexp,C:/Users/borna.000/Documents/PSYC/PSYC5316,no,mono,no,18,no,white,no,yes,768,legacy,38,38,C:/Users/borna.000/Desktop/MH-subject-2.csv,legacy,Lentiform Loewenfeld,3.3.9,0,s,NA,s,NA,NA,s,522,NA,16996,NA,NA,522,2,legacy,1024,2,48000,-16,experiment,SSHSS,1,odd,NA,83682,18891,NA,NA,83181,1891,NA,84738,1894,NA,NA,84839,85362,84735,84839,Flanker task,32,18678,39,yes,1024
82.5,82.5,477.3,477.3,black,legacy,legacy,legacy,0,incongruent,uniform,1,undefined,1,h,0,39,0,0,0,39,0,39,39,0,0,0,39,39,39,39,9/23/2021 11:28,1500,The main experiment item,yes,Flankertask.osexp,C:/Users/borna.000/Documents/PSYC/PSYC5316,no,mono,no,18,no,white,no,yes,768,legacy,39,39,C:/Users/borna.000/Desktop/MH-subject-2.csv,legacy,Lentiform Loewenfeld,3.3.9,0,h,NA,s,NA,NA,h,414,NA,16996,NA,NA,414,2,legacy,1024,2,48000,-16,experiment,SSHSS,1,odd,NA,85872,18891,NA,NA,85371,1891,NA,86929,1894,NA,NA,87030,87445,86927,87030,Flanker task,33,19092,40,yes,1024
82.92682927,82.92682927,478.4390244,478.4390244,black,legacy,legacy,legacy,0,incongruent,uniform,1,undefined,1,s,0,40,0,0,0,40,0,40,40,0,0,0,40,40,40,40,9/23/2021 11:28,1500,The main experiment item,yes,Flankertask.osexp,C:/Users/borna.000/Documents/PSYC/PSYC5316,no,mono,no,18,no,white,no,yes,768,legacy,40,40,C:/Users/borna.000/Desktop/MH-subject-2.csv,legacy,Lentiform Loewenfeld,3.3.9,0,s,NA,s,NA,NA,s,524,NA,16996,NA,NA,524,2,legacy,1024,2,48000,-16,experiment,HHSHH,1,odd,NA,87452,18891,NA,NA,85371,1891,NA,88516,1894,NA,NA,88617,89142,88513,88617,Flanker task,34,19616,41,yes,1024
83.33333333,83.33333333,480.2142857,480.2142857,black,legacy,legacy,legacy,0,incongruent,uniform,1,undefined,1,s,0,41,0,0,0,41,0,41,41,0,0,0,41,41,41,41,9/23/2021 11:28,1500,The main experiment item,yes,Flankertask.osexp,C:/Users/borna.000/Documents/PSYC/PSYC5316,no,mono,no,18,no,white,no,yes,768,legacy,41,41,C:/Users/borna.000/Desktop/MH-subject-2.csv,legacy,Lentiform Loewenfeld,3.3.9,0,s,NA,s,NA,NA,s,553,NA,16996,NA,NA,553,2,legacy,1024,2,48000,-16,experiment,HHSHH,1,odd,NA,89151,18891,NA,NA,85371,1891,NA,90217,1894,NA,NA,90318,90871,90214,90318,Flanker task,35,20169,42,yes,1024
83.72093023,83.72093023,481.627907,481.627907,black,legacy,legacy,legacy,0,congruent,uniform,1,undefined,1,s,0,42,0,0,0,42,0,42,42,0,0,0,42,42,42,42,9/23/2021 11:28,1500,The main experiment item,yes,Flankertask.osexp,C:/Users/borna.000/Documents/PSYC/PSYC5316,no,mono,no,18,no,white,no,yes,768,legacy,42,42,C:/Users/borna.000/Desktop/MH-subject-2.csv,legacy,Lentiform Loewenfeld,3.3.9,0,s,NA,s,NA,NA,s,541,NA,16996,NA,NA,541,2,legacy,1024,2,48000,-16,experiment,SSSSS,1,odd,NA,90880,18891,NA,NA,85371,1891,NA,91948,1894,NA,NA,92049,92591,91946,92049,Flanker task,36,20710,43,yes,1024
81.81818182,81.81818182,480.2045455,480.2045455,black,legacy,legacy,legacy,0,incongruent,uniform,0,undefined,0,h,0,43,0,0,0,43,0,43,43,0,0,0,43,43,43,43,9/23/2021 11:28,1500,The main experiment item,yes,Flankertask.osexp,C:/Users/borna.000/Documents/PSYC/PSYC5316,no,mono,no,18,no,white,no,yes,768,legacy,43,43,C:/Users/borna.000/Desktop/MH-subject-2.csv,legacy,Lentiform Loewenfeld,3.3.9,0,s,NA,s,NA,NA,s,419,NA,16996,NA,NA,419,2,legacy,1024,2,48000,-16,experiment,SSHSS,1,odd,NA,92599,18891,NA,NA,85371,1891,NA,93665,1894,NA,NA,93766,94186,93663,93766,Flanker task,36,21129,44,yes,1024
82.22222222,82.22222222,482.7555556,482.7555556,black,legacy,legacy,legacy,0,congruent,uniform,1,undefined,1,h,0,44,0,0,0,44,0,44,44,0,0,0,44,44,44,44,9/23/2021 11:28,1500,The main experiment item,yes,Flankertask.osexp,C:/Users/borna.000/Documents/PSYC/PSYC5316,no,mono,no,18,no,white,no,yes,768,legacy,44,44,C:/Users/borna.000/Desktop/MH-subject-2.csv,legacy,Lentiform Loewenfeld,3.3.9,0,h,NA,s,NA,NA,h,595,NA,16996,NA,NA,595,2,legacy,1024,2,48000,-16,experiment,HHHHH,1,odd,NA,94695,18891,NA,NA,94194,1891,NA,95758,1894,NA,NA,95859,96454,95755,95859,Flanker task,37,21724,45,yes,1024
82.60869565,82.60869565,483.0217391,483.0217391,black,legacy,legacy,legacy,0,congruent,uniform,1,undefined,1,h,0,45,0,0,0,45,0,45,45,0,0,0,45,45,45,45,9/23/2021 11:28,1500,The main experiment item,yes,Flankertask.osexp,C:/Users/borna.000/Documents/PSYC/PSYC5316,no,mono,no,18,no,white,no,yes,768,legacy,45,45,C:/Users/borna.000/Desktop/MH-subject-2.csv,legacy,Lentiform Loewenfeld,3.3.9,0,h,NA,s,NA,NA,h,495,NA,16996,NA,NA,495,2,legacy,1024,2,48000,-16,experiment,HHHHH,1,odd,NA,96462,18891,NA,NA,94194,1891,NA,97527,1894,NA,NA,97628,98124,97525,97628,Flanker task,38,22219,46,yes,1024
82.9787234,82.9787234,482.6382979,482.6382979,black,legacy,legacy,legacy,0,incongruent,uniform,1,undefined,1,s,0,46,0,0,0,46,0,46,46,0,0,0,46,46,46,46,9/23/2021 11:28,1500,The main experiment item,yes,Flankertask.osexp,C:/Users/borna.000/Documents/PSYC/PSYC5316,no,mono,no,18,no,white,no,yes,768,legacy,46,46,C:/Users/borna.000/Desktop/MH-subject-2.csv,legacy,Lentiform Loewenfeld,3.3.9,0,s,NA,s,NA,NA,s,465,NA,16996,NA,NA,465,2,legacy,1024,2,48000,-16,experiment,HHSHH,1,odd,NA,98132,18891,NA,NA,94194,1891,NA,99194,1894,NA,NA,99295,99761,99192,99295,Flanker task,39,22684,47,yes,1024
83.33333333,83.33333333,483.0208333,483.0208333,black,legacy,legacy,legacy,0,congruent,uniform,1,undefined,1,s,0,47,0,0,0,47,0,47,47,0,0,0,47,47,47,47,9/23/2021 11:28,1500,The main experiment item,yes,Flankertask.osexp,C:/Users/borna.000/Documents/PSYC/PSYC5316,no,mono,no,18,no,white,no,yes,768,legacy,47,47,C:/Users/borna.000/Desktop/MH-subject-2.csv,legacy,Lentiform Loewenfeld,3.3.9,0,s,NA,s,NA,NA,s,501,NA,16996,NA,NA,501,2,legacy,1024,2,48000,-16,experiment,SSSSS,1,odd,NA,99764,18891,NA,NA,94194,1891,NA,100830,1894,NA,NA,100931,101433,100828,100931,Flanker task,40,23185,48,yes,1024
83.67346939,83.67346939,481.7959184,481.7959184,black,legacy,legacy,legacy,0,incongruent,uniform,1,undefined,1,s,0,48,0,0,0,48,0,48,48,0,0,0,48,48,48,48,9/23/2021 11:28,1500,The main experiment item,yes,Flankertask.osexp,C:/Users/borna.000/Documents/PSYC/PSYC5316,no,mono,no,18,no,white,no,yes,768,legacy,48,48,C:/Users/borna.000/Desktop/MH-subject-2.csv,legacy,Lentiform Loewenfeld,3.3.9,0,s,NA,s,NA,NA,s,423,NA,16996,NA,NA,423,2,legacy,1024,2,48000,-16,experiment,HHSHH,1,odd,NA,101442,18891,NA,NA,94194,1891,NA,102506,1894,NA,NA,102607,103030,102503,102607,Flanker task,41,23608,49,yes,1024
84,84,482.54,482.54,black,legacy,legacy,legacy,0,congruent,uniform,1,undefined,1,h,0,49,0,0,0,49,0,49,49,0,0,0,49,49,49,49,9/23/2021 11:28,1500,The main experiment item,yes,Flankertask.osexp,C:/Users/borna.000/Documents/PSYC/PSYC5316,no,mono,no,18,no,white,no,yes,768,legacy,49,49,C:/Users/borna.000/Desktop/MH-subject-2.csv,legacy,Lentiform Loewenfeld,3.3.9,0,h,NA,s,NA,NA,h,519,NA,16996,NA,NA,519,2,legacy,1024,2,48000,-16,experiment,HHHHH,1,odd,NA,103034,18891,NA,NA,94194,1891,NA,104098,1894,NA,NA,104199,104719,104095,104199,Flanker task,42,24127,50,yes,1024
84.31372549,84.31372549,480.5882353,480.5882353,black,legacy,legacy,legacy,0,congruent,uniform,1,undefined,1,s,0,50,0,0,0,50,0,50,50,0,0,0,50,50,50,50,9/23/2021 11:28,1500,The main experiment item,yes,Flankertask.osexp,C:/Users/borna.000/Documents/PSYC/PSYC5316,no,mono,no,18,no,white,no,yes,768,legacy,50,50,C:/Users/borna.000/Desktop/MH-subject-2.csv,legacy,Lentiform Loewenfeld,3.3.9,0,s,NA,s,NA,NA,s,383,NA,16996,NA,NA,383,2,legacy,1024,2,48000,-16,experiment,SSSSS,1,odd,NA,104727,18891,NA,NA,94194,1891,NA,105792,1894,NA,NA,105893,106277,105790,105893,Flanker task,43,24510,51,yes,1024
84.61538462,84.61538462,481.3269231,481.3269231,black,legacy,legacy,legacy,0,congruent,uniform,1,undefined,1,h,0,51,0,0,0,51,0,51,51,0,0,0,51,51,51,51,9/23/2021 11:28,1500,The main experiment item,yes,Flankertask.osexp,C:/Users/borna.000/Documents/PSYC/PSYC5316,no,mono,no,18,no,white,no,yes,768,legacy,51,51,C:/Users/borna.000/Desktop/MH-subject-2.csv,legacy,Lentiform Loewenfeld,3.3.9,0,h,NA,s,NA,NA,h,519,NA,16996,NA,NA,519,2,legacy,1024,2,48000,-16,experiment,HHHHH,1,odd,NA,106285,18891,NA,NA,94194,1891,NA,107351,1894,NA,NA,107452,107972,107349,107452,Flanker task,44,25029,52,yes,1024
84.90566038,84.90566038,477.7169811,477.7169811,black,legacy,legacy,legacy,0,congruent,uniform,1,undefined,1,s,0,52,0,0,0,52,0,52,52,0,0,0,52,52,52,52,9/23/2021 11:28,1500,The main experiment item,yes,Flankertask.osexp,C:/Users/borna.000/Documents/PSYC/PSYC5316,no,mono,no,18,no,white,no,yes,768,legacy,52,52,C:/Users/borna.000/Desktop/MH-subject-2.csv,legacy,Lentiform Loewenfeld,3.3.9,0,s,NA,s,NA,NA,s,290,NA,16996,NA,NA,290,2,legacy,1024,2,48000,-16,experiment,SSSSS,1,odd,NA,107981,18891,NA,NA,94194,1891,NA,109045,1894,NA,NA,109146,109437,109043,109146,Flanker task,45,25319,53,yes,1024
83.33333333,83.33333333,473.6481481,473.6481481,black,legacy,legacy,legacy,0,incongruent,uniform,0,undefined,0,s,0,53,0,0,0,53,0,53,53,0,0,0,53,53,53,53,9/23/2021 11:28,1500,The main experiment item,yes,Flankertask.osexp,C:/Users/borna.000/Documents/PSYC/PSYC5316,no,mono,no,18,no,white,no,yes,768,legacy,53,53,C:/Users/borna.000/Desktop/MH-subject-2.csv,legacy,Lentiform Loewenfeld,3.3.9,0,h,NA,s,NA,NA,h,258,NA,16996,NA,NA,258,2,legacy,1024,2,48000,-16,experiment,HHSHH,1,odd,NA,109445,18891,NA,NA,94194,1891,NA,110502,1894,NA,NA,110603,110861,110500,110603,Flanker task,45,25577,54,yes,1024
83.63636364,83.63636364,472.5272727,472.5272727,black,legacy,legacy,legacy,0,congruent,uniform,1,undefined,1,s,0,54,0,0,0,54,0,54,54,0,0,0,54,54,54,54,9/23/2021 11:28,1500,The main experiment item,yes,Flankertask.osexp,C:/Users/borna.000/Documents/PSYC/PSYC5316,no,mono,no,18,no,white,no,yes,768,legacy,54,54,C:/Users/borna.000/Desktop/MH-subject-2.csv,legacy,Lentiform Loewenfeld,3.3.9,0,s,NA,s,NA,NA,s,412,NA,16996,NA,NA,412,2,legacy,1024,2,48000,-16,experiment,SSSSS,1,odd,NA,111371,18891,NA,NA,110870,1891,NA,112426,1894,NA,NA,112527,112939,112424,112527,Flanker task,46,25989,55,yes,1024
83.92857143,83.92857143,470.9107143,470.9107143,black,legacy,legacy,legacy,0,congruent,uniform,1,undefined,1,s,0,55,0,0,0,55,0,55,55,0,0,0,55,55,55,55,9/23/2021 11:28,1500,The main experiment item,yes,Flankertask.osexp,C:/Users/borna.000/Documents/PSYC/PSYC5316,no,mono,no,18,no,white,no,yes,768,legacy,55,55,C:/Users/borna.000/Desktop/MH-subject-2.csv,legacy,Lentiform Loewenfeld,3.3.9,0,s,NA,s,NA,NA,s,382,NA,16996,NA,NA,382,2,legacy,1024,2,48000,-16,experiment,SSSSS,1,odd,NA,112948,18891,NA,NA,110870,1891,NA,114011,1894,NA,NA,114112,114495,114009,114112,Flanker task,47,26371,56,yes,1024
84.21052632,84.21052632,471.7894737,471.7894737,black,legacy,legacy,legacy,0,congruent,uniform,1,undefined,1,h,0,56,0,0,0,56,0,56,56,0,0,0,56,56,56,56,9/23/2021 11:28,1500,The main experiment item,yes,Flankertask.osexp,C:/Users/borna.000/Documents/PSYC/PSYC5316,no,mono,no,18,no,white,no,yes,768,legacy,56,56,C:/Users/borna.000/Desktop/MH-subject-2.csv,legacy,Lentiform Loewenfeld,3.3.9,0,h,NA,s,NA,NA,h,521,NA,16996,NA,NA,521,2,legacy,1024,2,48000,-16,experiment,HHHHH,1,odd,NA,114503,18891,NA,NA,110870,1891,NA,115568,1894,NA,NA,115669,116191,115566,115669,Flanker task,48,26892,57,yes,1024
84.48275862,84.48275862,471.5344828,471.5344828,black,legacy,legacy,legacy,0,congruent,uniform,1,undefined,1,h,0,57,0,0,0,57,0,57,57,0,0,0,57,57,57,57,9/23/2021 11:28,1500,The main experiment item,yes,Flankertask.osexp,C:/Users/borna.000/Documents/PSYC/PSYC5316,no,mono,no,18,no,white,no,yes,768,legacy,57,57,C:/Users/borna.000/Desktop/MH-subject-2.csv,legacy,Lentiform Loewenfeld,3.3.9,0,h,NA,s,NA,NA,h,457,NA,16996,NA,NA,457,2,legacy,1024,2,48000,-16,experiment,HHHHH,1,odd,NA,116201,18891,NA,NA,110870,1891,NA,117266,1894,NA,NA,117367,117825,117263,117367,Flanker task,49,27349,58,yes,1024
84.74576271,84.74576271,469.8135593,469.8135593,black,legacy,legacy,legacy,0,incongruent,uniform,1,undefined,1,h,0,58,0,0,0,58,0,58,58,0,0,0,58,58,58,58,9/23/2021 11:28,1500,The main experiment item,yes,Flankertask.osexp,C:/Users/borna.000/Documents/PSYC/PSYC5316,no,mono,no,18,no,white,no,yes,768,legacy,58,58,C:/Users/borna.000/Desktop/MH-subject-2.csv,legacy,Lentiform Loewenfeld,3.3.9,0,h,NA,s,NA,NA,h,370,NA,16996,NA,NA,370,2,legacy,1024,2,48000,-16,experiment,SSHSS,1,odd,NA,117835,18891,NA,NA,110870,1891,NA,118893,1894,NA,NA,118994,119365,118891,118994,Flanker task,50,27719,59,yes,1024
85,85,467.9333333,467.9333333,black,legacy,legacy,legacy,0,incongruent,uniform,1,undefined,1,h,0,59,0,0,0,59,0,59,59,0,0,0,59,59,59,59,9/23/2021 11:28,1500,The main experiment item,yes,Flankertask.osexp,C:/Users/borna.000/Documents/PSYC/PSYC5316,no,mono,no,18,no,white,no,yes,768,legacy,59,59,C:/Users/borna.000/Desktop/MH-subject-2.csv,legacy,Lentiform Loewenfeld,3.3.9,0,h,NA,s,NA,NA,h,357,NA,16996,NA,NA,357,2,legacy,1024,2,48000,-16,experiment,SSHSS,1,odd,NA,119373,18891,NA,NA,110870,1891,NA,120438,1894,NA,NA,120539,120896,120435,120539,Flanker task,51,28076,60,yes,1024
85.24590164,85.24590164,466.3442623,466.3442623,black,legacy,legacy,legacy,0,incongruent,uniform,1,undefined,1,h,0,60,0,0,0,60,0,60,60,0,0,0,60,60,60,60,9/23/2021 11:28,1500,The main experiment item,yes,Flankertask.osexp,C:/Users/borna.000/Documents/PSYC/PSYC5316,no,mono,no,18,no,white,no,yes,768,legacy,60,60,C:/Users/borna.000/Desktop/MH-subject-2.csv,legacy,Lentiform Loewenfeld,3.3.9,0,h,NA,s,NA,NA,h,371,NA,16996,NA,NA,371,2,legacy,1024,2,48000,-16,experiment,SSHSS,1,odd,NA,120905,18891,NA,NA,110870,1891,NA,121974,1894,NA,NA,122075,122446,121972,122075,Flanker task,52,28447,61,yes,1024
85.48387097,85.48387097,464.8225806,464.8225806,black,legacy,legacy,legacy,0,congruent,uniform,1,undefined,1,h,0,61,0,0,0,61,0,61,61,0,0,0,61,61,61,61,9/23/2021 11:28,1500,The main experiment item,yes,Flankertask.osexp,C:/Users/borna.000/Documents/PSYC/PSYC5316,no,mono,no,18,no,white,no,yes,768,legacy,61,61,C:/Users/borna.000/Desktop/MH-subject-2.csv,legacy,Lentiform Loewenfeld,3.3.9,0,h,NA,s,NA,NA,h,372,NA,16996,NA,NA,372,2,legacy,1024,2,48000,-16,experiment,HHHHH,1,odd,NA,122455,18891,NA,NA,110870,1891,NA,123524,1894,NA,NA,123625,123997,123522,123625,Flanker task,53,28819,62,yes,1024
85.71428571,85.71428571,463.7619048,463.7619048,black,legacy,legacy,legacy,0,congruent,uniform,1,undefined,1,h,0,62,0,0,0,62,0,62,62,0,0,0,62,62,62,62,9/23/2021 11:28,1500,The main experiment item,yes,Flankertask.osexp,C:/Users/borna.000/Documents/PSYC/PSYC5316,no,mono,no,18,no,white,no,yes,768,legacy,62,62,C:/Users/borna.000/Desktop/MH-subject-2.csv,legacy,Lentiform Loewenfeld,3.3.9,0,h,NA,s,NA,NA,h,398,NA,16996,NA,NA,398,2,legacy,1024,2,48000,-16,experiment,HHHHH,1,odd,NA,124002,18891,NA,NA,110870,1891,NA,125069,1894,NA,NA,125170,125569,125066,125170,Flanker task,54,29217,63,yes,1024
85.9375,85.9375,460.53125,460.53125,black,legacy,legacy,legacy,0,incongruent,uniform,1,undefined,1,h,0,63,0,0,0,63,0,63,63,0,0,0,63,63,63,63,9/23/2021 11:28,1500,The main experiment item,yes,Flankertask.osexp,C:/Users/borna.000/Documents/PSYC/PSYC5316,no,mono,no,18,no,white,no,yes,768,legacy,63,63,C:/Users/borna.000/Desktop/MH-subject-2.csv,legacy,Lentiform Loewenfeld,3.3.9,0,h,NA,s,NA,NA,h,257,NA,16996,NA,NA,257,2,legacy,1024,2,48000,-16,experiment,SSHSS,1,odd,NA,125578,18891,NA,NA,110870,1891,NA,126647,1894,NA,NA,126748,127006,126645,126748,Flanker task,55,29474,64,yes,1024
86.15384615,86.15384615,458.3538462,458.3538462,black,legacy,legacy,legacy,0,incongruent,uniform,1,undefined,1,h,0,64,0,0,0,64,0,64,64,0,0,0,64,64,64,64,9/23/2021 11:28,1500,The main experiment item,yes,Flankertask.osexp,C:/Users/borna.000/Documents/PSYC/PSYC5316,no,mono,no,18,no,white,no,yes,768,legacy,64,64,C:/Users/borna.000/Desktop/MH-subject-2.csv,legacy,Lentiform Loewenfeld,3.3.9,0,h,NA,s,NA,NA,h,319,NA,16996,NA,NA,319,2,legacy,1024,2,48000,-16,experiment,SSHSS,1,odd,NA,127015,18891,NA,NA,110870,1891,NA,128071,1894,NA,NA,128172,128492,128069,128172,Flanker task,56,29793,65,yes,1024
86.36363636,86.36363636,455.3484848,455.3484848,black,legacy,legacy,legacy,0,congruent,uniform,1,undefined,1,h,0,65,0,0,0,65,0,65,65,0,0,0,65,65,65,65,9/23/2021 11:28,1500,The main experiment item,yes,Flankertask.osexp,C:/Users/borna.000/Documents/PSYC/PSYC5316,no,mono,no,18,no,white,no,yes,768,legacy,65,65,C:/Users/borna.000/Desktop/MH-subject-2.csv,legacy,Lentiform Loewenfeld,3.3.9,0,h,NA,s,NA,NA,h,260,NA,16996,NA,NA,260,2,legacy,1024,2,48000,-16,experiment,HHHHH,1,odd,NA,128500,18891,NA,NA,110870,1891,NA,129565,1894,NA,NA,129666,129927,129562,129666,Flanker task,57,30053,66,yes,1024
85.07462687,85.07462687,452.0447761,452.0447761,black,legacy,legacy,legacy,0,congruent,uniform,0,undefined,0,s,0,66,0,0,0,66,0,66,66,0,0,0,66,66,66,66,9/23/2021 11:28,1500,The main experiment item,yes,Flankertask.osexp,C:/Users/borna.000/Documents/PSYC/PSYC5316,no,mono,no,18,no,white,no,yes,768,legacy,66,66,C:/Users/borna.000/Desktop/MH-subject-2.csv,legacy,Lentiform Loewenfeld,3.3.9,0,h,NA,s,NA,NA,h,234,NA,16996,NA,NA,234,2,legacy,1024,2,48000,-16,experiment,SSSSS,1,odd,NA,129935,18891,NA,NA,110870,1891,NA,130991,1894,NA,NA,131092,131327,130989,131092,Flanker task,57,30287,67,yes,1024
85.29411765,85.29411765,452.8676471,452.8676471,black,legacy,legacy,legacy,0,incongruent,uniform,1,undefined,1,s,0,67,0,0,0,67,0,67,67,0,0,0,67,67,67,67,9/23/2021 11:28,1500,The main experiment item,yes,Flankertask.osexp,C:/Users/borna.000/Documents/PSYC/PSYC5316,no,mono,no,18,no,white,no,yes,768,legacy,67,67,C:/Users/borna.000/Desktop/MH-subject-2.csv,legacy,Lentiform Loewenfeld,3.3.9,0,s,NA,s,NA,NA,s,508,NA,16996,NA,NA,508,2,legacy,1024,2,48000,-16,experiment,HHSHH,1,odd,NA,131837,18891,NA,NA,131336,1891,NA,132894,1894,NA,NA,132995,133504,132891,132995,Flanker task,58,30795,68,yes,1024
84.05797101,84.05797101,452.5217391,452.5217391,black,legacy,legacy,legacy,0,incongruent,uniform,0,undefined,0,h,0,68,0,0,0,68,0,68,68,0,0,0,68,68,68,68,9/23/2021 11:28,1500,The main experiment item,yes,Flankertask.osexp,C:/Users/borna.000/Documents/PSYC/PSYC5316,no,mono,no,18,no,white,no,yes,768,legacy,68,68,C:/Users/borna.000/Desktop/MH-subject-2.csv,legacy,Lentiform Loewenfeld,3.3.9,0,s,NA,s,NA,NA,s,429,NA,16996,NA,NA,429,2,legacy,1024,2,48000,-16,experiment,SSHSS,1,odd,NA,133513,18891,NA,NA,131336,1891,NA,134580,1894,NA,NA,134681,135110,134578,134681,Flanker task,58,31224,69,yes,1024
84.28571429,84.28571429,453.3571429,453.3571429,black,legacy,legacy,legacy,0,incongruent,uniform,1,undefined,1,s,0,69,0,0,0,69,0,69,69,0,0,0,69,69,69,69,9/23/2021 11:28,1500,The main experiment item,yes,Flankertask.osexp,C:/Users/borna.000/Documents/PSYC/PSYC5316,no,mono,no,18,no,white,no,yes,768,legacy,69,69,C:/Users/borna.000/Desktop/MH-subject-2.csv,legacy,Lentiform Loewenfeld,3.3.9,0,s,NA,s,NA,NA,s,511,NA,16996,NA,NA,511,2,legacy,1024,2,48000,-16,experiment,HHSHH,1,odd,NA,135620,18891,NA,NA,135119,1891,NA,136675,1894,NA,NA,136776,137288,136673,136776,Flanker task,59,31735,70,yes,1024
83.09859155,83.09859155,452.6197183,452.6197183,black,legacy,legacy,legacy,0,incongruent,uniform,0,undefined,0,s,0,70,0,0,0,70,0,70,70,0,0,0,70,70,70,70,9/23/2021 11:28,1500,The main experiment item,yes,Flankertask.osexp,C:/Users/borna.000/Documents/PSYC/PSYC5316,no,mono,no,18,no,white,no,yes,768,legacy,70,70,C:/Users/borna.000/Desktop/MH-subject-2.csv,legacy,Lentiform Loewenfeld,3.3.9,0,h,NA,s,NA,NA,h,401,NA,16996,NA,NA,401,2,legacy,1024,2,48000,-16,experiment,HHSHH,1,odd,NA,137297,18891,NA,NA,135119,1891,NA,138365,1894,NA,NA,138466,138868,138363,138466,Flanker task,59,32136,71,yes,1024
83.33333333,83.33333333,454.625,454.625,black,legacy,legacy,legacy,0,incongruent,uniform,1,undefined,1,s,0,71,0,0,0,71,0,71,71,0,0,0,71,71,71,71,9/23/2021 11:28,1500,The main experiment item,yes,Flankertask.osexp,C:/Users/borna.000/Documents/PSYC/PSYC5316,no,mono,no,18,no,white,no,yes,768,legacy,71,71,C:/Users/borna.000/Desktop/MH-subject-2.csv,legacy,Lentiform Loewenfeld,3.3.9,0,s,NA,s,NA,NA,s,597,NA,16996,NA,NA,597,2,legacy,1024,2,48000,-16,experiment,HHSHH,1,odd,NA,139372,18891,NA,NA,138871,1891,NA,140428,1894,NA,NA,140529,141127,140425,140529,Flanker task,60,32733,72,yes,1024
83.56164384,83.56164384,453.3424658,453.3424658,black,legacy,legacy,legacy,0,congruent,uniform,1,undefined,1,s,0,72,0,0,0,72,0,72,72,0,0,0,72,72,72,72,9/23/2021 11:28,1500,The main experiment item,yes,Flankertask.osexp,C:/Users/borna.000/Documents/PSYC/PSYC5316,no,mono,no,18,no,white,no,yes,768,legacy,72,72,C:/Users/borna.000/Desktop/MH-subject-2.csv,legacy,Lentiform Loewenfeld,3.3.9,0,s,NA,s,NA,NA,s,361,NA,16996,NA,NA,361,2,legacy,1024,2,48000,-16,experiment,SSSSS,1,odd,NA,141135,18891,NA,NA,138871,1891,NA,142198,1894,NA,NA,142300,142662,142196,142299,Flanker task,61,33094,73,yes,1024
83.78378378,83.78378378,453.7297297,453.7297297,black,legacy,legacy,legacy,0,incongruent,uniform,1,undefined,1,h,0,73,0,0,0,73,0,73,73,0,0,0,73,73,73,73,9/23/2021 11:28,1500,The main experiment item,yes,Flankertask.osexp,C:/Users/borna.000/Documents/PSYC/PSYC5316,no,mono,no,18,no,white,no,yes,768,legacy,73,73,C:/Users/borna.000/Desktop/MH-subject-2.csv,legacy,Lentiform Loewenfeld,3.3.9,0,h,NA,s,NA,NA,h,482,NA,16996,NA,NA,482,2,legacy,1024,2,48000,-16,experiment,SSHSS,1,odd,NA,142670,18891,NA,NA,138871,1891,NA,143737,1894,NA,NA,143838,144321,143735,143838,Flanker task,62,33576,74,yes,1024
84,84,454.2133333,454.2133333,black,legacy,legacy,legacy,0,congruent,uniform,1,undefined,1,h,0,74,0,0,0,74,0,74,74,0,0,0,74,74,74,74,9/23/2021 11:28,1500,The main experiment item,yes,Flankertask.osexp,C:/Users/borna.000/Documents/PSYC/PSYC5316,no,mono,no,18,no,white,no,yes,768,legacy,74,74,C:/Users/borna.000/Desktop/MH-subject-2.csv,legacy,Lentiform Loewenfeld,3.3.9,0,h,NA,s,NA,NA,h,490,NA,16996,NA,NA,490,2,legacy,1024,2,48000,-16,experiment,HHHHH,1,odd,NA,144330,18891,NA,NA,138871,1891,NA,145393,1894,NA,NA,145494,145985,145390,145494,Flanker task,63,34066,75,yes,1024
84.21052632,84.21052632,454.5789474,454.5789474,black,legacy,legacy,legacy,0,congruent,uniform,1,undefined,1,s,0,75,0,0,0,75,0,75,75,0,0,0,75,75,75,75,9/23/2021 11:28,1500,The main experiment item,yes,Flankertask.osexp,C:/Users/borna.000/Documents/PSYC/PSYC5316,no,mono,no,18,no,white,no,yes,768,legacy,75,75,C:/Users/borna.000/Desktop/MH-subject-2.csv,legacy,Lentiform Loewenfeld,3.3.9,0,s,NA,s,NA,NA,s,482,NA,16996,NA,NA,482,2,legacy,1024,2,48000,-16,experiment,SSSSS,1,odd,NA,145993,18891,NA,NA,138871,1891,NA,147056,1894,NA,NA,147157,147639,147053,147157,Flanker task,64,34548,76,yes,1024
84.41558442,84.41558442,453.987013,453.987013,black,legacy,legacy,legacy,0,congruent,uniform,1,undefined,1,s,0,76,0,0,0,76,0,76,76,0,0,0,76,76,76,76,9/23/2021 11:28,1500,The main experiment item,yes,Flankertask.osexp,C:/Users/borna.000/Documents/PSYC/PSYC5316,no,mono,no,18,no,white,no,yes,768,legacy,76,76,C:/Users/borna.000/Desktop/MH-subject-2.csv,legacy,Lentiform Loewenfeld,3.3.9,0,s,NA,s,NA,NA,s,409,NA,16996,NA,NA,409,2,legacy,1024,2,48000,-16,experiment,SSSSS,1,odd,NA,147648,18891,NA,NA,138871,1891,NA,148709,1894,NA,NA,148810,149219,148707,148810,Flanker task,65,34957,77,yes,1024
83.33333333,83.33333333,453.9615385,453.9615385,black,legacy,legacy,legacy,0,congruent,uniform,0,undefined,0,h,0,77,0,0,0,77,0,77,77,0,0,0,77,77,77,77,9/23/2021 11:28,1500,The main experiment item,yes,Flankertask.osexp,C:/Users/borna.000/Documents/PSYC/PSYC5316,no,mono,no,18,no,white,no,yes,768,legacy,77,77,C:/Users/borna.000/Desktop/MH-subject-2.csv,legacy,Lentiform Loewenfeld,3.3.9,0,s,NA,s,NA,NA,s,452,NA,16996,NA,NA,452,2,legacy,1024,2,48000,-16,experiment,HHHHH,1,odd,NA,149227,18891,NA,NA,138871,1891,NA,150293,1894,NA,NA,150394,150846,150290,150394,Flanker task,65,35409,78,yes,1024
83.5443038,83.5443038,456.9873418,456.9873418,black,legacy,legacy,legacy,0,incongruent,uniform,1,undefined,1,h,0,78,0,0,0,78,0,78,78,0,0,0,78,78,78,78,9/23/2021 11:28,1500,The main experiment item,yes,Flankertask.osexp,C:/Users/borna.000/Documents/PSYC/PSYC5316,no,mono,no,18,no,white,no,yes,768,legacy,78,78,C:/Users/borna.000/Desktop/MH-subject-2.csv,legacy,Lentiform Loewenfeld,3.3.9,0,h,NA,s,NA,NA,h,693,NA,16996,NA,NA,693,2,legacy,1024,2,48000,-16,experiment,SSHSS,1,odd,NA,151356,18891,NA,NA,150855,1891,NA,152412,1894,NA,NA,152513,153207,152410,152513,Flanker task,66,36102,79,yes,1024
83.75,83.75,459.5125,459.5125,black,legacy,legacy,legacy,0,incongruent,uniform,1,undefined,1,h,0,79,0,0,0,79,0,79,79,0,0,0,79,79,79,79,9/23/2021 11:28,1500,The main experiment item,yes,Flankertask.osexp,C:/Users/borna.000/Documents/PSYC/PSYC5316,no,mono,no,18,no,white,no,yes,768,legacy,79,79,C:/Users/borna.000/Desktop/MH-subject-2.csv,legacy,Lentiform Loewenfeld,3.3.9,0,h,NA,s,NA,NA,h,659,NA,16996,NA,NA,659,2,legacy,1024,2,48000,-16,experiment,SSHSS,1,odd,NA,153216,18891,NA,NA,150855,1891,NA,154279,1894,NA,NA,154380,155040,154277,154380,Flanker task,67,36761,80,yes,1024
83.95061728,83.95061728,460.2345679,460.2345679,black,legacy,legacy,legacy,0,congruent,uniform,1,undefined,1,s,0,80,0,0,0,80,0,80,80,0,0,0,80,80,80,80,9/23/2021 11:28,600,The main experiment item,yes,Flankertask.osexp,C:/Users/borna.000/Documents/PSYC/PSYC5316,no,mono,no,18,no,white,no,yes,768,legacy,0,79,C:/Users/borna.000/Desktop/MH-subject-2.csv,legacy,Lentiform Loewenfeld,3.3.9,0,s,NA,s,s,NA,s,518,NA,16996,95835,NA,518,2,legacy,1024,2,48000,-16,experiment,SSSSS,1,odd,NA,155048,18891,251903,NA,150855,1891,NA,251962,1894,156067,NA,252063,252582,251961,252063,Flanker task,68,37279,81,yes,1024
84.14634146,84.14634146,459.4146341,459.4146341,black,legacy,legacy,legacy,0,congruent,uniform,1,undefined,1,s,0,81,0,0,0,81,0,81,81,0,0,0,81,81,81,81,9/23/2021 11:28,600,The main experiment item,yes,Flankertask.osexp,C:/Users/borna.000/Documents/PSYC/PSYC5316,no,mono,no,18,no,white,no,yes,768,legacy,1,79,C:/Users/borna.000/Desktop/MH-subject-2.csv,legacy,Lentiform Loewenfeld,3.3.9,0,s,NA,s,s,NA,s,393,NA,16996,95835,NA,393,2,legacy,1024,2,48000,-16,experiment,SSSSS,1,odd,NA,252590,18891,251903,NA,150855,1891,NA,253671,1894,156067,NA,253772,254166,253668,253772,Flanker task,69,37672,82,yes,1024
83.13253012,83.13253012,458.1084337,458.1084337,black,legacy,legacy,legacy,0,incongruent,uniform,0,undefined,0,s,0,82,0,0,0,82,0,82,82,0,0,0,82,82,82,82,9/23/2021 11:28,600,The main experiment item,yes,Flankertask.osexp,C:/Users/borna.000/Documents/PSYC/PSYC5316,no,mono,no,18,no,white,no,yes,768,legacy,2,79,C:/Users/borna.000/Desktop/MH-subject-2.csv,legacy,Lentiform Loewenfeld,3.3.9,0,h,NA,s,s,NA,h,351,NA,16996,95835,NA,351,2,legacy,1024,2,48000,-16,experiment,HHSHH,1,odd,NA,254175,18891,251903,NA,150855,1891,NA,255240,1894,156067,NA,255341,255693,255238,255341,Flanker task,69,38023,83,yes,1024
83.33333333,83.33333333,456.8095238,456.8095238,black,legacy,legacy,legacy,0,congruent,uniform,1,undefined,1,h,0,83,0,0,0,83,0,83,83,0,0,0,83,83,83,83,9/23/2021 11:28,600,The main experiment item,yes,Flankertask.osexp,C:/Users/borna.000/Documents/PSYC/PSYC5316,no,mono,no,18,no,white,no,yes,768,legacy,3,79,C:/Users/borna.000/Desktop/MH-subject-2.csv,legacy,Lentiform Loewenfeld,3.3.9,0,h,NA,s,s,NA,h,349,NA,16996,95835,NA,349,2,legacy,1024,2,48000,-16,experiment,HHHHH,1,odd,NA,256198,18891,251903,NA,255697,1891,NA,257254,1894,156067,NA,257355,257705,257251,257355,Flanker task,70,38372,84,yes,1024
83.52941176,83.52941176,455.3411765,455.3411765,black,legacy,legacy,legacy,0,incongruent,uniform,1,undefined,1,s,0,84,0,0,0,84,0,84,84,0,0,0,84,84,84,84,9/23/2021 11:28,600,The main experiment item,yes,Flankertask.osexp,C:/Users/borna.000/Documents/PSYC/PSYC5316,no,mono,no,18,no,white,no,yes,768,legacy,4,79,C:/Users/borna.000/Desktop/MH-subject-2.csv,legacy,Lentiform Loewenfeld,3.3.9,0,s,NA,s,s,NA,s,332,NA,16996,95835,NA,332,2,legacy,1024,2,48000,-16,experiment,HHSHH,1,odd,NA,257714,18891,251903,NA,255697,1891,NA,258777,1894,156067,NA,258878,259211,258775,258878,Flanker task,71,38704,85,yes,1024
83.72093023,83.72093023,455.1162791,455.1162791,black,legacy,legacy,legacy,0,congruent,uniform,1,undefined,1,s,0,85,0,0,0,85,0,85,85,0,0,0,85,85,85,85,9/23/2021 11:28,600,The main experiment item,yes,Flankertask.osexp,C:/Users/borna.000/Documents/PSYC/PSYC5316,no,mono,no,18,no,white,no,yes,768,legacy,5,79,C:/Users/borna.000/Desktop/MH-subject-2.csv,legacy,Lentiform Loewenfeld,3.3.9,0,s,NA,s,s,NA,s,436,NA,16996,95835,NA,436,2,legacy,1024,2,48000,-16,experiment,SSSSS,1,odd,NA,259220,18891,251903,NA,255697,1891,NA,260275,1894,156067,NA,260376,260813,260273,260376,Flanker task,72,39140,86,yes,1024
83.90804598,83.90804598,454,454,black,legacy,legacy,legacy,0,incongruent,uniform,1,undefined,1,h,0,86,0,0,0,86,0,86,86,0,0,0,86,86,86,86,9/23/2021 11:28,600,The main experiment item,yes,Flankertask.osexp,C:/Users/borna.000/Documents/PSYC/PSYC5316,no,mono,no,18,no,white,no,yes,768,legacy,6,79,C:/Users/borna.000/Desktop/MH-subject-2.csv,legacy,Lentiform Loewenfeld,3.3.9,0,h,NA,s,s,NA,h,358,NA,16996,95835,NA,358,2,legacy,1024,2,48000,-16,experiment,SSHSS,1,odd,NA,260821,18891,251903,NA,255697,1891,NA,261884,1894,156067,NA,261986,262345,261882,261986,Flanker task,73,39498,87,yes,1024
82.95454545,82.95454545,452.7045455,452.7045455,black,legacy,legacy,legacy,0,incongruent,uniform,0,undefined,0,h,0,87,0,0,0,87,0,87,87,0,0,0,87,87,87,87,9/23/2021 11:28,600,The main experiment item,yes,Flankertask.osexp,C:/Users/borna.000/Documents/PSYC/PSYC5316,no,mono,no,18,no,white,no,yes,768,legacy,7,79,C:/Users/borna.000/Desktop/MH-subject-2.csv,legacy,Lentiform Loewenfeld,3.3.9,0,s,NA,s,s,NA,s,340,NA,16996,95835,NA,340,2,legacy,1024,2,48000,-16,experiment,SSHSS,1,odd,NA,262353,18891,251903,NA,255697,1891,NA,263418,1894,156067,NA,263519,263860,263416,263519,Flanker task,73,39838,88,yes,1024
82.02247191,82.02247191,452.0786517,452.0786517,black,legacy,legacy,legacy,0,incongruent,uniform,0,undefined,0,s,0,88,0,0,0,88,0,88,88,0,0,0,88,88,88,88,9/23/2021 11:28,600,The main experiment item,yes,Flankertask.osexp,C:/Users/borna.000/Documents/PSYC/PSYC5316,no,mono,no,18,no,white,no,yes,768,legacy,8,79,C:/Users/borna.000/Desktop/MH-subject-2.csv,legacy,Lentiform Loewenfeld,3.3.9,0,h,NA,s,s,NA,h,397,NA,16996,95835,NA,397,2,legacy,1024,2,48000,-16,experiment,HHSHH,1,odd,NA,264369,18891,251903,NA,263868,1891,NA,265424,1894,156067,NA,265525,265923,265422,265525,Flanker task,73,40235,89,yes,1024
81.11111111,81.11111111,451.7444444,451.7444444,black,legacy,legacy,legacy,0,incongruent,uniform,0,undefined,0,h,0,89,0,0,0,89,0,89,89,0,0,0,89,89,89,89,9/23/2021 11:28,600,The main experiment item,yes,Flankertask.osexp,C:/Users/borna.000/Documents/PSYC/PSYC5316,no,mono,no,18,no,white,no,yes,768,legacy,9,79,C:/Users/borna.000/Desktop/MH-subject-2.csv,legacy,Lentiform Loewenfeld,3.3.9,0,s,NA,s,s,NA,s,422,NA,16996,95835,NA,422,2,legacy,1024,2,48000,-16,experiment,SSHSS,1,odd,NA,266432,18891,251903,NA,265931,1891,NA,267487,1894,156067,NA,267589,268012,267485,267589,Flanker task,73,40657,90,yes,1024
80.21978022,80.21978022,450.4065934,450.4065934,black,legacy,legacy,legacy,0,congruent,uniform,0,undefined,0,h,0,90,0,0,0,90,0,90,90,0,0,0,90,90,90,90,9/23/2021 11:28,600,The main experiment item,yes,Flankertask.osexp,C:/Users/borna.000/Documents/PSYC/PSYC5316,no,mono,no,18,no,white,no,yes,768,legacy,10,79,C:/Users/borna.000/Desktop/MH-subject-2.csv,legacy,Lentiform Loewenfeld,3.3.9,0,s,NA,s,s,NA,s,330,NA,16996,95835,NA,330,2,legacy,1024,2,48000,-16,experiment,HHHHH,1,odd,NA,268521,18891,251903,NA,268020,1891,NA,269575,1894,156067,NA,269677,270008,269573,269677,Flanker task,73,40987,91,yes,1024
80.43478261,80.43478261,450.6630435,450.6630435,black,legacy,legacy,legacy,0,incongruent,uniform,1,undefined,1,s,0,91,0,0,0,91,0,91,91,0,0,0,91,91,91,91,9/23/2021 11:28,600,The main experiment item,yes,Flankertask.osexp,C:/Users/borna.000/Documents/PSYC/PSYC5316,no,mono,no,18,no,white,no,yes,768,legacy,11,79,C:/Users/borna.000/Desktop/MH-subject-2.csv,legacy,Lentiform Loewenfeld,3.3.9,0,s,NA,s,s,NA,s,474,NA,16996,95835,NA,474,2,legacy,1024,2,48000,-16,experiment,HHSHH,1,odd,NA,270518,18891,251903,NA,270017,1891,NA,271574,1894,156067,NA,271675,272149,271572,271675,Flanker task,74,41461,92,yes,1024
80.64516129,80.64516129,451.7096774,451.7096774,black,legacy,legacy,legacy,0,incongruent,uniform,1,undefined,1,s,0,92,0,0,0,92,0,92,92,0,0,0,92,92,92,92,9/23/2021 11:28,600,The main experiment item,yes,Flankertask.osexp,C:/Users/borna.000/Documents/PSYC/PSYC5316,no,mono,no,18,no,white,no,yes,768,legacy,12,79,C:/Users/borna.000/Desktop/MH-subject-2.csv,legacy,Lentiform Loewenfeld,3.3.9,0,s,NA,s,s,NA,s,548,NA,16996,95835,NA,548,2,legacy,1024,2,48000,-16,experiment,HHSHH,1,odd,NA,272158,18891,251903,NA,270017,1891,NA,273220,1894,156067,NA,273321,273870,273218,273321,Flanker task,75,42009,93,yes,1024
79.78723404,79.78723404,453.1489362,453.1489362,black,legacy,legacy,legacy,0,congruent,uniform,0,undefined,0,h,0,93,0,0,0,93,0,93,93,0,0,0,93,93,93,93,9/23/2021 11:28,600,The main experiment item,yes,Flankertask.osexp,C:/Users/borna.000/Documents/PSYC/PSYC5316,no,mono,no,18,no,white,no,yes,768,legacy,13,79,C:/Users/borna.000/Desktop/MH-subject-2.csv,legacy,Lentiform Loewenfeld,3.3.9,0,s,NA,s,s,NA,s,587,NA,16996,95835,NA,587,2,legacy,1024,2,48000,-16,experiment,HHHHH,1,odd,NA,273877,18891,251903,NA,270017,1891,NA,274942,1894,156067,NA,275043,275631,274939,275043,Flanker task,75,42596,94,yes,1024
78.94736842,78.94736842,456.1473684,456.1473684,black,legacy,legacy,legacy,0,incongruent,uniform,0,undefined,0,h,0,94,0,0,0,94,0,94,94,0,0,0,94,94,94,94,9/23/2021 11:28,600,The main experiment item,yes,Flankertask.osexp,C:/Users/borna.000/Documents/PSYC/PSYC5316,no,mono,no,18,no,white,no,yes,768,legacy,14,79,C:/Users/borna.000/Desktop/MH-subject-2.csv,legacy,Lentiform Loewenfeld,3.3.9,0,s,NA,s,s,NA,s,738,NA,16996,95835,NA,738,2,legacy,1024,2,48000,-16,experiment,SSHSS,1,odd,NA,276141,18891,251903,NA,275640,1891,NA,277198,1894,156067,NA,277299,278038,277195,277299,Flanker task,75,43334,95,yes,1024
79.16666667,79.16666667,456.8854167,456.8854167,black,legacy,legacy,legacy,0,congruent,uniform,1,undefined,1,h,0,95,0,0,0,95,0,95,95,0,0,0,95,95,95,95,9/23/2021 11:28,600,The main experiment item,yes,Flankertask.osexp,C:/Users/borna.000/Documents/PSYC/PSYC5316,no,mono,no,18,no,white,no,yes,768,legacy,15,79,C:/Users/borna.000/Desktop/MH-subject-2.csv,legacy,Lentiform Loewenfeld,3.3.9,0,h,NA,s,s,NA,h,527,NA,16996,95835,NA,527,2,legacy,1024,2,48000,-16,experiment,HHHHH,1,odd,NA,279043,18891,251903,NA,278041,1891,278542,280099,1894,156067,NA,280200,280727,280097,280200,Flanker task,76,43861,96,yes,1024
79.3814433,79.3814433,455.9896907,455.9896907,black,legacy,legacy,legacy,0,congruent,uniform,1,undefined,1,s,0,96,0,0,0,96,0,96,96,0,0,0,96,96,96,96,9/23/2021 11:28,600,The main experiment item,yes,Flankertask.osexp,C:/Users/borna.000/Documents/PSYC/PSYC5316,no,mono,no,18,no,white,no,yes,768,legacy,16,79,C:/Users/borna.000/Desktop/MH-subject-2.csv,legacy,Lentiform Loewenfeld,3.3.9,0,s,NA,s,s,NA,s,370,NA,16996,95835,NA,370,2,legacy,1024,2,48000,-16,experiment,SSSSS,1,odd,NA,280736,18891,251903,NA,278041,1891,278542,281801,1894,156067,NA,281902,282273,281799,281902,Flanker task,77,44231,97,yes,1024
78.57142857,78.57142857,456.5612245,456.5612245,black,legacy,legacy,legacy,0,congruent,uniform,0,undefined,0,s,0,97,0,0,0,97,0,97,97,0,0,0,97,97,97,97,9/23/2021 11:28,600,The main experiment item,yes,Flankertask.osexp,C:/Users/borna.000/Documents/PSYC/PSYC5316,no,mono,no,18,no,white,no,yes,768,legacy,17,79,C:/Users/borna.000/Desktop/MH-subject-2.csv,legacy,Lentiform Loewenfeld,3.3.9,0,h,NA,s,s,NA,h,512,NA,16996,95835,NA,512,2,legacy,1024,2,48000,-16,experiment,SSSSS,1,odd,NA,282281,18891,251903,NA,278041,1891,278542,283345,1894,156067,NA,283446,283959,283342,283446,Flanker task,77,44743,98,yes,1024
78.78787879,78.78787879,456.5656566,456.5656566,black,legacy,legacy,legacy,0,congruent,uniform,1,undefined,1,s,0,98,0,0,0,98,0,98,98,0,0,0,98,98,98,98,9/23/2021 11:28,600,The main experiment item,yes,Flankertask.osexp,C:/Users/borna.000/Documents/PSYC/PSYC5316,no,mono,no,18,no,white,no,yes,768,legacy,18,79,C:/Users/borna.000/Desktop/MH-subject-2.csv,legacy,Lentiform Loewenfeld,3.3.9,0,s,NA,s,s,NA,s,457,NA,16996,95835,NA,457,2,legacy,1024,2,48000,-16,experiment,SSSSS,1,odd,NA,284468,18891,251903,NA,283967,1891,278542,285524,1894,156067,NA,285625,286083,285521,285625,Flanker task,78,45200,99,yes,1024
79,79,456.56,456.56,black,legacy,legacy,legacy,0,congruent,uniform,1,undefined,1,s,0,99,0,0,0,99,0,99,99,0,0,0,99,99,99,99,9/23/2021 11:28,600,The main experiment item,yes,Flankertask.osexp,C:/Users/borna.000/Documents/PSYC/PSYC5316,no,mono,no,18,no,white,no,yes,768,legacy,19,79,C:/Users/borna.000/Desktop/MH-subject-2.csv,legacy,Lentiform Loewenfeld,3.3.9,0,s,NA,s,s,NA,s,456,NA,16996,95835,NA,456,2,legacy,1024,2,48000,-16,experiment,SSSSS,1,odd,NA,286091,18891,251903,NA,283967,1891,278542,287155,1894,156067,NA,287256,287713,287152,287256,Flanker task,79,45656,100,yes,1024
79.20792079,79.20792079,457.1881188,457.1881188,black,legacy,legacy,legacy,0,congruent,uniform,1,undefined,1,h,0,100,0,0,0,100,0,100,100,0,0,0,100,100,100,100,9/23/2021 11:28,600,The main experiment item,yes,Flankertask.osexp,C:/Users/borna.000/Documents/PSYC/PSYC5316,no,mono,no,18,no,white,no,yes,768,legacy,20,79,C:/Users/borna.000/Desktop/MH-subject-2.csv,legacy,Lentiform Loewenfeld,3.3.9,0,h,NA,s,s,NA,h,520,NA,16996,95835,NA,520,2,legacy,1024,2,48000,-16,experiment,HHHHH,1,odd,NA,287721,18891,251903,NA,283967,1891,278542,288785,1894,156067,NA,288886,289407,288782,288886,Flanker task,80,46176,101,yes,1024
79.41176471,79.41176471,456.2941176,456.2941176,black,legacy,legacy,legacy,0,congruent,uniform,1,undefined,1,s,0,101,0,0,0,101,0,101,101,0,0,0,101,101,101,101,9/23/2021 11:28,600,The main experiment item,yes,Flankertask.osexp,C:/Users/borna.000/Documents/PSYC/PSYC5316,no,mono,no,18,no,white,no,yes,768,legacy,21,79,C:/Users/borna.000/Desktop/MH-subject-2.csv,legacy,Lentiform Loewenfeld,3.3.9,0,s,NA,s,s,NA,s,366,NA,16996,95835,NA,366,2,legacy,1024,2,48000,-16,experiment,SSSSS,1,odd,NA,289415,18891,251903,NA,283967,1891,278542,290479,1894,156067,NA,290580,290947,290477,290580,Flanker task,81,46542,102,yes,1024
79.61165049,79.61165049,455.815534,455.815534,black,legacy,legacy,legacy,0,congruent,uniform,1,undefined,1,h,0,102,0,0,0,102,0,102,102,0,0,0,102,102,102,102,9/23/2021 11:28,600,The main experiment item,yes,Flankertask.osexp,C:/Users/borna.000/Documents/PSYC/PSYC5316,no,mono,no,18,no,white,no,yes,768,legacy,22,79,C:/Users/borna.000/Desktop/MH-subject-2.csv,legacy,Lentiform Loewenfeld,3.3.9,0,h,NA,s,s,NA,h,407,NA,16996,95835,NA,407,2,legacy,1024,2,48000,-16,experiment,HHHHH,1,odd,NA,290955,18891,251903,NA,283967,1891,278542,292019,1894,156067,NA,292120,292528,292017,292120,Flanker task,82,46949,103,yes,1024
79.80769231,79.80769231,454.5,454.5,black,legacy,legacy,legacy,0,incongruent,uniform,1,undefined,1,s,0,103,0,0,0,103,0,103,103,0,0,0,103,103,103,103,9/23/2021 11:28,600,The main experiment item,yes,Flankertask.osexp,C:/Users/borna.000/Documents/PSYC/PSYC5316,no,mono,no,18,no,white,no,yes,768,legacy,23,79,C:/Users/borna.000/Desktop/MH-subject-2.csv,legacy,Lentiform Loewenfeld,3.3.9,0,s,NA,s,s,NA,s,319,NA,16996,95835,NA,319,2,legacy,1024,2,48000,-16,experiment,HHSHH,1,odd,NA,292535,18891,251903,NA,283967,1891,278542,293597,1894,156067,NA,293698,294018,293595,293698,Flanker task,83,47268,104,yes,1024
80,80,453.3238095,453.3238095,black,legacy,legacy,legacy,0,incongruent,uniform,1,undefined,1,h,0,104,0,0,0,104,0,104,104,0,0,0,104,104,104,104,9/23/2021 11:28,600,The main experiment item,yes,Flankertask.osexp,C:/Users/borna.000/Documents/PSYC/PSYC5316,no,mono,no,18,no,white,no,yes,768,legacy,24,79,C:/Users/borna.000/Desktop/MH-subject-2.csv,legacy,Lentiform Loewenfeld,3.3.9,0,h,NA,s,s,NA,h,331,NA,16996,95835,NA,331,2,legacy,1024,2,48000,-16,experiment,SSHSS,1,odd,NA,294026,18891,251903,NA,283967,1891,278542,295082,1894,156067,NA,295183,295515,295079,295183,Flanker task,84,47599,105,yes,1024
79.24528302,79.24528302,452.2924528,452.2924528,black,legacy,legacy,legacy,0,incongruent,uniform,0,undefined,0,h,0,105,0,0,0,105,0,105,105,0,0,0,105,105,105,105,9/23/2021 11:28,600,The main experiment item,yes,Flankertask.osexp,C:/Users/borna.000/Documents/PSYC/PSYC5316,no,mono,no,18,no,white,no,yes,768,legacy,25,79,C:/Users/borna.000/Desktop/MH-subject-2.csv,legacy,Lentiform Loewenfeld,3.3.9,0,s,NA,s,s,NA,s,344,NA,16996,95835,NA,344,2,legacy,1024,2,48000,-16,experiment,SSHSS,1,odd,NA,295523,18891,251903,NA,283967,1891,278542,296589,1894,156067,NA,296690,297035,296586,296690,Flanker task,84,47943,106,yes,1024
79.43925234,79.43925234,452.9813084,452.9813084,black,legacy,legacy,legacy,0,incongruent,uniform,1,undefined,1,s,0,106,0,0,0,106,0,106,106,0,0,0,106,106,106,106,9/23/2021 11:28,600,The main experiment item,yes,Flankertask.osexp,C:/Users/borna.000/Documents/PSYC/PSYC5316,no,mono,no,18,no,white,no,yes,768,legacy,26,79,C:/Users/borna.000/Desktop/MH-subject-2.csv,legacy,Lentiform Loewenfeld,3.3.9,0,s,NA,s,s,NA,s,526,NA,16996,95835,NA,526,2,legacy,1024,2,48000,-16,experiment,HHSHH,1,odd,NA,297544,18891,251903,NA,297043,1891,278542,298600,1894,156067,NA,298701,299228,298598,298701,Flanker task,85,48469,107,yes,1024
79.62962963,79.62962963,451.9444444,451.9444444,black,legacy,legacy,legacy,0,incongruent,uniform,1,undefined,1,h,0,107,0,0,0,107,0,107,107,0,0,0,107,107,107,107,9/23/2021 11:28,600,The main experiment item,yes,Flankertask.osexp,C:/Users/borna.000/Documents/PSYC/PSYC5316,no,mono,no,18,no,white,no,yes,768,legacy,27,79,C:/Users/borna.000/Desktop/MH-subject-2.csv,legacy,Lentiform Loewenfeld,3.3.9,0,h,NA,s,s,NA,h,341,NA,16996,95835,NA,341,2,legacy,1024,2,48000,-16,experiment,SSHSS,1,odd,NA,299236,18891,251903,NA,297043,1891,278542,300302,1894,156067,NA,300403,300745,300299,300403,Flanker task,86,48810,108,yes,1024
79.81651376,79.81651376,450.853211,450.853211,black,legacy,legacy,legacy,0,incongruent,uniform,1,undefined,1,s,0,108,0,0,0,108,0,108,108,0,0,0,108,108,108,108,9/23/2021 11:28,600,The main experiment item,yes,Flankertask.osexp,C:/Users/borna.000/Documents/PSYC/PSYC5316,no,mono,no,18,no,white,no,yes,768,legacy,28,79,C:/Users/borna.000/Desktop/MH-subject-2.csv,legacy,Lentiform Loewenfeld,3.3.9,0,s,NA,s,s,NA,s,333,NA,16996,95835,NA,333,2,legacy,1024,2,48000,-16,experiment,HHSHH,1,odd,NA,300754,18891,251903,NA,297043,1891,278542,301810,1894,156067,NA,301911,302245,301808,301911,Flanker task,87,49143,109,yes,1024
80,80,449.8363636,449.8363636,black,legacy,legacy,legacy,0,congruent,uniform,1,undefined,1,h,0,109,0,0,0,109,0,109,109,0,0,0,109,109,109,109,9/23/2021 11:28,600,The main experiment item,yes,Flankertask.osexp,C:/Users/borna.000/Documents/PSYC/PSYC5316,no,mono,no,18,no,white,no,yes,768,legacy,29,79,C:/Users/borna.000/Desktop/MH-subject-2.csv,legacy,Lentiform Loewenfeld,3.3.9,0,h,NA,s,s,NA,h,339,NA,16996,95835,NA,339,2,legacy,1024,2,48000,-16,experiment,HHHHH,1,odd,NA,302253,18891,251903,NA,297043,1891,278542,303316,1894,156067,NA,303417,303757,303314,303417,Flanker task,88,49482,110,yes,1024
80.18018018,80.18018018,448.5225225,448.5225225,black,legacy,legacy,legacy,0,congruent,uniform,1,undefined,1,h,0,110,0,0,0,110,0,110,110,0,0,0,110,110,110,110,9/23/2021 11:28,600,The main experiment item,yes,Flankertask.osexp,C:/Users/borna.000/Documents/PSYC/PSYC5316,no,mono,no,18,no,white,no,yes,768,legacy,30,79,C:/Users/borna.000/Desktop/MH-subject-2.csv,legacy,Lentiform Loewenfeld,3.3.9,0,h,NA,s,s,NA,h,304,NA,16996,95835,NA,304,2,legacy,1024,2,48000,-16,experiment,HHHHH,1,odd,NA,303766,18891,251903,NA,297043,1891,278542,304831,1894,156067,NA,304932,305237,304828,304932,Flanker task,89,49786,111,yes,1024
80.35714286,80.35714286,448.9464286,448.9464286,black,legacy,legacy,legacy,0,congruent,uniform,1,undefined,1,s,0,111,0,0,0,111,0,111,111,0,0,0,111,111,111,111,9/23/2021 11:28,600,The main experiment item,yes,Flankertask.osexp,C:/Users/borna.000/Documents/PSYC/PSYC5316,no,mono,no,18,no,white,no,yes,768,legacy,31,79,C:/Users/borna.000/Desktop/MH-subject-2.csv,legacy,Lentiform Loewenfeld,3.3.9,0,s,NA,s,s,NA,s,496,NA,16996,95835,NA,496,2,legacy,1024,2,48000,-16,experiment,SSSSS,1,odd,NA,305245,18891,251903,NA,297043,1891,278542,306302,1894,156067,NA,306403,306900,306300,306403,Flanker task,90,50282,112,yes,1024
80.53097345,80.53097345,449.7787611,449.7787611,black,legacy,legacy,legacy,0,congruent,uniform,1,undefined,1,s,0,112,0,0,0,112,0,112,112,0,0,0,112,112,112,112,9/23/2021 11:28,600,The main experiment item,yes,Flankertask.osexp,C:/Users/borna.000/Documents/PSYC/PSYC5316,no,mono,no,18,no,white,no,yes,768,legacy,32,79,C:/Users/borna.000/Desktop/MH-subject-2.csv,legacy,Lentiform Loewenfeld,3.3.9,0,s,NA,s,s,NA,s,543,NA,16996,95835,NA,543,2,legacy,1024,2,48000,-16,experiment,SSSSS,1,odd,NA,306909,18891,251903,NA,297043,1891,278542,307973,1894,156067,NA,308074,308618,307970,308074,Flanker task,91,50825,113,yes,1024
79.8245614,79.8245614,449.1666667,449.1666667,black,legacy,legacy,legacy,0,incongruent,uniform,0,undefined,0,h,0,113,0,0,0,113,0,113,113,0,0,0,113,113,113,113,9/23/2021 11:28,600,The main experiment item,yes,Flankertask.osexp,C:/Users/borna.000/Documents/PSYC/PSYC5316,no,mono,no,18,no,white,no,yes,768,legacy,33,79,C:/Users/borna.000/Desktop/MH-subject-2.csv,legacy,Lentiform Loewenfeld,3.3.9,0,s,NA,s,s,NA,s,380,NA,16996,95835,NA,380,2,legacy,1024,2,48000,-16,experiment,SSHSS,1,odd,NA,308626,18891,251903,NA,297043,1891,278542,309688,1894,156067,NA,309789,310170,309685,309789,Flanker task,91,51205,114,yes,1024
80,80,452.4,452.4,black,legacy,legacy,legacy,0,congruent,uniform,1,undefined,1,s,0,114,0,0,0,114,0,114,114,0,0,0,114,114,114,114,9/23/2021 11:28,600,The main experiment item,yes,Flankertask.osexp,C:/Users/borna.000/Documents/PSYC/PSYC5316,no,mono,no,18,no,white,no,yes,768,legacy,34,79,C:/Users/borna.000/Desktop/MH-subject-2.csv,legacy,Lentiform Loewenfeld,3.3.9,0,s,NA,s,s,NA,s,821,NA,16996,95835,NA,821,2,legacy,1024,2,48000,-16,experiment,SSSSS,1,odd,NA,310680,18891,251903,NA,310179,1891,278542,311737,1894,156067,NA,311838,312660,311734,311838,Flanker task,92,52026,115,yes,1024
80.17241379,80.17241379,452.9224138,452.9224138,black,legacy,legacy,legacy,0,incongruent,uniform,1,undefined,1,s,0,115,0,0,0,115,0,115,115,0,0,0,115,115,115,115,9/23/2021 11:28,600,The main experiment item,yes,Flankertask.osexp,C:/Users/borna.000/Documents/PSYC/PSYC5316,no,mono,no,18,no,white,no,yes,768,legacy,35,79,C:/Users/borna.000/Desktop/MH-subject-2.csv,legacy,Lentiform Loewenfeld,3.3.9,0,s,NA,s,s,NA,s,513,NA,16996,95835,NA,513,2,legacy,1024,2,48000,-16,experiment,HHSHH,1,odd,NA,313169,18891,251903,NA,310179,1891,312668,314226,1894,156067,NA,314327,314842,314224,314327,Flanker task,93,52539,116,yes,1024
80.34188034,80.34188034,451.7179487,451.7179487,black,legacy,legacy,legacy,0,congruent,uniform,1,undefined,1,h,0,116,0,0,0,116,0,116,116,0,0,0,116,116,116,116,9/23/2021 11:28,600,The main experiment item,yes,Flankertask.osexp,C:/Users/borna.000/Documents/PSYC/PSYC5316,no,mono,no,18,no,white,no,yes,768,legacy,36,79,C:/Users/borna.000/Desktop/MH-subject-2.csv,legacy,Lentiform Loewenfeld,3.3.9,0,h,NA,s,s,NA,h,312,NA,16996,95835,NA,312,2,legacy,1024,2,48000,-16,experiment,HHHHH,1,odd,NA,314851,18891,251903,NA,310179,1891,312668,315912,1894,156067,NA,316013,316326,315910,316013,Flanker task,94,52851,117,yes,1024
79.66101695,79.66101695,451.8983051,451.8983051,black,legacy,legacy,legacy,0,incongruent,uniform,0,undefined,0,h,0,117,0,0,0,117,0,117,117,0,0,0,117,117,117,117,9/23/2021 11:28,600,The main experiment item,yes,Flankertask.osexp,C:/Users/borna.000/Documents/PSYC/PSYC5316,no,mono,no,18,no,white,no,yes,768,legacy,37,79,C:/Users/borna.000/Desktop/MH-subject-2.csv,legacy,Lentiform Loewenfeld,3.3.9,0,s,NA,s,s,NA,s,473,NA,16996,95835,NA,473,2,legacy,1024,2,48000,-16,experiment,SSHSS,1,odd,NA,316335,18891,251903,NA,310179,1891,312668,317391,1894,156067,NA,317492,317966,317389,317492,Flanker task,94,53324,118,yes,1024
79.83193277,79.83193277,452.4453782,452.4453782,black,legacy,legacy,legacy,0,incongruent,uniform,1,undefined,1,s,0,118,0,0,0,118,0,118,118,0,0,0,118,118,118,118,9/23/2021 11:28,600,The main experiment item,yes,Flankertask.osexp,C:/Users/borna.000/Documents/PSYC/PSYC5316,no,mono,no,18,no,white,no,yes,768,legacy,38,79,C:/Users/borna.000/Desktop/MH-subject-2.csv,legacy,Lentiform Loewenfeld,3.3.9,0,s,NA,s,s,NA,s,517,NA,16996,95835,NA,517,2,legacy,1024,2,48000,-16,experiment,HHSHH,1,odd,NA,318476,18891,251903,NA,317975,1891,312668,319531,1894,156067,NA,319632,320150,319529,319632,Flanker task,95,53841,119,yes,1024
80,80,452.4083333,452.4083333,black,legacy,legacy,legacy,0,incongruent,uniform,1,undefined,1,s,0,119,0,0,0,119,0,119,119,0,0,0,119,119,119,119,9/23/2021 11:28,600,The main experiment item,yes,Flankertask.osexp,C:/Users/borna.000/Documents/PSYC/PSYC5316,no,mono,no,18,no,white,no,yes,768,legacy,39,79,C:/Users/borna.000/Desktop/MH-subject-2.csv,legacy,Lentiform Loewenfeld,3.3.9,0,s,NA,s,s,NA,s,448,NA,16996,95835,NA,448,2,legacy,1024,2,48000,-16,experiment,HHSHH,1,odd,NA,320159,18891,251903,NA,317975,1891,312668,321220,1894,156067,NA,321321,321770,321218,321321,Flanker task,96,54289,120,yes,1024
80.16528926,80.16528926,452.5123967,452.5123967,black,legacy,legacy,legacy,0,incongruent,uniform,1,undefined,1,s,0,120,0,0,0,120,0,120,120,0,0,0,120,120,120,120,9/23/2021 11:28,600,The main experiment item,yes,Flankertask.osexp,C:/Users/borna.000/Documents/PSYC/PSYC5316,no,mono,no,18,no,white,no,yes,768,legacy,40,79,C:/Users/borna.000/Desktop/MH-subject-2.csv,legacy,Lentiform Loewenfeld,3.3.9,0,s,NA,s,s,NA,s,465,NA,16996,95835,NA,465,2,legacy,1024,2,48000,-16,experiment,HHSHH,1,odd,NA,321778,18891,251903,NA,317975,1891,312668,322844,1894,156067,NA,322945,323412,322842,322945,Flanker task,97,54754,121,yes,1024
80.32786885,80.32786885,452.6229508,452.6229508,black,legacy,legacy,legacy,0,congruent,uniform,1,undefined,1,s,0,121,0,0,0,121,0,121,121,0,0,0,121,121,121,121,9/23/2021 11:28,600,The main experiment item,yes,Flankertask.osexp,C:/Users/borna.000/Documents/PSYC/PSYC5316,no,mono,no,18,no,white,no,yes,768,legacy,41,79,C:/Users/borna.000/Desktop/MH-subject-2.csv,legacy,Lentiform Loewenfeld,3.3.9,0,s,NA,s,s,NA,s,466,NA,16996,95835,NA,466,2,legacy,1024,2,48000,-16,experiment,SSSSS,1,odd,NA,323420,18891,251903,NA,317975,1891,312668,324487,1894,156067,NA,324588,325055,324485,324588,Flanker task,98,55220,122,yes,1024
79.67479675,79.67479675,452.804878,452.804878,black,legacy,legacy,legacy,0,incongruent,uniform,0,undefined,0,h,0,122,0,0,0,122,0,122,122,0,0,0,122,122,122,122,9/23/2021 11:28,600,The main experiment item,yes,Flankertask.osexp,C:/Users/borna.000/Documents/PSYC/PSYC5316,no,mono,no,18,no,white,no,yes,768,legacy,42,79,C:/Users/borna.000/Desktop/MH-subject-2.csv,legacy,Lentiform Loewenfeld,3.3.9,0,s,NA,s,s,NA,s,475,NA,16996,95835,NA,475,2,legacy,1024,2,48000,-16,experiment,SSHSS,1,odd,NA,325064,18891,251903,NA,317975,1891,312668,326136,1894,156067,NA,326237,326713,326134,326237,Flanker task,98,55695,123,yes,1024
79.83870968,79.83870968,452.7983871,452.7983871,black,legacy,legacy,legacy,0,congruent,uniform,1,undefined,1,h,0,123,0,0,0,123,0,123,123,0,0,0,123,123,123,123,9/23/2021 11:28,600,The main experiment item,yes,Flankertask.osexp,C:/Users/borna.000/Documents/PSYC/PSYC5316,no,mono,no,18,no,white,no,yes,768,legacy,43,79,C:/Users/borna.000/Desktop/MH-subject-2.csv,legacy,Lentiform Loewenfeld,3.3.9,0,h,NA,s,s,NA,h,452,NA,16996,95835,NA,452,2,legacy,1024,2,48000,-16,experiment,HHHHH,1,odd,NA,327222,18891,251903,NA,326721,1891,312668,328277,1894,156067,NA,328378,328832,328275,328378,Flanker task,99,56147,124,yes,1024
79.2,79.2,453.632,453.632,black,legacy,legacy,legacy,0,incongruent,uniform,0,undefined,0,h,0,124,0,0,0,124,0,124,124,0,0,0,124,124,124,124,9/23/2021 11:28,600,The main experiment item,yes,Flankertask.osexp,C:/Users/borna.000/Documents/PSYC/PSYC5316,no,mono,no,18,no,white,no,yes,768,legacy,44,79,C:/Users/borna.000/Desktop/MH-subject-2.csv,legacy,Lentiform Loewenfeld,3.3.9,0,s,NA,s,s,NA,s,557,NA,16996,95835,NA,557,2,legacy,1024,2,48000,-16,experiment,SSHSS,1,odd,NA,328840,18891,251903,NA,326721,1891,312668,329905,1894,156067,NA,330006,330564,329903,330006,Flanker task,99,56704,125,yes,1024
78.57142857,78.57142857,453.3333333,453.3333333,black,legacy,legacy,legacy,0,incongruent,uniform,0,undefined,0,h,0,125,0,0,0,125,0,125,125,0,0,0,125,125,125,125,9/23/2021 11:28,600,The main experiment item,yes,Flankertask.osexp,C:/Users/borna.000/Documents/PSYC/PSYC5316,no,mono,no,18,no,white,no,yes,768,legacy,45,79,C:/Users/borna.000/Desktop/MH-subject-2.csv,legacy,Lentiform Loewenfeld,3.3.9,0,s,NA,s,s,NA,s,416,NA,16996,95835,NA,416,2,legacy,1024,2,48000,-16,experiment,SSHSS,1,odd,NA,331073,18891,251903,NA,330572,1891,312668,332131,1894,156067,NA,332232,332649,332128,332232,Flanker task,99,57120,126,yes,1024
78.74015748,78.74015748,453.4645669,453.4645669,black,legacy,legacy,legacy,0,congruent,uniform,1,undefined,1,s,0,126,0,0,0,126,0,126,126,0,0,0,126,126,126,126,9/23/2021 11:28,600,The main experiment item,yes,Flankertask.osexp,C:/Users/borna.000/Documents/PSYC/PSYC5316,no,mono,no,18,no,white,no,yes,768,legacy,46,79,C:/Users/borna.000/Desktop/MH-subject-2.csv,legacy,Lentiform Loewenfeld,3.3.9,0,s,NA,s,s,NA,s,470,NA,16996,95835,NA,470,2,legacy,1024,2,48000,-16,experiment,SSSSS,1,odd,NA,333159,18891,251903,NA,332658,1891,312668,334214,1894,156067,NA,334315,334786,334212,334315,Flanker task,100,57590,127,yes,1024
78.90625,78.90625,455.140625,455.140625,black,legacy,legacy,legacy,0,congruent,uniform,1,undefined,1,s,0,127,0,0,0,127,0,127,127,0,0,0,127,127,127,127,9/23/2021 11:28,600,The main experiment item,yes,Flankertask.osexp,C:/Users/borna.000/Documents/PSYC/PSYC5316,no,mono,no,18,no,white,no,yes,768,legacy,47,79,C:/Users/borna.000/Desktop/MH-subject-2.csv,legacy,Lentiform Loewenfeld,3.3.9,0,s,NA,s,s,NA,s,668,NA,16996,95835,NA,668,2,legacy,1024,2,48000,-16,experiment,SSSSS,1,odd,NA,334795,18891,251903,NA,332658,1891,312668,335859,1894,156067,NA,335960,336629,335857,335960,Flanker task,101,58258,128,yes,1024
78.29457364,78.29457364,456.4108527,456.4108527,black,legacy,legacy,legacy,0,congruent,uniform,0,undefined,0,h,0,128,0,0,0,128,0,128,128,0,0,0,128,128,128,128,9/23/2021 11:28,600,The main experiment item,yes,Flankertask.osexp,C:/Users/borna.000/Documents/PSYC/PSYC5316,no,mono,no,18,no,white,no,yes,768,legacy,48,79,C:/Users/borna.000/Desktop/MH-subject-2.csv,legacy,Lentiform Loewenfeld,3.3.9,0,s,NA,s,s,NA,s,619,NA,16996,95835,NA,619,2,legacy,1024,2,48000,-16,experiment,HHHHH,1,odd,NA,337139,18891,251903,NA,332658,1891,336638,338196,1894,156067,NA,338297,338917,338194,338297,Flanker task,101,58877,129,yes,1024
78.46153846,78.46153846,458.2615385,458.2615385,black,legacy,legacy,legacy,0,incongruent,uniform,1,undefined,1,h,0,129,0,0,0,129,0,129,129,0,0,0,129,129,129,129,9/23/2021 11:28,600,The main experiment item,yes,Flankertask.osexp,C:/Users/borna.000/Documents/PSYC/PSYC5316,no,mono,no,18,no,white,no,yes,768,legacy,49,79,C:/Users/borna.000/Desktop/MH-subject-2.csv,legacy,Lentiform Loewenfeld,3.3.9,0,h,NA,s,s,NA,h,697,NA,16996,95835,NA,697,2,legacy,1024,2,48000,-16,experiment,SSHSS,1,odd,NA,339927,18891,251903,NA,338925,1891,339426,340982,1894,156067,NA,341083,341781,340980,341083,Flanker task,102,59574,130,yes,1024
77.86259542,77.86259542,457.9847328,457.9847328,black,legacy,legacy,legacy,0,incongruent,uniform,0,undefined,0,h,0,130,0,0,0,130,0,130,130,0,0,0,130,130,130,130,9/23/2021 11:28,600,The main experiment item,yes,Flankertask.osexp,C:/Users/borna.000/Documents/PSYC/PSYC5316,no,mono,no,18,no,white,no,yes,768,legacy,50,79,C:/Users/borna.000/Desktop/MH-subject-2.csv,legacy,Lentiform Loewenfeld,3.3.9,0,s,NA,s,s,NA,s,422,NA,16996,95835,NA,422,2,legacy,1024,2,48000,-16,experiment,SSHSS,1,odd,NA,342291,18891,251903,NA,338925,1891,341790,343347,1894,156067,NA,343448,343871,343345,343448,Flanker task,102,59996,131,yes,1024
78.03030303,78.03030303,458.8030303,458.8030303,black,legacy,legacy,legacy,0,congruent,uniform,1,undefined,1,s,0,131,0,0,0,131,0,131,131,0,0,0,131,131,131,131,9/23/2021 11:28,600,The main experiment item,yes,Flankertask.osexp,C:/Users/borna.000/Documents/PSYC/PSYC5316,no,mono,no,18,no,white,no,yes,768,legacy,51,79,C:/Users/borna.000/Desktop/MH-subject-2.csv,legacy,Lentiform Loewenfeld,3.3.9,0,s,NA,s,s,NA,s,566,NA,16996,95835,NA,566,2,legacy,1024,2,48000,-16,experiment,SSSSS,1,odd,NA,344380,18891,251903,NA,343879,1891,341790,345436,1894,156067,NA,345537,346104,345433,345537,Flanker task,103,60562,132,yes,1024
78.19548872,78.19548872,459.3909774,459.3909774,black,legacy,legacy,legacy,0,incongruent,uniform,1,undefined,1,s,0,132,0,0,0,132,0,132,132,0,0,0,132,132,132,132,9/23/2021 11:28,600,The main experiment item,yes,Flankertask.osexp,C:/Users/borna.000/Documents/PSYC/PSYC5316,no,mono,no,18,no,white,no,yes,768,legacy,52,79,C:/Users/borna.000/Desktop/MH-subject-2.csv,legacy,Lentiform Loewenfeld,3.3.9,0,s,NA,s,s,NA,s,537,NA,16996,95835,NA,537,2,legacy,1024,2,48000,-16,experiment,HHSHH,1,odd,NA,346112,18891,251903,NA,343879,1891,341790,347179,1894,156067,NA,347280,347818,347176,347280,Flanker task,104,61099,133,yes,1024
78.35820896,78.35820896,460.9850746,460.9850746,black,legacy,legacy,legacy,0,incongruent,uniform,1,undefined,1,h,0,133,0,0,0,133,0,133,133,0,0,0,133,133,133,133,9/23/2021 11:28,600,The main experiment item,yes,Flankertask.osexp,C:/Users/borna.000/Documents/PSYC/PSYC5316,no,mono,no,18,no,white,no,yes,768,legacy,53,79,C:/Users/borna.000/Desktop/MH-subject-2.csv,legacy,Lentiform Loewenfeld,3.3.9,0,h,NA,s,s,NA,h,673,NA,16996,95835,NA,673,2,legacy,1024,2,48000,-16,experiment,SSHSS,1,odd,NA,347827,18891,251903,NA,343879,1891,341790,348897,1894,156067,NA,348999,349673,348895,348999,Flanker task,105,61772,134,yes,1024
77.77777778,77.77777778,464.037037,464.037037,black,legacy,legacy,legacy,0,incongruent,uniform,0,undefined,0,h,0,134,0,0,0,134,0,134,134,0,0,0,134,134,134,134,9/23/2021 11:28,600,The main experiment item,yes,Flankertask.osexp,C:/Users/borna.000/Documents/PSYC/PSYC5316,no,mono,no,18,no,white,no,yes,768,legacy,54,79,C:/Users/borna.000/Desktop/MH-subject-2.csv,legacy,Lentiform Loewenfeld,3.3.9,0,s,NA,s,s,NA,s,873,NA,16996,95835,NA,873,2,legacy,1024,2,48000,-16,experiment,SSHSS,1,odd,NA,350182,18891,251903,NA,343879,1891,349681,351238,1894,156067,NA,351339,352213,351235,351339,Flanker task,105,62645,135,yes,1024
77.94117647,77.94117647,464.1102941,464.1102941,black,legacy,legacy,legacy,0,congruent,uniform,1,undefined,1,s,0,135,0,0,0,135,0,135,135,0,0,0,135,135,135,135,9/23/2021 11:28,600,The main experiment item,yes,Flankertask.osexp,C:/Users/borna.000/Documents/PSYC/PSYC5316,no,mono,no,18,no,white,no,yes,768,legacy,55,79,C:/Users/borna.000/Desktop/MH-subject-2.csv,legacy,Lentiform Loewenfeld,3.3.9,0,s,NA,s,s,NA,s,474,NA,16996,95835,NA,474,2,legacy,1024,2,48000,-16,experiment,SSSSS,1,odd,NA,353226,18891,251903,NA,352223,1891,352724,354281,1894,156067,NA,354383,354859,354279,354383,Flanker task,106,63119,136,yes,1024
78.10218978,78.10218978,464.1313869,464.1313869,black,legacy,legacy,legacy,0,incongruent,uniform,1,undefined,1,s,0,136,0,0,0,136,0,136,136,0,0,0,136,136,136,136,9/23/2021 11:28,600,The main experiment item,yes,Flankertask.osexp,C:/Users/borna.000/Documents/PSYC/PSYC5316,no,mono,no,18,no,white,no,yes,768,legacy,56,79,C:/Users/borna.000/Desktop/MH-subject-2.csv,legacy,Lentiform Loewenfeld,3.3.9,0,s,NA,s,s,NA,s,467,NA,16996,95835,NA,467,2,legacy,1024,2,48000,-16,experiment,HHSHH,1,odd,NA,354866,18891,251903,NA,352223,1891,352724,355927,1894,156067,NA,356028,356496,355925,356028,Flanker task,107,63586,137,yes,1024
77.53623188,77.53623188,463.5144928,463.5144928,black,legacy,legacy,legacy,0,congruent,uniform,0,undefined,0,h,0,137,0,0,0,137,0,137,137,0,0,0,137,137,137,137,9/23/2021 11:28,600,The main experiment item,yes,Flankertask.osexp,C:/Users/borna.000/Documents/PSYC/PSYC5316,no,mono,no,18,no,white,no,yes,768,legacy,57,79,C:/Users/borna.000/Desktop/MH-subject-2.csv,legacy,Lentiform Loewenfeld,3.3.9,0,s,NA,s,s,NA,s,379,NA,16996,95835,NA,379,2,legacy,1024,2,48000,-16,experiment,HHHHH,1,odd,NA,356499,18891,251903,NA,352223,1891,352724,357567,1894,156067,NA,357668,358049,357564,357668,Flanker task,107,63965,138,yes,1024
77.69784173,77.69784173,462.8489209,462.8489209,black,legacy,legacy,legacy,0,congruent,uniform,1,undefined,1,h,0,138,0,0,0,138,0,138,138,0,0,0,138,138,138,138,9/23/2021 11:28,600,The main experiment item,yes,Flankertask.osexp,C:/Users/borna.000/Documents/PSYC/PSYC5316,no,mono,no,18,no,white,no,yes,768,legacy,58,79,C:/Users/borna.000/Desktop/MH-subject-2.csv,legacy,Lentiform Loewenfeld,3.3.9,0,h,NA,s,s,NA,h,371,NA,16996,95835,NA,371,2,legacy,1024,2,48000,-16,experiment,HHHHH,1,odd,NA,358554,18891,251903,NA,358053,1891,352724,359610,1894,156067,NA,359711,360084,359608,359711,Flanker task,108,64336,139,yes,1024
77.85714286,77.85714286,462.2357143,462.2357143,black,legacy,legacy,legacy,0,congruent,uniform,1,undefined,1,s,0,139,0,0,0,139,0,139,139,0,0,0,139,139,139,139,9/23/2021 11:28,600,The main experiment item,yes,Flankertask.osexp,C:/Users/borna.000/Documents/PSYC/PSYC5316,no,mono,no,18,no,white,no,yes,768,legacy,59,79,C:/Users/borna.000/Desktop/MH-subject-2.csv,legacy,Lentiform Loewenfeld,3.3.9,0,s,NA,s,s,NA,s,377,NA,16996,95835,NA,377,2,legacy,1024,2,48000,-16,experiment,SSSSS,1,odd,NA,360093,18891,251903,NA,358053,1891,352724,361157,1894,156067,NA,361258,361636,361154,361258,Flanker task,109,64713,140,yes,1024
77.30496454,77.30496454,461.7659574,461.7659574,black,legacy,legacy,legacy,0,incongruent,uniform,0,undefined,0,s,0,140,0,0,0,140,0,140,140,0,0,0,140,140,140,140,9/23/2021 11:28,600,The main experiment item,yes,Flankertask.osexp,C:/Users/borna.000/Documents/PSYC/PSYC5316,no,mono,no,18,no,white,no,yes,768,legacy,60,79,C:/Users/borna.000/Desktop/MH-subject-2.csv,legacy,Lentiform Loewenfeld,3.3.9,0,h,NA,s,s,NA,h,396,NA,16996,95835,NA,396,2,legacy,1024,2,48000,-16,experiment,HHSHH,1,odd,NA,361644,18891,251903,NA,358053,1891,352724,362710,1894,156067,NA,362811,363208,362708,362811,Flanker task,109,65109,141,yes,1024
76.76056338,76.76056338,462.4788732,462.4788732,black,legacy,legacy,legacy,0,incongruent,uniform,0,undefined,0,h,0,141,0,0,0,141,0,141,141,0,0,0,141,141,141,141,9/23/2021 11:28,600,The main experiment item,yes,Flankertask.osexp,C:/Users/borna.000/Documents/PSYC/PSYC5316,no,mono,no,18,no,white,no,yes,768,legacy,61,79,C:/Users/borna.000/Desktop/MH-subject-2.csv,legacy,Lentiform Loewenfeld,3.3.9,0,s,NA,s,s,NA,s,563,NA,16996,95835,NA,563,2,legacy,1024,2,48000,-16,experiment,SSHSS,1,odd,NA,363717,18891,251903,NA,363216,1891,352724,364773,1894,156067,NA,364874,365438,364771,364874,Flanker task,109,65672,142,yes,1024
76.92307692,76.92307692,461.986014,461.986014,black,legacy,legacy,legacy,0,incongruent,uniform,1,undefined,1,s,0,142,0,0,0,142,0,142,142,0,0,0,142,142,142,142,9/23/2021 11:28,600,The main experiment item,yes,Flankertask.osexp,C:/Users/borna.000/Documents/PSYC/PSYC5316,no,mono,no,18,no,white,no,yes,768,legacy,62,79,C:/Users/borna.000/Desktop/MH-subject-2.csv,legacy,Lentiform Loewenfeld,3.3.9,0,s,NA,s,s,NA,s,392,NA,16996,95835,NA,392,2,legacy,1024,2,48000,-16,experiment,HHSHH,1,odd,NA,365947,18891,251903,NA,365446,1891,352724,367003,1894,156067,NA,367104,367497,367001,367104,Flanker task,110,66064,143,yes,1024
77.08333333,77.08333333,461.3125,461.3125,black,legacy,legacy,legacy,0,congruent,uniform,1,undefined,1,h,0,143,0,0,0,143,0,143,143,0,0,0,143,143,143,143,9/23/2021 11:28,600,The main experiment item,yes,Flankertask.osexp,C:/Users/borna.000/Documents/PSYC/PSYC5316,no,mono,no,18,no,white,no,yes,768,legacy,63,79,C:/Users/borna.000/Desktop/MH-subject-2.csv,legacy,Lentiform Loewenfeld,3.3.9,0,h,NA,s,s,NA,h,365,NA,16996,95835,NA,365,2,legacy,1024,2,48000,-16,experiment,HHHHH,1,odd,NA,367500,18891,251903,NA,365446,1891,352724,368565,1894,156067,NA,368666,369032,368563,368666,Flanker task,111,66429,144,yes,1024
77.24137931,77.24137931,460.9448276,460.9448276,black,legacy,legacy,legacy,0,incongruent,uniform,1,undefined,1,s,0,144,0,0,0,144,0,144,144,0,0,0,144,144,144,144,9/23/2021 11:28,600,The main experiment item,yes,Flankertask.osexp,C:/Users/borna.000/Documents/PSYC/PSYC5316,no,mono,no,18,no,white,no,yes,768,legacy,64,79,C:/Users/borna.000/Desktop/MH-subject-2.csv,legacy,Lentiform Loewenfeld,3.3.9,0,s,NA,s,s,NA,s,408,NA,16996,95835,NA,408,2,legacy,1024,2,48000,-16,experiment,HHSHH,1,odd,NA,369040,18891,251903,NA,365446,1891,352724,370110,1894,156067,NA,370211,370620,370108,370211,Flanker task,112,66837,145,yes,1024
77.39726027,77.39726027,460.2328767,460.2328767,black,legacy,legacy,legacy,0,congruent,uniform,1,undefined,1,h,0,145,0,0,0,145,0,145,145,0,0,0,145,145,145,145,9/23/2021 11:28,600,The main experiment item,yes,Flankertask.osexp,C:/Users/borna.000/Documents/PSYC/PSYC5316,no,mono,no,18,no,white,no,yes,768,legacy,65,79,C:/Users/borna.000/Desktop/MH-subject-2.csv,legacy,Lentiform Loewenfeld,3.3.9,0,h,NA,s,s,NA,h,357,NA,16996,95835,NA,357,2,legacy,1024,2,48000,-16,experiment,HHHHH,1,odd,NA,370628,18891,251903,NA,365446,1891,352724,371693,1894,156067,NA,371794,372153,371691,371794,Flanker task,113,67194,146,yes,1024
76.8707483,76.8707483,458.8911565,458.8911565,black,legacy,legacy,legacy,0,congruent,uniform,0,undefined,0,h,0,146,0,0,0,146,0,146,146,0,0,0,146,146,146,146,9/23/2021 11:28,600,The main experiment item,yes,Flankertask.osexp,C:/Users/borna.000/Documents/PSYC/PSYC5316,no,mono,no,18,no,white,no,yes,768,legacy,66,79,C:/Users/borna.000/Desktop/MH-subject-2.csv,legacy,Lentiform Loewenfeld,3.3.9,0,s,NA,s,s,NA,s,263,NA,16996,95835,NA,263,2,legacy,1024,2,48000,-16,experiment,HHHHH,1,odd,NA,372160,18891,251903,NA,365446,1891,352724,373222,1894,156067,NA,373324,373588,373220,373324,Flanker task,113,67457,147,yes,1024
76.35135135,76.35135135,458.1013514,458.1013514,black,legacy,legacy,legacy,0,incongruent,uniform,0,undefined,0,h,0,147,0,0,0,147,0,147,147,0,0,0,147,147,147,147,9/23/2021 11:28,600,The main experiment item,yes,Flankertask.osexp,C:/Users/borna.000/Documents/PSYC/PSYC5316,no,mono,no,18,no,white,no,yes,768,legacy,67,79,C:/Users/borna.000/Desktop/MH-subject-2.csv,legacy,Lentiform Loewenfeld,3.3.9,0,s,NA,s,s,NA,s,342,NA,16996,95835,NA,342,2,legacy,1024,2,48000,-16,experiment,SSHSS,1,odd,NA,374093,18891,251903,NA,373592,1891,352724,375149,1894,156067,NA,375250,375593,375146,375250,Flanker task,113,67799,148,yes,1024
76.51006711,76.51006711,458.3758389,458.3758389,black,legacy,legacy,legacy,0,congruent,uniform,1,undefined,1,s,0,148,0,0,0,148,0,148,148,0,0,0,148,148,148,148,9/23/2021 11:28,600,The main experiment item,yes,Flankertask.osexp,C:/Users/borna.000/Documents/PSYC/PSYC5316,no,mono,no,18,no,white,no,yes,768,legacy,68,79,C:/Users/borna.000/Desktop/MH-subject-2.csv,legacy,Lentiform Loewenfeld,3.3.9,0,s,NA,s,s,NA,s,499,NA,16996,95835,NA,499,2,legacy,1024,2,48000,-16,experiment,SSSSS,1,odd,NA,376103,18891,251903,NA,375602,1891,352724,377159,1894,156067,NA,377260,377760,377156,377260,Flanker task,114,68298,149,yes,1024
76.66666667,76.66666667,457.56,457.56,black,legacy,legacy,legacy,0,congruent,uniform,1,undefined,1,h,0,149,0,0,0,149,0,149,149,0,0,0,149,149,149,149,9/23/2021 11:28,600,The main experiment item,yes,Flankertask.osexp,C:/Users/borna.000/Documents/PSYC/PSYC5316,no,mono,no,18,no,white,no,yes,768,legacy,69,79,C:/Users/borna.000/Desktop/MH-subject-2.csv,legacy,Lentiform Loewenfeld,3.3.9,0,h,NA,s,s,NA,h,336,NA,16996,95835,NA,336,2,legacy,1024,2,48000,-16,experiment,HHHHH,1,odd,NA,377768,18891,251903,NA,375602,1891,352724,378833,1894,156067,NA,378934,379272,378831,378934,Flanker task,115,68634,150,yes,1024
76.82119205,76.82119205,457.7549669,457.7549669,black,legacy,legacy,legacy,0,congruent,uniform,1,undefined,1,h,0,150,0,0,0,150,0,150,150,0,0,0,150,150,150,150,9/23/2021 11:28,600,The main experiment item,yes,Flankertask.osexp,C:/Users/borna.000/Documents/PSYC/PSYC5316,no,mono,no,18,no,white,no,yes,768,legacy,70,79,C:/Users/borna.000/Desktop/MH-subject-2.csv,legacy,Lentiform Loewenfeld,3.3.9,0,h,NA,s,s,NA,h,487,NA,16996,95835,NA,487,2,legacy,1024,2,48000,-16,experiment,HHHHH,1,odd,NA,379280,18891,251903,NA,375602,1891,352724,380346,1894,156067,NA,380447,380936,380344,380447,Flanker task,116,69121,151,yes,1024
76.97368421,76.97368421,457.3618421,457.3618421,black,legacy,legacy,legacy,0,congruent,uniform,1,undefined,1,h,0,151,0,0,0,151,0,151,151,0,0,0,151,151,151,151,9/23/2021 11:28,600,The main experiment item,yes,Flankertask.osexp,C:/Users/borna.000/Documents/PSYC/PSYC5316,no,mono,no,18,no,white,no,yes,768,legacy,71,79,C:/Users/borna.000/Desktop/MH-subject-2.csv,legacy,Lentiform Loewenfeld,3.3.9,0,h,NA,s,s,NA,h,398,NA,16996,95835,NA,398,2,legacy,1024,2,48000,-16,experiment,HHHHH,1,odd,NA,380944,18891,251903,NA,375602,1891,352724,382010,1894,156067,NA,382111,382510,382008,382111,Flanker task,117,69519,152,yes,1024
77.12418301,77.12418301,456.9281046,456.9281046,black,legacy,legacy,legacy,0,incongruent,uniform,1,undefined,1,s,0,152,0,0,0,152,0,152,152,0,0,0,152,152,152,152,9/23/2021 11:28,600,The main experiment item,yes,Flankertask.osexp,C:/Users/borna.000/Documents/PSYC/PSYC5316,no,mono,no,18,no,white,no,yes,768,legacy,72,79,C:/Users/borna.000/Desktop/MH-subject-2.csv,legacy,Lentiform Loewenfeld,3.3.9,0,s,NA,s,s,NA,s,391,NA,16996,95835,NA,391,2,legacy,1024,2,48000,-16,experiment,HHSHH,1,odd,NA,382519,18891,251903,NA,375602,1891,352724,383580,1894,156067,NA,383682,384075,383578,383682,Flanker task,118,69910,153,yes,1024
77.27272727,77.27272727,456.9545455,456.9545455,black,legacy,legacy,legacy,0,incongruent,uniform,1,undefined,1,s,0,153,0,0,0,153,0,153,153,0,0,0,153,153,153,153,9/23/2021 11:28,600,The main experiment item,yes,Flankertask.osexp,C:/Users/borna.000/Documents/PSYC/PSYC5316,no,mono,no,18,no,white,no,yes,768,legacy,73,79,C:/Users/borna.000/Desktop/MH-subject-2.csv,legacy,Lentiform Loewenfeld,3.3.9,0,s,NA,s,s,NA,s,461,NA,16996,95835,NA,461,2,legacy,1024,2,48000,-16,experiment,HHSHH,1,odd,NA,384083,18891,251903,NA,375602,1891,352724,385149,1894,156067,NA,385250,385713,385147,385250,Flanker task,119,70371,154,yes,1024
76.77419355,76.77419355,456.6903226,456.6903226,black,legacy,legacy,legacy,0,congruent,uniform,0,undefined,0,h,0,154,0,0,0,154,0,154,154,0,0,0,154,154,154,154,9/23/2021 11:28,600,The main experiment item,yes,Flankertask.osexp,C:/Users/borna.000/Documents/PSYC/PSYC5316,no,mono,no,18,no,white,no,yes,768,legacy,74,79,C:/Users/borna.000/Desktop/MH-subject-2.csv,legacy,Lentiform Loewenfeld,3.3.9,0,s,NA,s,s,NA,s,416,NA,16996,95835,NA,416,2,legacy,1024,2,48000,-16,experiment,HHHHH,1,odd,NA,385721,18891,251903,NA,375602,1891,352724,386785,1894,156067,NA,386886,387304,386783,386886,Flanker task,119,70787,155,yes,1024
76.92307692,76.92307692,457.1282051,457.1282051,black,legacy,legacy,legacy,0,congruent,uniform,1,undefined,1,s,0,155,0,0,0,155,0,155,155,0,0,0,155,155,155,155,9/23/2021 11:28,600,The main experiment item,yes,Flankertask.osexp,C:/Users/borna.000/Documents/PSYC/PSYC5316,no,mono,no,18,no,white,no,yes,768,legacy,75,79,C:/Users/borna.000/Desktop/MH-subject-2.csv,legacy,Lentiform Loewenfeld,3.3.9,0,s,NA,s,s,NA,s,525,NA,16996,95835,NA,525,2,legacy,1024,2,48000,-16,experiment,SSSSS,1,odd,NA,387814,18891,251903,NA,387312,1891,352724,388878,1894,156067,NA,388980,389507,388875,388979,Flanker task,120,71312,156,yes,1024
76.43312102,76.43312102,456.2802548,456.2802548,black,legacy,legacy,legacy,0,incongruent,uniform,0,undefined,0,s,0,156,0,0,0,156,0,156,156,0,0,0,156,156,156,156,9/23/2021 11:28,600,The main experiment item,yes,Flankertask.osexp,C:/Users/borna.000/Documents/PSYC/PSYC5316,no,mono,no,18,no,white,no,yes,768,legacy,76,79,C:/Users/borna.000/Desktop/MH-subject-2.csv,legacy,Lentiform Loewenfeld,3.3.9,0,h,NA,s,s,NA,h,324,NA,16996,95835,NA,324,2,legacy,1024,2,48000,-16,experiment,HHSHH,1,odd,NA,389515,18891,251903,NA,387312,1891,352724,390581,1894,156067,NA,390682,391007,390578,390682,Flanker task,120,71636,157,yes,1024
76.58227848,76.58227848,456.3734177,456.3734177,black,legacy,legacy,legacy,0,incongruent,uniform,1,undefined,1,h,0,157,0,0,0,157,0,157,157,0,0,0,157,157,157,157,9/23/2021 11:28,600,The main experiment item,yes,Flankertask.osexp,C:/Users/borna.000/Documents/PSYC/PSYC5316,no,mono,no,18,no,white,no,yes,768,legacy,77,79,C:/Users/borna.000/Desktop/MH-subject-2.csv,legacy,Lentiform Loewenfeld,3.3.9,0,h,NA,s,s,NA,h,471,NA,16996,95835,NA,471,2,legacy,1024,2,48000,-16,experiment,SSHSS,1,odd,NA,391516,18891,251903,NA,391015,1891,352724,392572,1894,156067,NA,392673,393146,392570,392673,Flanker task,121,72107,158,yes,1024
76.10062893,76.10062893,455.6918239,455.6918239,black,legacy,legacy,legacy,0,incongruent,uniform,0,undefined,0,h,0,158,0,0,0,158,0,158,158,0,0,0,158,158,158,158,9/23/2021 11:28,600,The main experiment item,yes,Flankertask.osexp,C:/Users/borna.000/Documents/PSYC/PSYC5316,no,mono,no,18,no,white,no,yes,768,legacy,78,79,C:/Users/borna.000/Desktop/MH-subject-2.csv,legacy,Lentiform Loewenfeld,3.3.9,0,s,NA,s,s,NA,s,348,NA,16996,95835,NA,348,2,legacy,1024,2,48000,-16,experiment,SSHSS,1,odd,NA,393154,18891,251903,NA,391015,1891,352724,394217,1894,156067,NA,394318,394667,394214,394318,Flanker task,121,72455,159,yes,1024
76.25,76.25,457.20625,457.20625,black,legacy,legacy,legacy,0,congruent,uniform,1,undefined,1,s,0,159,0,0,0,159,0,159,159,0,0,0,159,159,159,159,9/23/2021 11:28,600,The main experiment item,yes,Flankertask.osexp,C:/Users/borna.000/Documents/PSYC/PSYC5316,no,mono,no,18,no,white,no,yes,768,legacy,79,79,C:/Users/borna.000/Desktop/MH-subject-2.csv,legacy,Lentiform Loewenfeld,3.3.9,0,s,NA,s,s,NA,s,698,NA,16996,95835,NA,698,2,legacy,1024,2,48000,-16,experiment,SSSSS,1,odd,NA,395177,18891,251903,NA,394676,1891,352724,396232,1894,156067,NA,396333,397032,396230,396333,Flanker task,122,73153,160,yes,1024
76.39751553,76.39751553,456.8136646,456.8136646,black,legacy,legacy,legacy,0,congruent,uniform,1,undefined,1,s,0,160,0,0,0,160,0,160,160,0,0,0,160,160,160,160,9/23/2021 11:28,300,The main experiment item,yes,Flankertask.osexp,C:/Users/borna.000/Documents/PSYC/PSYC5316,no,mono,no,18,no,white,no,yes,768,legacy,0,79,C:/Users/borna.000/Desktop/MH-subject-2.csv,legacy,Lentiform Loewenfeld,3.3.9,0,s,NA,s,s,s,s,394,NA,16996,95835,6005,394,2,legacy,1024,2,48000,-16,experiment,SSSSS,1,odd,NA,397541,18891,251903,404558,394676,1891,397040,404610,1894,156067,398552,404711,405106,404609,404711,Flanker task,123,73547,161,yes,1024
75.92592593,75.92592593,455.4197531,455.4197531,black,legacy,legacy,legacy,0,incongruent,uniform,0,undefined,0,s,0,161,0,0,0,161,0,161,161,0,0,0,161,161,161,161,9/23/2021 11:28,300,The main experiment item,yes,Flankertask.osexp,C:/Users/borna.000/Documents/PSYC/PSYC5316,no,mono,no,18,no,white,no,yes,768,legacy,1,79,C:/Users/borna.000/Desktop/MH-subject-2.csv,legacy,Lentiform Loewenfeld,3.3.9,0,h,NA,s,s,s,h,231,NA,16996,95835,6005,231,2,legacy,1024,2,48000,-16,experiment,HHSHH,1,odd,NA,405616,18891,251903,404558,394676,1891,405115,406672,1894,156067,398552,406773,407006,406670,406773,Flanker task,123,73778,162,yes,1024
75.4601227,75.4601227,453.5030675,453.5030675,black,legacy,legacy,legacy,0,congruent,uniform,0,undefined,0,h,0,162,0,0,0,162,0,162,162,0,0,0,162,162,162,162,9/23/2021 11:28,300,The main experiment item,yes,Flankertask.osexp,C:/Users/borna.000/Documents/PSYC/PSYC5316,no,mono,no,18,no,white,no,yes,768,legacy,2,79,C:/Users/borna.000/Desktop/MH-subject-2.csv,legacy,Lentiform Loewenfeld,3.3.9,0,s,NA,s,s,s,s,143,NA,16996,95835,6005,143,2,legacy,1024,2,48000,-16,experiment,HHHHH,1,odd,NA,407516,18891,251903,404558,407015,1891,405115,408572,1894,156067,398552,408673,408817,408570,408673,Flanker task,123,73921,163,yes,1024
75,75,451.1646341,451.1646341,black,legacy,legacy,legacy,0,incongruent,uniform,0,undefined,0,s,0,163,0,0,0,163,0,163,163,0,0,0,163,163,163,163,9/23/2021 11:28,300,The main experiment item,yes,Flankertask.osexp,C:/Users/borna.000/Documents/PSYC/PSYC5316,no,mono,no,18,no,white,no,yes,768,legacy,3,79,C:/Users/borna.000/Desktop/MH-subject-2.csv,legacy,Lentiform Loewenfeld,3.3.9,0,h,NA,s,s,s,h,70,NA,16996,95835,6005,70,2,legacy,1024,2,48000,-16,experiment,HHSHH,1,odd,NA,409327,18891,251903,404558,408826,1891,405115,410383,1894,156067,398552,410484,410556,410381,410484,Flanker task,123,73991,164,yes,1024
