"acc","accuracy","average_response_time","avg_rt","background","canvas_backend","clock_backend","color_backend","compensation","condition","coordinates","correct","correct_instructions1","correct_keyboard_response","correct_response","count_ISI","count_block1","count_block2","count_block3","count_errorFeedback","count_experiment","count_faster","count_finish","count_fixation","count_instructions1","count_instructions2","count_instructions3","count_keyboard_response","count_logger","count_sequence","count_stimulus","datetime","deadline","description","disable_garbage_collection","experiment_file","experiment_path","font_bold","font_family","font_italic","font_size","font_underline","foreground","form_clicks","fullscreen","height","keyboard_backend","live_row","live_row_block1","logfile","mouse_backend","opensesame_codename","opensesame_version","repeat_cycle","response","response_finish","response_instructions1","response_instructions2","response_instructions3","response_keyboard_response","response_time","response_time_finish","response_time_instructions1","response_time_instructions2","response_time_instructions3","response_time_keyboard_response","round_decimals","sampler_backend","sound_buf_size","sound_channels","sound_freq","sound_sample_size","start","stimulus","subject_nr","subject_parity","time_ISI","time_block1","time_block2","time_block3","time_errorFeedback","time_experiment","time_faster","time_finish","time_fixation","time_instructions1","time_instructions2","time_instructions3","time_keyboard_response","time_logger","time_sequence","time_stimulus","title","total_correct","total_response_time","total_responses","uniform_coordinates","width"
"100","100","908","908","black","legacy","legacy","legacy","0","congruent","uniform","1","undefined","1","s","0","0","0","0","0","0","0","0","0","0","0","0","0","0","0","0","Fri Aug 27 11:57:34 2021","1500","The main experiment item","yes","Flankertask.osexp","/Users/mihailcodreanu/Desktop","no","mono","no","18","no","white","no","yes","768","legacy","0","0","/Users/mihailcodreanu/Desktop/mc-subject-0.csv","legacy","Lentiform Loewenfeld","3.3.9","0","s","NA","s","NA","NA","s","908","NA","23774","NA","NA","908","2","legacy","1024","2","48000","-16","experiment","SSSSS","0","even","NA","27826","NA","NA","NA","4031","NA","NA","27879","4039","NA","NA","27985","28895","27874","27985","Flanker task ","1","908","1","yes","1024"
"100","100","687","687","black","legacy","legacy","legacy","0","congruent","uniform","1","undefined","1","s","1","0","0","0","1","0","1","0","1","0","0","0","1","1","1","1","Fri Aug 27 11:57:34 2021","1500","The main experiment item","yes","Flankertask.osexp","/Users/mihailcodreanu/Desktop","no","mono","no","18","no","white","no","yes","768","legacy","1","1","/Users/mihailcodreanu/Desktop/mc-subject-0.csv","legacy","Lentiform Loewenfeld","3.3.9","0","s","NA","s","NA","NA","s","466","NA","23774","NA","NA","466","2","legacy","1024","2","48000","-16","experiment","SSSSS","0","even","28904","27826","NA","NA","NA","4031","NA","NA","29963","4039","NA","NA","30067","30533","29959","30067","Flanker task ","2","1374","2","yes","1024"
"100","100","604.3333333333334","604.3333333333334","black","legacy","legacy","legacy","0","congruent","uniform","1","undefined","1","s","2","0","0","0","2","0","2","0","2","0","0","0","2","2","2","2","Fri Aug 27 11:57:34 2021","1500","The main experiment item","yes","Flankertask.osexp","/Users/mihailcodreanu/Desktop","no","mono","no","18","no","white","no","yes","768","legacy","2","2","/Users/mihailcodreanu/Desktop/mc-subject-0.csv","legacy","Lentiform Loewenfeld","3.3.9","0","s","NA","s","NA","NA","s","439","NA","23774","NA","NA","439","2","legacy","1024","2","48000","-16","experiment","SSSSS","0","even","30540","27826","NA","NA","NA","4031","NA","NA","31590","4039","NA","NA","31694","32133","31586","31694","Flanker task ","3","1813","3","yes","1024"
"100","100","595.75","595.75","black","legacy","legacy","legacy","0","congruent","uniform","1","undefined","1","h","3","0","0","0","3","0","3","0","3","0","0","0","3","3","3","3","Fri Aug 27 11:57:34 2021","1500","The main experiment item","yes","Flankertask.osexp","/Users/mihailcodreanu/Desktop","no","mono","no","18","no","white","no","yes","768","legacy","3","3","/Users/mihailcodreanu/Desktop/mc-subject-0.csv","legacy","Lentiform Loewenfeld","3.3.9","0","h","NA","s","NA","NA","h","570","NA","23774","NA","NA","570","2","legacy","1024","2","48000","-16","experiment","HHHHH","0","even","32140","27826","NA","NA","NA","4031","NA","NA","33195","4039","NA","NA","33299","33869","33191","33299","Flanker task ","4","2383","4","yes","1024"
"100","100","555.6","555.6","black","legacy","legacy","legacy","0","congruent","uniform","1","undefined","1","h","4","0","0","0","4","0","4","0","4","0","0","0","4","4","4","4","Fri Aug 27 11:57:34 2021","1500","The main experiment item","yes","Flankertask.osexp","/Users/mihailcodreanu/Desktop","no","mono","no","18","no","white","no","yes","768","legacy","4","4","/Users/mihailcodreanu/Desktop/mc-subject-0.csv","legacy","Lentiform Loewenfeld","3.3.9","0","h","NA","s","NA","NA","h","395","NA","23774","NA","NA","395","2","legacy","1024","2","48000","-16","experiment","HHHHH","0","even","33876","27826","NA","NA","NA","4031","NA","NA","34930","4039","NA","NA","35034","35429","34926","35034","Flanker task ","5","2778","5","yes","1024"
"100","100","530.3333333333334","530.3333333333334","black","legacy","legacy","legacy","0","incongruent","uniform","1","undefined","1","h","5","0","0","0","5","0","5","0","5","0","0","0","5","5","5","5","Fri Aug 27 11:57:34 2021","1500","The main experiment item","yes","Flankertask.osexp","/Users/mihailcodreanu/Desktop","no","mono","no","18","no","white","no","yes","768","legacy","5","5","/Users/mihailcodreanu/Desktop/mc-subject-0.csv","legacy","Lentiform Loewenfeld","3.3.9","0","h","NA","s","NA","NA","h","404","NA","23774","NA","NA","404","2","legacy","1024","2","48000","-16","experiment","SSHSS","0","even","35436","27826","NA","NA","NA","4031","NA","NA","36489","4039","NA","NA","36593","36997","36485","36593","Flanker task ","6","3182","6","yes","1024"
"85.71428571428571","85.71428571428571","508.57142857142856","508.57142857142856","black","legacy","legacy","legacy","0","incongruent","uniform","0","undefined","0","s","6","0","0","0","6","0","6","0","6","0","0","0","6","6","6","6","Fri Aug 27 11:57:34 2021","1500","The main experiment item","yes","Flankertask.osexp","/Users/mihailcodreanu/Desktop","no","mono","no","18","no","white","no","yes","768","legacy","6","6","/Users/mihailcodreanu/Desktop/mc-subject-0.csv","legacy","Lentiform Loewenfeld","3.3.9","0","h","NA","s","NA","NA","h","378","NA","23774","NA","NA","378","2","legacy","1024","2","48000","-16","experiment","HHSHH","0","even","37004","27826","NA","NA","NA","4031","NA","NA","38058","4039","NA","NA","38162","38541","38054","38162","Flanker task ","6","3560","7","yes","1024"
"87.5","87.5","507.625","507.625","black","legacy","legacy","legacy","0","congruent","uniform","1","undefined","1","h","7","0","0","0","7","0","7","0","7","0","0","0","7","7","7","7","Fri Aug 27 11:57:34 2021","1500","The main experiment item","yes","Flankertask.osexp","/Users/mihailcodreanu/Desktop","no","mono","no","18","no","white","no","yes","768","legacy","7","7","/Users/mihailcodreanu/Desktop/mc-subject-0.csv","legacy","Lentiform Loewenfeld","3.3.9","0","h","NA","s","NA","NA","h","501","NA","23774","NA","NA","501","2","legacy","1024","2","48000","-16","experiment","HHHHH","0","even","39052","27826","NA","NA","38548","4031","NA","NA","40103","4039","NA","NA","40207","40709","40100","40207","Flanker task ","7","4061","8","yes","1024"
"88.88888888888889","88.88888888888889","498.8888888888889","498.8888888888889","black","legacy","legacy","legacy","0","congruent","uniform","1","undefined","1","h","8","0","0","0","8","0","8","0","8","0","0","0","8","8","8","8","Fri Aug 27 11:57:34 2021","1500","The main experiment item","yes","Flankertask.osexp","/Users/mihailcodreanu/Desktop","no","mono","no","18","no","white","no","yes","768","legacy","8","8","/Users/mihailcodreanu/Desktop/mc-subject-0.csv","legacy","Lentiform Loewenfeld","3.3.9","0","h","NA","s","NA","NA","h","429","NA","23774","NA","NA","429","2","legacy","1024","2","48000","-16","experiment","HHHHH","0","even","40716","27826","NA","NA","38548","4031","NA","NA","41768","4039","NA","NA","41872","42301","41765","41872","Flanker task ","8","4490","9","yes","1024"
"90","90","524","524","black","legacy","legacy","legacy","0","incongruent","uniform","1","undefined","1","h","9","0","0","0","9","0","9","0","9","0","0","0","9","9","9","9","Fri Aug 27 11:57:34 2021","1500","The main experiment item","yes","Flankertask.osexp","/Users/mihailcodreanu/Desktop","no","mono","no","18","no","white","no","yes","768","legacy","9","9","/Users/mihailcodreanu/Desktop/mc-subject-0.csv","legacy","Lentiform Loewenfeld","3.3.9","0","h","NA","s","NA","NA","h","750","NA","23774","NA","NA","750","2","legacy","1024","2","48000","-16","experiment","SSHSS","0","even","42308","27826","NA","NA","38548","4031","NA","NA","43357","4039","NA","NA","43462","44213","43354","43462","Flanker task ","9","5240","10","yes","1024"
"90.9090909090909","90.9090909090909","519.0909090909091","519.0909090909091","black","legacy","legacy","legacy","0","congruent","uniform","1","undefined","1","h","10","0","0","0","10","0","10","0","10","0","0","0","10","10","10","10","Fri Aug 27 11:57:34 2021","1500","The main experiment item","yes","Flankertask.osexp","/Users/mihailcodreanu/Desktop","no","mono","no","18","no","white","no","yes","768","legacy","10","10","/Users/mihailcodreanu/Desktop/mc-subject-0.csv","legacy","Lentiform Loewenfeld","3.3.9","0","h","NA","s","NA","NA","h","470","NA","23774","NA","NA","470","2","legacy","1024","2","48000","-16","experiment","HHHHH","0","even","44220","27826","NA","NA","38548","4031","NA","NA","45271","4039","NA","NA","45375","45845","45268","45375","Flanker task ","10","5710","11","yes","1024"
"91.66666666666667","91.66666666666667","526.1666666666666","526.1666666666666","black","legacy","legacy","legacy","0","incongruent","uniform","1","undefined","1","s","11","0","0","0","11","0","11","0","11","0","0","0","11","11","11","11","Fri Aug 27 11:57:34 2021","1500","The main experiment item","yes","Flankertask.osexp","/Users/mihailcodreanu/Desktop","no","mono","no","18","no","white","no","yes","768","legacy","11","11","/Users/mihailcodreanu/Desktop/mc-subject-0.csv","legacy","Lentiform Loewenfeld","3.3.9","0","s","NA","s","NA","NA","s","604","NA","23774","NA","NA","604","2","legacy","1024","2","48000","-16","experiment","HHSHH","0","even","45852","27826","NA","NA","38548","4031","NA","NA","46905","4039","NA","NA","47009","47613","46901","47009","Flanker task ","11","6314","12","yes","1024"
"92.3076923076923","92.3076923076923","517.9230769230769","517.9230769230769","black","legacy","legacy","legacy","0","congruent","uniform","1","undefined","1","h","12","0","0","0","12","0","12","0","12","0","0","0","12","12","12","12","Fri Aug 27 11:57:34 2021","1500","The main experiment item","yes","Flankertask.osexp","/Users/mihailcodreanu/Desktop","no","mono","no","18","no","white","no","yes","768","legacy","12","12","/Users/mihailcodreanu/Desktop/mc-subject-0.csv","legacy","Lentiform Loewenfeld","3.3.9","0","h","NA","s","NA","NA","h","419","NA","23774","NA","NA","419","2","legacy","1024","2","48000","-16","experiment","HHHHH","0","even","47620","27826","NA","NA","38548","4031","NA","NA","48673","4039","NA","NA","48777","49197","48669","48777","Flanker task ","12","6733","13","yes","1024"
"92.85714285714286","92.85714285714286","527.3571428571429","527.3571428571429","black","legacy","legacy","legacy","0","incongruent","uniform","1","undefined","1","h","13","0","0","0","13","0","13","0","13","0","0","0","13","13","13","13","Fri Aug 27 11:57:34 2021","1500","The main experiment item","yes","Flankertask.osexp","/Users/mihailcodreanu/Desktop","no","mono","no","18","no","white","no","yes","768","legacy","13","13","/Users/mihailcodreanu/Desktop/mc-subject-0.csv","legacy","Lentiform Loewenfeld","3.3.9","0","h","NA","s","NA","NA","h","650","NA","23774","NA","NA","650","2","legacy","1024","2","48000","-16","experiment","SSHSS","0","even","49204","27826","NA","NA","38548","4031","NA","NA","50258","4039","NA","NA","50362","51013","50254","50362","Flanker task ","13","7383","14","yes","1024"
"86.66666666666667","86.66666666666667","518.6666666666666","518.6666666666666","black","legacy","legacy","legacy","0","incongruent","uniform","0","undefined","0","s","14","0","0","0","14","0","14","0","14","0","0","0","14","14","14","14","Fri Aug 27 11:57:34 2021","1500","The main experiment item","yes","Flankertask.osexp","/Users/mihailcodreanu/Desktop","no","mono","no","18","no","white","no","yes","768","legacy","14","14","/Users/mihailcodreanu/Desktop/mc-subject-0.csv","legacy","Lentiform Loewenfeld","3.3.9","0","h","NA","s","NA","NA","h","397","NA","23774","NA","NA","397","2","legacy","1024","2","48000","-16","experiment","HHSHH","0","even","51020","27826","NA","NA","38548","4031","NA","NA","52071","4039","NA","NA","52176","52573","52067","52176","Flanker task ","13","7780","15","yes","1024"
"87.5","87.5","521.125","521.125","black","legacy","legacy","legacy","0","congruent","uniform","1","undefined","1","h","15","0","0","0","15","0","15","0","15","0","0","0","15","15","15","15","Fri Aug 27 11:57:34 2021","1500","The main experiment item","yes","Flankertask.osexp","/Users/mihailcodreanu/Desktop","no","mono","no","18","no","white","no","yes","768","legacy","15","15","/Users/mihailcodreanu/Desktop/mc-subject-0.csv","legacy","Lentiform Loewenfeld","3.3.9","0","h","NA","s","NA","NA","h","558","NA","23774","NA","NA","558","2","legacy","1024","2","48000","-16","experiment","HHHHH","0","even","53084","27826","NA","NA","52580","4031","NA","NA","54134","4039","NA","NA","54239","54797","54130","54238","Flanker task ","14","8338","16","yes","1024"
"88.23529411764706","88.23529411764706","513.8235294117648","513.8235294117648","black","legacy","legacy","legacy","0","congruent","uniform","1","undefined","1","h","16","0","0","0","16","0","16","0","16","0","0","0","16","16","16","16","Fri Aug 27 11:57:34 2021","1500","The main experiment item","yes","Flankertask.osexp","/Users/mihailcodreanu/Desktop","no","mono","no","18","no","white","no","yes","768","legacy","16","16","/Users/mihailcodreanu/Desktop/mc-subject-0.csv","legacy","Lentiform Loewenfeld","3.3.9","0","h","NA","s","NA","NA","h","397","NA","23774","NA","NA","397","2","legacy","1024","2","48000","-16","experiment","HHHHH","0","even","54804","27826","NA","NA","52580","4031","NA","NA","55855","4039","NA","NA","55960","56357","55852","55960","Flanker task ","15","8735","17","yes","1024"
"88.88888888888889","88.88888888888889","510.3333333333333","510.3333333333333","black","legacy","legacy","legacy","0","congruent","uniform","1","undefined","1","s","17","0","0","0","17","0","17","0","17","0","0","0","17","17","17","17","Fri Aug 27 11:57:34 2021","1500","The main experiment item","yes","Flankertask.osexp","/Users/mihailcodreanu/Desktop","no","mono","no","18","no","white","no","yes","768","legacy","17","17","/Users/mihailcodreanu/Desktop/mc-subject-0.csv","legacy","Lentiform Loewenfeld","3.3.9","0","s","NA","s","NA","NA","s","451","NA","23774","NA","NA","451","2","legacy","1024","2","48000","-16","experiment","SSSSS","0","even","56364","27826","NA","NA","52580","4031","NA","NA","57417","4039","NA","NA","57522","57973","57413","57521","Flanker task ","16","9186","18","yes","1024"
"89.47368421052632","89.47368421052632","514.7894736842105","514.7894736842105","black","legacy","legacy","legacy","0","incongruent","uniform","1","undefined","1","s","18","0","0","0","18","0","18","0","18","0","0","0","18","18","18","18","Fri Aug 27 11:57:34 2021","1500","The main experiment item","yes","Flankertask.osexp","/Users/mihailcodreanu/Desktop","no","mono","no","18","no","white","no","yes","768","legacy","18","18","/Users/mihailcodreanu/Desktop/mc-subject-0.csv","legacy","Lentiform Loewenfeld","3.3.9","0","s","NA","s","NA","NA","s","595","NA","23774","NA","NA","595","2","legacy","1024","2","48000","-16","experiment","HHSHH","0","even","57980","27826","NA","NA","52580","4031","NA","NA","59033","4039","NA","NA","59137","59733","59029","59137","Flanker task ","17","9781","19","yes","1024"
"90","90","512.35","512.35","black","legacy","legacy","legacy","0","incongruent","uniform","1","undefined","1","s","19","0","0","0","19","0","19","0","19","0","0","0","19","19","19","19","Fri Aug 27 11:57:34 2021","1500","The main experiment item","yes","Flankertask.osexp","/Users/mihailcodreanu/Desktop","no","mono","no","18","no","white","no","yes","768","legacy","19","19","/Users/mihailcodreanu/Desktop/mc-subject-0.csv","legacy","Lentiform Loewenfeld","3.3.9","0","s","NA","s","NA","NA","s","466","NA","23774","NA","NA","466","2","legacy","1024","2","48000","-16","experiment","HHSHH","0","even","59740","27826","NA","NA","52580","4031","NA","NA","60794","4039","NA","NA","60899","61365","60790","60898","Flanker task ","18","10247","20","yes","1024"
"90.47619047619048","90.47619047619048","510.3809523809524","510.3809523809524","black","legacy","legacy","legacy","0","incongruent","uniform","1","undefined","1","s","20","0","0","0","20","0","20","0","20","0","0","0","20","20","20","20","Fri Aug 27 11:57:34 2021","1500","The main experiment item","yes","Flankertask.osexp","/Users/mihailcodreanu/Desktop","no","mono","no","18","no","white","no","yes","768","legacy","20","20","/Users/mihailcodreanu/Desktop/mc-subject-0.csv","legacy","Lentiform Loewenfeld","3.3.9","0","s","NA","s","NA","NA","s","471","NA","23774","NA","NA","471","2","legacy","1024","2","48000","-16","experiment","HHSHH","0","even","61372","27826","NA","NA","52580","4031","NA","NA","62421","4039","NA","NA","62526","62997","62418","62525","Flanker task ","19","10718","21","yes","1024"
"90.9090909090909","90.9090909090909","514.0454545454545","514.0454545454545","black","legacy","legacy","legacy","0","incongruent","uniform","1","undefined","1","h","21","0","0","0","21","0","21","0","21","0","0","0","21","21","21","21","Fri Aug 27 11:57:34 2021","1500","The main experiment item","yes","Flankertask.osexp","/Users/mihailcodreanu/Desktop","no","mono","no","18","no","white","no","yes","768","legacy","21","21","/Users/mihailcodreanu/Desktop/mc-subject-0.csv","legacy","Lentiform Loewenfeld","3.3.9","0","h","NA","s","NA","NA","h","591","NA","23774","NA","NA","591","2","legacy","1024","2","48000","-16","experiment","SSHSS","0","even","63004","27826","NA","NA","52580","4031","NA","NA","64054","4039","NA","NA","64158","64749","64051","64158","Flanker task ","20","11309","22","yes","1024"
"91.30434782608695","91.30434782608695","521.4347826086956","521.4347826086956","black","legacy","legacy","legacy","0","incongruent","uniform","1","undefined","1","h","22","0","0","0","22","0","22","0","22","0","0","0","22","22","22","22","Fri Aug 27 11:57:34 2021","1500","The main experiment item","yes","Flankertask.osexp","/Users/mihailcodreanu/Desktop","no","mono","no","18","no","white","no","yes","768","legacy","22","22","/Users/mihailcodreanu/Desktop/mc-subject-0.csv","legacy","Lentiform Loewenfeld","3.3.9","0","h","NA","s","NA","NA","h","684","NA","23774","NA","NA","684","2","legacy","1024","2","48000","-16","experiment","SSHSS","0","even","64756","27826","NA","NA","52580","4031","NA","NA","65807","4039","NA","NA","65912","66597","65803","65911","Flanker task ","21","11993","23","yes","1024"
"91.66666666666667","91.66666666666667","524.1666666666666","524.1666666666666","black","legacy","legacy","legacy","0","incongruent","uniform","1","undefined","1","h","23","0","0","0","23","0","23","0","23","0","0","0","23","23","23","23","Fri Aug 27 11:57:34 2021","1500","The main experiment item","yes","Flankertask.osexp","/Users/mihailcodreanu/Desktop","no","mono","no","18","no","white","no","yes","768","legacy","23","23","/Users/mihailcodreanu/Desktop/mc-subject-0.csv","legacy","Lentiform Loewenfeld","3.3.9","0","h","NA","s","NA","NA","h","587","NA","23774","NA","NA","587","2","legacy","1024","2","48000","-16","experiment","SSHSS","0","even","66605","27826","NA","NA","52580","4031","NA","NA","67657","4039","NA","NA","67762","68349","67654","67761","Flanker task ","22","12580","24","yes","1024"
"92","92","524.8","524.8","black","legacy","legacy","legacy","0","incongruent","uniform","1","undefined","1","s","24","0","0","0","24","0","24","0","24","0","0","0","24","24","24","24","Fri Aug 27 11:57:34 2021","1500","The main experiment item","yes","Flankertask.osexp","/Users/mihailcodreanu/Desktop","no","mono","no","18","no","white","no","yes","768","legacy","24","24","/Users/mihailcodreanu/Desktop/mc-subject-0.csv","legacy","Lentiform Loewenfeld","3.3.9","0","s","NA","s","NA","NA","s","540","NA","23774","NA","NA","540","2","legacy","1024","2","48000","-16","experiment","HHSHH","0","even","68356","27826","NA","NA","52580","4031","NA","NA","69408","4039","NA","NA","69513","70053","69404","69512","Flanker task ","23","13120","25","yes","1024"
"92.3076923076923","92.3076923076923","525.0384615384615","525.0384615384615","black","legacy","legacy","legacy","0","incongruent","uniform","1","undefined","1","h","25","0","0","0","25","0","25","0","25","0","0","0","25","25","25","25","Fri Aug 27 11:57:34 2021","1500","The main experiment item","yes","Flankertask.osexp","/Users/mihailcodreanu/Desktop","no","mono","no","18","no","white","no","yes","768","legacy","25","25","/Users/mihailcodreanu/Desktop/mc-subject-0.csv","legacy","Lentiform Loewenfeld","3.3.9","0","h","NA","s","NA","NA","h","531","NA","23774","NA","NA","531","2","legacy","1024","2","48000","-16","experiment","SSHSS","0","even","70060","27826","NA","NA","52580","4031","NA","NA","71112","4039","NA","NA","71217","71749","71108","71217","Flanker task ","24","13651","26","yes","1024"
"92.5925925925926","92.5925925925926","526.1111111111111","526.1111111111111","black","legacy","legacy","legacy","0","incongruent","uniform","1","undefined","1","h","26","0","0","0","26","0","26","0","26","0","0","0","26","26","26","26","Fri Aug 27 11:57:34 2021","1500","The main experiment item","yes","Flankertask.osexp","/Users/mihailcodreanu/Desktop","no","mono","no","18","no","white","no","yes","768","legacy","26","26","/Users/mihailcodreanu/Desktop/mc-subject-0.csv","legacy","Lentiform Loewenfeld","3.3.9","0","h","NA","s","NA","NA","h","554","NA","23774","NA","NA","554","2","legacy","1024","2","48000","-16","experiment","SSHSS","0","even","71756","27826","NA","NA","52580","4031","NA","NA","72809","4039","NA","NA","72914","73469","72805","72914","Flanker task ","25","14205","27","yes","1024"
"92.85714285714286","92.85714285714286","529.4642857142857","529.4642857142857","black","legacy","legacy","legacy","0","incongruent","uniform","1","undefined","1","h","27","0","0","0","27","0","27","0","27","0","0","0","27","27","27","27","Fri Aug 27 11:57:34 2021","1500","The main experiment item","yes","Flankertask.osexp","/Users/mihailcodreanu/Desktop","no","mono","no","18","no","white","no","yes","768","legacy","27","27","/Users/mihailcodreanu/Desktop/mc-subject-0.csv","legacy","Lentiform Loewenfeld","3.3.9","0","h","NA","s","NA","NA","h","620","NA","23774","NA","NA","620","2","legacy","1024","2","48000","-16","experiment","SSHSS","0","even","73477","27826","NA","NA","52580","4031","NA","NA","74528","4039","NA","NA","74633","75253","74524","74632","Flanker task ","26","14825","28","yes","1024"
"93.10344827586206","93.10344827586206","534.2413793103449","534.2413793103449","black","legacy","legacy","legacy","0","incongruent","uniform","1","undefined","1","s","28","0","0","0","28","0","28","0","28","0","0","0","28","28","28","28","Fri Aug 27 11:57:34 2021","1500","The main experiment item","yes","Flankertask.osexp","/Users/mihailcodreanu/Desktop","no","mono","no","18","no","white","no","yes","768","legacy","28","28","/Users/mihailcodreanu/Desktop/mc-subject-0.csv","legacy","Lentiform Loewenfeld","3.3.9","0","s","NA","s","NA","NA","s","668","NA","23774","NA","NA","668","2","legacy","1024","2","48000","-16","experiment","HHSHH","0","even","75260","27826","NA","NA","52580","4031","NA","NA","76312","4039","NA","NA","76416","77086","76308","76416","Flanker task ","27","15493","29","yes","1024"
"93.33333333333333","93.33333333333333","535.3666666666667","535.3666666666667","black","legacy","legacy","legacy","0","incongruent","uniform","1","undefined","1","h","29","0","0","0","29","0","29","0","29","0","0","0","29","29","29","29","Fri Aug 27 11:57:34 2021","1500","The main experiment item","yes","Flankertask.osexp","/Users/mihailcodreanu/Desktop","no","mono","no","18","no","white","no","yes","768","legacy","29","29","/Users/mihailcodreanu/Desktop/mc-subject-0.csv","legacy","Lentiform Loewenfeld","3.3.9","0","h","NA","s","NA","NA","h","568","NA","23774","NA","NA","568","2","legacy","1024","2","48000","-16","experiment","SSHSS","0","even","77092","27826","NA","NA","52580","4031","NA","NA","78141","4039","NA","NA","78245","78813","78138","78245","Flanker task ","28","16061","30","yes","1024"
"93.54838709677419","93.54838709677419","535.516129032258","535.516129032258","black","legacy","legacy","legacy","0","incongruent","uniform","1","undefined","1","h","30","0","0","0","30","0","30","0","30","0","0","0","30","30","30","30","Fri Aug 27 11:57:34 2021","1500","The main experiment item","yes","Flankertask.osexp","/Users/mihailcodreanu/Desktop","no","mono","no","18","no","white","no","yes","768","legacy","30","30","/Users/mihailcodreanu/Desktop/mc-subject-0.csv","legacy","Lentiform Loewenfeld","3.3.9","0","h","NA","s","NA","NA","h","540","NA","23774","NA","NA","540","2","legacy","1024","2","48000","-16","experiment","SSHSS","0","even","78818","27826","NA","NA","52580","4031","NA","NA","79872","4039","NA","NA","79977","80517","79868","79976","Flanker task ","29","16601","31","yes","1024"
"93.75","93.75","531.375","531.375","black","legacy","legacy","legacy","0","congruent","uniform","1","undefined","1","h","31","0","0","0","31","0","31","0","31","0","0","0","31","31","31","31","Fri Aug 27 11:57:34 2021","1500","The main experiment item","yes","Flankertask.osexp","/Users/mihailcodreanu/Desktop","no","mono","no","18","no","white","no","yes","768","legacy","31","31","/Users/mihailcodreanu/Desktop/mc-subject-0.csv","legacy","Lentiform Loewenfeld","3.3.9","0","h","NA","s","NA","NA","h","403","NA","23774","NA","NA","403","2","legacy","1024","2","48000","-16","experiment","HHHHH","0","even","80524","27826","NA","NA","52580","4031","NA","NA","81578","4039","NA","NA","81682","82085","81574","81682","Flanker task ","30","17004","32","yes","1024"
"93.93939393939394","93.93939393939394","532.3636363636364","532.3636363636364","black","legacy","legacy","legacy","0","incongruent","uniform","1","undefined","1","h","32","0","0","0","32","0","32","0","32","0","0","0","32","32","32","32","Fri Aug 27 11:57:34 2021","1500","The main experiment item","yes","Flankertask.osexp","/Users/mihailcodreanu/Desktop","no","mono","no","18","no","white","no","yes","768","legacy","32","32","/Users/mihailcodreanu/Desktop/mc-subject-0.csv","legacy","Lentiform Loewenfeld","3.3.9","0","h","NA","s","NA","NA","h","564","NA","23774","NA","NA","564","2","legacy","1024","2","48000","-16","experiment","SSHSS","0","even","82092","27826","NA","NA","52580","4031","NA","NA","83144","4039","NA","NA","83248","83813","83140","83248","Flanker task ","31","17568","33","yes","1024"
"94.11764705882354","94.11764705882354","534.2941176470588","534.2941176470588","black","legacy","legacy","legacy","0","incongruent","uniform","1","undefined","1","s","33","0","0","0","33","0","33","0","33","0","0","0","33","33","33","33","Fri Aug 27 11:57:34 2021","1500","The main experiment item","yes","Flankertask.osexp","/Users/mihailcodreanu/Desktop","no","mono","no","18","no","white","no","yes","768","legacy","33","33","/Users/mihailcodreanu/Desktop/mc-subject-0.csv","legacy","Lentiform Loewenfeld","3.3.9","0","s","NA","s","NA","NA","s","598","NA","23774","NA","NA","598","2","legacy","1024","2","48000","-16","experiment","HHSHH","0","even","83819","27826","NA","NA","52580","4031","NA","NA","84870","4039","NA","NA","84974","85573","84866","84974","Flanker task ","32","18166","34","yes","1024"
"94.28571428571429","94.28571428571429","534.7428571428571","534.7428571428571","black","legacy","legacy","legacy","0","congruent","uniform","1","undefined","1","s","34","0","0","0","34","0","34","0","34","0","0","0","34","34","34","34","Fri Aug 27 11:57:34 2021","1500","The main experiment item","yes","Flankertask.osexp","/Users/mihailcodreanu/Desktop","no","mono","no","18","no","white","no","yes","768","legacy","34","34","/Users/mihailcodreanu/Desktop/mc-subject-0.csv","legacy","Lentiform Loewenfeld","3.3.9","0","s","NA","s","NA","NA","s","550","NA","23774","NA","NA","550","2","legacy","1024","2","48000","-16","experiment","SSSSS","0","even","85581","27826","NA","NA","52580","4031","NA","NA","86631","4039","NA","NA","86735","87285","86627","86735","Flanker task ","33","18716","35","yes","1024"
"94.44444444444444","94.44444444444444","537","537","black","legacy","legacy","legacy","0","incongruent","uniform","1","undefined","1","h","35","0","0","0","35","0","35","0","35","0","0","0","35","35","35","35","Fri Aug 27 11:57:34 2021","1500","The main experiment item","yes","Flankertask.osexp","/Users/mihailcodreanu/Desktop","no","mono","no","18","no","white","no","yes","768","legacy","35","35","/Users/mihailcodreanu/Desktop/mc-subject-0.csv","legacy","Lentiform Loewenfeld","3.3.9","0","h","NA","s","NA","NA","h","616","NA","23774","NA","NA","616","2","legacy","1024","2","48000","-16","experiment","SSHSS","0","even","87292","27826","NA","NA","52580","4031","NA","NA","88341","4039","NA","NA","88445","89061","88337","88445","Flanker task ","34","19332","36","yes","1024"
"94.5945945945946","94.5945945945946","556.3783783783783","556.3783783783783","black","legacy","legacy","legacy","0","congruent","uniform","1","undefined","1","s","36","0","0","0","36","0","36","0","36","0","0","0","36","36","36","36","Fri Aug 27 11:57:34 2021","1500","The main experiment item","yes","Flankertask.osexp","/Users/mihailcodreanu/Desktop","no","mono","no","18","no","white","no","yes","768","legacy","36","36","/Users/mihailcodreanu/Desktop/mc-subject-0.csv","legacy","Lentiform Loewenfeld","3.3.9","0","s","NA","s","NA","NA","s","1254","NA","23774","NA","NA","1254","2","legacy","1024","2","48000","-16","experiment","SSSSS","0","even","89068","27826","NA","NA","52580","4031","NA","NA","90119","4039","NA","NA","90223","91477","90115","90223","Flanker task ","35","20586","37","yes","1024"
"94.73684210526316","94.73684210526316","554.1842105263158","554.1842105263158","black","legacy","legacy","legacy","0","congruent","uniform","1","undefined","1","h","37","0","0","0","37","0","37","0","37","0","0","0","37","37","37","37","Fri Aug 27 11:57:34 2021","1500","The main experiment item","yes","Flankertask.osexp","/Users/mihailcodreanu/Desktop","no","mono","no","18","no","white","no","yes","768","legacy","37","37","/Users/mihailcodreanu/Desktop/mc-subject-0.csv","legacy","Lentiform Loewenfeld","3.3.9","0","h","NA","s","NA","NA","h","473","NA","23774","NA","NA","473","2","legacy","1024","2","48000","-16","experiment","HHHHH","0","even","91484","27826","NA","NA","52580","4031","NA","NA","92538","4039","NA","NA","92643","93117","92534","92642","Flanker task ","36","21059","38","yes","1024"
"94.87179487179488","94.87179487179488","552.7692307692307","552.7692307692307","black","legacy","legacy","legacy","0","incongruent","uniform","1","undefined","1","s","38","0","0","0","38","0","38","0","38","0","0","0","38","38","38","38","Fri Aug 27 11:57:34 2021","1500","The main experiment item","yes","Flankertask.osexp","/Users/mihailcodreanu/Desktop","no","mono","no","18","no","white","no","yes","768","legacy","38","38","/Users/mihailcodreanu/Desktop/mc-subject-0.csv","legacy","Lentiform Loewenfeld","3.3.9","0","s","NA","s","NA","NA","s","499","NA","23774","NA","NA","499","2","legacy","1024","2","48000","-16","experiment","HHSHH","0","even","93123","27826","NA","NA","52580","4031","NA","NA","94177","4039","NA","NA","94281","94781","94173","94281","Flanker task ","37","21558","39","yes","1024"
"95","95","554.05","554.05","black","legacy","legacy","legacy","0","incongruent","uniform","1","undefined","1","h","39","0","0","0","39","0","39","0","39","0","0","0","39","39","39","39","Fri Aug 27 11:57:34 2021","1500","The main experiment item","yes","Flankertask.osexp","/Users/mihailcodreanu/Desktop","no","mono","no","18","no","white","no","yes","768","legacy","39","39","/Users/mihailcodreanu/Desktop/mc-subject-0.csv","legacy","Lentiform Loewenfeld","3.3.9","0","h","NA","s","NA","NA","h","604","NA","23774","NA","NA","604","2","legacy","1024","2","48000","-16","experiment","SSHSS","0","even","94788","27826","NA","NA","52580","4031","NA","NA","95841","4039","NA","NA","95945","96549","95837","95945","Flanker task ","38","22162","40","yes","1024"
"95.1219512195122","95.1219512195122","553.4634146341464","553.4634146341464","black","legacy","legacy","legacy","0","incongruent","uniform","1","undefined","1","s","40","0","0","0","40","0","40","0","40","0","0","0","40","40","40","40","Fri Aug 27 11:57:34 2021","1500","The main experiment item","yes","Flankertask.osexp","/Users/mihailcodreanu/Desktop","no","mono","no","18","no","white","no","yes","768","legacy","40","40","/Users/mihailcodreanu/Desktop/mc-subject-0.csv","legacy","Lentiform Loewenfeld","3.3.9","0","s","NA","s","NA","NA","s","530","NA","23774","NA","NA","530","2","legacy","1024","2","48000","-16","experiment","HHSHH","0","even","96556","27826","NA","NA","52580","4031","NA","NA","97610","4039","NA","NA","97715","98245","97606","97714","Flanker task ","39","22692","41","yes","1024"
"95.23809523809524","95.23809523809524","552.9285714285714","552.9285714285714","black","legacy","legacy","legacy","0","congruent","uniform","1","undefined","1","h","41","0","0","0","41","0","41","0","41","0","0","0","41","41","41","41","Fri Aug 27 11:57:34 2021","1500","The main experiment item","yes","Flankertask.osexp","/Users/mihailcodreanu/Desktop","no","mono","no","18","no","white","no","yes","768","legacy","41","41","/Users/mihailcodreanu/Desktop/mc-subject-0.csv","legacy","Lentiform Loewenfeld","3.3.9","0","h","NA","s","NA","NA","h","531","NA","23774","NA","NA","531","2","legacy","1024","2","48000","-16","experiment","HHHHH","0","even","98252","27826","NA","NA","52580","4031","NA","NA","99305","4039","NA","NA","99410","99941","99301","99409","Flanker task ","40","23223","42","yes","1024"
"95.34883720930233","95.34883720930233","555.9767441860465","555.9767441860465","black","legacy","legacy","legacy","0","incongruent","uniform","1","undefined","1","h","42","0","0","0","42","0","42","0","42","0","0","0","42","42","42","42","Fri Aug 27 11:57:34 2021","1500","The main experiment item","yes","Flankertask.osexp","/Users/mihailcodreanu/Desktop","no","mono","no","18","no","white","no","yes","768","legacy","42","42","/Users/mihailcodreanu/Desktop/mc-subject-0.csv","legacy","Lentiform Loewenfeld","3.3.9","0","h","NA","s","NA","NA","h","684","NA","23774","NA","NA","684","2","legacy","1024","2","48000","-16","experiment","SSHSS","0","even","99947","27826","NA","NA","52580","4031","NA","NA","101000","4039","NA","NA","101104","101789","100996","101104","Flanker task ","41","23907","43","yes","1024"
"95.45454545454545","95.45454545454545","556.3636363636364","556.3636363636364","black","legacy","legacy","legacy","0","incongruent","uniform","1","undefined","1","h","43","0","0","0","43","0","43","0","43","0","0","0","43","43","43","43","Fri Aug 27 11:57:34 2021","1500","The main experiment item","yes","Flankertask.osexp","/Users/mihailcodreanu/Desktop","no","mono","no","18","no","white","no","yes","768","legacy","43","43","/Users/mihailcodreanu/Desktop/mc-subject-0.csv","legacy","Lentiform Loewenfeld","3.3.9","0","h","NA","s","NA","NA","h","573","NA","23774","NA","NA","573","2","legacy","1024","2","48000","-16","experiment","SSHSS","0","even","101796","27826","NA","NA","52580","4031","NA","NA","102846","4039","NA","NA","102951","103525","102842","102950","Flanker task ","42","24480","44","yes","1024"
"95.55555555555556","95.55555555555556","557.1111111111111","557.1111111111111","black","legacy","legacy","legacy","0","congruent","uniform","1","undefined","1","h","44","0","0","0","44","0","44","0","44","0","0","0","44","44","44","44","Fri Aug 27 11:57:34 2021","1500","The main experiment item","yes","Flankertask.osexp","/Users/mihailcodreanu/Desktop","no","mono","no","18","no","white","no","yes","768","legacy","44","44","/Users/mihailcodreanu/Desktop/mc-subject-0.csv","legacy","Lentiform Loewenfeld","3.3.9","0","h","NA","s","NA","NA","h","590","NA","23774","NA","NA","590","2","legacy","1024","2","48000","-16","experiment","HHHHH","0","even","103532","27826","NA","NA","52580","4031","NA","NA","104582","4039","NA","NA","104686","105277","104578","104686","Flanker task ","43","25070","45","yes","1024"
"95.65217391304348","95.65217391304348","556.3913043478261","556.3913043478261","black","legacy","legacy","legacy","0","congruent","uniform","1","undefined","1","s","45","0","0","0","45","0","45","0","45","0","0","0","45","45","45","45","Fri Aug 27 11:57:34 2021","1500","The main experiment item","yes","Flankertask.osexp","/Users/mihailcodreanu/Desktop","no","mono","no","18","no","white","no","yes","768","legacy","45","45","/Users/mihailcodreanu/Desktop/mc-subject-0.csv","legacy","Lentiform Loewenfeld","3.3.9","0","s","NA","s","NA","NA","s","524","NA","23774","NA","NA","524","2","legacy","1024","2","48000","-16","experiment","SSSSS","0","even","105284","27826","NA","NA","52580","4031","NA","NA","106337","4039","NA","NA","106441","106965","106333","106441","Flanker task ","44","25594","46","yes","1024"
"95.74468085106383","95.74468085106383","552.8297872340426","552.8297872340426","black","legacy","legacy","legacy","0","congruent","uniform","1","undefined","1","s","46","0","0","0","46","0","46","0","46","0","0","0","46","46","46","46","Fri Aug 27 11:57:34 2021","1500","The main experiment item","yes","Flankertask.osexp","/Users/mihailcodreanu/Desktop","no","mono","no","18","no","white","no","yes","768","legacy","46","46","/Users/mihailcodreanu/Desktop/mc-subject-0.csv","legacy","Lentiform Loewenfeld","3.3.9","0","s","NA","s","NA","NA","s","389","NA","23774","NA","NA","389","2","legacy","1024","2","48000","-16","experiment","SSSSS","0","even","106972","27826","NA","NA","52580","4031","NA","NA","108022","4039","NA","NA","108127","108517","108017","108127","Flanker task ","45","25983","47","yes","1024"
"95.83333333333333","95.83333333333333","550.6666666666666","550.6666666666666","black","legacy","legacy","legacy","0","congruent","uniform","1","undefined","1","h","47","0","0","0","47","0","47","0","47","0","0","0","47","47","47","47","Fri Aug 27 11:57:34 2021","1500","The main experiment item","yes","Flankertask.osexp","/Users/mihailcodreanu/Desktop","no","mono","no","18","no","white","no","yes","768","legacy","47","47","/Users/mihailcodreanu/Desktop/mc-subject-0.csv","legacy","Lentiform Loewenfeld","3.3.9","0","h","NA","s","NA","NA","h","449","NA","23774","NA","NA","449","2","legacy","1024","2","48000","-16","experiment","HHHHH","0","even","108523","27826","NA","NA","52580","4031","NA","NA","109579","4039","NA","NA","109684","110133","109574","109684","Flanker task ","46","26432","48","yes","1024"
"95.91836734693878","95.91836734693878","550.2448979591836","550.2448979591836","black","legacy","legacy","legacy","0","congruent","uniform","1","undefined","1","s","48","0","0","0","48","0","48","0","48","0","0","0","48","48","48","48","Fri Aug 27 11:57:34 2021","1500","The main experiment item","yes","Flankertask.osexp","/Users/mihailcodreanu/Desktop","no","mono","no","18","no","white","no","yes","768","legacy","48","48","/Users/mihailcodreanu/Desktop/mc-subject-0.csv","legacy","Lentiform Loewenfeld","3.3.9","0","s","NA","s","NA","NA","s","530","NA","23774","NA","NA","530","2","legacy","1024","2","48000","-16","experiment","SSSSS","0","even","110140","27826","NA","NA","52580","4031","NA","NA","111194","4039","NA","NA","111298","111829","111190","111298","Flanker task ","47","26962","49","yes","1024"
"96","96","563.82","563.82","black","legacy","legacy","legacy","0","incongruent","uniform","1","undefined","1","s","49","0","0","0","49","0","49","0","49","0","0","0","49","49","49","49","Fri Aug 27 11:57:34 2021","1500","The main experiment item","yes","Flankertask.osexp","/Users/mihailcodreanu/Desktop","no","mono","no","18","no","white","no","yes","768","legacy","49","49","/Users/mihailcodreanu/Desktop/mc-subject-0.csv","legacy","Lentiform Loewenfeld","3.3.9","0","s","NA","s","NA","NA","s","1229","NA","23774","NA","NA","1229","2","legacy","1024","2","48000","-16","experiment","HHSHH","0","even","111836","27826","NA","NA","52580","4031","NA","NA","112887","4039","NA","NA","112992","114221","112883","112992","Flanker task ","48","28191","50","yes","1024"
"96.07843137254902","96.07843137254902","561.5098039215686","561.5098039215686","black","legacy","legacy","legacy","0","congruent","uniform","1","undefined","1","s","50","0","0","0","50","0","50","0","50","0","0","0","50","50","50","50","Fri Aug 27 11:57:34 2021","1500","The main experiment item","yes","Flankertask.osexp","/Users/mihailcodreanu/Desktop","no","mono","no","18","no","white","no","yes","768","legacy","50","50","/Users/mihailcodreanu/Desktop/mc-subject-0.csv","legacy","Lentiform Loewenfeld","3.3.9","0","s","NA","s","NA","NA","s","446","NA","23774","NA","NA","446","2","legacy","1024","2","48000","-16","experiment","SSSSS","0","even","114235","27826","NA","NA","52580","4031","NA","NA","115285","4039","NA","NA","115390","115837","115281","115390","Flanker task ","49","28637","51","yes","1024"
"96.15384615384616","96.15384615384616","559.75","559.75","black","legacy","legacy","legacy","0","incongruent","uniform","1","undefined","1","s","51","0","0","0","51","0","51","0","51","0","0","0","51","51","51","51","Fri Aug 27 11:57:34 2021","1500","The main experiment item","yes","Flankertask.osexp","/Users/mihailcodreanu/Desktop","no","mono","no","18","no","white","no","yes","768","legacy","51","51","/Users/mihailcodreanu/Desktop/mc-subject-0.csv","legacy","Lentiform Loewenfeld","3.3.9","0","s","NA","s","NA","NA","s","470","NA","23774","NA","NA","470","2","legacy","1024","2","48000","-16","experiment","HHSHH","0","even","115844","27826","NA","NA","52580","4031","NA","NA","116894","4039","NA","NA","116998","117469","116890","116998","Flanker task ","50","29107","52","yes","1024"
"96.22641509433963","96.22641509433963","557.2641509433962","557.2641509433962","black","legacy","legacy","legacy","0","congruent","uniform","1","undefined","1","s","52","0","0","0","52","0","52","0","52","0","0","0","52","52","52","52","Fri Aug 27 11:57:34 2021","1500","The main experiment item","yes","Flankertask.osexp","/Users/mihailcodreanu/Desktop","no","mono","no","18","no","white","no","yes","768","legacy","52","52","/Users/mihailcodreanu/Desktop/mc-subject-0.csv","legacy","Lentiform Loewenfeld","3.3.9","0","s","NA","s","NA","NA","s","428","NA","23774","NA","NA","428","2","legacy","1024","2","48000","-16","experiment","SSSSS","0","even","117476","27826","NA","NA","52580","4031","NA","NA","118527","4039","NA","NA","118632","119061","118523","118631","Flanker task ","51","29535","53","yes","1024"
"96.29629629629629","96.29629629629629","557.4074074074074","557.4074074074074","black","legacy","legacy","legacy","0","congruent","uniform","1","undefined","1","h","53","0","0","0","53","0","53","0","53","0","0","0","53","53","53","53","Fri Aug 27 11:57:34 2021","1500","The main experiment item","yes","Flankertask.osexp","/Users/mihailcodreanu/Desktop","no","mono","no","18","no","white","no","yes","768","legacy","53","53","/Users/mihailcodreanu/Desktop/mc-subject-0.csv","legacy","Lentiform Loewenfeld","3.3.9","0","h","NA","s","NA","NA","h","565","NA","23774","NA","NA","565","2","legacy","1024","2","48000","-16","experiment","HHHHH","0","even","119068","27826","NA","NA","52580","4031","NA","NA","120119","4039","NA","NA","120224","120789","120114","120223","Flanker task ","52","30100","54","yes","1024"
"96.36363636363636","96.36363636363636","556.4727272727273","556.4727272727273","black","legacy","legacy","legacy","0","incongruent","uniform","1","undefined","1","h","54","0","0","0","54","0","54","0","54","0","0","0","54","54","54","54","Fri Aug 27 11:57:34 2021","1500","The main experiment item","yes","Flankertask.osexp","/Users/mihailcodreanu/Desktop","no","mono","no","18","no","white","no","yes","768","legacy","54","54","/Users/mihailcodreanu/Desktop/mc-subject-0.csv","legacy","Lentiform Loewenfeld","3.3.9","0","h","NA","s","NA","NA","h","506","NA","23774","NA","NA","506","2","legacy","1024","2","48000","-16","experiment","SSHSS","0","even","120796","27826","NA","NA","52580","4031","NA","NA","121849","4039","NA","NA","121954","122461","121845","121953","Flanker task ","53","30606","55","yes","1024"
"96.42857142857143","96.42857142857143","556.4642857142857","556.4642857142857","black","legacy","legacy","legacy","0","incongruent","uniform","1","undefined","1","h","55","0","0","0","55","0","55","0","55","0","0","0","55","55","55","55","Fri Aug 27 11:57:34 2021","1500","The main experiment item","yes","Flankertask.osexp","/Users/mihailcodreanu/Desktop","no","mono","no","18","no","white","no","yes","768","legacy","55","55","/Users/mihailcodreanu/Desktop/mc-subject-0.csv","legacy","Lentiform Loewenfeld","3.3.9","0","h","NA","s","NA","NA","h","556","NA","23774","NA","NA","556","2","legacy","1024","2","48000","-16","experiment","SSHSS","0","even","122468","27826","NA","NA","52580","4031","NA","NA","123520","4039","NA","NA","123624","124181","123516","123624","Flanker task ","54","31162","56","yes","1024"
"96.49122807017544","96.49122807017544","556","556","black","legacy","legacy","legacy","0","incongruent","uniform","1","undefined","1","s","56","0","0","0","56","0","56","0","56","0","0","0","56","56","56","56","Fri Aug 27 11:57:34 2021","1500","The main experiment item","yes","Flankertask.osexp","/Users/mihailcodreanu/Desktop","no","mono","no","18","no","white","no","yes","768","legacy","56","56","/Users/mihailcodreanu/Desktop/mc-subject-0.csv","legacy","Lentiform Loewenfeld","3.3.9","0","s","NA","s","NA","NA","s","530","NA","23774","NA","NA","530","2","legacy","1024","2","48000","-16","experiment","HHSHH","0","even","124187","27826","NA","NA","52580","4031","NA","NA","125235","4039","NA","NA","125339","125869","125231","125339","Flanker task ","55","31692","57","yes","1024"
"96.55172413793103","96.55172413793103","557.7241379310345","557.7241379310345","black","legacy","legacy","legacy","0","congruent","uniform","1","undefined","1","s","57","0","0","0","57","0","57","0","57","0","0","0","57","57","57","57","Fri Aug 27 11:57:34 2021","1500","The main experiment item","yes","Flankertask.osexp","/Users/mihailcodreanu/Desktop","no","mono","no","18","no","white","no","yes","768","legacy","57","57","/Users/mihailcodreanu/Desktop/mc-subject-0.csv","legacy","Lentiform Loewenfeld","3.3.9","0","s","NA","s","NA","NA","s","656","NA","23774","NA","NA","656","2","legacy","1024","2","48000","-16","experiment","SSSSS","0","even","125876","27826","NA","NA","52580","4031","NA","NA","126924","4039","NA","NA","127029","127685","126921","127028","Flanker task ","56","32348","58","yes","1024"
"96.61016949152543","96.61016949152543","558.1016949152543","558.1016949152543","black","legacy","legacy","legacy","0","incongruent","uniform","1","undefined","1","s","58","0","0","0","58","0","58","0","58","0","0","0","58","58","58","58","Fri Aug 27 11:57:34 2021","1500","The main experiment item","yes","Flankertask.osexp","/Users/mihailcodreanu/Desktop","no","mono","no","18","no","white","no","yes","768","legacy","58","58","/Users/mihailcodreanu/Desktop/mc-subject-0.csv","legacy","Lentiform Loewenfeld","3.3.9","0","s","NA","s","NA","NA","s","580","NA","23774","NA","NA","580","2","legacy","1024","2","48000","-16","experiment","HHSHH","0","even","127692","27826","NA","NA","52580","4031","NA","NA","128745","4039","NA","NA","128849","129430","128741","128849","Flanker task ","57","32928","59","yes","1024"
"96.66666666666667","96.66666666666667","555.9333333333333","555.9333333333333","black","legacy","legacy","legacy","0","incongruent","uniform","1","undefined","1","s","59","0","0","0","59","0","59","0","59","0","0","0","59","59","59","59","Fri Aug 27 11:57:34 2021","1500","The main experiment item","yes","Flankertask.osexp","/Users/mihailcodreanu/Desktop","no","mono","no","18","no","white","no","yes","768","legacy","59","59","/Users/mihailcodreanu/Desktop/mc-subject-0.csv","legacy","Lentiform Loewenfeld","3.3.9","0","s","NA","s","NA","NA","s","428","NA","23774","NA","NA","428","2","legacy","1024","2","48000","-16","experiment","HHSHH","0","even","129436","27826","NA","NA","52580","4031","NA","NA","130488","4039","NA","NA","130593","131021","130484","130592","Flanker task ","58","33356","60","yes","1024"
"96.72131147540983","96.72131147540983","558.6229508196722","558.6229508196722","black","legacy","legacy","legacy","0","congruent","uniform","1","undefined","1","h","60","0","0","0","60","0","60","0","60","0","0","0","60","60","60","60","Fri Aug 27 11:57:34 2021","1500","The main experiment item","yes","Flankertask.osexp","/Users/mihailcodreanu/Desktop","no","mono","no","18","no","white","no","yes","768","legacy","60","60","/Users/mihailcodreanu/Desktop/mc-subject-0.csv","legacy","Lentiform Loewenfeld","3.3.9","0","h","NA","s","NA","NA","h","720","NA","23774","NA","NA","720","2","legacy","1024","2","48000","-16","experiment","HHHHH","0","even","131028","27826","NA","NA","52580","4031","NA","NA","132077","4039","NA","NA","132181","132901","132074","132181","Flanker task ","59","34076","61","yes","1024"
"96.7741935483871","96.7741935483871","558.5967741935484","558.5967741935484","black","legacy","legacy","legacy","0","incongruent","uniform","1","undefined","1","s","61","0","0","0","61","0","61","0","61","0","0","0","61","61","61","61","Fri Aug 27 11:57:34 2021","1500","The main experiment item","yes","Flankertask.osexp","/Users/mihailcodreanu/Desktop","no","mono","no","18","no","white","no","yes","768","legacy","61","61","/Users/mihailcodreanu/Desktop/mc-subject-0.csv","legacy","Lentiform Loewenfeld","3.3.9","0","s","NA","s","NA","NA","s","557","NA","23774","NA","NA","557","2","legacy","1024","2","48000","-16","experiment","HHSHH","0","even","132908","27826","NA","NA","52580","4031","NA","NA","133959","4039","NA","NA","134064","134621","133955","134064","Flanker task ","60","34633","62","yes","1024"
"96.82539682539682","96.82539682539682","560.8253968253969","560.8253968253969","black","legacy","legacy","legacy","0","congruent","uniform","1","undefined","1","s","62","0","0","0","62","0","62","0","62","0","0","0","62","62","62","62","Fri Aug 27 11:57:34 2021","1500","The main experiment item","yes","Flankertask.osexp","/Users/mihailcodreanu/Desktop","no","mono","no","18","no","white","no","yes","768","legacy","62","62","/Users/mihailcodreanu/Desktop/mc-subject-0.csv","legacy","Lentiform Loewenfeld","3.3.9","0","s","NA","s","NA","NA","s","699","NA","23774","NA","NA","699","2","legacy","1024","2","48000","-16","experiment","SSSSS","0","even","134628","27826","NA","NA","52580","4031","NA","NA","135682","4039","NA","NA","135786","136486","135678","135786","Flanker task ","61","35332","63","yes","1024"
"96.875","96.875","561.625","561.625","black","legacy","legacy","legacy","0","incongruent","uniform","1","undefined","1","h","63","0","0","0","63","0","63","0","63","0","0","0","63","63","63","63","Fri Aug 27 11:57:34 2021","1500","The main experiment item","yes","Flankertask.osexp","/Users/mihailcodreanu/Desktop","no","mono","no","18","no","white","no","yes","768","legacy","63","63","/Users/mihailcodreanu/Desktop/mc-subject-0.csv","legacy","Lentiform Loewenfeld","3.3.9","0","h","NA","s","NA","NA","h","612","NA","23774","NA","NA","612","2","legacy","1024","2","48000","-16","experiment","SSHSS","0","even","136492","27826","NA","NA","52580","4031","NA","NA","137545","4039","NA","NA","137649","138261","137541","137649","Flanker task ","62","35944","64","yes","1024"
"96.92307692307692","96.92307692307692","560.7384615384616","560.7384615384616","black","legacy","legacy","legacy","0","congruent","uniform","1","undefined","1","h","64","0","0","0","64","0","64","0","64","0","0","0","64","64","64","64","Fri Aug 27 11:57:34 2021","1500","The main experiment item","yes","Flankertask.osexp","/Users/mihailcodreanu/Desktop","no","mono","no","18","no","white","no","yes","768","legacy","64","64","/Users/mihailcodreanu/Desktop/mc-subject-0.csv","legacy","Lentiform Loewenfeld","3.3.9","0","h","NA","s","NA","NA","h","504","NA","23774","NA","NA","504","2","legacy","1024","2","48000","-16","experiment","HHHHH","0","even","138268","27826","NA","NA","52580","4031","NA","NA","139317","4039","NA","NA","139421","139926","139313","139421","Flanker task ","63","36448","65","yes","1024"
"96.96969696969697","96.96969696969697","560.2727272727273","560.2727272727273","black","legacy","legacy","legacy","0","incongruent","uniform","1","undefined","1","s","65","0","0","0","65","0","65","0","65","0","0","0","65","65","65","65","Fri Aug 27 11:57:34 2021","1500","The main experiment item","yes","Flankertask.osexp","/Users/mihailcodreanu/Desktop","no","mono","no","18","no","white","no","yes","768","legacy","65","65","/Users/mihailcodreanu/Desktop/mc-subject-0.csv","legacy","Lentiform Loewenfeld","3.3.9","0","s","NA","s","NA","NA","s","530","NA","23774","NA","NA","530","2","legacy","1024","2","48000","-16","experiment","HHSHH","0","even","139932","27826","NA","NA","52580","4031","NA","NA","140987","4039","NA","NA","141091","141622","140982","141091","Flanker task ","64","36978","66","yes","1024"
"97.01492537313433","97.01492537313433","559.1194029850747","559.1194029850747","black","legacy","legacy","legacy","0","congruent","uniform","1","undefined","1","h","66","0","0","0","66","0","66","0","66","0","0","0","66","66","66","66","Fri Aug 27 11:57:34 2021","1500","The main experiment item","yes","Flankertask.osexp","/Users/mihailcodreanu/Desktop","no","mono","no","18","no","white","no","yes","768","legacy","66","66","/Users/mihailcodreanu/Desktop/mc-subject-0.csv","legacy","Lentiform Loewenfeld","3.3.9","0","h","NA","s","NA","NA","h","483","NA","23774","NA","NA","483","2","legacy","1024","2","48000","-16","experiment","HHHHH","0","even","141629","27826","NA","NA","52580","4031","NA","NA","142682","4039","NA","NA","142786","143270","142678","142786","Flanker task ","65","37461","67","yes","1024"
"97.05882352941177","97.05882352941177","556.7352941176471","556.7352941176471","black","legacy","legacy","legacy","0","congruent","uniform","1","undefined","1","h","67","0","0","0","67","0","67","0","67","0","0","0","67","67","67","67","Fri Aug 27 11:57:34 2021","1500","The main experiment item","yes","Flankertask.osexp","/Users/mihailcodreanu/Desktop","no","mono","no","18","no","white","no","yes","768","legacy","67","67","/Users/mihailcodreanu/Desktop/mc-subject-0.csv","legacy","Lentiform Loewenfeld","3.3.9","0","h","NA","s","NA","NA","h","397","NA","23774","NA","NA","397","2","legacy","1024","2","48000","-16","experiment","HHHHH","0","even","143276","27826","NA","NA","52580","4031","NA","NA","144328","4039","NA","NA","144432","144829","144324","144432","Flanker task ","66","37858","68","yes","1024"
"97.10144927536231","97.10144927536231","555.1304347826087","555.1304347826087","black","legacy","legacy","legacy","0","congruent","uniform","1","undefined","1","s","68","0","0","0","68","0","68","0","68","0","0","0","68","68","68","68","Fri Aug 27 11:57:34 2021","1500","The main experiment item","yes","Flankertask.osexp","/Users/mihailcodreanu/Desktop","no","mono","no","18","no","white","no","yes","768","legacy","68","68","/Users/mihailcodreanu/Desktop/mc-subject-0.csv","legacy","Lentiform Loewenfeld","3.3.9","0","s","NA","s","NA","NA","s","446","NA","23774","NA","NA","446","2","legacy","1024","2","48000","-16","experiment","SSSSS","0","even","144835","27826","NA","NA","52580","4031","NA","NA","145886","4039","NA","NA","145990","146438","145883","145990","Flanker task ","67","38304","69","yes","1024"
"97.14285714285714","97.14285714285714","552.7428571428571","552.7428571428571","black","legacy","legacy","legacy","0","congruent","uniform","1","undefined","1","s","69","0","0","0","69","0","69","0","69","0","0","0","69","69","69","69","Fri Aug 27 11:57:34 2021","1500","The main experiment item","yes","Flankertask.osexp","/Users/mihailcodreanu/Desktop","no","mono","no","18","no","white","no","yes","768","legacy","69","69","/Users/mihailcodreanu/Desktop/mc-subject-0.csv","legacy","Lentiform Loewenfeld","3.3.9","0","s","NA","s","NA","NA","s","388","NA","23774","NA","NA","388","2","legacy","1024","2","48000","-16","experiment","SSSSS","0","even","146445","27826","NA","NA","52580","4031","NA","NA","147497","4039","NA","NA","147601","147989","147494","147601","Flanker task ","68","38692","70","yes","1024"
"97.1830985915493","97.1830985915493","553.2535211267606","553.2535211267606","black","legacy","legacy","legacy","0","incongruent","uniform","1","undefined","1","h","70","0","0","0","70","0","70","0","70","0","0","0","70","70","70","70","Fri Aug 27 11:57:34 2021","1500","The main experiment item","yes","Flankertask.osexp","/Users/mihailcodreanu/Desktop","no","mono","no","18","no","white","no","yes","768","legacy","70","70","/Users/mihailcodreanu/Desktop/mc-subject-0.csv","legacy","Lentiform Loewenfeld","3.3.9","0","h","NA","s","NA","NA","h","589","NA","23774","NA","NA","589","2","legacy","1024","2","48000","-16","experiment","SSHSS","0","even","147996","27826","NA","NA","52580","4031","NA","NA","149047","4039","NA","NA","149152","149742","149043","149151","Flanker task ","69","39281","71","yes","1024"
"97.22222222222223","97.22222222222223","553.625","553.625","black","legacy","legacy","legacy","0","incongruent","uniform","1","undefined","1","s","71","0","0","0","71","0","71","0","71","0","0","0","71","71","71","71","Fri Aug 27 11:57:34 2021","1500","The main experiment item","yes","Flankertask.osexp","/Users/mihailcodreanu/Desktop","no","mono","no","18","no","white","no","yes","768","legacy","71","71","/Users/mihailcodreanu/Desktop/mc-subject-0.csv","legacy","Lentiform Loewenfeld","3.3.9","0","s","NA","s","NA","NA","s","580","NA","23774","NA","NA","580","2","legacy","1024","2","48000","-16","experiment","HHSHH","0","even","149748","27826","NA","NA","52580","4031","NA","NA","150801","4039","NA","NA","150905","151486","150797","150905","Flanker task ","70","39861","72","yes","1024"
"97.26027397260275","97.26027397260275","552.3287671232877","552.3287671232877","black","legacy","legacy","legacy","0","congruent","uniform","1","undefined","1","s","72","0","0","0","72","0","72","0","72","0","0","0","72","72","72","72","Fri Aug 27 11:57:34 2021","1500","The main experiment item","yes","Flankertask.osexp","/Users/mihailcodreanu/Desktop","no","mono","no","18","no","white","no","yes","768","legacy","72","72","/Users/mihailcodreanu/Desktop/mc-subject-0.csv","legacy","Lentiform Loewenfeld","3.3.9","0","s","NA","s","NA","NA","s","459","NA","23774","NA","NA","459","2","legacy","1024","2","48000","-16","experiment","SSSSS","0","even","151492","27826","NA","NA","52580","4031","NA","NA","152545","4039","NA","NA","152650","153110","152541","152649","Flanker task ","71","40320","73","yes","1024"
"97.29729729729729","97.29729729729729","553.1621621621622","553.1621621621622","black","legacy","legacy","legacy","0","congruent","uniform","1","undefined","1","h","73","0","0","0","73","0","73","0","73","0","0","0","73","73","73","73","Fri Aug 27 11:57:34 2021","1500","The main experiment item","yes","Flankertask.osexp","/Users/mihailcodreanu/Desktop","no","mono","no","18","no","white","no","yes","768","legacy","73","73","/Users/mihailcodreanu/Desktop/mc-subject-0.csv","legacy","Lentiform Loewenfeld","3.3.9","0","h","NA","s","NA","NA","h","614","NA","23774","NA","NA","614","2","legacy","1024","2","48000","-16","experiment","HHHHH","0","even","153116","27826","NA","NA","52580","4031","NA","NA","154166","4039","NA","NA","154271","154886","154162","154270","Flanker task ","72","40934","74","yes","1024"
"97.33333333333333","97.33333333333333","552.64","552.64","black","legacy","legacy","legacy","0","incongruent","uniform","1","undefined","1","s","74","0","0","0","74","0","74","0","74","0","0","0","74","74","74","74","Fri Aug 27 11:57:34 2021","1500","The main experiment item","yes","Flankertask.osexp","/Users/mihailcodreanu/Desktop","no","mono","no","18","no","white","no","yes","768","legacy","74","74","/Users/mihailcodreanu/Desktop/mc-subject-0.csv","legacy","Lentiform Loewenfeld","3.3.9","0","s","NA","s","NA","NA","s","514","NA","23774","NA","NA","514","2","legacy","1024","2","48000","-16","experiment","HHSHH","0","even","154892","27826","NA","NA","52580","4031","NA","NA","155946","4039","NA","NA","156050","156565","155942","156050","Flanker task ","73","41448","75","yes","1024"
"97.36842105263158","97.36842105263158","551.1842105263158","551.1842105263158","black","legacy","legacy","legacy","0","congruent","uniform","1","undefined","1","s","75","0","0","0","75","0","75","0","75","0","0","0","75","75","75","75","Fri Aug 27 11:57:34 2021","1500","The main experiment item","yes","Flankertask.osexp","/Users/mihailcodreanu/Desktop","no","mono","no","18","no","white","no","yes","768","legacy","75","75","/Users/mihailcodreanu/Desktop/mc-subject-0.csv","legacy","Lentiform Loewenfeld","3.3.9","0","s","NA","s","NA","NA","s","442","NA","23774","NA","NA","442","2","legacy","1024","2","48000","-16","experiment","SSSSS","0","even","156572","27826","NA","NA","52580","4031","NA","NA","157626","4039","NA","NA","157731","158174","157622","157730","Flanker task ","74","41890","76","yes","1024"
"97.40259740259741","97.40259740259741","550.2207792207793","550.2207792207793","black","legacy","legacy","legacy","0","congruent","uniform","1","undefined","1","s","76","0","0","0","76","0","76","0","76","0","0","0","76","76","76","76","Fri Aug 27 11:57:34 2021","1500","The main experiment item","yes","Flankertask.osexp","/Users/mihailcodreanu/Desktop","no","mono","no","18","no","white","no","yes","768","legacy","76","76","/Users/mihailcodreanu/Desktop/mc-subject-0.csv","legacy","Lentiform Loewenfeld","3.3.9","0","s","NA","s","NA","NA","s","477","NA","23774","NA","NA","477","2","legacy","1024","2","48000","-16","experiment","SSSSS","0","even","158180","27826","NA","NA","52580","4031","NA","NA","159231","4039","NA","NA","159336","159814","159228","159336","Flanker task ","75","42367","77","yes","1024"
"97.43589743589743","97.43589743589743","548.4487179487179","548.4487179487179","black","legacy","legacy","legacy","0","congruent","uniform","1","undefined","1","s","77","0","0","0","77","0","77","0","77","0","0","0","77","77","77","77","Fri Aug 27 11:57:34 2021","1500","The main experiment item","yes","Flankertask.osexp","/Users/mihailcodreanu/Desktop","no","mono","no","18","no","white","no","yes","768","legacy","77","77","/Users/mihailcodreanu/Desktop/mc-subject-0.csv","legacy","Lentiform Loewenfeld","3.3.9","0","s","NA","s","NA","NA","s","412","NA","23774","NA","NA","412","2","legacy","1024","2","48000","-16","experiment","SSSSS","0","even","159821","27826","NA","NA","52580","4031","NA","NA","160872","4039","NA","NA","160977","161390","160868","160977","Flanker task ","76","42779","78","yes","1024"
"97.46835443037975","97.46835443037975","546.6835443037975","546.6835443037975","black","legacy","legacy","legacy","0","congruent","uniform","1","undefined","1","s","78","0","0","0","78","0","78","0","78","0","0","0","78","78","78","78","Fri Aug 27 11:57:34 2021","1500","The main experiment item","yes","Flankertask.osexp","/Users/mihailcodreanu/Desktop","no","mono","no","18","no","white","no","yes","768","legacy","78","78","/Users/mihailcodreanu/Desktop/mc-subject-0.csv","legacy","Lentiform Loewenfeld","3.3.9","0","s","NA","s","NA","NA","s","409","NA","23774","NA","NA","409","2","legacy","1024","2","48000","-16","experiment","SSSSS","0","even","161397","27826","NA","NA","52580","4031","NA","NA","162451","4039","NA","NA","162556","162966","162446","162555","Flanker task ","77","43188","79","yes","1024"
"97.5","97.5","546.7875","546.7875","black","legacy","legacy","legacy","0","congruent","uniform","1","undefined","1","h","79","0","0","0","79","0","79","0","79","0","0","0","79","79","79","79","Fri Aug 27 11:57:34 2021","1500","The main experiment item","yes","Flankertask.osexp","/Users/mihailcodreanu/Desktop","no","mono","no","18","no","white","no","yes","768","legacy","79","79","/Users/mihailcodreanu/Desktop/mc-subject-0.csv","legacy","Lentiform Loewenfeld","3.3.9","0","h","NA","s","NA","NA","h","555","NA","23774","NA","NA","555","2","legacy","1024","2","48000","-16","experiment","HHHHH","0","even","162973","27826","NA","NA","52580","4031","NA","NA","164026","4039","NA","NA","164130","164685","164022","164130","Flanker task ","78","43743","80","yes","1024"
"97.53086419753086","97.53086419753086","549.8765432098766","549.8765432098766","black","legacy","legacy","legacy","0","incongruent","uniform","1","undefined","1","s","80","0","0","0","80","0","80","0","80","0","0","0","80","80","80","80","Fri Aug 27 11:57:34 2021","600","The main experiment item","yes","Flankertask.osexp","/Users/mihailcodreanu/Desktop","no","mono","no","18","no","white","no","yes","768","legacy","0","79","/Users/mihailcodreanu/Desktop/mc-subject-0.csv","legacy","Lentiform Loewenfeld","3.3.9","0","s","NA","s","s","NA","s","797","NA","23774","17257","NA","797","2","legacy","1024","2","48000","-16","experiment","HHSHH","0","even","164692","27826","182974","NA","52580","4031","NA","NA","183007","4039","165716","NA","183112","183909","183004","183111","Flanker task ","79","44540","81","yes","1024"
"97.5609756097561","97.5609756097561","547.8414634146342","547.8414634146342","black","legacy","legacy","legacy","0","incongruent","uniform","1","undefined","1","s","81","0","0","0","81","0","81","0","81","0","0","0","81","81","81","81","Fri Aug 27 11:57:34 2021","600","The main experiment item","yes","Flankertask.osexp","/Users/mihailcodreanu/Desktop","no","mono","no","18","no","white","no","yes","768","legacy","1","79","/Users/mihailcodreanu/Desktop/mc-subject-0.csv","legacy","Lentiform Loewenfeld","3.3.9","0","s","NA","s","s","NA","s","383","NA","23774","17257","NA","383","2","legacy","1024","2","48000","-16","experiment","HHSHH","0","even","184420","27826","182974","NA","52580","4031","183916","NA","185470","4039","165716","NA","185574","185958","185466","185574","Flanker task ","80","44923","82","yes","1024"
"97.59036144578313","97.59036144578313","545.710843373494","545.710843373494","black","legacy","legacy","legacy","0","incongruent","uniform","1","undefined","1","s","82","0","0","0","82","0","82","0","82","0","0","0","82","82","82","82","Fri Aug 27 11:57:34 2021","600","The main experiment item","yes","Flankertask.osexp","/Users/mihailcodreanu/Desktop","no","mono","no","18","no","white","no","yes","768","legacy","2","79","/Users/mihailcodreanu/Desktop/mc-subject-0.csv","legacy","Lentiform Loewenfeld","3.3.9","0","s","NA","s","s","NA","s","371","NA","23774","17257","NA","371","2","legacy","1024","2","48000","-16","experiment","HHSHH","0","even","185964","27826","182974","NA","52580","4031","183916","NA","187018","4039","165716","NA","187122","187494","187014","187122","Flanker task ","81","45294","83","yes","1024"
"97.61904761904762","97.61904761904762","543.1547619047619","543.1547619047619","black","legacy","legacy","legacy","0","incongruent","uniform","1","undefined","1","s","83","0","0","0","83","0","83","0","83","0","0","0","83","83","83","83","Fri Aug 27 11:57:34 2021","600","The main experiment item","yes","Flankertask.osexp","/Users/mihailcodreanu/Desktop","no","mono","no","18","no","white","no","yes","768","legacy","3","79","/Users/mihailcodreanu/Desktop/mc-subject-0.csv","legacy","Lentiform Loewenfeld","3.3.9","0","s","NA","s","s","NA","s","331","NA","23774","17257","NA","331","2","legacy","1024","2","48000","-16","experiment","HHSHH","0","even","187501","27826","182974","NA","52580","4031","183916","NA","188553","4039","165716","NA","188658","188990","188550","188657","Flanker task ","82","45625","84","yes","1024"
"96.47058823529412","96.47058823529412","541.4235294117647","541.4235294117647","black","legacy","legacy","legacy","0","incongruent","uniform","0","undefined","0","h","84","0","0","0","84","0","84","0","84","0","0","0","84","84","84","84","Fri Aug 27 11:57:34 2021","600","The main experiment item","yes","Flankertask.osexp","/Users/mihailcodreanu/Desktop","no","mono","no","18","no","white","no","yes","768","legacy","4","79","/Users/mihailcodreanu/Desktop/mc-subject-0.csv","legacy","Lentiform Loewenfeld","3.3.9","0","s","NA","s","s","NA","s","396","NA","23774","17257","NA","396","2","legacy","1024","2","48000","-16","experiment","SSHSS","0","even","188996","27826","182974","NA","52580","4031","183916","NA","190049","4039","165716","NA","190153","190550","190045","190153","Flanker task ","82","46021","85","yes","1024"
"96.51162790697674","96.51162790697674","539.2558139534884","539.2558139534884","black","legacy","legacy","legacy","0","congruent","uniform","1","undefined","1","s","85","0","0","0","85","0","85","0","85","0","0","0","85","85","85","85","Fri Aug 27 11:57:34 2021","600","The main experiment item","yes","Flankertask.osexp","/Users/mihailcodreanu/Desktop","no","mono","no","18","no","white","no","yes","768","legacy","5","79","/Users/mihailcodreanu/Desktop/mc-subject-0.csv","legacy","Lentiform Loewenfeld","3.3.9","0","s","NA","s","s","NA","s","355","NA","23774","17257","NA","355","2","legacy","1024","2","48000","-16","experiment","SSSSS","0","even","191061","27826","182974","NA","190556","4031","183916","NA","192114","4039","165716","NA","192218","192574","192111","192218","Flanker task ","83","46376","86","yes","1024"
"96.55172413793103","96.55172413793103","538.3218390804598","538.3218390804598","black","legacy","legacy","legacy","0","incongruent","uniform","1","undefined","1","s","86","0","0","0","86","0","86","0","86","0","0","0","86","86","86","86","Fri Aug 27 11:57:34 2021","600","The main experiment item","yes","Flankertask.osexp","/Users/mihailcodreanu/Desktop","no","mono","no","18","no","white","no","yes","768","legacy","6","79","/Users/mihailcodreanu/Desktop/mc-subject-0.csv","legacy","Lentiform Loewenfeld","3.3.9","0","s","NA","s","s","NA","s","458","NA","23774","17257","NA","458","2","legacy","1024","2","48000","-16","experiment","HHSHH","0","even","192580","27826","182974","NA","190556","4031","183916","NA","193634","4039","165716","NA","193739","194197","193630","193738","Flanker task ","84","46834","87","yes","1024"
"95.45454545454545","95.45454545454545","534.9545454545455","534.9545454545455","black","legacy","legacy","legacy","0","congruent","uniform","0","undefined","0","h","87","0","0","0","87","0","87","0","87","0","0","0","87","87","87","87","Fri Aug 27 11:57:34 2021","600","The main experiment item","yes","Flankertask.osexp","/Users/mihailcodreanu/Desktop","no","mono","no","18","no","white","no","yes","768","legacy","7","79","/Users/mihailcodreanu/Desktop/mc-subject-0.csv","legacy","Lentiform Loewenfeld","3.3.9","0","s","NA","s","s","NA","s","242","NA","23774","17257","NA","242","2","legacy","1024","2","48000","-16","experiment","HHHHH","0","even","194204","27826","182974","NA","190556","4031","183916","NA","195257","4039","165716","NA","195362","195605","195253","195361","Flanker task ","84","47076","88","yes","1024"
"95.50561797752809","95.50561797752809","535.4606741573034","535.4606741573034","black","legacy","legacy","legacy","0","incongruent","uniform","1","undefined","1","h","88","0","0","0","88","0","88","0","88","0","0","0","88","88","88","88","Fri Aug 27 11:57:34 2021","600","The main experiment item","yes","Flankertask.osexp","/Users/mihailcodreanu/Desktop","no","mono","no","18","no","white","no","yes","768","legacy","8","79","/Users/mihailcodreanu/Desktop/mc-subject-0.csv","legacy","Lentiform Loewenfeld","3.3.9","0","h","NA","s","s","NA","h","580","NA","23774","17257","NA","580","2","legacy","1024","2","48000","-16","experiment","SSHSS","0","even","196116","27826","182974","NA","195612","4031","183916","NA","197169","4039","165716","NA","197273","197854","197166","197273","Flanker task ","85","47656","89","yes","1024"
"95.55555555555556","95.55555555555556","533.9888888888889","533.9888888888889","black","legacy","legacy","legacy","0","incongruent","uniform","1","undefined","1","h","89","0","0","0","89","0","89","0","89","0","0","0","89","89","89","89","Fri Aug 27 11:57:34 2021","600","The main experiment item","yes","Flankertask.osexp","/Users/mihailcodreanu/Desktop","no","mono","no","18","no","white","no","yes","768","legacy","9","79","/Users/mihailcodreanu/Desktop/mc-subject-0.csv","legacy","Lentiform Loewenfeld","3.3.9","0","h","NA","s","s","NA","h","403","NA","23774","17257","NA","403","2","legacy","1024","2","48000","-16","experiment","SSHSS","0","even","197861","27826","182974","NA","195612","4031","183916","NA","198914","4039","165716","NA","199018","199422","198910","199018","Flanker task ","86","48059","90","yes","1024"
"95.6043956043956","95.6043956043956","532.8241758241758","532.8241758241758","black","legacy","legacy","legacy","0","incongruent","uniform","1","undefined","1","h","90","0","0","0","90","0","90","0","90","0","0","0","90","90","90","90","Fri Aug 27 11:57:34 2021","600","The main experiment item","yes","Flankertask.osexp","/Users/mihailcodreanu/Desktop","no","mono","no","18","no","white","no","yes","768","legacy","10","79","/Users/mihailcodreanu/Desktop/mc-subject-0.csv","legacy","Lentiform Loewenfeld","3.3.9","0","h","NA","s","s","NA","h","428","NA","23774","17257","NA","428","2","legacy","1024","2","48000","-16","experiment","SSHSS","0","even","199428","27826","182974","NA","195612","4031","183916","NA","200481","4039","165716","NA","200585","201014","200478","200585","Flanker task ","87","48487","91","yes","1024"
"95.65217391304348","95.65217391304348","531.695652173913","531.695652173913","black","legacy","legacy","legacy","0","incongruent","uniform","1","undefined","1","h","91","0","0","0","91","0","91","0","91","0","0","0","91","91","91","91","Fri Aug 27 11:57:34 2021","600","The main experiment item","yes","Flankertask.osexp","/Users/mihailcodreanu/Desktop","no","mono","no","18","no","white","no","yes","768","legacy","11","79","/Users/mihailcodreanu/Desktop/mc-subject-0.csv","legacy","Lentiform Loewenfeld","3.3.9","0","h","NA","s","s","NA","h","429","NA","23774","17257","NA","429","2","legacy","1024","2","48000","-16","experiment","SSHSS","0","even","201020","27826","182974","NA","195612","4031","183916","NA","202071","4039","165716","NA","202176","202606","202067","202175","Flanker task ","88","48916","92","yes","1024"
"94.6236559139785","94.6236559139785","528.763440860215","528.763440860215","black","legacy","legacy","legacy","0","congruent","uniform","0","undefined","0","h","92","0","0","0","92","0","92","0","92","0","0","0","92","92","92","92","Fri Aug 27 11:57:34 2021","600","The main experiment item","yes","Flankertask.osexp","/Users/mihailcodreanu/Desktop","no","mono","no","18","no","white","no","yes","768","legacy","12","79","/Users/mihailcodreanu/Desktop/mc-subject-0.csv","legacy","Lentiform Loewenfeld","3.3.9","0","s","NA","s","s","NA","s","259","NA","23774","17257","NA","259","2","legacy","1024","2","48000","-16","experiment","HHHHH","0","even","202612","27826","182974","NA","195612","4031","183916","NA","203665","4039","165716","NA","203770","204030","203662","203769","Flanker task ","88","49175","93","yes","1024"
"94.68085106382979","94.68085106382979","527.1276595744681","527.1276595744681","black","legacy","legacy","legacy","0","incongruent","uniform","1","undefined","1","s","93","0","0","0","93","0","93","0","93","0","0","0","93","93","93","93","Fri Aug 27 11:57:34 2021","600","The main experiment item","yes","Flankertask.osexp","/Users/mihailcodreanu/Desktop","no","mono","no","18","no","white","no","yes","768","legacy","13","79","/Users/mihailcodreanu/Desktop/mc-subject-0.csv","legacy","Lentiform Loewenfeld","3.3.9","0","s","NA","s","s","NA","s","375","NA","23774","17257","NA","375","2","legacy","1024","2","48000","-16","experiment","HHSHH","0","even","204541","27826","182974","NA","204037","4031","183916","NA","205590","4039","165716","NA","205694","206070","205587","205694","Flanker task ","89","49550","94","yes","1024"
"94.73684210526316","94.73684210526316","526.3263157894737","526.3263157894737","black","legacy","legacy","legacy","0","congruent","uniform","1","undefined","1","h","94","0","0","0","94","0","94","0","94","0","0","0","94","94","94","94","Fri Aug 27 11:57:34 2021","600","The main experiment item","yes","Flankertask.osexp","/Users/mihailcodreanu/Desktop","no","mono","no","18","no","white","no","yes","768","legacy","14","79","/Users/mihailcodreanu/Desktop/mc-subject-0.csv","legacy","Lentiform Loewenfeld","3.3.9","0","h","NA","s","s","NA","h","451","NA","23774","17257","NA","451","2","legacy","1024","2","48000","-16","experiment","HHHHH","0","even","206076","27826","182974","NA","204037","4031","183916","NA","207128","4039","165716","NA","207233","207685","207125","207232","Flanker task ","90","50001","95","yes","1024"
"94.79166666666667","94.79166666666667","525.625","525.625","black","legacy","legacy","legacy","0","congruent","uniform","1","undefined","1","s","95","0","0","0","95","0","95","0","95","0","0","0","95","95","95","95","Fri Aug 27 11:57:34 2021","600","The main experiment item","yes","Flankertask.osexp","/Users/mihailcodreanu/Desktop","no","mono","no","18","no","white","no","yes","768","legacy","15","79","/Users/mihailcodreanu/Desktop/mc-subject-0.csv","legacy","Lentiform Loewenfeld","3.3.9","0","s","NA","s","s","NA","s","459","NA","23774","17257","NA","459","2","legacy","1024","2","48000","-16","experiment","SSSSS","0","even","207692","27826","182974","NA","204037","4031","183916","NA","208755","4039","165716","NA","208858","209318","208750","208858","Flanker task ","91","50460","96","yes","1024"
"93.81443298969072","93.81443298969072","523.8041237113403","523.8041237113403","black","legacy","legacy","legacy","0","incongruent","uniform","0","undefined","0","s","96","0","0","0","96","0","96","0","96","0","0","0","96","96","96","96","Fri Aug 27 11:57:34 2021","600","The main experiment item","yes","Flankertask.osexp","/Users/mihailcodreanu/Desktop","no","mono","no","18","no","white","no","yes","768","legacy","16","79","/Users/mihailcodreanu/Desktop/mc-subject-0.csv","legacy","Lentiform Loewenfeld","3.3.9","0","h","NA","s","s","NA","h","349","NA","23774","17257","NA","349","2","legacy","1024","2","48000","-16","experiment","HHSHH","0","even","209324","27826","182974","NA","204037","4031","183916","NA","210375","4039","165716","NA","210480","210830","210372","210480","Flanker task ","91","50809","97","yes","1024"
"92.85714285714286","92.85714285714286","521.8469387755102","521.8469387755102","black","legacy","legacy","legacy","0","incongruent","uniform","0","undefined","0","h","97","0","0","0","97","0","97","0","97","0","0","0","97","97","97","97","Fri Aug 27 11:57:34 2021","600","The main experiment item","yes","Flankertask.osexp","/Users/mihailcodreanu/Desktop","no","mono","no","18","no","white","no","yes","768","legacy","17","79","/Users/mihailcodreanu/Desktop/mc-subject-0.csv","legacy","Lentiform Loewenfeld","3.3.9","0","s","NA","s","s","NA","s","332","NA","23774","17257","NA","332","2","legacy","1024","2","48000","-16","experiment","SSHSS","0","even","211340","27826","182974","NA","210836","4031","183916","NA","212392","4039","165716","NA","212497","212830","212389","212497","Flanker task ","91","51141","98","yes","1024"
"92.92929292929293","92.92929292929293","521.4343434343434","521.4343434343434","black","legacy","legacy","legacy","0","incongruent","uniform","1","undefined","1","h","98","0","0","0","98","0","98","0","98","0","0","0","98","98","98","98","Fri Aug 27 11:57:34 2021","600","The main experiment item","yes","Flankertask.osexp","/Users/mihailcodreanu/Desktop","no","mono","no","18","no","white","no","yes","768","legacy","18","79","/Users/mihailcodreanu/Desktop/mc-subject-0.csv","legacy","Lentiform Loewenfeld","3.3.9","0","h","NA","s","s","NA","h","481","NA","23774","17257","NA","481","2","legacy","1024","2","48000","-16","experiment","SSHSS","0","even","213340","27826","182974","NA","212836","4031","183916","NA","214387","4039","165716","NA","214491","214974","214384","214491","Flanker task ","92","51622","99","yes","1024"
"92","92","519.71","519.71","black","legacy","legacy","legacy","0","congruent","uniform","0","undefined","0","s","99","0","0","0","99","0","99","0","99","0","0","0","99","99","99","99","Fri Aug 27 11:57:34 2021","600","The main experiment item","yes","Flankertask.osexp","/Users/mihailcodreanu/Desktop","no","mono","no","18","no","white","no","yes","768","legacy","19","79","/Users/mihailcodreanu/Desktop/mc-subject-0.csv","legacy","Lentiform Loewenfeld","3.3.9","0","h","NA","s","s","NA","h","349","NA","23774","17257","NA","349","2","legacy","1024","2","48000","-16","experiment","SSSSS","0","even","214980","27826","182974","NA","212836","4031","183916","NA","216031","4039","165716","NA","216135","216486","216027","216135","Flanker task ","92","51971","100","yes","1024"
"92.07920792079207","92.07920792079207","520.3168316831683","520.3168316831683","black","legacy","legacy","legacy","0","incongruent","uniform","1","undefined","1","h","100","0","0","0","100","0","100","0","100","0","0","0","100","100","100","100","Fri Aug 27 11:57:34 2021","600","The main experiment item","yes","Flankertask.osexp","/Users/mihailcodreanu/Desktop","no","mono","no","18","no","white","no","yes","768","legacy","20","79","/Users/mihailcodreanu/Desktop/mc-subject-0.csv","legacy","Lentiform Loewenfeld","3.3.9","0","h","NA","s","s","NA","h","581","NA","23774","17257","NA","581","2","legacy","1024","2","48000","-16","experiment","SSHSS","0","even","216996","27826","182974","NA","216492","4031","183916","NA","218048","4039","165716","NA","218152","218734","218045","218152","Flanker task ","93","52552","101","yes","1024"
"92.15686274509804","92.15686274509804","519.7647058823529","519.7647058823529","black","legacy","legacy","legacy","0","congruent","uniform","1","undefined","1","s","101","0","0","0","101","0","101","0","101","0","0","0","101","101","101","101","Fri Aug 27 11:57:34 2021","600","The main experiment item","yes","Flankertask.osexp","/Users/mihailcodreanu/Desktop","no","mono","no","18","no","white","no","yes","768","legacy","21","79","/Users/mihailcodreanu/Desktop/mc-subject-0.csv","legacy","Lentiform Loewenfeld","3.3.9","0","s","NA","s","s","NA","s","464","NA","23774","17257","NA","464","2","legacy","1024","2","48000","-16","experiment","SSSSS","0","even","218738","27826","182974","NA","216492","4031","183916","NA","219788","4039","165716","NA","219892","220358","219784","219892","Flanker task ","94","53016","102","yes","1024"
"92.23300970873787","92.23300970873787","519.6310679611651","519.6310679611651","black","legacy","legacy","legacy","0","incongruent","uniform","1","undefined","1","h","102","0","0","0","102","0","102","0","102","0","0","0","102","102","102","102","Fri Aug 27 11:57:34 2021","600","The main experiment item","yes","Flankertask.osexp","/Users/mihailcodreanu/Desktop","no","mono","no","18","no","white","no","yes","768","legacy","22","79","/Users/mihailcodreanu/Desktop/mc-subject-0.csv","legacy","Lentiform Loewenfeld","3.3.9","0","h","NA","s","s","NA","h","506","NA","23774","17257","NA","506","2","legacy","1024","2","48000","-16","experiment","SSHSS","0","even","220365","27826","182974","NA","216492","4031","183916","NA","221419","4039","165716","NA","221523","222030","221415","221523","Flanker task ","95","53522","103","yes","1024"
"92.3076923076923","92.3076923076923","518.7788461538462","518.7788461538462","black","legacy","legacy","legacy","0","congruent","uniform","1","undefined","1","h","103","0","0","0","103","0","103","0","103","0","0","0","103","103","103","103","Fri Aug 27 11:57:34 2021","600","The main experiment item","yes","Flankertask.osexp","/Users/mihailcodreanu/Desktop","no","mono","no","18","no","white","no","yes","768","legacy","23","79","/Users/mihailcodreanu/Desktop/mc-subject-0.csv","legacy","Lentiform Loewenfeld","3.3.9","0","h","NA","s","s","NA","h","431","NA","23774","17257","NA","431","2","legacy","1024","2","48000","-16","experiment","HHHHH","0","even","222036","27826","182974","NA","216492","4031","183916","NA","223087","4039","165716","NA","223190","223622","223084","223190","Flanker task ","96","53953","104","yes","1024"
"92.38095238095238","92.38095238095238","520.504761904762","520.504761904762","black","legacy","legacy","legacy","0","incongruent","uniform","1","undefined","1","h","104","0","0","0","104","0","104","0","104","0","0","0","104","104","104","104","Fri Aug 27 11:57:34 2021","600","The main experiment item","yes","Flankertask.osexp","/Users/mihailcodreanu/Desktop","no","mono","no","18","no","white","no","yes","768","legacy","24","79","/Users/mihailcodreanu/Desktop/mc-subject-0.csv","legacy","Lentiform Loewenfeld","3.3.9","0","h","NA","s","s","NA","h","700","NA","23774","17257","NA","700","2","legacy","1024","2","48000","-16","experiment","SSHSS","0","even","223628","27826","182974","NA","216492","4031","183916","NA","224680","4039","165716","NA","224784","225486","224676","224784","Flanker task ","97","54653","105","yes","1024"
"92.45283018867924","92.45283018867924","521.3679245283018","521.3679245283018","black","legacy","legacy","legacy","0","congruent","uniform","1","undefined","1","s","105","0","0","0","105","0","105","0","105","0","0","0","105","105","105","105","Fri Aug 27 11:57:34 2021","600","The main experiment item","yes","Flankertask.osexp","/Users/mihailcodreanu/Desktop","no","mono","no","18","no","white","no","yes","768","legacy","25","79","/Users/mihailcodreanu/Desktop/mc-subject-0.csv","legacy","Lentiform Loewenfeld","3.3.9","0","s","NA","s","s","NA","s","612","NA","23774","17257","NA","612","2","legacy","1024","2","48000","-16","experiment","SSSSS","0","even","225996","27826","182974","NA","216492","4031","225492","NA","227049","4039","165716","NA","227153","227766","227045","227152","Flanker task ","98","55265","106","yes","1024"
"92.5233644859813","92.5233644859813","520.373831775701","520.373831775701","black","legacy","legacy","legacy","0","congruent","uniform","1","undefined","1","s","106","0","0","0","106","0","106","0","106","0","0","0","106","106","106","106","Fri Aug 27 11:57:34 2021","600","The main experiment item","yes","Flankertask.osexp","/Users/mihailcodreanu/Desktop","no","mono","no","18","no","white","no","yes","768","legacy","26","79","/Users/mihailcodreanu/Desktop/mc-subject-0.csv","legacy","Lentiform Loewenfeld","3.3.9","0","s","NA","s","s","NA","s","415","NA","23774","17257","NA","415","2","legacy","1024","2","48000","-16","experiment","SSSSS","0","even","228273","27826","182974","NA","216492","4031","227770","NA","229325","4039","165716","NA","229429","229846","229321","229429","Flanker task ","99","55680","107","yes","1024"
"92.5925925925926","92.5925925925926","519.0092592592592","519.0092592592592","black","legacy","legacy","legacy","0","congruent","uniform","1","undefined","1","h","107","0","0","0","107","0","107","0","107","0","0","0","107","107","107","107","Fri Aug 27 11:57:34 2021","600","The main experiment item","yes","Flankertask.osexp","/Users/mihailcodreanu/Desktop","no","mono","no","18","no","white","no","yes","768","legacy","27","79","/Users/mihailcodreanu/Desktop/mc-subject-0.csv","legacy","Lentiform Loewenfeld","3.3.9","0","h","NA","s","s","NA","h","373","NA","23774","17257","NA","373","2","legacy","1024","2","48000","-16","experiment","HHHHH","0","even","229852","27826","182974","NA","216492","4031","227770","NA","230903","4039","165716","NA","231008","231382","230899","231007","Flanker task ","100","56053","108","yes","1024"
"92.66055045871559","92.66055045871559","517.0825688073395","517.0825688073395","black","legacy","legacy","legacy","0","congruent","uniform","1","undefined","1","h","108","0","0","0","108","0","108","0","108","0","0","0","108","108","108","108","Fri Aug 27 11:57:34 2021","600","The main experiment item","yes","Flankertask.osexp","/Users/mihailcodreanu/Desktop","no","mono","no","18","no","white","no","yes","768","legacy","28","79","/Users/mihailcodreanu/Desktop/mc-subject-0.csv","legacy","Lentiform Loewenfeld","3.3.9","0","h","NA","s","s","NA","h","309","NA","23774","17257","NA","309","2","legacy","1024","2","48000","-16","experiment","HHHHH","0","even","231388","27826","182974","NA","216492","4031","227770","NA","232439","4039","165716","NA","232544","232854","232436","232544","Flanker task ","101","56362","109","yes","1024"
"91.81818181818181","91.81818181818181","515.9363636363636","515.9363636363636","black","legacy","legacy","legacy","0","congruent","uniform","0","undefined","0","s","109","0","0","0","109","0","109","0","109","0","0","0","109","109","109","109","Fri Aug 27 11:57:34 2021","600","The main experiment item","yes","Flankertask.osexp","/Users/mihailcodreanu/Desktop","no","mono","no","18","no","white","no","yes","768","legacy","29","79","/Users/mihailcodreanu/Desktop/mc-subject-0.csv","legacy","Lentiform Loewenfeld","3.3.9","0","h","NA","s","s","NA","h","391","NA","23774","17257","NA","391","2","legacy","1024","2","48000","-16","experiment","SSSSS","0","even","232860","27826","182974","NA","216492","4031","227770","NA","233909","4039","165716","NA","234014","234406","233905","234014","Flanker task ","101","56753","110","yes","1024"
"91.89189189189189","91.89189189189189","515.081081081081","515.081081081081","black","legacy","legacy","legacy","0","congruent","uniform","1","undefined","1","h","110","0","0","0","110","0","110","0","110","0","0","0","110","110","110","110","Fri Aug 27 11:57:34 2021","600","The main experiment item","yes","Flankertask.osexp","/Users/mihailcodreanu/Desktop","no","mono","no","18","no","white","no","yes","768","legacy","30","79","/Users/mihailcodreanu/Desktop/mc-subject-0.csv","legacy","Lentiform Loewenfeld","3.3.9","0","h","NA","s","s","NA","h","421","NA","23774","17257","NA","421","2","legacy","1024","2","48000","-16","experiment","HHHHH","0","even","234916","27826","182974","NA","234412","4031","227770","NA","235968","4039","165716","NA","236072","236494","235965","236072","Flanker task ","102","57174","111","yes","1024"
"91.96428571428571","91.96428571428571","514.6607142857143","514.6607142857143","black","legacy","legacy","legacy","0","congruent","uniform","1","undefined","1","s","111","0","0","0","111","0","111","0","111","0","0","0","111","111","111","111","Fri Aug 27 11:57:34 2021","600","The main experiment item","yes","Flankertask.osexp","/Users/mihailcodreanu/Desktop","no","mono","no","18","no","white","no","yes","768","legacy","31","79","/Users/mihailcodreanu/Desktop/mc-subject-0.csv","legacy","Lentiform Loewenfeld","3.3.9","0","s","NA","s","s","NA","s","468","NA","23774","17257","NA","468","2","legacy","1024","2","48000","-16","experiment","SSSSS","0","even","236500","27826","182974","NA","234412","4031","227770","NA","237552","4039","165716","NA","237656","238126","237548","237656","Flanker task ","103","57642","112","yes","1024"
"92.03539823008849","92.03539823008849","514.9557522123894","514.9557522123894","black","legacy","legacy","legacy","0","incongruent","uniform","1","undefined","1","h","112","0","0","0","112","0","112","0","112","0","0","0","112","112","112","112","Fri Aug 27 11:57:34 2021","600","The main experiment item","yes","Flankertask.osexp","/Users/mihailcodreanu/Desktop","no","mono","no","18","no","white","no","yes","768","legacy","32","79","/Users/mihailcodreanu/Desktop/mc-subject-0.csv","legacy","Lentiform Loewenfeld","3.3.9","0","h","NA","s","s","NA","h","548","NA","23774","17257","NA","548","2","legacy","1024","2","48000","-16","experiment","SSHSS","0","even","238132","27826","182974","NA","234412","4031","227770","NA","239185","4039","165716","NA","239289","239838","239182","239289","Flanker task ","104","58190","113","yes","1024"
"92.10526315789474","92.10526315789474","515.7543859649123","515.7543859649123","black","legacy","legacy","legacy","0","incongruent","uniform","1","undefined","1","h","113","0","0","0","113","0","113","0","113","0","0","0","113","113","113","113","Fri Aug 27 11:57:34 2021","600","The main experiment item","yes","Flankertask.osexp","/Users/mihailcodreanu/Desktop","no","mono","no","18","no","white","no","yes","768","legacy","33","79","/Users/mihailcodreanu/Desktop/mc-subject-0.csv","legacy","Lentiform Loewenfeld","3.3.9","0","h","NA","s","s","NA","h","606","NA","23774","17257","NA","606","2","legacy","1024","2","48000","-16","experiment","SSHSS","0","even","239844","27826","182974","NA","234412","4031","227770","NA","240894","4039","165716","NA","240999","241606","240890","240998","Flanker task ","105","58796","114","yes","1024"
"92.17391304347827","92.17391304347827","514.8521739130434","514.8521739130434","black","legacy","legacy","legacy","0","congruent","uniform","1","undefined","1","s","114","0","0","0","114","0","114","0","114","0","0","0","114","114","114","114","Fri Aug 27 11:57:34 2021","600","The main experiment item","yes","Flankertask.osexp","/Users/mihailcodreanu/Desktop","no","mono","no","18","no","white","no","yes","768","legacy","34","79","/Users/mihailcodreanu/Desktop/mc-subject-0.csv","legacy","Lentiform Loewenfeld","3.3.9","0","s","NA","s","s","NA","s","412","NA","23774","17257","NA","412","2","legacy","1024","2","48000","-16","experiment","SSSSS","0","even","242116","27826","182974","NA","234412","4031","241612","NA","243168","4039","165716","NA","243273","243686","243165","243272","Flanker task ","106","59208","115","yes","1024"
"92.24137931034483","92.24137931034483","513.9568965517242","513.9568965517242","black","legacy","legacy","legacy","0","congruent","uniform","1","undefined","1","h","115","0","0","0","115","0","115","0","115","0","0","0","115","115","115","115","Fri Aug 27 11:57:34 2021","600","The main experiment item","yes","Flankertask.osexp","/Users/mihailcodreanu/Desktop","no","mono","no","18","no","white","no","yes","768","legacy","35","79","/Users/mihailcodreanu/Desktop/mc-subject-0.csv","legacy","Lentiform Loewenfeld","3.3.9","0","h","NA","s","s","NA","h","411","NA","23774","17257","NA","411","2","legacy","1024","2","48000","-16","experiment","HHHHH","0","even","243692","27826","182974","NA","234412","4031","241612","NA","244745","4039","165716","NA","244849","245262","244741","244849","Flanker task ","107","59619","116","yes","1024"
"92.3076923076923","92.3076923076923","512.0512820512821","512.0512820512821","black","legacy","legacy","legacy","0","incongruent","uniform","1","undefined","1","s","116","0","0","0","116","0","116","0","116","0","0","0","116","116","116","116","Fri Aug 27 11:57:34 2021","600","The main experiment item","yes","Flankertask.osexp","/Users/mihailcodreanu/Desktop","no","mono","no","18","no","white","no","yes","768","legacy","36","79","/Users/mihailcodreanu/Desktop/mc-subject-0.csv","legacy","Lentiform Loewenfeld","3.3.9","0","s","NA","s","s","NA","s","291","NA","23774","17257","NA","291","2","legacy","1024","2","48000","-16","experiment","HHSHH","0","even","245268","27826","182974","NA","234412","4031","241612","NA","246321","4039","165716","NA","246425","246718","246317","246425","Flanker task ","108","59910","117","yes","1024"
"92.37288135593221","92.37288135593221","511.52542372881356","511.52542372881356","black","legacy","legacy","legacy","0","incongruent","uniform","1","undefined","1","h","117","0","0","0","117","0","117","0","117","0","0","0","117","117","117","117","Fri Aug 27 11:57:34 2021","600","The main experiment item","yes","Flankertask.osexp","/Users/mihailcodreanu/Desktop","no","mono","no","18","no","white","no","yes","768","legacy","37","79","/Users/mihailcodreanu/Desktop/mc-subject-0.csv","legacy","Lentiform Loewenfeld","3.3.9","0","h","NA","s","s","NA","h","450","NA","23774","17257","NA","450","2","legacy","1024","2","48000","-16","experiment","SSHSS","0","even","246724","27826","182974","NA","234412","4031","241612","NA","247778","4039","165716","NA","247883","248334","247774","247882","Flanker task ","109","60360","118","yes","1024"
"92.43697478991596","92.43697478991596","511.5042016806723","511.5042016806723","black","legacy","legacy","legacy","0","incongruent","uniform","1","undefined","1","h","118","0","0","0","118","0","118","0","118","0","0","0","118","118","118","118","Fri Aug 27 11:57:34 2021","600","The main experiment item","yes","Flankertask.osexp","/Users/mihailcodreanu/Desktop","no","mono","no","18","no","white","no","yes","768","legacy","38","79","/Users/mihailcodreanu/Desktop/mc-subject-0.csv","legacy","Lentiform Loewenfeld","3.3.9","0","h","NA","s","s","NA","h","509","NA","23774","17257","NA","509","2","legacy","1024","2","48000","-16","experiment","SSHSS","0","even","248340","27826","182974","NA","234412","4031","241612","NA","249392","4039","165716","NA","249496","250006","249389","249496","Flanker task ","110","60869","119","yes","1024"
"92.5","92.5","512.125","512.125","black","legacy","legacy","legacy","0","congruent","uniform","1","undefined","1","s","119","0","0","0","119","0","119","0","119","0","0","0","119","119","119","119","Fri Aug 27 11:57:34 2021","600","The main experiment item","yes","Flankertask.osexp","/Users/mihailcodreanu/Desktop","no","mono","no","18","no","white","no","yes","768","legacy","39","79","/Users/mihailcodreanu/Desktop/mc-subject-0.csv","legacy","Lentiform Loewenfeld","3.3.9","0","s","NA","s","s","NA","s","586","NA","23774","17257","NA","586","2","legacy","1024","2","48000","-16","experiment","SSSSS","0","even","250010","27826","182974","NA","234412","4031","241612","NA","251065","4039","165716","NA","251170","251758","251062","251170","Flanker task ","111","61455","120","yes","1024"
"92.56198347107438","92.56198347107438","511.10743801652893","511.10743801652893","black","legacy","legacy","legacy","0","congruent","uniform","1","undefined","1","h","120","0","0","0","120","0","120","0","120","0","0","0","120","120","120","120","Fri Aug 27 11:57:34 2021","600","The main experiment item","yes","Flankertask.osexp","/Users/mihailcodreanu/Desktop","no","mono","no","18","no","white","no","yes","768","legacy","40","79","/Users/mihailcodreanu/Desktop/mc-subject-0.csv","legacy","Lentiform Loewenfeld","3.3.9","0","h","NA","s","s","NA","h","389","NA","23774","17257","NA","389","2","legacy","1024","2","48000","-16","experiment","HHHHH","0","even","251762","27826","182974","NA","234412","4031","241612","NA","252815","4039","165716","NA","252919","253310","252812","252919","Flanker task ","112","61844","121","yes","1024"
