"acc","accuracy","average_response_time","avg_rt","background","canvas_backend","clock_backend","color_backend","compensation","condition","coordinates","correct","correct_instructions1","correct_response","correct_skeyboard_response","count_ISI","count_block1","count_block2","count_block3","count_errorFedback","count_experiment","count_faster","count_finish","count_fixation","count_instructions1","count_instructions2","count_instructions3","count_logger","count_sequence","count_skeyboard_response","count_stimulus","datetime","deadline","description","disable_garbage_collection","experiment_file","experiment_path","font_bold","font_family","font_italic","font_size","font_underline","foreground","form_clicks","fullscreen","height","keyboard_backend","live_row","live_row_block1","logfile","mouse_backend","opensesame_codename","opensesame_version","repeat_cycle","response","response_finish","response_instructions1","response_instructions2","response_instructions3","response_skeyboard_response","response_time","response_time_finish","response_time_instructions1","response_time_instructions2","response_time_instructions3","response_time_skeyboard_response","round_decimals","sampler_backend","sound_buf_size","sound_channels","sound_freq","sound_sample_size","start","stimulus","subject_nr","subject_parity","time_ISI","time_block1","time_block2","time_block3","time_errorFedback","time_experiment","time_faster","time_finish","time_fixation","time_instructions1","time_instructions2","time_instructions3","time_logger","time_sequence","time_skeyboard_response","time_stimulus","title","total_correct","total_response_time","total_responses","uniform_coordinates","width"
"100","100","1417","1417","black","legacy","legacy","legacy","0","incongruent","uniform","1","undefined","h","1","0","0","0","0","0","0","0","NA","0","0","0","0","0","0","0","0","Sun Sep 19 22:10:39 2021","1500","The main experiment item","yes","FlankerTaskHW.osexp","C:/Users/19565/Desktop","no","mono","no","18","no","white","no","yes","768","legacy","0","0","C:/Users/19565/Desktop/MR-subject-1.csv","legacy","Lentiform Loewenfeld","3.3.9","0","h","NA","s","NA","NA","h","1417","NA","1489","NA","NA","1417","2","legacy","1024","2","48000","-16","experiment","SSHSS","3","odd","NA","4828","NA","NA","NA","3332","NA","NA","4952","3339","NA","NA","6474","4948","5056","5056","Flanker Task HW","1","1417","1","yes","1024"
"100","100","1147.5","1147.5","black","legacy","legacy","legacy","0","incongruent","uniform","1","undefined","h","1","1","0","0","0","1","0","1","NA","1","0","0","0","1","1","1","1","Sun Sep 19 22:10:39 2021","1500","The main experiment item","yes","FlankerTaskHW.osexp","C:/Users/19565/Desktop","no","mono","no","18","no","white","no","yes","768","legacy","1","1","C:/Users/19565/Desktop/MR-subject-1.csv","legacy","Lentiform Loewenfeld","3.3.9","0","h","NA","s","NA","NA","h","878","NA","1489","NA","NA","878","2","legacy","1024","2","48000","-16","experiment","SSHSS","3","odd","6488","4828","NA","NA","NA","3332","NA","NA","7654","3339","NA","NA","8637","7651","7758","7758","Flanker Task HW","2","2295","2","yes","1024"
"100","100","958.3333333333334","958.3333333333334","black","legacy","legacy","legacy","0","incongruent","uniform","1","undefined","h","1","2","0","0","0","2","0","2","NA","2","0","0","0","2","2","2","2","Sun Sep 19 22:10:39 2021","1500","The main experiment item","yes","FlankerTaskHW.osexp","C:/Users/19565/Desktop","no","mono","no","18","no","white","no","yes","768","legacy","2","2","C:/Users/19565/Desktop/MR-subject-1.csv","legacy","Lentiform Loewenfeld","3.3.9","0","h","NA","s","NA","NA","h","580","NA","1489","NA","NA","580","2","legacy","1024","2","48000","-16","experiment","SSHSS","3","odd","8645","4828","NA","NA","NA","3332","NA","NA","9805","3339","NA","NA","10490","9803","9909","9909","Flanker Task HW","3","2875","3","yes","1024"
"100","100","850.25","850.25","black","legacy","legacy","legacy","0","incongruent","uniform","1","undefined","h","1","3","0","0","0","3","0","3","NA","3","0","0","0","3","3","3","3","Sun Sep 19 22:10:39 2021","1500","The main experiment item","yes","FlankerTaskHW.osexp","C:/Users/19565/Desktop","no","mono","no","18","no","white","no","yes","768","legacy","3","3","C:/Users/19565/Desktop/MR-subject-1.csv","legacy","Lentiform Loewenfeld","3.3.9","0","h","NA","s","NA","NA","h","526","NA","1489","NA","NA","526","2","legacy","1024","2","48000","-16","experiment","SSHSS","3","odd","10498","4828","NA","NA","NA","3332","NA","NA","11669","3339","NA","NA","12299","11666","11773","11772","Flanker Task HW","4","3401","4","yes","1024"
"100","100","793.2","793.2","black","legacy","legacy","legacy","0","congruent","uniform","1","undefined","s","1","4","0","0","0","4","0","4","NA","4","0","0","0","4","4","4","4","Sun Sep 19 22:10:39 2021","1500","The main experiment item","yes","FlankerTaskHW.osexp","C:/Users/19565/Desktop","no","mono","no","18","no","white","no","yes","768","legacy","4","4","C:/Users/19565/Desktop/MR-subject-1.csv","legacy","Lentiform Loewenfeld","3.3.9","0","s","NA","s","NA","NA","s","565","NA","1489","NA","NA","565","2","legacy","1024","2","48000","-16","experiment","SSSSS","3","odd","12305","4828","NA","NA","NA","3332","NA","NA","13458","3339","NA","NA","14128","13455","13562","13562","Flanker Task HW","5","3966","5","yes","1024"
"100","100","760.8333333333334","760.8333333333334","black","legacy","legacy","legacy","0","incongruent","uniform","1","undefined","s","1","5","0","0","0","5","0","5","NA","5","0","0","0","5","5","5","5","Sun Sep 19 22:10:39 2021","1500","The main experiment item","yes","FlankerTaskHW.osexp","C:/Users/19565/Desktop","no","mono","no","18","no","white","no","yes","768","legacy","5","5","C:/Users/19565/Desktop/MR-subject-1.csv","legacy","Lentiform Loewenfeld","3.3.9","0","s","NA","s","NA","NA","s","599","NA","1489","NA","NA","599","2","legacy","1024","2","48000","-16","experiment","HHSHH","3","odd","14138","4828","NA","NA","NA","3332","NA","NA","15274","3339","NA","NA","15978","15271","15378","15378","Flanker Task HW","6","4565","6","yes","1024"
"100","100","729.4285714285714","729.4285714285714","black","legacy","legacy","legacy","0","congruent","uniform","1","undefined","s","1","6","0","0","0","6","0","6","NA","6","0","0","0","6","6","6","6","Sun Sep 19 22:10:39 2021","1500","The main experiment item","yes","FlankerTaskHW.osexp","C:/Users/19565/Desktop","no","mono","no","18","no","white","no","yes","768","legacy","6","6","C:/Users/19565/Desktop/MR-subject-1.csv","legacy","Lentiform Loewenfeld","3.3.9","0","s","NA","s","NA","NA","s","541","NA","1489","NA","NA","541","2","legacy","1024","2","48000","-16","experiment","SSSSS","3","odd","15987","4828","NA","NA","NA","3332","NA","NA","17206","3339","NA","NA","17852","17201","17310","17310","Flanker Task HW","7","5106","7","yes","1024"
"100","100","704.625","704.625","black","legacy","legacy","legacy","0","incongruent","uniform","1","undefined","s","1","7","0","0","0","7","0","7","NA","7","0","0","0","7","7","7","7","Sun Sep 19 22:10:39 2021","1500","The main experiment item","yes","FlankerTaskHW.osexp","C:/Users/19565/Desktop","no","mono","no","18","no","white","no","yes","768","legacy","7","7","C:/Users/19565/Desktop/MR-subject-1.csv","legacy","Lentiform Loewenfeld","3.3.9","0","s","NA","s","NA","NA","s","531","NA","1489","NA","NA","531","2","legacy","1024","2","48000","-16","experiment","HHSHH","3","odd","17862","4828","NA","NA","NA","3332","NA","NA","19036","3339","NA","NA","19672","19033","19140","19140","Flanker Task HW","8","5637","8","yes","1024"
"100","100","690.6666666666666","690.6666666666666","black","legacy","legacy","legacy","0","congruent","uniform","1","undefined","s","1","8","0","0","0","8","0","8","NA","8","0","0","0","8","8","8","8","Sun Sep 19 22:10:39 2021","1500","The main experiment item","yes","FlankerTaskHW.osexp","C:/Users/19565/Desktop","no","mono","no","18","no","white","no","yes","768","legacy","8","8","C:/Users/19565/Desktop/MR-subject-1.csv","legacy","Lentiform Loewenfeld","3.3.9","0","s","NA","s","NA","NA","s","579","NA","1489","NA","NA","579","2","legacy","1024","2","48000","-16","experiment","SSSSS","3","odd","19681","4828","NA","NA","NA","3332","NA","NA","20863","3339","NA","NA","21547","20860","20967","20967","Flanker Task HW","9","6216","9","yes","1024"
"100","100","670.8","670.8","black","legacy","legacy","legacy","0","incongruent","uniform","1","undefined","s","1","9","0","0","0","9","0","9","NA","9","0","0","0","9","9","9","9","Sun Sep 19 22:10:39 2021","1500","The main experiment item","yes","FlankerTaskHW.osexp","C:/Users/19565/Desktop","no","mono","no","18","no","white","no","yes","768","legacy","9","9","C:/Users/19565/Desktop/MR-subject-1.csv","legacy","Lentiform Loewenfeld","3.3.9","0","s","NA","s","NA","NA","s","492","NA","1489","NA","NA","492","2","legacy","1024","2","48000","-16","experiment","HHSHH","3","odd","21556","4828","NA","NA","NA","3332","NA","NA","22750","3339","NA","NA","23347","22746","22854","22854","Flanker Task HW","10","6708","10","yes","1024"
"100","100","660.1818181818181","660.1818181818181","black","legacy","legacy","legacy","0","congruent","uniform","1","undefined","h","1","10","0","0","0","10","0","10","NA","10","0","0","0","10","10","10","10","Sun Sep 19 22:10:39 2021","1500","The main experiment item","yes","FlankerTaskHW.osexp","C:/Users/19565/Desktop","no","mono","no","18","no","white","no","yes","768","legacy","10","10","C:/Users/19565/Desktop/MR-subject-1.csv","legacy","Lentiform Loewenfeld","3.3.9","0","h","NA","s","NA","NA","h","554","NA","1489","NA","NA","554","2","legacy","1024","2","48000","-16","experiment","HHHHH","3","odd","23357","4828","NA","NA","NA","3332","NA","NA","24545","3339","NA","NA","25203","24543","24648","24648","Flanker Task HW","11","7262","11","yes","1024"
"100","100","648.75","648.75","black","legacy","legacy","legacy","0","congruent","uniform","1","undefined","s","1","11","0","0","0","11","0","11","NA","11","0","0","0","11","11","11","11","Sun Sep 19 22:10:39 2021","1500","The main experiment item","yes","FlankerTaskHW.osexp","C:/Users/19565/Desktop","no","mono","no","18","no","white","no","yes","768","legacy","11","11","C:/Users/19565/Desktop/MR-subject-1.csv","legacy","Lentiform Loewenfeld","3.3.9","0","s","NA","s","NA","NA","s","523","NA","1489","NA","NA","523","2","legacy","1024","2","48000","-16","experiment","SSSSS","3","odd","25210","4828","NA","NA","NA","3332","NA","NA","26420","3339","NA","NA","27049","26416","26524","26524","Flanker Task HW","12","7785","12","yes","1024"
"100","100","634.0769230769231","634.0769230769231","black","legacy","legacy","legacy","0","congruent","uniform","1","undefined","s","1","12","0","0","0","12","0","12","NA","12","0","0","0","12","12","12","12","Sun Sep 19 22:10:39 2021","1500","The main experiment item","yes","FlankerTaskHW.osexp","C:/Users/19565/Desktop","no","mono","no","18","no","white","no","yes","768","legacy","12","12","C:/Users/19565/Desktop/MR-subject-1.csv","legacy","Lentiform Loewenfeld","3.3.9","0","s","NA","s","NA","NA","s","458","NA","1489","NA","NA","458","2","legacy","1024","2","48000","-16","experiment","SSSSS","3","odd","27058","4828","NA","NA","NA","3332","NA","NA","28266","3339","NA","NA","28829","28260","28370","28370","Flanker Task HW","13","8243","13","yes","1024"
"100","100","631.3571428571429","631.3571428571429","black","legacy","legacy","legacy","0","incongruent","uniform","1","undefined","h","1","13","0","0","0","13","0","13","NA","13","0","0","0","13","13","13","13","Sun Sep 19 22:10:39 2021","1500","The main experiment item","yes","FlankerTaskHW.osexp","C:/Users/19565/Desktop","no","mono","no","18","no","white","no","yes","768","legacy","13","13","C:/Users/19565/Desktop/MR-subject-1.csv","legacy","Lentiform Loewenfeld","3.3.9","0","h","NA","s","NA","NA","h","596","NA","1489","NA","NA","596","2","legacy","1024","2","48000","-16","experiment","SSHSS","3","odd","28838","4828","NA","NA","NA","3332","NA","NA","29975","3339","NA","NA","30676","29972","30079","30079","Flanker Task HW","14","8839","14","yes","1024"
"100","100","626.9333333333333","626.9333333333333","black","legacy","legacy","legacy","0","incongruent","uniform","1","undefined","h","1","14","0","0","0","14","0","14","NA","14","0","0","0","14","14","14","14","Sun Sep 19 22:10:39 2021","1500","The main experiment item","yes","FlankerTaskHW.osexp","C:/Users/19565/Desktop","no","mono","no","18","no","white","no","yes","768","legacy","14","14","C:/Users/19565/Desktop/MR-subject-1.csv","legacy","Lentiform Loewenfeld","3.3.9","0","h","NA","s","NA","NA","h","565","NA","1489","NA","NA","565","2","legacy","1024","2","48000","-16","experiment","SSHSS","3","odd","30683","4828","NA","NA","NA","3332","NA","NA","31848","3339","NA","NA","32520","31845","31953","31953","Flanker Task HW","15","9404","15","yes","1024"
"100","100","622.625","622.625","black","legacy","legacy","legacy","0","incongruent","uniform","1","undefined","h","1","15","0","0","0","15","0","15","NA","15","0","0","0","15","15","15","15","Sun Sep 19 22:10:39 2021","1500","The main experiment item","yes","FlankerTaskHW.osexp","C:/Users/19565/Desktop","no","mono","no","18","no","white","no","yes","768","legacy","15","15","C:/Users/19565/Desktop/MR-subject-1.csv","legacy","Lentiform Loewenfeld","3.3.9","0","h","NA","s","NA","NA","h","558","NA","1489","NA","NA","558","2","legacy","1024","2","48000","-16","experiment","SSHSS","3","odd","32534","4828","NA","NA","NA","3332","NA","NA","33715","3339","NA","NA","34379","33712","33820","33820","Flanker Task HW","16","9962","16","yes","1024"
"100","100","620.8823529411765","620.8823529411765","black","legacy","legacy","legacy","0","congruent","uniform","1","undefined","s","1","16","0","0","0","16","0","16","NA","16","0","0","0","16","16","16","16","Sun Sep 19 22:10:39 2021","1500","The main experiment item","yes","FlankerTaskHW.osexp","C:/Users/19565/Desktop","no","mono","no","18","no","white","no","yes","768","legacy","16","16","C:/Users/19565/Desktop/MR-subject-1.csv","legacy","Lentiform Loewenfeld","3.3.9","0","s","NA","s","NA","NA","s","593","NA","1489","NA","NA","593","2","legacy","1024","2","48000","-16","experiment","SSSSS","3","odd","34388","4828","NA","NA","NA","3332","NA","NA","35550","3339","NA","NA","36248","35547","35654","35654","Flanker Task HW","17","10555","17","yes","1024"
"100","100","615.2222222222222","615.2222222222222","black","legacy","legacy","legacy","0","incongruent","uniform","1","undefined","s","1","17","0","0","0","17","0","17","NA","17","0","0","0","17","17","17","17","Sun Sep 19 22:10:39 2021","1500","The main experiment item","yes","FlankerTaskHW.osexp","C:/Users/19565/Desktop","no","mono","no","18","no","white","no","yes","768","legacy","17","17","C:/Users/19565/Desktop/MR-subject-1.csv","legacy","Lentiform Loewenfeld","3.3.9","0","s","NA","s","NA","NA","s","519","NA","1489","NA","NA","519","2","legacy","1024","2","48000","-16","experiment","HHSHH","3","odd","36256","4828","NA","NA","NA","3332","NA","NA","37433","3339","NA","NA","38058","37430","37538","37538","Flanker Task HW","18","11074","18","yes","1024"
"100","100","623.2631578947369","623.2631578947369","black","legacy","legacy","legacy","0","congruent","uniform","1","undefined","s","1","18","0","0","0","18","0","18","NA","18","0","0","0","18","18","18","18","Sun Sep 19 22:10:39 2021","1500","The main experiment item","yes","FlankerTaskHW.osexp","C:/Users/19565/Desktop","no","mono","no","18","no","white","no","yes","768","legacy","18","18","C:/Users/19565/Desktop/MR-subject-1.csv","legacy","Lentiform Loewenfeld","3.3.9","0","s","NA","s","NA","NA","s","768","NA","1489","NA","NA","768","2","legacy","1024","2","48000","-16","experiment","SSSSS","3","odd","38068","4828","NA","NA","NA","3332","NA","NA","39183","3339","NA","NA","40056","39180","39287","39287","Flanker Task HW","19","11842","19","yes","1024"
"100","100","620.55","620.55","black","legacy","legacy","legacy","0","incongruent","uniform","1","undefined","s","1","19","0","0","0","19","0","19","NA","19","0","0","0","19","19","19","19","Sun Sep 19 22:10:39 2021","1500","The main experiment item","yes","FlankerTaskHW.osexp","C:/Users/19565/Desktop","no","mono","no","18","no","white","no","yes","768","legacy","19","19","C:/Users/19565/Desktop/MR-subject-1.csv","legacy","Lentiform Loewenfeld","3.3.9","0","s","NA","s","NA","NA","s","569","NA","1489","NA","NA","569","2","legacy","1024","2","48000","-16","experiment","HHSHH","3","odd","40061","4828","NA","NA","NA","3332","NA","NA","41239","3339","NA","NA","41914","41236","41343","41343","Flanker Task HW","20","12411","20","yes","1024"
"100","100","622.7619047619048","622.7619047619048","black","legacy","legacy","legacy","0","congruent","uniform","1","undefined","h","1","20","0","0","0","20","0","20","NA","20","0","0","0","20","20","20","20","Sun Sep 19 22:10:39 2021","1500","The main experiment item","yes","FlankerTaskHW.osexp","C:/Users/19565/Desktop","no","mono","no","18","no","white","no","yes","768","legacy","20","20","C:/Users/19565/Desktop/MR-subject-1.csv","legacy","Lentiform Loewenfeld","3.3.9","0","h","NA","s","NA","NA","h","667","NA","1489","NA","NA","667","2","legacy","1024","2","48000","-16","experiment","HHHHH","3","odd","41922","4828","NA","NA","NA","3332","NA","NA","43077","3339","NA","NA","43850","43074","43182","43181","Flanker Task HW","21","13078","21","yes","1024"
"100","100","619.8181818181819","619.8181818181819","black","legacy","legacy","legacy","0","incongruent","uniform","1","undefined","h","1","21","0","0","0","21","0","21","NA","21","0","0","0","21","21","21","21","Sun Sep 19 22:10:39 2021","1500","The main experiment item","yes","FlankerTaskHW.osexp","C:/Users/19565/Desktop","no","mono","no","18","no","white","no","yes","768","legacy","21","21","C:/Users/19565/Desktop/MR-subject-1.csv","legacy","Lentiform Loewenfeld","3.3.9","0","h","NA","s","NA","NA","h","558","NA","1489","NA","NA","558","2","legacy","1024","2","48000","-16","experiment","SSHSS","3","odd","43856","4828","NA","NA","NA","3332","NA","NA","45032","3339","NA","NA","45697","45029","45138","45137","Flanker Task HW","22","13636","22","yes","1024"
"100","100","622.3478260869565","622.3478260869565","black","legacy","legacy","legacy","0","congruent","uniform","1","undefined","h","1","22","0","0","0","22","0","22","NA","22","0","0","0","22","22","22","22","Sun Sep 19 22:10:39 2021","1500","The main experiment item","yes","FlankerTaskHW.osexp","C:/Users/19565/Desktop","no","mono","no","18","no","white","no","yes","768","legacy","22","22","C:/Users/19565/Desktop/MR-subject-1.csv","legacy","Lentiform Loewenfeld","3.3.9","0","h","NA","s","NA","NA","h","678","NA","1489","NA","NA","678","2","legacy","1024","2","48000","-16","experiment","HHHHH","3","odd","45707","4828","NA","NA","NA","3332","NA","NA","46906","3339","NA","NA","47689","46903","47011","47010","Flanker Task HW","23","14314","23","yes","1024"
"100","100","619.75","619.75","black","legacy","legacy","legacy","0","congruent","uniform","1","undefined","h","1","23","0","0","0","23","0","23","NA","23","0","0","0","23","23","23","23","Sun Sep 19 22:10:39 2021","1500","The main experiment item","yes","FlankerTaskHW.osexp","C:/Users/19565/Desktop","no","mono","no","18","no","white","no","yes","768","legacy","23","23","C:/Users/19565/Desktop/MR-subject-1.csv","legacy","Lentiform Loewenfeld","3.3.9","0","h","NA","s","NA","NA","h","560","NA","1489","NA","NA","560","2","legacy","1024","2","48000","-16","experiment","HHHHH","3","odd","47696","4828","NA","NA","NA","3332","NA","NA","48871","3339","NA","NA","49537","48868","48976","48976","Flanker Task HW","24","14874","24","yes","1024"
"100","100","624.32","624.32","black","legacy","legacy","legacy","0","congruent","uniform","1","undefined","s","1","24","0","0","0","24","0","24","NA","24","0","0","0","24","24","24","24","Sun Sep 19 22:10:39 2021","1500","The main experiment item","yes","FlankerTaskHW.osexp","C:/Users/19565/Desktop","no","mono","no","18","no","white","no","yes","768","legacy","24","24","C:/Users/19565/Desktop/MR-subject-1.csv","legacy","Lentiform Loewenfeld","3.3.9","0","s","NA","s","NA","NA","s","734","NA","1489","NA","NA","734","2","legacy","1024","2","48000","-16","experiment","SSSSS","3","odd","49544","4828","NA","NA","NA","3332","NA","NA","50680","3339","NA","NA","51522","50678","50787","50786","Flanker Task HW","25","15608","25","yes","1024"
"100","100","619.6538461538462","619.6538461538462","black","legacy","legacy","legacy","0","incongruent","uniform","1","undefined","s","1","25","0","0","0","25","0","25","NA","25","0","0","0","25","25","25","25","Sun Sep 19 22:10:39 2021","1500","The main experiment item","yes","FlankerTaskHW.osexp","C:/Users/19565/Desktop","no","mono","no","18","no","white","no","yes","768","legacy","25","25","C:/Users/19565/Desktop/MR-subject-1.csv","legacy","Lentiform Loewenfeld","3.3.9","0","s","NA","s","NA","NA","s","503","NA","1489","NA","NA","503","2","legacy","1024","2","48000","-16","experiment","HHSHH","3","odd","51531","4828","NA","NA","NA","3332","NA","NA","52659","3339","NA","NA","53268","52656","52764","52763","Flanker Task HW","26","16111","26","yes","1024"
"100","100","615.0370370370371","615.0370370370371","black","legacy","legacy","legacy","0","congruent","uniform","1","undefined","h","1","26","0","0","0","26","0","26","NA","26","0","0","0","26","26","26","26","Sun Sep 19 22:10:39 2021","1500","The main experiment item","yes","FlankerTaskHW.osexp","C:/Users/19565/Desktop","no","mono","no","18","no","white","no","yes","768","legacy","26","26","C:/Users/19565/Desktop/MR-subject-1.csv","legacy","Lentiform Loewenfeld","3.3.9","0","h","NA","s","NA","NA","h","495","NA","1489","NA","NA","495","2","legacy","1024","2","48000","-16","experiment","HHHHH","3","odd","53279","4828","NA","NA","NA","3332","NA","NA","54480","3339","NA","NA","55081","54477","54585","54584","Flanker Task HW","27","16606","27","yes","1024"
"100","100","609.8571428571429","609.8571428571429","black","legacy","legacy","legacy","0","congruent","uniform","1","undefined","h","1","27","0","0","0","27","0","27","NA","27","0","0","0","27","27","27","27","Sun Sep 19 22:10:39 2021","1500","The main experiment item","yes","FlankerTaskHW.osexp","C:/Users/19565/Desktop","no","mono","no","18","no","white","no","yes","768","legacy","27","27","C:/Users/19565/Desktop/MR-subject-1.csv","legacy","Lentiform Loewenfeld","3.3.9","0","h","NA","s","NA","NA","h","470","NA","1489","NA","NA","470","2","legacy","1024","2","48000","-16","experiment","HHHHH","3","odd","55090","4828","NA","NA","NA","3332","NA","NA","56272","3339","NA","NA","56846","56269","56375","56375","Flanker Task HW","28","17076","28","yes","1024"
"100","100","606.1724137931035","606.1724137931035","black","legacy","legacy","legacy","0","congruent","uniform","1","undefined","h","1","28","0","0","0","28","0","28","NA","28","0","0","0","28","28","28","28","Sun Sep 19 22:10:39 2021","1500","The main experiment item","yes","FlankerTaskHW.osexp","C:/Users/19565/Desktop","no","mono","no","18","no","white","no","yes","768","legacy","28","28","C:/Users/19565/Desktop/MR-subject-1.csv","legacy","Lentiform Loewenfeld","3.3.9","0","h","NA","s","NA","NA","h","503","NA","1489","NA","NA","503","2","legacy","1024","2","48000","-16","experiment","HHHHH","3","odd","56854","4828","NA","NA","NA","3332","NA","NA","57997","3339","NA","NA","58606","57995","58102","58102","Flanker Task HW","29","17579","29","yes","1024"
"100","100","609","609","black","legacy","legacy","legacy","0","incongruent","uniform","1","undefined","h","1","29","0","0","0","29","0","29","NA","29","0","0","0","29","29","29","29","Sun Sep 19 22:10:39 2021","1500","The main experiment item","yes","FlankerTaskHW.osexp","C:/Users/19565/Desktop","no","mono","no","18","no","white","no","yes","768","legacy","29","29","C:/Users/19565/Desktop/MR-subject-1.csv","legacy","Lentiform Loewenfeld","3.3.9","0","h","NA","s","NA","NA","h","691","NA","1489","NA","NA","691","2","legacy","1024","2","48000","-16","experiment","SSHSS","3","odd","58612","4828","NA","NA","NA","3332","NA","NA","59745","3339","NA","NA","60540","59743","59849","59849","Flanker Task HW","30","18270","30","yes","1024"
"100","100","605.2903225806451","605.2903225806451","black","legacy","legacy","legacy","0","congruent","uniform","1","undefined","h","1","30","0","0","0","30","0","30","NA","30","0","0","0","30","30","30","30","Sun Sep 19 22:10:39 2021","1500","The main experiment item","yes","FlankerTaskHW.osexp","C:/Users/19565/Desktop","no","mono","no","18","no","white","no","yes","768","legacy","30","30","C:/Users/19565/Desktop/MR-subject-1.csv","legacy","Lentiform Loewenfeld","3.3.9","0","h","NA","s","NA","NA","h","494","NA","1489","NA","NA","494","2","legacy","1024","2","48000","-16","experiment","HHHHH","3","odd","60547","4828","NA","NA","NA","3332","NA","NA","61707","3339","NA","NA","62308","61703","61812","61811","Flanker Task HW","31","18764","31","yes","1024"
"100","100","604.1875","604.1875","black","legacy","legacy","legacy","0","congruent","uniform","1","undefined","s","1","31","0","0","0","31","0","31","NA","31","0","0","0","31","31","31","31","Sun Sep 19 22:10:39 2021","1500","The main experiment item","yes","FlankerTaskHW.osexp","C:/Users/19565/Desktop","no","mono","no","18","no","white","no","yes","768","legacy","31","31","C:/Users/19565/Desktop/MR-subject-1.csv","legacy","Lentiform Loewenfeld","3.3.9","0","s","NA","s","NA","NA","s","570","NA","1489","NA","NA","570","2","legacy","1024","2","48000","-16","experiment","SSSSS","3","odd","62318","4828","NA","NA","NA","3332","NA","NA","63473","3339","NA","NA","64150","63470","63578","63578","Flanker Task HW","32","19334","32","yes","1024"
"100","100","597.4545454545455","597.4545454545455","black","legacy","legacy","legacy","0","congruent","uniform","1","undefined","s","1","32","0","0","0","32","0","32","NA","32","0","0","0","32","32","32","32","Sun Sep 19 22:10:39 2021","1500","The main experiment item","yes","FlankerTaskHW.osexp","C:/Users/19565/Desktop","no","mono","no","18","no","white","no","yes","768","legacy","32","32","C:/Users/19565/Desktop/MR-subject-1.csv","legacy","Lentiform Loewenfeld","3.3.9","0","s","NA","s","NA","NA","s","382","NA","1489","NA","NA","382","2","legacy","1024","2","48000","-16","experiment","SSSSS","3","odd","64159","4828","NA","NA","NA","3332","NA","NA","65348","3339","NA","NA","65835","65345","65452","65452","Flanker Task HW","33","19716","33","yes","1024"
"100","100","591.0294117647059","591.0294117647059","black","legacy","legacy","legacy","0","congruent","uniform","1","undefined","s","1","33","0","0","0","33","0","33","NA","33","0","0","0","33","33","33","33","Sun Sep 19 22:10:39 2021","1500","The main experiment item","yes","FlankerTaskHW.osexp","C:/Users/19565/Desktop","no","mono","no","18","no","white","no","yes","768","legacy","33","33","C:/Users/19565/Desktop/MR-subject-1.csv","legacy","Lentiform Loewenfeld","3.3.9","0","s","NA","s","NA","NA","s","379","NA","1489","NA","NA","379","2","legacy","1024","2","48000","-16","experiment","SSSSS","3","odd","65846","4828","NA","NA","NA","3332","NA","NA","66966","3339","NA","NA","67454","66963","67072","67072","Flanker Task HW","34","20095","34","yes","1024"
"100","100","588.8571428571429","588.8571428571429","black","legacy","legacy","legacy","0","incongruent","uniform","1","undefined","s","1","34","0","0","0","34","0","34","NA","34","0","0","0","34","34","34","34","Sun Sep 19 22:10:39 2021","1500","The main experiment item","yes","FlankerTaskHW.osexp","C:/Users/19565/Desktop","no","mono","no","18","no","white","no","yes","768","legacy","34","34","C:/Users/19565/Desktop/MR-subject-1.csv","legacy","Lentiform Loewenfeld","3.3.9","0","s","NA","s","NA","NA","s","515","NA","1489","NA","NA","515","2","legacy","1024","2","48000","-16","experiment","HHSHH","3","odd","67465","4828","NA","NA","NA","3332","NA","NA","68630","3339","NA","NA","69253","68628","68736","68735","Flanker Task HW","35","20610","35","yes","1024"
"100","100","585.5277777777778","585.5277777777778","black","legacy","legacy","legacy","0","incongruent","uniform","1","undefined","s","1","35","0","0","0","35","0","35","NA","35","0","0","0","35","35","35","35","Sun Sep 19 22:10:39 2021","1500","The main experiment item","yes","FlankerTaskHW.osexp","C:/Users/19565/Desktop","no","mono","no","18","no","white","no","yes","768","legacy","35","35","C:/Users/19565/Desktop/MR-subject-1.csv","legacy","Lentiform Loewenfeld","3.3.9","0","s","NA","s","NA","NA","s","469","NA","1489","NA","NA","469","2","legacy","1024","2","48000","-16","experiment","HHSHH","3","odd","69263","4828","NA","NA","NA","3332","NA","NA","70403","3339","NA","NA","70978","70400","70508","70508","Flanker Task HW","36","21079","36","yes","1024"
"100","100","580.8648648648649","580.8648648648649","black","legacy","legacy","legacy","0","congruent","uniform","1","undefined","s","1","36","0","0","0","36","0","36","NA","36","0","0","0","36","36","36","36","Sun Sep 19 22:10:39 2021","1500","The main experiment item","yes","FlankerTaskHW.osexp","C:/Users/19565/Desktop","no","mono","no","18","no","white","no","yes","768","legacy","36","36","C:/Users/19565/Desktop/MR-subject-1.csv","legacy","Lentiform Loewenfeld","3.3.9","0","s","NA","s","NA","NA","s","413","NA","1489","NA","NA","413","2","legacy","1024","2","48000","-16","experiment","SSSSS","3","odd","70988","4828","NA","NA","NA","3332","NA","NA","72188","3339","NA","NA","72708","72186","72293","72293","Flanker Task HW","37","21492","37","yes","1024"
"100","100","576.2894736842105","576.2894736842105","black","legacy","legacy","legacy","0","incongruent","uniform","1","undefined","s","1","37","0","0","0","37","0","37","NA","37","0","0","0","37","37","37","37","Sun Sep 19 22:10:39 2021","1500","The main experiment item","yes","FlankerTaskHW.osexp","C:/Users/19565/Desktop","no","mono","no","18","no","white","no","yes","768","legacy","37","37","C:/Users/19565/Desktop/MR-subject-1.csv","legacy","Lentiform Loewenfeld","3.3.9","0","s","NA","s","NA","NA","s","407","NA","1489","NA","NA","407","2","legacy","1024","2","48000","-16","experiment","HHSHH","3","odd","72718","4828","NA","NA","NA","3332","NA","NA","73930","3339","NA","NA","74443","73927","74035","74035","Flanker Task HW","38","21899","38","yes","1024"
"100","100","571.6666666666666","571.6666666666666","black","legacy","legacy","legacy","0","congruent","uniform","1","undefined","s","1","38","0","0","0","38","0","38","NA","38","0","0","0","38","38","38","38","Sun Sep 19 22:10:39 2021","1500","The main experiment item","yes","FlankerTaskHW.osexp","C:/Users/19565/Desktop","no","mono","no","18","no","white","no","yes","768","legacy","38","38","C:/Users/19565/Desktop/MR-subject-1.csv","legacy","Lentiform Loewenfeld","3.3.9","0","s","NA","s","NA","NA","s","396","NA","1489","NA","NA","396","2","legacy","1024","2","48000","-16","experiment","SSSSS","3","odd","74454","4828","NA","NA","NA","3332","NA","NA","75579","3339","NA","NA","76081","75576","75684","75684","Flanker Task HW","39","22295","39","yes","1024"
"100","100","574.5","574.5","black","legacy","legacy","legacy","0","incongruent","uniform","1","undefined","h","1","39","0","0","0","39","0","39","NA","39","0","0","0","39","39","39","39","Sun Sep 19 22:10:39 2021","1500","The main experiment item","yes","FlankerTaskHW.osexp","C:/Users/19565/Desktop","no","mono","no","18","no","white","no","yes","768","legacy","39","39","C:/Users/19565/Desktop/MR-subject-1.csv","legacy","Lentiform Loewenfeld","3.3.9","0","h","NA","s","NA","NA","h","685","NA","1489","NA","NA","685","2","legacy","1024","2","48000","-16","experiment","SSHSS","3","odd","76088","4828","NA","NA","NA","3332","NA","NA","77288","3339","NA","NA","78080","77285","77393","77393","Flanker Task HW","40","22980","40","yes","1024"
"100","100","573.0487804878048","573.0487804878048","black","legacy","legacy","legacy","0","incongruent","uniform","1","undefined","s","1","40","0","0","0","40","0","40","NA","40","0","0","0","40","40","40","40","Sun Sep 19 22:10:39 2021","1500","The main experiment item","yes","FlankerTaskHW.osexp","C:/Users/19565/Desktop","no","mono","no","18","no","white","no","yes","768","legacy","40","40","C:/Users/19565/Desktop/MR-subject-1.csv","legacy","Lentiform Loewenfeld","3.3.9","0","s","NA","s","NA","NA","s","515","NA","1489","NA","NA","515","2","legacy","1024","2","48000","-16","experiment","HHSHH","3","odd","78089","4828","NA","NA","NA","3332","NA","NA","79273","3339","NA","NA","79894","79269","79377","79377","Flanker Task HW","41","23495","41","yes","1024"
"100","100","571.8809523809524","571.8809523809524","black","legacy","legacy","legacy","0","incongruent","uniform","1","undefined","h","1","41","0","0","0","41","0","41","NA","41","0","0","0","41","41","41","41","Sun Sep 19 22:10:39 2021","1500","The main experiment item","yes","FlankerTaskHW.osexp","C:/Users/19565/Desktop","no","mono","no","18","no","white","no","yes","768","legacy","41","41","C:/Users/19565/Desktop/MR-subject-1.csv","legacy","Lentiform Loewenfeld","3.3.9","0","h","NA","s","NA","NA","h","524","NA","1489","NA","NA","524","2","legacy","1024","2","48000","-16","experiment","SSHSS","3","odd","79905","4828","NA","NA","NA","3332","NA","NA","81109","3339","NA","NA","81740","81106","81214","81214","Flanker Task HW","42","24019","42","yes","1024"
"100","100","577.2790697674419","577.2790697674419","black","legacy","legacy","legacy","0","congruent","uniform","1","undefined","h","1","42","0","0","0","42","0","42","NA","42","0","0","0","42","42","42","42","Sun Sep 19 22:10:39 2021","1500","The main experiment item","yes","FlankerTaskHW.osexp","C:/Users/19565/Desktop","no","mono","no","18","no","white","no","yes","768","legacy","42","42","C:/Users/19565/Desktop/MR-subject-1.csv","legacy","Lentiform Loewenfeld","3.3.9","0","h","NA","s","NA","NA","h","804","NA","1489","NA","NA","804","2","legacy","1024","2","48000","-16","experiment","HHHHH","3","odd","81752","4828","NA","NA","NA","3332","NA","NA","82927","3339","NA","NA","83838","82924","83032","83031","Flanker Task HW","43","24823","43","yes","1024"
"100","100","575.5","575.5","black","legacy","legacy","legacy","0","congruent","uniform","1","undefined","h","1","43","0","0","0","43","0","43","NA","43","0","0","0","43","43","43","43","Sun Sep 19 22:10:39 2021","1500","The main experiment item","yes","FlankerTaskHW.osexp","C:/Users/19565/Desktop","no","mono","no","18","no","white","no","yes","768","legacy","43","43","C:/Users/19565/Desktop/MR-subject-1.csv","legacy","Lentiform Loewenfeld","3.3.9","0","h","NA","s","NA","NA","h","499","NA","1489","NA","NA","499","2","legacy","1024","2","48000","-16","experiment","HHHHH","3","odd","83845","4828","NA","NA","NA","3332","NA","NA","85013","3339","NA","NA","85620","85010","85119","85118","Flanker Task HW","44","25322","44","yes","1024"
"100","100","572.6888888888889","572.6888888888889","black","legacy","legacy","legacy","0","incongruent","uniform","1","undefined","h","1","44","0","0","0","44","0","44","NA","44","0","0","0","44","44","44","44","Sun Sep 19 22:10:39 2021","1500","The main experiment item","yes","FlankerTaskHW.osexp","C:/Users/19565/Desktop","no","mono","no","18","no","white","no","yes","768","legacy","44","44","C:/Users/19565/Desktop/MR-subject-1.csv","legacy","Lentiform Loewenfeld","3.3.9","0","h","NA","s","NA","NA","h","449","NA","1489","NA","NA","449","2","legacy","1024","2","48000","-16","experiment","SSHSS","3","odd","85631","4828","NA","NA","NA","3332","NA","NA","86830","3339","NA","NA","87386","86827","86935","86935","Flanker Task HW","45","25771","45","yes","1024"
"100","100","574.2608695652174","574.2608695652174","black","legacy","legacy","legacy","0","congruent","uniform","1","undefined","s","1","45","0","0","0","45","0","45","NA","45","0","0","0","45","45","45","45","Sun Sep 19 22:10:39 2021","1500","The main experiment item","yes","FlankerTaskHW.osexp","C:/Users/19565/Desktop","no","mono","no","18","no","white","no","yes","768","legacy","45","45","C:/Users/19565/Desktop/MR-subject-1.csv","legacy","Lentiform Loewenfeld","3.3.9","0","s","NA","s","NA","NA","s","645","NA","1489","NA","NA","645","2","legacy","1024","2","48000","-16","experiment","SSSSS","3","odd","87396","4828","NA","NA","NA","3332","NA","NA","88548","3339","NA","NA","89300","88545","88653","88653","Flanker Task HW","46","26416","46","yes","1024"
"100","100","572.5106382978723","572.5106382978723","black","legacy","legacy","legacy","0","congruent","uniform","1","undefined","h","1","46","0","0","0","46","0","46","NA","46","0","0","0","46","46","46","46","Sun Sep 19 22:10:39 2021","1500","The main experiment item","yes","FlankerTaskHW.osexp","C:/Users/19565/Desktop","no","mono","no","18","no","white","no","yes","768","legacy","46","46","C:/Users/19565/Desktop/MR-subject-1.csv","legacy","Lentiform Loewenfeld","3.3.9","0","h","NA","s","NA","NA","h","492","NA","1489","NA","NA","492","2","legacy","1024","2","48000","-16","experiment","HHHHH","3","odd","89309","4828","NA","NA","NA","3332","NA","NA","90425","3339","NA","NA","91023","90422","90529","90529","Flanker Task HW","47","26908","47","yes","1024"
"100","100","571.625","571.625","black","legacy","legacy","legacy","0","incongruent","uniform","1","undefined","s","1","47","0","0","0","47","0","47","NA","47","0","0","0","47","47","47","47","Sun Sep 19 22:10:39 2021","1500","The main experiment item","yes","FlankerTaskHW.osexp","C:/Users/19565/Desktop","no","mono","no","18","no","white","no","yes","768","legacy","47","47","C:/Users/19565/Desktop/MR-subject-1.csv","legacy","Lentiform Loewenfeld","3.3.9","0","s","NA","s","NA","NA","s","530","NA","1489","NA","NA","530","2","legacy","1024","2","48000","-16","experiment","HHSHH","3","odd","91029","4828","NA","NA","NA","3332","NA","NA","92185","3339","NA","NA","92819","92180","92288","92288","Flanker Task HW","48","27438","48","yes","1024"
"100","100","572.0612244897959","572.0612244897959","black","legacy","legacy","legacy","0","incongruent","uniform","1","undefined","s","1","48","0","0","0","48","0","48","NA","48","0","0","0","48","48","48","48","Sun Sep 19 22:10:39 2021","1500","The main experiment item","yes","FlankerTaskHW.osexp","C:/Users/19565/Desktop","no","mono","no","18","no","white","no","yes","768","legacy","48","48","C:/Users/19565/Desktop/MR-subject-1.csv","legacy","Lentiform Loewenfeld","3.3.9","0","s","NA","s","NA","NA","s","593","NA","1489","NA","NA","593","2","legacy","1024","2","48000","-16","experiment","HHSHH","3","odd","92827","4828","NA","NA","NA","3332","NA","NA","93963","3339","NA","NA","94663","93961","94069","94069","Flanker Task HW","49","28031","49","yes","1024"
"100","100","570.56","570.56","black","legacy","legacy","legacy","0","incongruent","uniform","1","undefined","s","1","49","0","0","0","49","0","49","NA","49","0","0","0","49","49","49","49","Sun Sep 19 22:10:39 2021","1500","The main experiment item","yes","FlankerTaskHW.osexp","C:/Users/19565/Desktop","no","mono","no","18","no","white","no","yes","768","legacy","49","49","C:/Users/19565/Desktop/MR-subject-1.csv","legacy","Lentiform Loewenfeld","3.3.9","0","s","NA","s","NA","NA","s","497","NA","1489","NA","NA","497","2","legacy","1024","2","48000","-16","experiment","HHSHH","3","odd","94669","4828","NA","NA","NA","3332","NA","NA","95830","3339","NA","NA","96432","95826","95934","95933","Flanker Task HW","50","28528","50","yes","1024"
"100","100","570.5686274509804","570.5686274509804","black","legacy","legacy","legacy","0","congruent","uniform","1","undefined","s","1","50","0","0","0","50","0","50","NA","50","0","0","0","50","50","50","50","Sun Sep 19 22:10:39 2021","1500","The main experiment item","yes","FlankerTaskHW.osexp","C:/Users/19565/Desktop","no","mono","no","18","no","white","no","yes","768","legacy","50","50","C:/Users/19565/Desktop/MR-subject-1.csv","legacy","Lentiform Loewenfeld","3.3.9","0","s","NA","s","NA","NA","s","571","NA","1489","NA","NA","571","2","legacy","1024","2","48000","-16","experiment","SSSSS","3","odd","96442","4828","NA","NA","NA","3332","NA","NA","97605","3339","NA","NA","98281","97601","97709","97709","Flanker Task HW","51","29099","51","yes","1024"
"100","100","569.8846153846154","569.8846153846154","black","legacy","legacy","legacy","0","incongruent","uniform","1","undefined","s","1","51","0","0","0","51","0","51","NA","51","0","0","0","51","51","51","51","Sun Sep 19 22:10:39 2021","1500","The main experiment item","yes","FlankerTaskHW.osexp","C:/Users/19565/Desktop","no","mono","no","18","no","white","no","yes","768","legacy","51","51","C:/Users/19565/Desktop/MR-subject-1.csv","legacy","Lentiform Loewenfeld","3.3.9","0","s","NA","s","NA","NA","s","535","NA","1489","NA","NA","535","2","legacy","1024","2","48000","-16","experiment","HHSHH","3","odd","98288","4828","NA","NA","NA","3332","NA","NA","99451","3339","NA","NA","100092","99447","99556","99556","Flanker Task HW","52","29634","52","yes","1024"
"98.11320754716981","98.11320754716981","587.433962264151","587.433962264151","black","legacy","legacy","legacy","0","incongruent","uniform","0","undefined","h","0","52","0","0","0","52","0","52","NA","52","0","0","0","52","52","52","52","Sun Sep 19 22:10:39 2021","1500","The main experiment item","yes","FlankerTaskHW.osexp","C:/Users/19565/Desktop","no","mono","no","18","no","white","no","yes","768","legacy","52","52","C:/Users/19565/Desktop/MR-subject-1.csv","legacy","Lentiform Loewenfeld","3.3.9","0","None","NA","s","NA","NA","None","1500","NA","1489","NA","NA","1500","2","legacy","1024","2","48000","-16","experiment","SSHSS","3","odd","100100","4828","NA","NA","NA","3332","NA","NA","101293","3339","NA","NA","102897","101290","101397","101397","Flanker Task HW","52","31134","53","yes","1024"
"98.14814814814815","98.14814814814815","587.6481481481482","587.6481481481482","black","legacy","legacy","legacy","0","congruent","uniform","1","undefined","h","1","53","0","0","0","53","0","53","NA","53","0","0","0","53","53","53","53","Sun Sep 19 22:10:39 2021","1500","The main experiment item","yes","FlankerTaskHW.osexp","C:/Users/19565/Desktop","no","mono","no","18","no","white","no","yes","768","legacy","53","53","C:/Users/19565/Desktop/MR-subject-1.csv","legacy","Lentiform Loewenfeld","3.3.9","0","h","NA","s","NA","NA","h","599","NA","1489","NA","NA","599","2","legacy","1024","2","48000","-16","experiment","HHHHH","3","odd","103409","4828","NA","NA","102905","3332","NA","NA","104589","3339","NA","NA","105294","104584","104693","104693","Flanker Task HW","53","31733","54","yes","1024"
"98.18181818181819","98.18181818181819","588.9636363636364","588.9636363636364","black","legacy","legacy","legacy","0","incongruent","uniform","1","undefined","h","1","54","0","0","0","54","0","54","NA","54","0","0","0","54","54","54","54","Sun Sep 19 22:10:39 2021","1500","The main experiment item","yes","FlankerTaskHW.osexp","C:/Users/19565/Desktop","no","mono","no","18","no","white","no","yes","768","legacy","54","54","C:/Users/19565/Desktop/MR-subject-1.csv","legacy","Lentiform Loewenfeld","3.3.9","0","h","NA","s","NA","NA","h","660","NA","1489","NA","NA","660","2","legacy","1024","2","48000","-16","experiment","SSHSS","3","odd","105304","4828","NA","NA","102905","3332","NA","NA","106528","3339","NA","NA","107294","106523","106633","106633","Flanker Task HW","54","32393","55","yes","1024"
"98.21428571428571","98.21428571428571","588.8928571428571","588.8928571428571","black","legacy","legacy","legacy","0","incongruent","uniform","1","undefined","h","1","55","0","0","0","55","0","55","NA","55","0","0","0","55","55","55","55","Sun Sep 19 22:10:39 2021","1500","The main experiment item","yes","FlankerTaskHW.osexp","C:/Users/19565/Desktop","no","mono","no","18","no","white","no","yes","768","legacy","55","55","C:/Users/19565/Desktop/MR-subject-1.csv","legacy","Lentiform Loewenfeld","3.3.9","0","h","NA","s","NA","NA","h","585","NA","1489","NA","NA","585","2","legacy","1024","2","48000","-16","experiment","SSHSS","3","odd","107300","4828","NA","NA","102905","3332","NA","NA","108471","3339","NA","NA","109162","108466","108576","108576","Flanker Task HW","55","32978","56","yes","1024"
"98.24561403508773","98.24561403508773","587.719298245614","587.719298245614","black","legacy","legacy","legacy","0","congruent","uniform","1","undefined","h","1","56","0","0","0","56","0","56","NA","56","0","0","0","56","56","56","56","Sun Sep 19 22:10:39 2021","1500","The main experiment item","yes","FlankerTaskHW.osexp","C:/Users/19565/Desktop","no","mono","no","18","no","white","no","yes","768","legacy","56","56","C:/Users/19565/Desktop/MR-subject-1.csv","legacy","Lentiform Loewenfeld","3.3.9","0","h","NA","s","NA","NA","h","522","NA","1489","NA","NA","522","2","legacy","1024","2","48000","-16","experiment","HHHHH","3","odd","109168","4828","NA","NA","102905","3332","NA","NA","110330","3339","NA","NA","110957","110327","110434","110434","Flanker Task HW","56","33500","57","yes","1024"
"98.27586206896552","98.27586206896552","586.3965517241379","586.3965517241379","black","legacy","legacy","legacy","0","incongruent","uniform","1","undefined","h","1","57","0","0","0","57","0","57","NA","57","0","0","0","57","57","57","57","Sun Sep 19 22:10:39 2021","1500","The main experiment item","yes","FlankerTaskHW.osexp","C:/Users/19565/Desktop","no","mono","no","18","no","white","no","yes","768","legacy","57","57","C:/Users/19565/Desktop/MR-subject-1.csv","legacy","Lentiform Loewenfeld","3.3.9","0","h","NA","s","NA","NA","h","511","NA","1489","NA","NA","511","2","legacy","1024","2","48000","-16","experiment","SSHSS","3","odd","110963","4828","NA","NA","102905","3332","NA","NA","112079","3339","NA","NA","112697","112077","112184","112183","Flanker Task HW","57","34011","58","yes","1024"
"98.30508474576271","98.30508474576271","585.4237288135594","585.4237288135594","black","legacy","legacy","legacy","0","congruent","uniform","1","undefined","h","1","58","0","0","0","58","0","58","NA","58","0","0","0","58","58","58","58","Sun Sep 19 22:10:39 2021","1500","The main experiment item","yes","FlankerTaskHW.osexp","C:/Users/19565/Desktop","no","mono","no","18","no","white","no","yes","768","legacy","58","58","C:/Users/19565/Desktop/MR-subject-1.csv","legacy","Lentiform Loewenfeld","3.3.9","0","h","NA","s","NA","NA","h","529","NA","1489","NA","NA","529","2","legacy","1024","2","48000","-16","experiment","HHHHH","3","odd","112706","4828","NA","NA","102905","3332","NA","NA","113879","3339","NA","NA","114514","113876","113984","113983","Flanker Task HW","58","34540","59","yes","1024"
"98.33333333333333","98.33333333333333","584.1333333333333","584.1333333333333","black","legacy","legacy","legacy","0","congruent","uniform","1","undefined","h","1","59","0","0","0","59","0","59","NA","59","0","0","0","59","59","59","59","Sun Sep 19 22:10:39 2021","1500","The main experiment item","yes","FlankerTaskHW.osexp","C:/Users/19565/Desktop","no","mono","no","18","no","white","no","yes","768","legacy","59","59","C:/Users/19565/Desktop/MR-subject-1.csv","legacy","Lentiform Loewenfeld","3.3.9","0","h","NA","s","NA","NA","h","508","NA","1489","NA","NA","508","2","legacy","1024","2","48000","-16","experiment","HHHHH","3","odd","114523","4828","NA","NA","102905","3332","NA","NA","115670","3339","NA","NA","116284","115667","115774","115773","Flanker Task HW","59","35048","60","yes","1024"
"98.36065573770492","98.36065573770492","581.672131147541","581.672131147541","black","legacy","legacy","legacy","0","congruent","uniform","1","undefined","h","1","60","0","0","0","60","0","60","NA","60","0","0","0","60","60","60","60","Sun Sep 19 22:10:39 2021","1500","The main experiment item","yes","FlankerTaskHW.osexp","C:/Users/19565/Desktop","no","mono","no","18","no","white","no","yes","768","legacy","60","60","C:/Users/19565/Desktop/MR-subject-1.csv","legacy","Lentiform Loewenfeld","3.3.9","0","h","NA","s","NA","NA","h","434","NA","1489","NA","NA","434","2","legacy","1024","2","48000","-16","experiment","HHHHH","3","odd","116293","4828","NA","NA","102905","3332","NA","NA","117517","3339","NA","NA","118057","117511","117622","117621","Flanker Task HW","60","35482","61","yes","1024"
"98.38709677419355","98.38709677419355","586.2096774193549","586.2096774193549","black","legacy","legacy","legacy","0","congruent","uniform","1","undefined","s","1","61","0","0","0","61","0","61","NA","61","0","0","0","61","61","61","61","Sun Sep 19 22:10:39 2021","1500","The main experiment item","yes","FlankerTaskHW.osexp","C:/Users/19565/Desktop","no","mono","no","18","no","white","no","yes","768","legacy","61","61","C:/Users/19565/Desktop/MR-subject-1.csv","legacy","Lentiform Loewenfeld","3.3.9","0","s","NA","s","NA","NA","s","863","NA","1489","NA","NA","863","2","legacy","1024","2","48000","-16","experiment","SSSSS","3","odd","118064","4828","NA","NA","102905","3332","NA","NA","119214","3339","NA","NA","120185","119211","119319","119318","Flanker Task HW","61","36345","62","yes","1024"
"98.41269841269842","98.41269841269842","587.5079365079365","587.5079365079365","black","legacy","legacy","legacy","0","incongruent","uniform","1","undefined","s","1","62","0","0","0","62","0","62","NA","62","0","0","0","62","62","62","62","Sun Sep 19 22:10:39 2021","1500","The main experiment item","yes","FlankerTaskHW.osexp","C:/Users/19565/Desktop","no","mono","no","18","no","white","no","yes","768","legacy","62","62","C:/Users/19565/Desktop/MR-subject-1.csv","legacy","Lentiform Loewenfeld","3.3.9","0","s","NA","s","NA","NA","s","668","NA","1489","NA","NA","668","2","legacy","1024","2","48000","-16","experiment","HHSHH","3","odd","120193","4828","NA","NA","102905","3332","NA","NA","121366","3339","NA","NA","122140","121364","121470","121470","Flanker Task HW","62","37013","63","yes","1024"
"98.4375","98.4375","586.40625","586.40625","black","legacy","legacy","legacy","0","incongruent","uniform","1","undefined","s","1","63","0","0","0","63","0","63","NA","63","0","0","0","63","63","63","63","Sun Sep 19 22:10:39 2021","1500","The main experiment item","yes","FlankerTaskHW.osexp","C:/Users/19565/Desktop","no","mono","no","18","no","white","no","yes","768","legacy","63","63","C:/Users/19565/Desktop/MR-subject-1.csv","legacy","Lentiform Loewenfeld","3.3.9","0","s","NA","s","NA","NA","s","517","NA","1489","NA","NA","517","2","legacy","1024","2","48000","-16","experiment","HHSHH","3","odd","122148","4828","NA","NA","102905","3332","NA","NA","123290","3339","NA","NA","123914","123288","123395","123395","Flanker Task HW","63","37530","64","yes","1024"
"98.46153846153847","98.46153846153847","583.8923076923077","583.8923076923077","black","legacy","legacy","legacy","0","congruent","uniform","1","undefined","s","1","64","0","0","0","64","0","64","NA","64","0","0","0","64","64","64","64","Sun Sep 19 22:10:39 2021","1500","The main experiment item","yes","FlankerTaskHW.osexp","C:/Users/19565/Desktop","no","mono","no","18","no","white","no","yes","768","legacy","64","64","C:/Users/19565/Desktop/MR-subject-1.csv","legacy","Lentiform Loewenfeld","3.3.9","0","s","NA","s","NA","NA","s","423","NA","1489","NA","NA","423","2","legacy","1024","2","48000","-16","experiment","SSSSS","3","odd","123923","4828","NA","NA","102905","3332","NA","NA","125045","3339","NA","NA","125575","125042","125150","125149","Flanker Task HW","64","37953","65","yes","1024"
"98.48484848484848","98.48484848484848","583.6515151515151","583.6515151515151","black","legacy","legacy","legacy","0","congruent","uniform","1","undefined","h","1","65","0","0","0","65","0","65","NA","65","0","0","0","65","65","65","65","Sun Sep 19 22:10:39 2021","1500","The main experiment item","yes","FlankerTaskHW.osexp","C:/Users/19565/Desktop","no","mono","no","18","no","white","no","yes","768","legacy","65","65","C:/Users/19565/Desktop/MR-subject-1.csv","legacy","Lentiform Loewenfeld","3.3.9","0","h","NA","s","NA","NA","h","568","NA","1489","NA","NA","568","2","legacy","1024","2","48000","-16","experiment","HHHHH","3","odd","125585","4828","NA","NA","102905","3332","NA","NA","126740","3339","NA","NA","127414","126737","126845","126845","Flanker Task HW","65","38521","66","yes","1024"
"98.50746268656717","98.50746268656717","582.179104477612","582.179104477612","black","legacy","legacy","legacy","0","congruent","uniform","1","undefined","h","1","66","0","0","0","66","0","66","NA","66","0","0","0","66","66","66","66","Sun Sep 19 22:10:39 2021","1500","The main experiment item","yes","FlankerTaskHW.osexp","C:/Users/19565/Desktop","no","mono","no","18","no","white","no","yes","768","legacy","66","66","C:/Users/19565/Desktop/MR-subject-1.csv","legacy","Lentiform Loewenfeld","3.3.9","0","h","NA","s","NA","NA","h","485","NA","1489","NA","NA","485","2","legacy","1024","2","48000","-16","experiment","HHHHH","3","odd","127421","4828","NA","NA","102905","3332","NA","NA","128607","3339","NA","NA","129199","128604","128712","128712","Flanker Task HW","66","39006","67","yes","1024"
"98.52941176470588","98.52941176470588","581.1764705882352","581.1764705882352","black","legacy","legacy","legacy","0","congruent","uniform","1","undefined","s","1","67","0","0","0","67","0","67","NA","67","0","0","0","67","67","67","67","Sun Sep 19 22:10:39 2021","1500","The main experiment item","yes","FlankerTaskHW.osexp","C:/Users/19565/Desktop","no","mono","no","18","no","white","no","yes","768","legacy","67","67","C:/Users/19565/Desktop/MR-subject-1.csv","legacy","Lentiform Loewenfeld","3.3.9","0","s","NA","s","NA","NA","s","514","NA","1489","NA","NA","514","2","legacy","1024","2","48000","-16","experiment","SSSSS","3","odd","129209","4828","NA","NA","102905","3332","NA","NA","130365","3339","NA","NA","130986","130362","130470","130469","Flanker Task HW","67","39520","68","yes","1024"
"98.55072463768116","98.55072463768116","579.6376811594203","579.6376811594203","black","legacy","legacy","legacy","0","incongruent","uniform","1","undefined","s","1","68","0","0","0","68","0","68","NA","68","0","0","0","68","68","68","68","Sun Sep 19 22:10:39 2021","1500","The main experiment item","yes","FlankerTaskHW.osexp","C:/Users/19565/Desktop","no","mono","no","18","no","white","no","yes","768","legacy","68","68","C:/Users/19565/Desktop/MR-subject-1.csv","legacy","Lentiform Loewenfeld","3.3.9","0","s","NA","s","NA","NA","s","475","NA","1489","NA","NA","475","2","legacy","1024","2","48000","-16","experiment","HHSHH","3","odd","130996","4828","NA","NA","102905","3332","NA","NA","132144","3339","NA","NA","132726","132142","132248","132248","Flanker Task HW","68","39995","69","yes","1024"
"98.57142857142857","98.57142857142857","578.1428571428571","578.1428571428571","black","legacy","legacy","legacy","0","incongruent","uniform","1","undefined","s","1","69","0","0","0","69","0","69","NA","69","0","0","0","69","69","69","69","Sun Sep 19 22:10:39 2021","1500","The main experiment item","yes","FlankerTaskHW.osexp","C:/Users/19565/Desktop","no","mono","no","18","no","white","no","yes","768","legacy","69","69","C:/Users/19565/Desktop/MR-subject-1.csv","legacy","Lentiform Loewenfeld","3.3.9","0","s","NA","s","NA","NA","s","475","NA","1489","NA","NA","475","2","legacy","1024","2","48000","-16","experiment","HHSHH","3","odd","132735","4828","NA","NA","102905","3332","NA","NA","133940","3339","NA","NA","134524","133937","134046","134046","Flanker Task HW","69","40470","70","yes","1024"
"98.59154929577464","98.59154929577464","579.8028169014085","579.8028169014085","black","legacy","legacy","legacy","0","incongruent","uniform","1","undefined","h","1","70","0","0","0","70","0","70","NA","70","0","0","0","70","70","70","70","Sun Sep 19 22:10:39 2021","1500","The main experiment item","yes","FlankerTaskHW.osexp","C:/Users/19565/Desktop","no","mono","no","18","no","white","no","yes","768","legacy","70","70","C:/Users/19565/Desktop/MR-subject-1.csv","legacy","Lentiform Loewenfeld","3.3.9","0","h","NA","s","NA","NA","h","696","NA","1489","NA","NA","696","2","legacy","1024","2","48000","-16","experiment","SSHSS","3","odd","134533","4828","NA","NA","102905","3332","NA","NA","135675","3339","NA","NA","136477","135671","135779","135779","Flanker Task HW","70","41166","71","yes","1024"
"98.61111111111111","98.61111111111111","579.0694444444445","579.0694444444445","black","legacy","legacy","legacy","0","incongruent","uniform","1","undefined","h","1","71","0","0","0","71","0","71","NA","71","0","0","0","71","71","71","71","Sun Sep 19 22:10:39 2021","1500","The main experiment item","yes","FlankerTaskHW.osexp","C:/Users/19565/Desktop","no","mono","no","18","no","white","no","yes","768","legacy","71","71","C:/Users/19565/Desktop/MR-subject-1.csv","legacy","Lentiform Loewenfeld","3.3.9","0","h","NA","s","NA","NA","h","527","NA","1489","NA","NA","527","2","legacy","1024","2","48000","-16","experiment","SSHSS","3","odd","136487","4828","NA","NA","102905","3332","NA","NA","137642","3339","NA","NA","138274","137640","137746","137746","Flanker Task HW","71","41693","72","yes","1024"
"98.63013698630137","98.63013698630137","579.1506849315068","579.1506849315068","black","legacy","legacy","legacy","0","congruent","uniform","1","undefined","h","1","72","0","0","0","72","0","72","NA","72","0","0","0","72","72","72","72","Sun Sep 19 22:10:39 2021","1500","The main experiment item","yes","FlankerTaskHW.osexp","C:/Users/19565/Desktop","no","mono","no","18","no","white","no","yes","768","legacy","72","72","C:/Users/19565/Desktop/MR-subject-1.csv","legacy","Lentiform Loewenfeld","3.3.9","0","h","NA","s","NA","NA","h","585","NA","1489","NA","NA","585","2","legacy","1024","2","48000","-16","experiment","HHHHH","3","odd","138285","4828","NA","NA","102905","3332","NA","NA","139425","3339","NA","NA","140115","139422","139528","139528","Flanker Task HW","72","42278","73","yes","1024"
"98.64864864864865","98.64864864864865","578.5405405405405","578.5405405405405","black","legacy","legacy","legacy","0","congruent","uniform","1","undefined","s","1","73","0","0","0","73","0","73","NA","73","0","0","0","73","73","73","73","Sun Sep 19 22:10:39 2021","1500","The main experiment item","yes","FlankerTaskHW.osexp","C:/Users/19565/Desktop","no","mono","no","18","no","white","no","yes","768","legacy","73","73","C:/Users/19565/Desktop/MR-subject-1.csv","legacy","Lentiform Loewenfeld","3.3.9","0","s","NA","s","NA","NA","s","534","NA","1489","NA","NA","534","2","legacy","1024","2","48000","-16","experiment","SSSSS","3","odd","140122","4828","NA","NA","102905","3332","NA","NA","141304","3339","NA","NA","141945","141302","141409","141409","Flanker Task HW","73","42812","74","yes","1024"
"98.66666666666667","98.66666666666667","578.44","578.44","black","legacy","legacy","legacy","0","incongruent","uniform","1","undefined","h","1","74","0","0","0","74","0","74","NA","74","0","0","0","74","74","74","74","Sun Sep 19 22:10:39 2021","1500","The main experiment item","yes","FlankerTaskHW.osexp","C:/Users/19565/Desktop","no","mono","no","18","no","white","no","yes","768","legacy","74","74","C:/Users/19565/Desktop/MR-subject-1.csv","legacy","Lentiform Loewenfeld","3.3.9","0","h","NA","s","NA","NA","h","571","NA","1489","NA","NA","571","2","legacy","1024","2","48000","-16","experiment","SSHSS","3","odd","141953","4828","NA","NA","102905","3332","NA","NA","143105","3339","NA","NA","143784","143103","143210","143209","Flanker Task HW","74","43383","75","yes","1024"
"98.6842105263158","98.6842105263158","576.9342105263158","576.9342105263158","black","legacy","legacy","legacy","0","congruent","uniform","1","undefined","h","1","75","0","0","0","75","0","75","NA","75","0","0","0","75","75","75","75","Sun Sep 19 22:10:39 2021","1500","The main experiment item","yes","FlankerTaskHW.osexp","C:/Users/19565/Desktop","no","mono","no","18","no","white","no","yes","768","legacy","75","75","C:/Users/19565/Desktop/MR-subject-1.csv","legacy","Lentiform Loewenfeld","3.3.9","0","h","NA","s","NA","NA","h","464","NA","1489","NA","NA","464","2","legacy","1024","2","48000","-16","experiment","HHHHH","3","odd","143794","4828","NA","NA","102905","3332","NA","NA","144900","3339","NA","NA","145471","144897","145005","145005","Flanker Task HW","75","43847","76","yes","1024"
"98.7012987012987","98.7012987012987","575.3896103896104","575.3896103896104","black","legacy","legacy","legacy","0","incongruent","uniform","1","undefined","h","1","76","0","0","0","76","0","76","NA","76","0","0","0","76","76","76","76","Sun Sep 19 22:10:39 2021","1500","The main experiment item","yes","FlankerTaskHW.osexp","C:/Users/19565/Desktop","no","mono","no","18","no","white","no","yes","768","legacy","76","76","C:/Users/19565/Desktop/MR-subject-1.csv","legacy","Lentiform Loewenfeld","3.3.9","0","h","NA","s","NA","NA","h","458","NA","1489","NA","NA","458","2","legacy","1024","2","48000","-16","experiment","SSHSS","3","odd","145481","4828","NA","NA","102905","3332","NA","NA","146614","3339","NA","NA","147179","146612","146719","146719","Flanker Task HW","76","44305","77","yes","1024"
"98.71794871794872","98.71794871794872","574.8333333333334","574.8333333333334","black","legacy","legacy","legacy","0","congruent","uniform","1","undefined","s","1","77","0","0","0","77","0","77","NA","77","0","0","0","77","77","77","77","Sun Sep 19 22:10:39 2021","1500","The main experiment item","yes","FlankerTaskHW.osexp","C:/Users/19565/Desktop","no","mono","no","18","no","white","no","yes","768","legacy","77","77","C:/Users/19565/Desktop/MR-subject-1.csv","legacy","Lentiform Loewenfeld","3.3.9","0","s","NA","s","NA","NA","s","532","NA","1489","NA","NA","532","2","legacy","1024","2","48000","-16","experiment","SSSSS","3","odd","147187","4828","NA","NA","102905","3332","NA","NA","148345","3339","NA","NA","148983","148343","148449","148449","Flanker Task HW","77","44837","78","yes","1024"
"98.73417721518987","98.73417721518987","573.8987341772151","573.8987341772151","black","legacy","legacy","legacy","0","incongruent","uniform","1","undefined","s","1","78","0","0","0","78","0","78","NA","78","0","0","0","78","78","78","78","Sun Sep 19 22:10:39 2021","1500","The main experiment item","yes","FlankerTaskHW.osexp","C:/Users/19565/Desktop","no","mono","no","18","no","white","no","yes","768","legacy","78","78","C:/Users/19565/Desktop/MR-subject-1.csv","legacy","Lentiform Loewenfeld","3.3.9","0","s","NA","s","NA","NA","s","501","NA","1489","NA","NA","501","2","legacy","1024","2","48000","-16","experiment","HHSHH","3","odd","148991","4828","NA","NA","102905","3332","NA","NA","150152","3339","NA","NA","150761","150150","150257","150257","Flanker Task HW","78","45338","79","yes","1024"
"98.75","98.75","574.0125","574.0125","black","legacy","legacy","legacy","0","incongruent","uniform","1","undefined","s","1","79","0","0","0","79","0","79","NA","79","0","0","0","79","79","79","79","Sun Sep 19 22:10:39 2021","1500","The main experiment item","yes","FlankerTaskHW.osexp","C:/Users/19565/Desktop","no","mono","no","18","no","white","no","yes","768","legacy","79","79","C:/Users/19565/Desktop/MR-subject-1.csv","legacy","Lentiform Loewenfeld","3.3.9","0","s","NA","s","NA","NA","s","583","NA","1489","NA","NA","583","2","legacy","1024","2","48000","-16","experiment","HHSHH","3","odd","150769","4828","NA","NA","102905","3332","NA","NA","151939","3339","NA","NA","152629","151937","152044","152044","Flanker Task HW","79","45921","80","yes","1024"
"98.76543209876543","98.76543209876543","573.9753086419753","573.9753086419753","black","legacy","legacy","legacy","0","incongruent","uniform","1","undefined","s","1","80","0","0","0","80","0","80","NA","80","0","0","0","80","80","80","80","Sun Sep 19 22:10:39 2021","600","The main experiment item","yes","FlankerTaskHW.osexp","C:/Users/19565/Desktop","no","mono","no","18","no","white","no","yes","768","legacy","0","79","C:/Users/19565/Desktop/MR-subject-1.csv","legacy","Lentiform Loewenfeld","3.3.9","0","s","NA","s","s","NA","s","571","NA","1489","1764","NA","571","2","legacy","1024","2","48000","-16","experiment","HHSHH","3","odd","152637","4828","155473","NA","102905","3332","NA","NA","155549","3339","153707","NA","156225","155547","155652","155652","Flanker Task HW","80","46492","81","yes","1024"
"98.78048780487805","98.78048780487805","572.1829268292682","572.1829268292682","black","legacy","legacy","legacy","0","incongruent","uniform","1","undefined","h","1","81","0","0","0","81","0","81","NA","81","0","0","0","81","81","81","81","Sun Sep 19 22:10:39 2021","600","The main experiment item","yes","FlankerTaskHW.osexp","C:/Users/19565/Desktop","no","mono","no","18","no","white","no","yes","768","legacy","1","79","C:/Users/19565/Desktop/MR-subject-1.csv","legacy","Lentiform Loewenfeld","3.3.9","0","h","NA","s","s","NA","h","427","NA","1489","1764","NA","427","2","legacy","1024","2","48000","-16","experiment","SSHSS","3","odd","156250","4828","155473","NA","102905","3332","NA","NA","157382","3339","153707","NA","157917","157379","157487","157487","Flanker Task HW","81","46919","82","yes","1024"
"98.79518072289157","98.79518072289157","571.0240963855422","571.0240963855422","black","legacy","legacy","legacy","0","incongruent","uniform","1","undefined","h","1","82","0","0","0","82","0","82","NA","82","0","0","0","82","82","82","82","Sun Sep 19 22:10:39 2021","600","The main experiment item","yes","FlankerTaskHW.osexp","C:/Users/19565/Desktop","no","mono","no","18","no","white","no","yes","768","legacy","2","79","C:/Users/19565/Desktop/MR-subject-1.csv","legacy","Lentiform Loewenfeld","3.3.9","0","h","NA","s","s","NA","h","476","NA","1489","1764","NA","476","2","legacy","1024","2","48000","-16","experiment","SSHSS","3","odd","157925","4828","155473","NA","102905","3332","NA","NA","159073","3339","153707","NA","159657","159070","159178","159177","Flanker Task HW","82","47395","83","yes","1024"
"98.80952380952381","98.80952380952381","570.7380952380952","570.7380952380952","black","legacy","legacy","legacy","0","congruent","uniform","1","undefined","s","1","83","0","0","0","83","0","83","NA","83","0","0","0","83","83","83","83","Sun Sep 19 22:10:39 2021","600","The main experiment item","yes","FlankerTaskHW.osexp","C:/Users/19565/Desktop","no","mono","no","18","no","white","no","yes","768","legacy","3","79","C:/Users/19565/Desktop/MR-subject-1.csv","legacy","Lentiform Loewenfeld","3.3.9","0","s","NA","s","s","NA","s","547","NA","1489","1764","NA","547","2","legacy","1024","2","48000","-16","experiment","SSSSS","3","odd","159667","4828","155473","NA","102905","3332","NA","NA","160822","3339","153707","NA","161474","160819","160926","160926","Flanker Task HW","83","47942","84","yes","1024"
"98.82352941176471","98.82352941176471","569.964705882353","569.964705882353","black","legacy","legacy","legacy","0","congruent","uniform","1","undefined","h","1","84","0","0","0","84","0","84","NA","84","0","0","0","84","84","84","84","Sun Sep 19 22:10:39 2021","600","The main experiment item","yes","FlankerTaskHW.osexp","C:/Users/19565/Desktop","no","mono","no","18","no","white","no","yes","768","legacy","4","79","C:/Users/19565/Desktop/MR-subject-1.csv","legacy","Lentiform Loewenfeld","3.3.9","0","h","NA","s","s","NA","h","505","NA","1489","1764","NA","505","2","legacy","1024","2","48000","-16","experiment","HHHHH","3","odd","161480","4828","155473","NA","102905","3332","NA","NA","162657","3339","153707","NA","163269","162654","162762","162762","Flanker Task HW","84","48447","85","yes","1024"
"98.83720930232558","98.83720930232558","569.1860465116279","569.1860465116279","black","legacy","legacy","legacy","0","incongruent","uniform","1","undefined","s","1","85","0","0","0","85","0","85","NA","85","0","0","0","85","85","85","85","Sun Sep 19 22:10:39 2021","600","The main experiment item","yes","FlankerTaskHW.osexp","C:/Users/19565/Desktop","no","mono","no","18","no","white","no","yes","768","legacy","5","79","C:/Users/19565/Desktop/MR-subject-1.csv","legacy","Lentiform Loewenfeld","3.3.9","0","s","NA","s","s","NA","s","503","NA","1489","1764","NA","503","2","legacy","1024","2","48000","-16","experiment","HHSHH","3","odd","163279","4828","155473","NA","102905","3332","NA","NA","164450","3339","153707","NA","165061","164447","164555","164554","Flanker Task HW","85","48950","86","yes","1024"
"98.85057471264368","98.85057471264368","569.4367816091954","569.4367816091954","black","legacy","legacy","legacy","0","incongruent","uniform","1","undefined","h","1","86","0","0","0","86","0","86","NA","86","0","0","0","86","86","86","86","Sun Sep 19 22:10:39 2021","600","The main experiment item","yes","FlankerTaskHW.osexp","C:/Users/19565/Desktop","no","mono","no","18","no","white","no","yes","768","legacy","6","79","C:/Users/19565/Desktop/MR-subject-1.csv","legacy","Lentiform Loewenfeld","3.3.9","0","h","NA","s","s","NA","h","591","NA","1489","1764","NA","591","2","legacy","1024","2","48000","-16","experiment","SSHSS","3","odd","165071","4828","155473","NA","102905","3332","NA","NA","166171","3339","153707","NA","166868","166169","166276","166276","Flanker Task HW","86","49541","87","yes","1024"
"98.86363636363636","98.86363636363636","570.5227272727273","570.5227272727273","black","legacy","legacy","legacy","0","incongruent","uniform","1","undefined","s","1","87","0","0","0","87","0","87","NA","87","0","0","0","87","87","87","87","Sun Sep 19 22:10:39 2021","600","The main experiment item","yes","FlankerTaskHW.osexp","C:/Users/19565/Desktop","no","mono","no","18","no","white","no","yes","768","legacy","7","79","C:/Users/19565/Desktop/MR-subject-1.csv","legacy","Lentiform Loewenfeld","3.3.9","0","s","NA","s","s","NA","s","665","NA","1489","1764","NA","665","2","legacy","1024","2","48000","-16","experiment","HHSHH","3","odd","166874","4828","155473","NA","102905","3332","NA","NA","168023","3339","153707","NA","168796","168020","168128","168128","Flanker Task HW","87","50206","88","yes","1024"
"98.87640449438203","98.87640449438203","569.7078651685393","569.7078651685393","black","legacy","legacy","legacy","0","congruent","uniform","1","undefined","h","1","88","0","0","0","88","0","88","NA","88","0","0","0","88","88","88","88","Sun Sep 19 22:10:39 2021","600","The main experiment item","yes","FlankerTaskHW.osexp","C:/Users/19565/Desktop","no","mono","no","18","no","white","no","yes","768","legacy","8","79","C:/Users/19565/Desktop/MR-subject-1.csv","legacy","Lentiform Loewenfeld","3.3.9","0","h","NA","s","s","NA","h","498","NA","1489","1764","NA","498","2","legacy","1024","2","48000","-16","experiment","HHHHH","3","odd","169312","4828","155473","NA","102905","3332","168806","NA","170451","3339","153707","NA","171057","170448","170556","170556","Flanker Task HW","88","50704","89","yes","1024"
"98.88888888888889","98.88888888888889","569.6666666666666","569.6666666666666","black","legacy","legacy","legacy","0","incongruent","uniform","1","undefined","s","1","89","0","0","0","89","0","89","NA","89","0","0","0","89","89","89","89","Sun Sep 19 22:10:39 2021","600","The main experiment item","yes","FlankerTaskHW.osexp","C:/Users/19565/Desktop","no","mono","no","18","no","white","no","yes","768","legacy","9","79","C:/Users/19565/Desktop/MR-subject-1.csv","legacy","Lentiform Loewenfeld","3.3.9","0","s","NA","s","s","NA","s","566","NA","1489","1764","NA","566","2","legacy","1024","2","48000","-16","experiment","HHSHH","3","odd","171065","4828","155473","NA","102905","3332","168806","NA","172230","3339","153707","NA","172903","172227","172335","172334","Flanker Task HW","89","51270","90","yes","1024"
"98.9010989010989","98.9010989010989","569.5824175824176","569.5824175824176","black","legacy","legacy","legacy","0","congruent","uniform","1","undefined","s","1","90","0","0","0","90","0","90","NA","90","0","0","0","90","90","90","90","Sun Sep 19 22:10:39 2021","600","The main experiment item","yes","FlankerTaskHW.osexp","C:/Users/19565/Desktop","no","mono","no","18","no","white","no","yes","768","legacy","10","79","C:/Users/19565/Desktop/MR-subject-1.csv","legacy","Lentiform Loewenfeld","3.3.9","0","s","NA","s","s","NA","s","562","NA","1489","1764","NA","562","2","legacy","1024","2","48000","-16","experiment","SSSSS","3","odd","172912","4828","155473","NA","102905","3332","168806","NA","174099","3339","153707","NA","174768","174097","174203","174203","Flanker Task HW","90","51832","91","yes","1024"
"98.91304347826087","98.91304347826087","569.3586956521739","569.3586956521739","black","legacy","legacy","legacy","0","congruent","uniform","1","undefined","s","1","91","0","0","0","91","0","91","NA","91","0","0","0","91","91","91","91","Sun Sep 19 22:10:39 2021","600","The main experiment item","yes","FlankerTaskHW.osexp","C:/Users/19565/Desktop","no","mono","no","18","no","white","no","yes","768","legacy","11","79","C:/Users/19565/Desktop/MR-subject-1.csv","legacy","Lentiform Loewenfeld","3.3.9","0","s","NA","s","s","NA","s","549","NA","1489","1764","NA","549","2","legacy","1024","2","48000","-16","experiment","SSSSS","3","odd","174776","4828","155473","NA","102905","3332","168806","NA","175945","3339","153707","NA","176601","175943","176050","176049","Flanker Task HW","91","52381","92","yes","1024"
"98.9247311827957","98.9247311827957","569.483870967742","569.483870967742","black","legacy","legacy","legacy","0","incongruent","uniform","1","undefined","s","1","92","0","0","0","92","0","92","NA","92","0","0","0","92","92","92","92","Sun Sep 19 22:10:39 2021","600","The main experiment item","yes","FlankerTaskHW.osexp","C:/Users/19565/Desktop","no","mono","no","18","no","white","no","yes","768","legacy","12","79","C:/Users/19565/Desktop/MR-subject-1.csv","legacy","Lentiform Loewenfeld","3.3.9","0","s","NA","s","s","NA","s","581","NA","1489","1764","NA","581","2","legacy","1024","2","48000","-16","experiment","HHSHH","3","odd","176611","4828","155473","NA","102905","3332","168806","NA","177764","3339","153707","NA","178452","177761","177868","177868","Flanker Task HW","92","52962","93","yes","1024"
"98.93617021276596","98.93617021276596","568.4787234042553","568.4787234042553","black","legacy","legacy","legacy","0","incongruent","uniform","1","undefined","s","1","93","0","0","0","93","0","93","NA","93","0","0","0","93","93","93","93","Sun Sep 19 22:10:39 2021","600","The main experiment item","yes","FlankerTaskHW.osexp","C:/Users/19565/Desktop","no","mono","no","18","no","white","no","yes","768","legacy","13","79","C:/Users/19565/Desktop/MR-subject-1.csv","legacy","Lentiform Loewenfeld","3.3.9","0","s","NA","s","s","NA","s","475","NA","1489","1764","NA","475","2","legacy","1024","2","48000","-16","experiment","HHSHH","3","odd","178461","4828","155473","NA","102905","3332","168806","NA","179604","3339","153707","NA","180187","179602","179710","179710","Flanker Task HW","93","53437","94","yes","1024"
"98.94736842105263","98.94736842105263","568.5578947368421","568.5578947368421","black","legacy","legacy","legacy","0","congruent","uniform","1","undefined","h","1","94","0","0","0","94","0","94","NA","94","0","0","0","94","94","94","94","Sun Sep 19 22:10:39 2021","600","The main experiment item","yes","FlankerTaskHW.osexp","C:/Users/19565/Desktop","no","mono","no","18","no","white","no","yes","768","legacy","14","79","C:/Users/19565/Desktop/MR-subject-1.csv","legacy","Lentiform Loewenfeld","3.3.9","0","h","NA","s","s","NA","h","576","NA","1489","1764","NA","576","2","legacy","1024","2","48000","-16","experiment","HHHHH","3","odd","180196","4828","155473","NA","102905","3332","168806","NA","181347","3339","153707","NA","182029","181344","181451","181450","Flanker Task HW","94","54013","95","yes","1024"
"98.95833333333333","98.95833333333333","567.96875","567.96875","black","legacy","legacy","legacy","0","incongruent","uniform","1","undefined","h","1","95","0","0","0","95","0","95","NA","95","0","0","0","95","95","95","95","Sun Sep 19 22:10:39 2021","600","The main experiment item","yes","FlankerTaskHW.osexp","C:/Users/19565/Desktop","no","mono","no","18","no","white","no","yes","768","legacy","15","79","C:/Users/19565/Desktop/MR-subject-1.csv","legacy","Lentiform Loewenfeld","3.3.9","0","h","NA","s","s","NA","h","512","NA","1489","1764","NA","512","2","legacy","1024","2","48000","-16","experiment","SSHSS","3","odd","182038","4828","155473","NA","102905","3332","168806","NA","183187","3339","153707","NA","183805","183184","183291","183291","Flanker Task HW","95","54525","96","yes","1024"
"98.96907216494846","98.96907216494846","567.0412371134021","567.0412371134021","black","legacy","legacy","legacy","0","congruent","uniform","1","undefined","h","1","96","0","0","0","96","0","96","NA","96","0","0","0","96","96","96","96","Sun Sep 19 22:10:39 2021","600","The main experiment item","yes","FlankerTaskHW.osexp","C:/Users/19565/Desktop","no","mono","no","18","no","white","no","yes","768","legacy","16","79","C:/Users/19565/Desktop/MR-subject-1.csv","legacy","Lentiform Loewenfeld","3.3.9","0","h","NA","s","s","NA","h","478","NA","1489","1764","NA","478","2","legacy","1024","2","48000","-16","experiment","HHHHH","3","odd","183810","4828","155473","NA","102905","3332","168806","NA","184989","3339","153707","NA","185575","184986","185094","185093","Flanker Task HW","96","55003","97","yes","1024"
"98.9795918367347","98.9795918367347","566.9489795918367","566.9489795918367","black","legacy","legacy","legacy","0","congruent","uniform","1","undefined","s","1","97","0","0","0","97","0","97","NA","97","0","0","0","97","97","97","97","Sun Sep 19 22:10:39 2021","600","The main experiment item","yes","FlankerTaskHW.osexp","C:/Users/19565/Desktop","no","mono","no","18","no","white","no","yes","768","legacy","17","79","C:/Users/19565/Desktop/MR-subject-1.csv","legacy","Lentiform Loewenfeld","3.3.9","0","s","NA","s","s","NA","s","558","NA","1489","1764","NA","558","2","legacy","1024","2","48000","-16","experiment","SSSSS","3","odd","185583","4828","155473","NA","102905","3332","168806","NA","186727","3339","153707","NA","187392","186724","186831","186831","Flanker Task HW","97","55561","98","yes","1024"
"98.98989898989899","98.98989898989899","565.7575757575758","565.7575757575758","black","legacy","legacy","legacy","0","congruent","uniform","1","undefined","h","1","98","0","0","0","98","0","98","NA","98","0","0","0","98","98","98","98","Sun Sep 19 22:10:39 2021","600","The main experiment item","yes","FlankerTaskHW.osexp","C:/Users/19565/Desktop","no","mono","no","18","no","white","no","yes","768","legacy","18","79","C:/Users/19565/Desktop/MR-subject-1.csv","legacy","Lentiform Loewenfeld","3.3.9","0","h","NA","s","s","NA","h","449","NA","1489","1764","NA","449","2","legacy","1024","2","48000","-16","experiment","HHHHH","3","odd","187402","4828","155473","NA","102905","3332","168806","NA","188534","3339","153707","NA","189090","188531","188638","188638","Flanker Task HW","98","56010","99","yes","1024"
"99","99","565.54","565.54","black","legacy","legacy","legacy","0","incongruent","uniform","1","undefined","h","1","99","0","0","0","99","0","99","NA","99","0","0","0","99","99","99","99","Sun Sep 19 22:10:39 2021","600","The main experiment item","yes","FlankerTaskHW.osexp","C:/Users/19565/Desktop","no","mono","no","18","no","white","no","yes","768","legacy","19","79","C:/Users/19565/Desktop/MR-subject-1.csv","legacy","Lentiform Loewenfeld","3.3.9","0","h","NA","s","s","NA","h","544","NA","1489","1764","NA","544","2","legacy","1024","2","48000","-16","experiment","SSHSS","3","odd","189099","4828","155473","NA","102905","3332","168806","NA","190245","3339","153707","NA","190896","190243","190349","190349","Flanker Task HW","99","56554","100","yes","1024"
"99.00990099009901","99.00990099009901","568.3960396039604","568.3960396039604","black","legacy","legacy","legacy","0","incongruent","uniform","1","undefined","s","1","100","0","0","0","100","0","100","NA","100","0","0","0","100","100","100","100","Sun Sep 19 22:10:39 2021","600","The main experiment item","yes","FlankerTaskHW.osexp","C:/Users/19565/Desktop","no","mono","no","18","no","white","no","yes","768","legacy","20","79","C:/Users/19565/Desktop/MR-subject-1.csv","legacy","Lentiform Loewenfeld","3.3.9","0","s","NA","s","s","NA","s","854","NA","1489","1764","NA","854","2","legacy","1024","2","48000","-16","experiment","HHSHH","3","odd","190906","4828","155473","NA","102905","3332","168806","NA","192062","3339","153707","NA","193024","192060","192167","192167","Flanker Task HW","100","57408","101","yes","1024"
"99.01960784313725","99.01960784313725","568.4019607843137","568.4019607843137","black","legacy","legacy","legacy","0","congruent","uniform","1","undefined","s","1","101","0","0","0","101","0","101","NA","101","0","0","0","101","101","101","101","Sun Sep 19 22:10:39 2021","600","The main experiment item","yes","FlankerTaskHW.osexp","C:/Users/19565/Desktop","no","mono","no","18","no","white","no","yes","768","legacy","21","79","C:/Users/19565/Desktop/MR-subject-1.csv","legacy","Lentiform Loewenfeld","3.3.9","0","s","NA","s","s","NA","s","569","NA","1489","1764","NA","569","2","legacy","1024","2","48000","-16","experiment","SSSSS","3","odd","193539","4828","155473","NA","102905","3332","193035","NA","194710","3339","153707","NA","195386","194707","194814","194814","Flanker Task HW","101","57977","102","yes","1024"
"99.02912621359224","99.02912621359224","568.747572815534","568.747572815534","black","legacy","legacy","legacy","0","congruent","uniform","1","undefined","s","1","102","0","0","0","102","0","102","NA","102","0","0","0","102","102","102","102","Sun Sep 19 22:10:39 2021","600","The main experiment item","yes","FlankerTaskHW.osexp","C:/Users/19565/Desktop","no","mono","no","18","no","white","no","yes","768","legacy","22","79","C:/Users/19565/Desktop/MR-subject-1.csv","legacy","Lentiform Loewenfeld","3.3.9","0","s","NA","s","s","NA","s","604","NA","1489","1764","NA","604","2","legacy","1024","2","48000","-16","experiment","SSSSS","3","odd","195396","4828","155473","NA","102905","3332","193035","NA","196571","3339","153707","NA","197282","196567","196676","196676","Flanker Task HW","102","58581","103","yes","1024"
"99.03846153846153","99.03846153846153","568.2211538461538","568.2211538461538","black","legacy","legacy","legacy","0","congruent","uniform","1","undefined","s","1","103","0","0","0","103","0","103","NA","103","0","0","0","103","103","103","103","Sun Sep 19 22:10:39 2021","600","The main experiment item","yes","FlankerTaskHW.osexp","C:/Users/19565/Desktop","no","mono","no","18","no","white","no","yes","768","legacy","23","79","C:/Users/19565/Desktop/MR-subject-1.csv","legacy","Lentiform Loewenfeld","3.3.9","0","s","NA","s","s","NA","s","514","NA","1489","1764","NA","514","2","legacy","1024","2","48000","-16","experiment","SSSSS","3","odd","197793","4828","155473","NA","102905","3332","197290","NA","198998","3339","153707","NA","199619","198993","199102","199102","Flanker Task HW","103","59095","104","yes","1024"
"99.04761904761905","99.04761904761905","566.8571428571429","566.8571428571429","black","legacy","legacy","legacy","0","congruent","uniform","1","undefined","s","1","104","0","0","0","104","0","104","NA","104","0","0","0","104","104","104","104","Sun Sep 19 22:10:39 2021","600","The main experiment item","yes","FlankerTaskHW.osexp","C:/Users/19565/Desktop","no","mono","no","18","no","white","no","yes","768","legacy","24","79","C:/Users/19565/Desktop/MR-subject-1.csv","legacy","Lentiform Loewenfeld","3.3.9","0","s","NA","s","s","NA","s","425","NA","1489","1764","NA","425","2","legacy","1024","2","48000","-16","experiment","SSSSS","3","odd","199628","4828","155473","NA","102905","3332","197290","NA","200806","3339","153707","NA","201339","200803","200911","200911","Flanker Task HW","104","59520","105","yes","1024"
"99.05660377358491","99.05660377358491","566.4528301886793","566.4528301886793","black","legacy","legacy","legacy","0","congruent","uniform","1","undefined","h","1","105","0","0","0","105","0","105","NA","105","0","0","0","105","105","105","105","Sun Sep 19 22:10:39 2021","600","The main experiment item","yes","FlankerTaskHW.osexp","C:/Users/19565/Desktop","no","mono","no","18","no","white","no","yes","768","legacy","25","79","C:/Users/19565/Desktop/MR-subject-1.csv","legacy","Lentiform Loewenfeld","3.3.9","0","h","NA","s","s","NA","h","524","NA","1489","1764","NA","524","2","legacy","1024","2","48000","-16","experiment","HHHHH","3","odd","201350","4828","155473","NA","102905","3332","197290","NA","202518","3339","153707","NA","203148","202513","202622","202622","Flanker Task HW","105","60044","106","yes","1024"
"99.06542056074767","99.06542056074767","565.7850467289719","565.7850467289719","black","legacy","legacy","legacy","0","incongruent","uniform","1","undefined","s","1","106","0","0","0","106","0","106","NA","106","0","0","0","106","106","106","106","Sun Sep 19 22:10:39 2021","600","The main experiment item","yes","FlankerTaskHW.osexp","C:/Users/19565/Desktop","no","mono","no","18","no","white","no","yes","768","legacy","26","79","C:/Users/19565/Desktop/MR-subject-1.csv","legacy","Lentiform Loewenfeld","3.3.9","0","s","NA","s","s","NA","s","495","NA","1489","1764","NA","495","2","legacy","1024","2","48000","-16","experiment","HHSHH","3","odd","203157","4828","155473","NA","102905","3332","197290","NA","204299","3339","153707","NA","204902","204296","204404","204404","Flanker Task HW","106","60539","107","yes","1024"
"99.07407407407408","99.07407407407408","564.7222222222222","564.7222222222222","black","legacy","legacy","legacy","0","congruent","uniform","1","undefined","s","1","107","0","0","0","107","0","107","NA","107","0","0","0","107","107","107","107","Sun Sep 19 22:10:39 2021","600","The main experiment item","yes","FlankerTaskHW.osexp","C:/Users/19565/Desktop","no","mono","no","18","no","white","no","yes","768","legacy","27","79","C:/Users/19565/Desktop/MR-subject-1.csv","legacy","Lentiform Loewenfeld","3.3.9","0","s","NA","s","s","NA","s","451","NA","1489","1764","NA","451","2","legacy","1024","2","48000","-16","experiment","SSSSS","3","odd","204911","4828","155473","NA","102905","3332","197290","NA","206072","3339","153707","NA","206631","206070","206177","206177","Flanker Task HW","107","60990","108","yes","1024"
"99.08256880733946","99.08256880733946","563.7522935779816","563.7522935779816","black","legacy","legacy","legacy","0","congruent","uniform","1","undefined","s","1","108","0","0","0","108","0","108","NA","108","0","0","0","108","108","108","108","Sun Sep 19 22:10:39 2021","600","The main experiment item","yes","FlankerTaskHW.osexp","C:/Users/19565/Desktop","no","mono","no","18","no","white","no","yes","768","legacy","28","79","C:/Users/19565/Desktop/MR-subject-1.csv","legacy","Lentiform Loewenfeld","3.3.9","0","s","NA","s","s","NA","s","459","NA","1489","1764","NA","459","2","legacy","1024","2","48000","-16","experiment","SSSSS","3","odd","206642","4828","155473","NA","102905","3332","197290","NA","207778","3339","153707","NA","208346","207775","207882","207882","Flanker Task HW","108","61449","109","yes","1024"
"99.0909090909091","99.0909090909091","564.0909090909091","564.0909090909091","black","legacy","legacy","legacy","0","congruent","uniform","1","undefined","h","1","109","0","0","0","109","0","109","NA","109","0","0","0","109","109","109","109","Sun Sep 19 22:10:39 2021","600","The main experiment item","yes","FlankerTaskHW.osexp","C:/Users/19565/Desktop","no","mono","no","18","no","white","no","yes","768","legacy","29","79","C:/Users/19565/Desktop/MR-subject-1.csv","legacy","Lentiform Loewenfeld","3.3.9","0","h","NA","s","s","NA","h","601","NA","1489","1764","NA","601","2","legacy","1024","2","48000","-16","experiment","HHHHH","3","odd","208356","4828","155473","NA","102905","3332","197290","NA","209512","3339","153707","NA","210221","209510","209617","209616","Flanker Task HW","109","62050","110","yes","1024"
"99.09909909909909","99.09909909909909","563.7387387387388","563.7387387387388","black","legacy","legacy","legacy","0","incongruent","uniform","1","undefined","h","1","110","0","0","0","110","0","110","NA","110","0","0","0","110","110","110","110","Sun Sep 19 22:10:39 2021","600","The main experiment item","yes","FlankerTaskHW.osexp","C:/Users/19565/Desktop","no","mono","no","18","no","white","no","yes","768","legacy","30","79","C:/Users/19565/Desktop/MR-subject-1.csv","legacy","Lentiform Loewenfeld","3.3.9","0","h","NA","s","s","NA","h","525","NA","1489","1764","NA","525","2","legacy","1024","2","48000","-16","experiment","SSHSS","3","odd","210734","4828","155473","NA","102905","3332","210229","NA","211907","3339","153707","NA","212538","211903","212010","212010","Flanker Task HW","110","62575","111","yes","1024"
"98.21428571428571","98.21428571428571","562.6785714285714","562.6785714285714","black","legacy","legacy","legacy","0","incongruent","uniform","0","undefined","h","0","111","0","0","0","111","0","111","NA","111","0","0","0","111","111","111","111","Sun Sep 19 22:10:39 2021","600","The main experiment item","yes","FlankerTaskHW.osexp","C:/Users/19565/Desktop","no","mono","no","18","no","white","no","yes","768","legacy","31","79","C:/Users/19565/Desktop/MR-subject-1.csv","legacy","Lentiform Loewenfeld","3.3.9","0","s","NA","s","s","NA","s","445","NA","1489","1764","NA","445","2","legacy","1024","2","48000","-16","experiment","SSHSS","3","odd","212547","4828","155473","NA","102905","3332","210229","NA","213717","3339","153707","NA","214269","213714","213821","213821","Flanker Task HW","110","63020","112","yes","1024"
"98.23008849557522","98.23008849557522","561.3097345132743","561.3097345132743","black","legacy","legacy","legacy","0","congruent","uniform","1","undefined","h","1","112","0","0","0","112","0","112","NA","112","0","0","0","112","112","112","112","Sun Sep 19 22:10:39 2021","600","The main experiment item","yes","FlankerTaskHW.osexp","C:/Users/19565/Desktop","no","mono","no","18","no","white","no","yes","768","legacy","32","79","C:/Users/19565/Desktop/MR-subject-1.csv","legacy","Lentiform Loewenfeld","3.3.9","0","h","NA","s","s","NA","h","408","NA","1489","1764","NA","408","2","legacy","1024","2","48000","-16","experiment","HHHHH","3","odd","214782","4828","155473","NA","214278","3332","210229","NA","215905","3339","153707","NA","216419","215902","216010","216008","Flanker Task HW","111","63428","113","yes","1024"
"98.24561403508773","98.24561403508773","561.4912280701755","561.4912280701755","black","legacy","legacy","legacy","0","incongruent","uniform","1","undefined","s","1","113","0","0","0","113","0","113","NA","113","0","0","0","113","113","113","113","Sun Sep 19 22:10:39 2021","600","The main experiment item","yes","FlankerTaskHW.osexp","C:/Users/19565/Desktop","no","mono","no","18","no","white","no","yes","768","legacy","33","79","C:/Users/19565/Desktop/MR-subject-1.csv","legacy","Lentiform Loewenfeld","3.3.9","0","s","NA","s","s","NA","s","582","NA","1489","1764","NA","582","2","legacy","1024","2","48000","-16","experiment","HHSHH","3","odd","216427","4828","155473","NA","214278","3332","210229","NA","217589","3339","153707","NA","218280","217586","217694","217694","Flanker Task HW","112","64010","114","yes","1024"
"98.26086956521739","98.26086956521739","567.9217391304347","567.9217391304347","black","legacy","legacy","legacy","0","incongruent","uniform","1","undefined","h","1","114","0","0","0","114","0","114","NA","114","0","0","0","114","114","114","114","Sun Sep 19 22:10:39 2021","600","The main experiment item","yes","FlankerTaskHW.osexp","C:/Users/19565/Desktop","no","mono","no","18","no","white","no","yes","768","legacy","34","79","C:/Users/19565/Desktop/MR-subject-1.csv","legacy","Lentiform Loewenfeld","3.3.9","0","h","NA","s","s","NA","h","1301","NA","1489","1764","NA","1301","2","legacy","1024","2","48000","-16","experiment","SSHSS","3","odd","218290","4828","155473","NA","214278","3332","210229","NA","219442","3339","153707","NA","220849","219440","219547","219547","Flanker Task HW","113","65311","115","yes","1024"
"98.27586206896552","98.27586206896552","567.8706896551724","567.8706896551724","black","legacy","legacy","legacy","0","incongruent","uniform","1","undefined","s","1","115","0","0","0","115","0","115","NA","115","0","0","0","115","115","115","115","Sun Sep 19 22:10:39 2021","600","The main experiment item","yes","FlankerTaskHW.osexp","C:/Users/19565/Desktop","no","mono","no","18","no","white","no","yes","768","legacy","35","79","C:/Users/19565/Desktop/MR-subject-1.csv","legacy","Lentiform Loewenfeld","3.3.9","0","s","NA","s","s","NA","s","562","NA","1489","1764","NA","562","2","legacy","1024","2","48000","-16","experiment","HHSHH","3","odd","221360","4828","155473","NA","214278","3332","220855","NA","222508","3339","153707","NA","223178","222505","222613","222613","Flanker Task HW","114","65873","116","yes","1024"
"98.2905982905983","98.2905982905983","566.6752136752136","566.6752136752136","black","legacy","legacy","legacy","0","incongruent","uniform","1","undefined","s","1","116","0","0","0","116","0","116","NA","116","0","0","0","116","116","116","116","Sun Sep 19 22:10:39 2021","600","The main experiment item","yes","FlankerTaskHW.osexp","C:/Users/19565/Desktop","no","mono","no","18","no","white","no","yes","768","legacy","36","79","C:/Users/19565/Desktop/MR-subject-1.csv","legacy","Lentiform Loewenfeld","3.3.9","0","s","NA","s","s","NA","s","428","NA","1489","1764","NA","428","2","legacy","1024","2","48000","-16","experiment","HHSHH","3","odd","223187","4828","155473","NA","214278","3332","220855","NA","224297","3339","153707","NA","224834","224295","224402","224401","Flanker Task HW","115","66301","117","yes","1024"
"98.30508474576271","98.30508474576271","566.0932203389831","566.0932203389831","black","legacy","legacy","legacy","0","congruent","uniform","1","undefined","h","1","117","0","0","0","117","0","117","NA","117","0","0","0","117","117","117","117","Sun Sep 19 22:10:39 2021","600","The main experiment item","yes","FlankerTaskHW.osexp","C:/Users/19565/Desktop","no","mono","no","18","no","white","no","yes","768","legacy","37","79","C:/Users/19565/Desktop/MR-subject-1.csv","legacy","Lentiform Loewenfeld","3.3.9","0","h","NA","s","s","NA","h","498","NA","1489","1764","NA","498","2","legacy","1024","2","48000","-16","experiment","HHHHH","3","odd","224844","4828","155473","NA","214278","3332","220855","NA","225974","3339","153707","NA","226582","225972","226080","226079","Flanker Task HW","116","66799","118","yes","1024"
"97.47899159663865","97.47899159663865","565.1260504201681","565.1260504201681","black","legacy","legacy","legacy","0","incongruent","uniform","0","undefined","s","0","118","0","0","0","118","0","118","NA","118","0","0","0","118","118","118","118","Sun Sep 19 22:10:39 2021","600","The main experiment item","yes","FlankerTaskHW.osexp","C:/Users/19565/Desktop","no","mono","no","18","no","white","no","yes","768","legacy","38","79","C:/Users/19565/Desktop/MR-subject-1.csv","legacy","Lentiform Loewenfeld","3.3.9","0","h","NA","s","s","NA","h","451","NA","1489","1764","NA","451","2","legacy","1024","2","48000","-16","experiment","HHSHH","3","odd","226591","4828","155473","NA","214278","3332","220855","NA","227757","3339","153707","NA","228315","227754","227861","227861","Flanker Task HW","116","67250","119","yes","1024"
"97.5","97.5","565.025","565.025","black","legacy","legacy","legacy","0","congruent","uniform","1","undefined","s","1","119","0","0","0","119","0","119","NA","119","0","0","0","119","119","119","119","Sun Sep 19 22:10:39 2021","600","The main experiment item","yes","FlankerTaskHW.osexp","C:/Users/19565/Desktop","no","mono","no","18","no","white","no","yes","768","legacy","39","79","C:/Users/19565/Desktop/MR-subject-1.csv","legacy","Lentiform Loewenfeld","3.3.9","0","s","NA","s","s","NA","s","553","NA","1489","1764","NA","553","2","legacy","1024","2","48000","-16","experiment","SSSSS","3","odd","228828","4828","155473","NA","228324","3332","220855","NA","229969","3339","153707","NA","230629","229966","230074","230074","Flanker Task HW","117","67803","120","yes","1024"
"97.52066115702479","97.52066115702479","563.7851239669421","563.7851239669421","black","legacy","legacy","legacy","0","incongruent","uniform","1","undefined","s","1","120","0","0","0","120","0","120","NA","120","0","0","0","120","120","120","120","Sun Sep 19 22:10:39 2021","600","The main experiment item","yes","FlankerTaskHW.osexp","C:/Users/19565/Desktop","no","mono","no","18","no","white","no","yes","768","legacy","40","79","C:/Users/19565/Desktop/MR-subject-1.csv","legacy","Lentiform Loewenfeld","3.3.9","0","s","NA","s","s","NA","s","415","NA","1489","1764","NA","415","2","legacy","1024","2","48000","-16","experiment","HHSHH","3","odd","230635","4828","155473","NA","228324","3332","220855","NA","231757","3339","153707","NA","232279","231754","231861","231861","Flanker Task HW","118","68218","121","yes","1024"
"97.54098360655738","97.54098360655738","562.9180327868852","562.9180327868852","black","legacy","legacy","legacy","0","congruent","uniform","1","undefined","s","1","121","0","0","0","121","0","121","NA","121","0","0","0","121","121","121","121","Sun Sep 19 22:10:39 2021","600","The main experiment item","yes","FlankerTaskHW.osexp","C:/Users/19565/Desktop","no","mono","no","18","no","white","no","yes","768","legacy","41","79","C:/Users/19565/Desktop/MR-subject-1.csv","legacy","Lentiform Loewenfeld","3.3.9","0","s","NA","s","s","NA","s","458","NA","1489","1764","NA","458","2","legacy","1024","2","48000","-16","experiment","SSSSS","3","odd","232288","4828","155473","NA","228324","3332","220855","NA","233461","3339","153707","NA","234026","233458","233565","233564","Flanker Task HW","119","68676","122","yes","1024"
"97.5609756097561","97.5609756097561","561.829268292683","561.829268292683","black","legacy","legacy","legacy","0","congruent","uniform","1","undefined","s","1","122","0","0","0","122","0","122","NA","122","0","0","0","122","122","122","122","Sun Sep 19 22:10:39 2021","600","The main experiment item","yes","FlankerTaskHW.osexp","C:/Users/19565/Desktop","no","mono","no","18","no","white","no","yes","768","legacy","42","79","C:/Users/19565/Desktop/MR-subject-1.csv","legacy","Lentiform Loewenfeld","3.3.9","0","s","NA","s","s","NA","s","429","NA","1489","1764","NA","429","2","legacy","1024","2","48000","-16","experiment","SSSSS","3","odd","234036","4828","155473","NA","228324","3332","220855","NA","235174","3339","153707","NA","235711","235171","235279","235278","Flanker Task HW","120","69105","123","yes","1024"
"97.58064516129032","97.58064516129032","562.1854838709677","562.1854838709677","black","legacy","legacy","legacy","0","congruent","uniform","1","undefined","h","1","123","0","0","0","123","0","123","NA","123","0","0","0","123","123","123","123","Sun Sep 19 22:10:39 2021","600","The main experiment item","yes","FlankerTaskHW.osexp","C:/Users/19565/Desktop","no","mono","no","18","no","white","no","yes","768","legacy","43","79","C:/Users/19565/Desktop/MR-subject-1.csv","legacy","Lentiform Loewenfeld","3.3.9","0","h","NA","s","s","NA","h","606","NA","1489","1764","NA","606","2","legacy","1024","2","48000","-16","experiment","HHHHH","3","odd","235721","4828","155473","NA","228324","3332","220855","NA","236902","3339","153707","NA","237615","236899","237007","237007","Flanker Task HW","121","69711","124","yes","1024"
