"acc","accuracy","average_response_time","avg_rt","background","canvas_backend","clock_backend","color_backend","compensation","condition","coordinates","correct","correct_instructions1","correct_keyboard_response","correct_response","count_ISI","count_block1","count_block2","count_block3","count_errorFeedback","count_experiment","count_faster","count_finish","count_fixation","count_instructions1","count_instructions2","count_instructions3","count_keyboard_response","count_logger","count_sequence","count_stimulus","datetime","deadline","description","disable_garbage_collection","experiment_file","experiment_path","font_bold","font_family","font_italic","font_size","font_underline","foreground","form_clicks","fullscreen","height","keyboard_backend","live_row","live_row_block1","logfile","mouse_backend","opensesame_codename","opensesame_version","repeat_cycle","response","response_finish","response_instructions1","response_instructions2","response_instructions3","response_keyboard_response","response_time","response_time_finish","response_time_instructions1","response_time_instructions2","response_time_instructions3","response_time_keyboard_response","round_decimals","sampler_backend","sound_buf_size","sound_channels","sound_freq","sound_sample_size","start","stimulus","subject_nr","subject_parity","time_ISI","time_block1","time_block2","time_block3","time_errorFeedback","time_experiment","time_faster","time_finish","time_fixation","time_instructions1","time_instructions2","time_instructions3","time_keyboard_response","time_logger","time_sequence","time_stimulus","title","total_correct","total_response_time","total_responses","uniform_coordinates","width"
"100","100","1359","1359","black","legacy","legacy","legacy","0","congruent","uniform","1","undefined","1","h","0","0","0","0","0","0","0","0","0","0","0","0","0","0","0","0","Wed Sep 22 11:17:39 2021","1500","The main experiment item","yes","Flankertask.osexp","/Users/mihailcodreanu/Desktop","no","mono","no","18","no","white","no","yes","768","legacy","0","0","/Users/mihailcodreanu/Desktop/mc-subject-2.csv","legacy","Lentiform Loewenfeld","3.3.9","0","h","NA","s","NA","NA","h","1359","NA","22342","NA","NA","1359","2","legacy","1024","2","48000","-16","experiment","HHHHH","2","even","NA","26674","NA","NA","NA","4315","NA","NA","26729","4323","NA","NA","26834","28194","26724","26834","Flanker task ","1","1359","1","yes","1024"
"100","100","1074.5","1074.5","black","legacy","legacy","legacy","0","incongruent","uniform","1","undefined","1","h","1","0","0","0","1","0","1","0","1","0","0","0","1","1","1","1","Wed Sep 22 11:17:39 2021","1500","The main experiment item","yes","Flankertask.osexp","/Users/mihailcodreanu/Desktop","no","mono","no","18","no","white","no","yes","768","legacy","1","1","/Users/mihailcodreanu/Desktop/mc-subject-2.csv","legacy","Lentiform Loewenfeld","3.3.9","0","h","NA","s","NA","NA","h","790","NA","22342","NA","NA","790","2","legacy","1024","2","48000","-16","experiment","SSHSS","2","even","28203","26674","NA","NA","NA","4315","NA","NA","29259","4323","NA","NA","29363","30156","29255","29363","Flanker task ","2","2149","2","yes","1024"
"100","100","926","926","black","legacy","legacy","legacy","0","incongruent","uniform","1","undefined","1","h","2","0","0","0","2","0","2","0","2","0","0","0","2","2","2","2","Wed Sep 22 11:17:39 2021","1500","The main experiment item","yes","Flankertask.osexp","/Users/mihailcodreanu/Desktop","no","mono","no","18","no","white","no","yes","768","legacy","2","2","/Users/mihailcodreanu/Desktop/mc-subject-2.csv","legacy","Lentiform Loewenfeld","3.3.9","0","h","NA","s","NA","NA","h","629","NA","22342","NA","NA","629","2","legacy","1024","2","48000","-16","experiment","SSHSS","2","even","30162","26674","NA","NA","NA","4315","NA","NA","31212","4323","NA","NA","31316","31946","31208","31316","Flanker task ","3","2778","3","yes","1024"
"100","100","844","844","black","legacy","legacy","legacy","0","incongruent","uniform","1","undefined","1","s","3","0","0","0","3","0","3","0","3","0","0","0","3","3","3","3","Wed Sep 22 11:17:39 2021","1500","The main experiment item","yes","Flankertask.osexp","/Users/mihailcodreanu/Desktop","no","mono","no","18","no","white","no","yes","768","legacy","3","3","/Users/mihailcodreanu/Desktop/mc-subject-2.csv","legacy","Lentiform Loewenfeld","3.3.9","0","s","NA","s","NA","NA","s","598","NA","22342","NA","NA","598","2","legacy","1024","2","48000","-16","experiment","HHSHH","2","even","31950","26674","NA","NA","NA","4315","NA","NA","33004","4323","NA","NA","33107","33706","33000","33107","Flanker task ","4","3376","4","yes","1024"
"100","100","784.4","784.4","black","legacy","legacy","legacy","0","incongruent","uniform","1","undefined","1","h","4","0","0","0","4","0","4","0","4","0","0","0","4","4","4","4","Wed Sep 22 11:17:39 2021","1500","The main experiment item","yes","Flankertask.osexp","/Users/mihailcodreanu/Desktop","no","mono","no","18","no","white","no","yes","768","legacy","4","4","/Users/mihailcodreanu/Desktop/mc-subject-2.csv","legacy","Lentiform Loewenfeld","3.3.9","0","h","NA","s","NA","NA","h","546","NA","22342","NA","NA","546","2","legacy","1024","2","48000","-16","experiment","SSHSS","2","even","33713","26674","NA","NA","NA","4315","NA","NA","34767","4323","NA","NA","34871","35418","34763","34870","Flanker task ","5","3922","5","yes","1024"
"100","100","728.1666666666666","728.1666666666666","black","legacy","legacy","legacy","0","congruent","uniform","1","undefined","1","h","5","0","0","0","5","0","5","0","5","0","0","0","5","5","5","5","Wed Sep 22 11:17:39 2021","1500","The main experiment item","yes","Flankertask.osexp","/Users/mihailcodreanu/Desktop","no","mono","no","18","no","white","no","yes","768","legacy","5","5","/Users/mihailcodreanu/Desktop/mc-subject-2.csv","legacy","Lentiform Loewenfeld","3.3.9","0","h","NA","s","NA","NA","h","447","NA","22342","NA","NA","447","2","legacy","1024","2","48000","-16","experiment","HHHHH","2","even","35424","26674","NA","NA","NA","4315","NA","NA","36474","4323","NA","NA","36578","37026","36470","36577","Flanker task ","6","4369","6","yes","1024"
"100","100","679.8571428571429","679.8571428571429","black","legacy","legacy","legacy","0","congruent","uniform","1","undefined","1","h","6","0","0","0","6","0","6","0","6","0","0","0","6","6","6","6","Wed Sep 22 11:17:39 2021","1500","The main experiment item","yes","Flankertask.osexp","/Users/mihailcodreanu/Desktop","no","mono","no","18","no","white","no","yes","768","legacy","6","6","/Users/mihailcodreanu/Desktop/mc-subject-2.csv","legacy","Lentiform Loewenfeld","3.3.9","0","h","NA","s","NA","NA","h","390","NA","22342","NA","NA","390","2","legacy","1024","2","48000","-16","experiment","HHHHH","2","even","37032","26674","NA","NA","NA","4315","NA","NA","38083","4323","NA","NA","38187","38578","38079","38186","Flanker task ","7","4759","7","yes","1024"
"100","100","657.5","657.5","black","legacy","legacy","legacy","0","congruent","uniform","1","undefined","1","s","7","0","0","0","7","0","7","0","7","0","0","0","7","7","7","7","Wed Sep 22 11:17:39 2021","1500","The main experiment item","yes","Flankertask.osexp","/Users/mihailcodreanu/Desktop","no","mono","no","18","no","white","no","yes","768","legacy","7","7","/Users/mihailcodreanu/Desktop/mc-subject-2.csv","legacy","Lentiform Loewenfeld","3.3.9","0","s","NA","s","NA","NA","s","501","NA","22342","NA","NA","501","2","legacy","1024","2","48000","-16","experiment","SSSSS","2","even","38585","26674","NA","NA","NA","4315","NA","NA","39636","4323","NA","NA","39740","40242","39633","39740","Flanker task ","8","5260","8","yes","1024"
"100","100","637.4444444444445","637.4444444444445","black","legacy","legacy","legacy","0","congruent","uniform","1","undefined","1","h","8","0","0","0","8","0","8","0","8","0","0","0","8","8","8","8","Wed Sep 22 11:17:39 2021","1500","The main experiment item","yes","Flankertask.osexp","/Users/mihailcodreanu/Desktop","no","mono","no","18","no","white","no","yes","768","legacy","8","8","/Users/mihailcodreanu/Desktop/mc-subject-2.csv","legacy","Lentiform Loewenfeld","3.3.9","0","h","NA","s","NA","NA","h","477","NA","22342","NA","NA","477","2","legacy","1024","2","48000","-16","experiment","HHHHH","2","even","40249","26674","NA","NA","NA","4315","NA","NA","41300","4323","NA","NA","41404","41882","41296","41404","Flanker task ","9","5737","9","yes","1024"
"100","100","630.3","630.3","black","legacy","legacy","legacy","0","incongruent","uniform","1","undefined","1","s","9","0","0","0","9","0","9","0","9","0","0","0","9","9","9","9","Wed Sep 22 11:17:39 2021","1500","The main experiment item","yes","Flankertask.osexp","/Users/mihailcodreanu/Desktop","no","mono","no","18","no","white","no","yes","768","legacy","9","9","/Users/mihailcodreanu/Desktop/mc-subject-2.csv","legacy","Lentiform Loewenfeld","3.3.9","0","s","NA","s","NA","NA","s","566","NA","22342","NA","NA","566","2","legacy","1024","2","48000","-16","experiment","HHSHH","2","even","41888","26674","NA","NA","NA","4315","NA","NA","42939","4323","NA","NA","43044","43611","42935","43043","Flanker task ","10","6303","10","yes","1024"
"100","100","632.6363636363636","632.6363636363636","black","legacy","legacy","legacy","0","incongruent","uniform","1","undefined","1","h","10","0","0","0","10","0","10","0","10","0","0","0","10","10","10","10","Wed Sep 22 11:17:39 2021","1500","The main experiment item","yes","Flankertask.osexp","/Users/mihailcodreanu/Desktop","no","mono","no","18","no","white","no","yes","768","legacy","10","10","/Users/mihailcodreanu/Desktop/mc-subject-2.csv","legacy","Lentiform Loewenfeld","3.3.9","0","h","NA","s","NA","NA","h","656","NA","22342","NA","NA","656","2","legacy","1024","2","48000","-16","experiment","SSHSS","2","even","43618","26674","NA","NA","NA","4315","NA","NA","44673","4323","NA","NA","44777","45434","44670","44776","Flanker task ","11","6959","11","yes","1024"
"100","100","623","623","black","legacy","legacy","legacy","0","incongruent","uniform","1","undefined","1","h","11","0","0","0","11","0","11","0","11","0","0","0","11","11","11","11","Wed Sep 22 11:17:39 2021","1500","The main experiment item","yes","Flankertask.osexp","/Users/mihailcodreanu/Desktop","no","mono","no","18","no","white","no","yes","768","legacy","11","11","/Users/mihailcodreanu/Desktop/mc-subject-2.csv","legacy","Lentiform Loewenfeld","3.3.9","0","h","NA","s","NA","NA","h","517","NA","22342","NA","NA","517","2","legacy","1024","2","48000","-16","experiment","SSHSS","2","even","45440","26674","NA","NA","NA","4315","NA","NA","46492","4323","NA","NA","46596","47114","46488","46596","Flanker task ","12","7476","12","yes","1024"
"100","100","605","605","black","legacy","legacy","legacy","0","congruent","uniform","1","undefined","1","h","12","0","0","0","12","0","12","0","12","0","0","0","12","12","12","12","Wed Sep 22 11:17:39 2021","1500","The main experiment item","yes","Flankertask.osexp","/Users/mihailcodreanu/Desktop","no","mono","no","18","no","white","no","yes","768","legacy","12","12","/Users/mihailcodreanu/Desktop/mc-subject-2.csv","legacy","Lentiform Loewenfeld","3.3.9","0","h","NA","s","NA","NA","h","389","NA","22342","NA","NA","389","2","legacy","1024","2","48000","-16","experiment","HHHHH","2","even","47121","26674","NA","NA","NA","4315","NA","NA","48173","4323","NA","NA","48276","48666","48169","48276","Flanker task ","13","7865","13","yes","1024"
"100","100","585.2142857142857","585.2142857142857","black","legacy","legacy","legacy","0","incongruent","uniform","1","undefined","1","h","13","0","0","0","13","0","13","0","13","0","0","0","13","13","13","13","Wed Sep 22 11:17:39 2021","1500","The main experiment item","yes","Flankertask.osexp","/Users/mihailcodreanu/Desktop","no","mono","no","18","no","white","no","yes","768","legacy","13","13","/Users/mihailcodreanu/Desktop/mc-subject-2.csv","legacy","Lentiform Loewenfeld","3.3.9","0","h","NA","s","NA","NA","h","328","NA","22342","NA","NA","328","2","legacy","1024","2","48000","-16","experiment","SSHSS","2","even","48672","26674","NA","NA","NA","4315","NA","NA","49722","4323","NA","NA","49825","50154","49718","49825","Flanker task ","14","8193","14","yes","1024"
"100","100","571.4","571.4","black","legacy","legacy","legacy","0","congruent","uniform","1","undefined","1","s","14","0","0","0","14","0","14","0","14","0","0","0","14","14","14","14","Wed Sep 22 11:17:39 2021","1500","The main experiment item","yes","Flankertask.osexp","/Users/mihailcodreanu/Desktop","no","mono","no","18","no","white","no","yes","768","legacy","14","14","/Users/mihailcodreanu/Desktop/mc-subject-2.csv","legacy","Lentiform Loewenfeld","3.3.9","0","s","NA","s","NA","NA","s","378","NA","22342","NA","NA","378","2","legacy","1024","2","48000","-16","experiment","SSSSS","2","even","50160","26674","NA","NA","NA","4315","NA","NA","51210","4323","NA","NA","51313","51692","51206","51313","Flanker task ","15","8571","15","yes","1024"
"100","100","561.375","561.375","black","legacy","legacy","legacy","0","incongruent","uniform","1","undefined","1","s","15","0","0","0","15","0","15","0","15","0","0","0","15","15","15","15","Wed Sep 22 11:17:39 2021","1500","The main experiment item","yes","Flankertask.osexp","/Users/mihailcodreanu/Desktop","no","mono","no","18","no","white","no","yes","768","legacy","15","15","/Users/mihailcodreanu/Desktop/mc-subject-2.csv","legacy","Lentiform Loewenfeld","3.3.9","0","s","NA","s","NA","NA","s","411","NA","22342","NA","NA","411","2","legacy","1024","2","48000","-16","experiment","HHSHH","2","even","51698","26674","NA","NA","NA","4315","NA","NA","52750","4323","NA","NA","52854","53266","52746","52853","Flanker task ","16","8982","16","yes","1024"
"100","100","558.4705882352941","558.4705882352941","black","legacy","legacy","legacy","0","incongruent","uniform","1","undefined","1","h","16","0","0","0","16","0","16","0","16","0","0","0","16","16","16","16","Wed Sep 22 11:17:39 2021","1500","The main experiment item","yes","Flankertask.osexp","/Users/mihailcodreanu/Desktop","no","mono","no","18","no","white","no","yes","768","legacy","16","16","/Users/mihailcodreanu/Desktop/mc-subject-2.csv","legacy","Lentiform Loewenfeld","3.3.9","0","h","NA","s","NA","NA","h","512","NA","22342","NA","NA","512","2","legacy","1024","2","48000","-16","experiment","SSHSS","2","even","53272","26674","NA","NA","NA","4315","NA","NA","54322","4323","NA","NA","54425","54938","54318","54425","Flanker task ","17","9494","17","yes","1024"
"100","100","546","546","black","legacy","legacy","legacy","0","incongruent","uniform","1","undefined","1","h","17","0","0","0","17","0","17","0","17","0","0","0","17","17","17","17","Wed Sep 22 11:17:39 2021","1500","The main experiment item","yes","Flankertask.osexp","/Users/mihailcodreanu/Desktop","no","mono","no","18","no","white","no","yes","768","legacy","17","17","/Users/mihailcodreanu/Desktop/mc-subject-2.csv","legacy","Lentiform Loewenfeld","3.3.9","0","h","NA","s","NA","NA","h","334","NA","22342","NA","NA","334","2","legacy","1024","2","48000","-16","experiment","SSHSS","2","even","54943","26674","NA","NA","NA","4315","NA","NA","55996","4323","NA","NA","56099","56434","55992","56099","Flanker task ","18","9828","18","yes","1024"
"94.73684210526316","94.73684210526316","537.2631578947369","537.2631578947369","black","legacy","legacy","legacy","0","incongruent","uniform","0","undefined","0","s","18","0","0","0","18","0","18","0","18","0","0","0","18","18","18","18","Wed Sep 22 11:17:39 2021","1500","The main experiment item","yes","Flankertask.osexp","/Users/mihailcodreanu/Desktop","no","mono","no","18","no","white","no","yes","768","legacy","18","18","/Users/mihailcodreanu/Desktop/mc-subject-2.csv","legacy","Lentiform Loewenfeld","3.3.9","0","h","NA","s","NA","NA","h","380","NA","22342","NA","NA","380","2","legacy","1024","2","48000","-16","experiment","HHSHH","2","even","56441","26674","NA","NA","NA","4315","NA","NA","57494","4323","NA","NA","57597","57978","57490","57597","Flanker task ","18","10208","19","yes","1024"
"95","95","541.05","541.05","black","legacy","legacy","legacy","0","incongruent","uniform","1","undefined","1","s","19","0","0","0","19","0","19","0","19","0","0","0","19","19","19","19","Wed Sep 22 11:17:39 2021","1500","The main experiment item","yes","Flankertask.osexp","/Users/mihailcodreanu/Desktop","no","mono","no","18","no","white","no","yes","768","legacy","19","19","/Users/mihailcodreanu/Desktop/mc-subject-2.csv","legacy","Lentiform Loewenfeld","3.3.9","0","s","NA","s","NA","NA","s","613","NA","22342","NA","NA","613","2","legacy","1024","2","48000","-16","experiment","HHSHH","2","even","58488","26674","NA","NA","57984","4315","NA","NA","59541","4323","NA","NA","59644","60258","59537","59644","Flanker task ","19","10821","20","yes","1024"
"95.23809523809524","95.23809523809524","532.2380952380952","532.2380952380952","black","legacy","legacy","legacy","0","incongruent","uniform","1","undefined","1","s","20","0","0","0","20","0","20","0","20","0","0","0","20","20","20","20","Wed Sep 22 11:17:39 2021","1500","The main experiment item","yes","Flankertask.osexp","/Users/mihailcodreanu/Desktop","no","mono","no","18","no","white","no","yes","768","legacy","20","20","/Users/mihailcodreanu/Desktop/mc-subject-2.csv","legacy","Lentiform Loewenfeld","3.3.9","0","s","NA","s","NA","NA","s","356","NA","22342","NA","NA","356","2","legacy","1024","2","48000","-16","experiment","HHSHH","2","even","60265","26674","NA","NA","57984","4315","NA","NA","61317","4323","NA","NA","61421","61778","61313","61420","Flanker task ","20","11177","21","yes","1024"
"95.45454545454545","95.45454545454545","532","532","black","legacy","legacy","legacy","0","incongruent","uniform","1","undefined","1","h","21","0","0","0","21","0","21","0","21","0","0","0","21","21","21","21","Wed Sep 22 11:17:39 2021","1500","The main experiment item","yes","Flankertask.osexp","/Users/mihailcodreanu/Desktop","no","mono","no","18","no","white","no","yes","768","legacy","21","21","/Users/mihailcodreanu/Desktop/mc-subject-2.csv","legacy","Lentiform Loewenfeld","3.3.9","0","h","NA","s","NA","NA","h","527","NA","22342","NA","NA","527","2","legacy","1024","2","48000","-16","experiment","SSHSS","2","even","61784","26674","NA","NA","57984","4315","NA","NA","62835","4323","NA","NA","62938","63466","62832","62938","Flanker task ","21","11704","22","yes","1024"
"95.65217391304348","95.65217391304348","541.0434782608696","541.0434782608696","black","legacy","legacy","legacy","0","congruent","uniform","1","undefined","1","s","22","0","0","0","22","0","22","0","22","0","0","0","22","22","22","22","Wed Sep 22 11:17:39 2021","1500","The main experiment item","yes","Flankertask.osexp","/Users/mihailcodreanu/Desktop","no","mono","no","18","no","white","no","yes","768","legacy","22","22","/Users/mihailcodreanu/Desktop/mc-subject-2.csv","legacy","Lentiform Loewenfeld","3.3.9","0","s","NA","s","NA","NA","s","740","NA","22342","NA","NA","740","2","legacy","1024","2","48000","-16","experiment","SSSSS","2","even","63474","26674","NA","NA","57984","4315","NA","NA","64525","4323","NA","NA","64629","65370","64520","64628","Flanker task ","22","12444","23","yes","1024"
"95.83333333333333","95.83333333333333","536.4583333333334","536.4583333333334","black","legacy","legacy","legacy","0","congruent","uniform","1","undefined","1","s","23","0","0","0","23","0","23","0","23","0","0","0","23","23","23","23","Wed Sep 22 11:17:39 2021","1500","The main experiment item","yes","Flankertask.osexp","/Users/mihailcodreanu/Desktop","no","mono","no","18","no","white","no","yes","768","legacy","23","23","/Users/mihailcodreanu/Desktop/mc-subject-2.csv","legacy","Lentiform Loewenfeld","3.3.9","0","s","NA","s","NA","NA","s","431","NA","22342","NA","NA","431","2","legacy","1024","2","48000","-16","experiment","SSSSS","2","even","65375","26674","NA","NA","57984","4315","NA","NA","66427","4323","NA","NA","66530","66962","66423","66530","Flanker task ","23","12875","24","yes","1024"
"96","96","530.92","530.92","black","legacy","legacy","legacy","0","congruent","uniform","1","undefined","1","s","24","0","0","0","24","0","24","0","24","0","0","0","24","24","24","24","Wed Sep 22 11:17:39 2021","1500","The main experiment item","yes","Flankertask.osexp","/Users/mihailcodreanu/Desktop","no","mono","no","18","no","white","no","yes","768","legacy","24","24","/Users/mihailcodreanu/Desktop/mc-subject-2.csv","legacy","Lentiform Loewenfeld","3.3.9","0","s","NA","s","NA","NA","s","398","NA","22342","NA","NA","398","2","legacy","1024","2","48000","-16","experiment","SSSSS","2","even","66969","26674","NA","NA","57984","4315","NA","NA","68020","4323","NA","NA","68123","68522","68015","68123","Flanker task ","24","13273","25","yes","1024"
"96.15384615384616","96.15384615384616","525.7692307692307","525.7692307692307","black","legacy","legacy","legacy","0","congruent","uniform","1","undefined","1","s","25","0","0","0","25","0","25","0","25","0","0","0","25","25","25","25","Wed Sep 22 11:17:39 2021","1500","The main experiment item","yes","Flankertask.osexp","/Users/mihailcodreanu/Desktop","no","mono","no","18","no","white","no","yes","768","legacy","25","25","/Users/mihailcodreanu/Desktop/mc-subject-2.csv","legacy","Lentiform Loewenfeld","3.3.9","0","s","NA","s","NA","NA","s","397","NA","22342","NA","NA","397","2","legacy","1024","2","48000","-16","experiment","SSSSS","2","even","68529","26674","NA","NA","57984","4315","NA","NA","69580","4323","NA","NA","69684","70082","69576","69683","Flanker task ","25","13670","26","yes","1024"
"96.29629629629629","96.29629629629629","520.3703703703703","520.3703703703703","black","legacy","legacy","legacy","0","incongruent","uniform","1","undefined","1","s","26","0","0","0","26","0","26","0","26","0","0","0","26","26","26","26","Wed Sep 22 11:17:39 2021","1500","The main experiment item","yes","Flankertask.osexp","/Users/mihailcodreanu/Desktop","no","mono","no","18","no","white","no","yes","768","legacy","26","26","/Users/mihailcodreanu/Desktop/mc-subject-2.csv","legacy","Lentiform Loewenfeld","3.3.9","0","s","NA","s","NA","NA","s","380","NA","22342","NA","NA","380","2","legacy","1024","2","48000","-16","experiment","HHSHH","2","even","70087","26674","NA","NA","57984","4315","NA","NA","71136","4323","NA","NA","71239","71620","71133","71239","Flanker task ","26","14050","27","yes","1024"
"96.42857142857143","96.42857142857143","515.7857142857143","515.7857142857143","black","legacy","legacy","legacy","0","congruent","uniform","1","undefined","1","h","27","0","0","0","27","0","27","0","27","0","0","0","27","27","27","27","Wed Sep 22 11:17:39 2021","1500","The main experiment item","yes","Flankertask.osexp","/Users/mihailcodreanu/Desktop","no","mono","no","18","no","white","no","yes","768","legacy","27","27","/Users/mihailcodreanu/Desktop/mc-subject-2.csv","legacy","Lentiform Loewenfeld","3.3.9","0","h","NA","s","NA","NA","h","392","NA","22342","NA","NA","392","2","legacy","1024","2","48000","-16","experiment","HHHHH","2","even","71624","26674","NA","NA","57984","4315","NA","NA","72673","4323","NA","NA","72777","73170","72669","72777","Flanker task ","27","14442","28","yes","1024"
"96.55172413793103","96.55172413793103","513.1724137931035","513.1724137931035","black","legacy","legacy","legacy","0","congruent","uniform","1","undefined","1","h","28","0","0","0","28","0","28","0","28","0","0","0","28","28","28","28","Wed Sep 22 11:17:39 2021","1500","The main experiment item","yes","Flankertask.osexp","/Users/mihailcodreanu/Desktop","no","mono","no","18","no","white","no","yes","768","legacy","28","28","/Users/mihailcodreanu/Desktop/mc-subject-2.csv","legacy","Lentiform Loewenfeld","3.3.9","0","h","NA","s","NA","NA","h","440","NA","22342","NA","NA","440","2","legacy","1024","2","48000","-16","experiment","HHHHH","2","even","73176","26674","NA","NA","57984","4315","NA","NA","74226","4323","NA","NA","74329","74770","74222","74329","Flanker task ","28","14882","29","yes","1024"
"96.66666666666667","96.66666666666667","513.1333333333333","513.1333333333333","black","legacy","legacy","legacy","0","incongruent","uniform","1","undefined","1","h","29","0","0","0","29","0","29","0","29","0","0","0","29","29","29","29","Wed Sep 22 11:17:39 2021","1500","The main experiment item","yes","Flankertask.osexp","/Users/mihailcodreanu/Desktop","no","mono","no","18","no","white","no","yes","768","legacy","29","29","/Users/mihailcodreanu/Desktop/mc-subject-2.csv","legacy","Lentiform Loewenfeld","3.3.9","0","h","NA","s","NA","NA","h","512","NA","22342","NA","NA","512","2","legacy","1024","2","48000","-16","experiment","SSHSS","2","even","74777","26674","NA","NA","57984","4315","NA","NA","75826","4323","NA","NA","75929","76442","75822","75929","Flanker task ","29","15394","30","yes","1024"
"96.7741935483871","96.7741935483871","508.1290322580645","508.1290322580645","black","legacy","legacy","legacy","0","congruent","uniform","1","undefined","1","h","30","0","0","0","30","0","30","0","30","0","0","0","30","30","30","30","Wed Sep 22 11:17:39 2021","1500","The main experiment item","yes","Flankertask.osexp","/Users/mihailcodreanu/Desktop","no","mono","no","18","no","white","no","yes","768","legacy","30","30","/Users/mihailcodreanu/Desktop/mc-subject-2.csv","legacy","Lentiform Loewenfeld","3.3.9","0","h","NA","s","NA","NA","h","358","NA","22342","NA","NA","358","2","legacy","1024","2","48000","-16","experiment","HHHHH","2","even","76448","26674","NA","NA","57984","4315","NA","NA","77500","4323","NA","NA","77603","77962","77497","77603","Flanker task ","30","15752","31","yes","1024"
"96.875","96.875","501.1875","501.1875","black","legacy","legacy","legacy","0","congruent","uniform","1","undefined","1","h","31","0","0","0","31","0","31","0","31","0","0","0","31","31","31","31","Wed Sep 22 11:17:39 2021","1500","The main experiment item","yes","Flankertask.osexp","/Users/mihailcodreanu/Desktop","no","mono","no","18","no","white","no","yes","768","legacy","31","31","/Users/mihailcodreanu/Desktop/mc-subject-2.csv","legacy","Lentiform Loewenfeld","3.3.9","0","h","NA","s","NA","NA","h","286","NA","22342","NA","NA","286","2","legacy","1024","2","48000","-16","experiment","HHHHH","2","even","77968","26674","NA","NA","57984","4315","NA","NA","79020","4323","NA","NA","79123","79410","79016","79123","Flanker task ","31","16038","32","yes","1024"
"96.96969696969697","96.96969696969697","498.09090909090907","498.09090909090907","black","legacy","legacy","legacy","0","congruent","uniform","1","undefined","1","s","32","0","0","0","32","0","32","0","32","0","0","0","32","32","32","32","Wed Sep 22 11:17:39 2021","1500","The main experiment item","yes","Flankertask.osexp","/Users/mihailcodreanu/Desktop","no","mono","no","18","no","white","no","yes","768","legacy","32","32","/Users/mihailcodreanu/Desktop/mc-subject-2.csv","legacy","Lentiform Loewenfeld","3.3.9","0","s","NA","s","NA","NA","s","399","NA","22342","NA","NA","399","2","legacy","1024","2","48000","-16","experiment","SSSSS","2","even","79416","26674","NA","NA","57984","4315","NA","NA","80467","4323","NA","NA","80570","80970","80463","80570","Flanker task ","32","16437","33","yes","1024"
"97.05882352941177","97.05882352941177","499.29411764705884","499.29411764705884","black","legacy","legacy","legacy","0","incongruent","uniform","1","undefined","1","h","33","0","0","0","33","0","33","0","33","0","0","0","33","33","33","33","Wed Sep 22 11:17:39 2021","1500","The main experiment item","yes","Flankertask.osexp","/Users/mihailcodreanu/Desktop","no","mono","no","18","no","white","no","yes","768","legacy","33","33","/Users/mihailcodreanu/Desktop/mc-subject-2.csv","legacy","Lentiform Loewenfeld","3.3.9","0","h","NA","s","NA","NA","h","539","NA","22342","NA","NA","539","2","legacy","1024","2","48000","-16","experiment","SSHSS","2","even","80977","26674","NA","NA","57984","4315","NA","NA","82031","4323","NA","NA","82134","82674","82027","82134","Flanker task ","33","16976","34","yes","1024"
"97.14285714285714","97.14285714285714","495.0285714285714","495.0285714285714","black","legacy","legacy","legacy","0","congruent","uniform","1","undefined","1","h","34","0","0","0","34","0","34","0","34","0","0","0","34","34","34","34","Wed Sep 22 11:17:39 2021","1500","The main experiment item","yes","Flankertask.osexp","/Users/mihailcodreanu/Desktop","no","mono","no","18","no","white","no","yes","768","legacy","34","34","/Users/mihailcodreanu/Desktop/mc-subject-2.csv","legacy","Lentiform Loewenfeld","3.3.9","0","h","NA","s","NA","NA","h","350","NA","22342","NA","NA","350","2","legacy","1024","2","48000","-16","experiment","HHHHH","2","even","82681","26674","NA","NA","57984","4315","NA","NA","83732","4323","NA","NA","83835","84186","83728","83835","Flanker task ","34","17326","35","yes","1024"
"97.22222222222223","97.22222222222223","492.75","492.75","black","legacy","legacy","legacy","0","incongruent","uniform","1","undefined","1","s","35","0","0","0","35","0","35","0","35","0","0","0","35","35","35","35","Wed Sep 22 11:17:39 2021","1500","The main experiment item","yes","Flankertask.osexp","/Users/mihailcodreanu/Desktop","no","mono","no","18","no","white","no","yes","768","legacy","35","35","/Users/mihailcodreanu/Desktop/mc-subject-2.csv","legacy","Lentiform Loewenfeld","3.3.9","0","s","NA","s","NA","NA","s","413","NA","22342","NA","NA","413","2","legacy","1024","2","48000","-16","experiment","HHSHH","2","even","84193","26674","NA","NA","57984","4315","NA","NA","85244","4323","NA","NA","85348","85762","85240","85347","Flanker task ","35","17739","36","yes","1024"
"97.29729729729729","97.29729729729729","493.6756756756757","493.6756756756757","black","legacy","legacy","legacy","0","incongruent","uniform","1","undefined","1","h","36","0","0","0","36","0","36","0","36","0","0","0","36","36","36","36","Wed Sep 22 11:17:39 2021","1500","The main experiment item","yes","Flankertask.osexp","/Users/mihailcodreanu/Desktop","no","mono","no","18","no","white","no","yes","768","legacy","36","36","/Users/mihailcodreanu/Desktop/mc-subject-2.csv","legacy","Lentiform Loewenfeld","3.3.9","0","h","NA","s","NA","NA","h","527","NA","22342","NA","NA","527","2","legacy","1024","2","48000","-16","experiment","SSHSS","2","even","85769","26674","NA","NA","57984","4315","NA","NA","86819","4323","NA","NA","86922","87450","86815","86922","Flanker task ","36","18266","37","yes","1024"
"97.36842105263158","97.36842105263158","492.6578947368421","492.6578947368421","black","legacy","legacy","legacy","0","congruent","uniform","1","undefined","1","s","37","0","0","0","37","0","37","0","37","0","0","0","37","37","37","37","Wed Sep 22 11:17:39 2021","1500","The main experiment item","yes","Flankertask.osexp","/Users/mihailcodreanu/Desktop","no","mono","no","18","no","white","no","yes","768","legacy","37","37","/Users/mihailcodreanu/Desktop/mc-subject-2.csv","legacy","Lentiform Loewenfeld","3.3.9","0","s","NA","s","NA","NA","s","455","NA","22342","NA","NA","455","2","legacy","1024","2","48000","-16","experiment","SSSSS","2","even","87456","26674","NA","NA","57984","4315","NA","NA","88513","4323","NA","NA","88618","89074","88509","88618","Flanker task ","37","18721","38","yes","1024"
"97.43589743589743","97.43589743589743","492.5897435897436","492.5897435897436","black","legacy","legacy","legacy","0","incongruent","uniform","1","undefined","1","s","38","0","0","0","38","0","38","0","38","0","0","0","38","38","38","38","Wed Sep 22 11:17:39 2021","1500","The main experiment item","yes","Flankertask.osexp","/Users/mihailcodreanu/Desktop","no","mono","no","18","no","white","no","yes","768","legacy","38","38","/Users/mihailcodreanu/Desktop/mc-subject-2.csv","legacy","Lentiform Loewenfeld","3.3.9","0","s","NA","s","NA","NA","s","490","NA","22342","NA","NA","490","2","legacy","1024","2","48000","-16","experiment","HHSHH","2","even","89080","26674","NA","NA","57984","4315","NA","NA","90129","4323","NA","NA","90232","90723","90125","90232","Flanker task ","38","19211","39","yes","1024"
"97.5","97.5","493.425","493.425","black","legacy","legacy","legacy","0","incongruent","uniform","1","undefined","1","h","39","0","0","0","39","0","39","0","39","0","0","0","39","39","39","39","Wed Sep 22 11:17:39 2021","1500","The main experiment item","yes","Flankertask.osexp","/Users/mihailcodreanu/Desktop","no","mono","no","18","no","white","no","yes","768","legacy","39","39","/Users/mihailcodreanu/Desktop/mc-subject-2.csv","legacy","Lentiform Loewenfeld","3.3.9","0","h","NA","s","NA","NA","h","526","NA","22342","NA","NA","526","2","legacy","1024","2","48000","-16","experiment","SSHSS","2","even","90729","26674","NA","NA","57984","4315","NA","NA","91780","4323","NA","NA","91883","92410","91776","91883","Flanker task ","39","19737","40","yes","1024"
"97.5609756097561","97.5609756097561","492.3170731707317","492.3170731707317","black","legacy","legacy","legacy","0","congruent","uniform","1","undefined","1","s","40","0","0","0","40","0","40","0","40","0","0","0","40","40","40","40","Wed Sep 22 11:17:39 2021","1500","The main experiment item","yes","Flankertask.osexp","/Users/mihailcodreanu/Desktop","no","mono","no","18","no","white","no","yes","768","legacy","40","40","/Users/mihailcodreanu/Desktop/mc-subject-2.csv","legacy","Lentiform Loewenfeld","3.3.9","0","s","NA","s","NA","NA","s","448","NA","22342","NA","NA","448","2","legacy","1024","2","48000","-16","experiment","SSSSS","2","even","92417","26674","NA","NA","57984","4315","NA","NA","93467","4323","NA","NA","93570","94018","93464","93570","Flanker task ","40","20185","41","yes","1024"
"95.23809523809524","95.23809523809524","490.5238095238095","490.5238095238095","black","legacy","legacy","legacy","0","incongruent","uniform","0","undefined","0","h","41","0","0","0","41","0","41","0","41","0","0","0","41","41","41","41","Wed Sep 22 11:17:39 2021","1500","The main experiment item","yes","Flankertask.osexp","/Users/mihailcodreanu/Desktop","no","mono","no","18","no","white","no","yes","768","legacy","41","41","/Users/mihailcodreanu/Desktop/mc-subject-2.csv","legacy","Lentiform Loewenfeld","3.3.9","0","s","NA","s","NA","NA","s","417","NA","22342","NA","NA","417","2","legacy","1024","2","48000","-16","experiment","SSHSS","2","even","94025","26674","NA","NA","57984","4315","NA","NA","95073","4323","NA","NA","95176","95594","95070","95176","Flanker task ","40","20602","42","yes","1024"
"95.34883720930233","95.34883720930233","497.8837209302326","497.8837209302326","black","legacy","legacy","legacy","0","congruent","uniform","1","undefined","1","s","42","0","0","0","42","0","42","0","42","0","0","0","42","42","42","42","Wed Sep 22 11:17:39 2021","1500","The main experiment item","yes","Flankertask.osexp","/Users/mihailcodreanu/Desktop","no","mono","no","18","no","white","no","yes","768","legacy","42","42","/Users/mihailcodreanu/Desktop/mc-subject-2.csv","legacy","Lentiform Loewenfeld","3.3.9","0","s","NA","s","NA","NA","s","807","NA","22342","NA","NA","807","2","legacy","1024","2","48000","-16","experiment","SSSSS","2","even","96104","26674","NA","NA","95600","4315","NA","NA","97154","4323","NA","NA","97258","98066","97150","97258","Flanker task ","41","21409","43","yes","1024"
"95.45454545454545","95.45454545454545","495.65909090909093","495.65909090909093","black","legacy","legacy","legacy","0","incongruent","uniform","1","undefined","1","s","43","0","0","0","43","0","43","0","43","0","0","0","43","43","43","43","Wed Sep 22 11:17:39 2021","1500","The main experiment item","yes","Flankertask.osexp","/Users/mihailcodreanu/Desktop","no","mono","no","18","no","white","no","yes","768","legacy","43","43","/Users/mihailcodreanu/Desktop/mc-subject-2.csv","legacy","Lentiform Loewenfeld","3.3.9","0","s","NA","s","NA","NA","s","400","NA","22342","NA","NA","400","2","legacy","1024","2","48000","-16","experiment","HHSHH","2","even","98072","26674","NA","NA","95600","4315","NA","NA","99122","4323","NA","NA","99225","99626","99118","99225","Flanker task ","42","21809","44","yes","1024"
"93.33333333333333","93.33333333333333","491.97777777777776","491.97777777777776","black","legacy","legacy","legacy","0","congruent","uniform","0","undefined","0","h","44","0","0","0","44","0","44","0","44","0","0","0","44","44","44","44","Wed Sep 22 11:17:39 2021","1500","The main experiment item","yes","Flankertask.osexp","/Users/mihailcodreanu/Desktop","no","mono","no","18","no","white","no","yes","768","legacy","44","44","/Users/mihailcodreanu/Desktop/mc-subject-2.csv","legacy","Lentiform Loewenfeld","3.3.9","0","s","NA","s","NA","NA","s","330","NA","22342","NA","NA","330","2","legacy","1024","2","48000","-16","experiment","HHHHH","2","even","99632","26674","NA","NA","95600","4315","NA","NA","100682","4323","NA","NA","100786","101116","100678","100785","Flanker task ","42","22139","45","yes","1024"
"93.47826086956522","93.47826086956522","496.3695652173913","496.3695652173913","black","legacy","legacy","legacy","0","congruent","uniform","1","undefined","1","s","45","0","0","0","45","0","45","0","45","0","0","0","45","45","45","45","Wed Sep 22 11:17:39 2021","1500","The main experiment item","yes","Flankertask.osexp","/Users/mihailcodreanu/Desktop","no","mono","no","18","no","white","no","yes","768","legacy","45","45","/Users/mihailcodreanu/Desktop/mc-subject-2.csv","legacy","Lentiform Loewenfeld","3.3.9","0","s","NA","s","NA","NA","s","694","NA","22342","NA","NA","694","2","legacy","1024","2","48000","-16","experiment","SSSSS","2","even","101625","26674","NA","NA","101121","4315","NA","NA","102676","4323","NA","NA","102779","103474","102672","102779","Flanker task ","43","22833","46","yes","1024"
"93.61702127659575","93.61702127659575","495.8723404255319","495.8723404255319","black","legacy","legacy","legacy","0","congruent","uniform","1","undefined","1","h","46","0","0","0","46","0","46","0","46","0","0","0","46","46","46","46","Wed Sep 22 11:17:39 2021","1500","The main experiment item","yes","Flankertask.osexp","/Users/mihailcodreanu/Desktop","no","mono","no","18","no","white","no","yes","768","legacy","46","46","/Users/mihailcodreanu/Desktop/mc-subject-2.csv","legacy","Lentiform Loewenfeld","3.3.9","0","h","NA","s","NA","NA","h","473","NA","22342","NA","NA","473","2","legacy","1024","2","48000","-16","experiment","HHHHH","2","even","103480","26674","NA","NA","101121","4315","NA","NA","104529","4323","NA","NA","104632","105106","104525","104632","Flanker task ","44","23306","47","yes","1024"
"93.75","93.75","498.5625","498.5625","black","legacy","legacy","legacy","0","incongruent","uniform","1","undefined","1","s","47","0","0","0","47","0","47","0","47","0","0","0","47","47","47","47","Wed Sep 22 11:17:39 2021","1500","The main experiment item","yes","Flankertask.osexp","/Users/mihailcodreanu/Desktop","no","mono","no","18","no","white","no","yes","768","legacy","47","47","/Users/mihailcodreanu/Desktop/mc-subject-2.csv","legacy","Lentiform Loewenfeld","3.3.9","0","s","NA","s","NA","NA","s","625","NA","22342","NA","NA","625","2","legacy","1024","2","48000","-16","experiment","HHSHH","2","even","105112","26674","NA","NA","101121","4315","NA","NA","106161","4323","NA","NA","106264","106890","106157","106264","Flanker task ","45","23931","48","yes","1024"
"93.87755102040816","93.87755102040816","496.53061224489795","496.53061224489795","black","legacy","legacy","legacy","0","congruent","uniform","1","undefined","1","s","48","0","0","0","48","0","48","0","48","0","0","0","48","48","48","48","Wed Sep 22 11:17:39 2021","1500","The main experiment item","yes","Flankertask.osexp","/Users/mihailcodreanu/Desktop","no","mono","no","18","no","white","no","yes","768","legacy","48","48","/Users/mihailcodreanu/Desktop/mc-subject-2.csv","legacy","Lentiform Loewenfeld","3.3.9","0","s","NA","s","NA","NA","s","399","NA","22342","NA","NA","399","2","legacy","1024","2","48000","-16","experiment","SSSSS","2","even","106896","26674","NA","NA","101121","4315","NA","NA","107946","4323","NA","NA","108050","108450","107943","108050","Flanker task ","46","24330","49","yes","1024"
"94","94","495.2","495.2","black","legacy","legacy","legacy","0","congruent","uniform","1","undefined","1","s","49","0","0","0","49","0","49","0","49","0","0","0","49","49","49","49","Wed Sep 22 11:17:39 2021","1500","The main experiment item","yes","Flankertask.osexp","/Users/mihailcodreanu/Desktop","no","mono","no","18","no","white","no","yes","768","legacy","49","49","/Users/mihailcodreanu/Desktop/mc-subject-2.csv","legacy","Lentiform Loewenfeld","3.3.9","0","s","NA","s","NA","NA","s","430","NA","22342","NA","NA","430","2","legacy","1024","2","48000","-16","experiment","SSSSS","2","even","108456","26674","NA","NA","101121","4315","NA","NA","109507","4323","NA","NA","109611","110042","109503","109610","Flanker task ","47","24760","50","yes","1024"
"94.11764705882354","94.11764705882354","495.37254901960785","495.37254901960785","black","legacy","legacy","legacy","0","incongruent","uniform","1","undefined","1","s","50","0","0","0","50","0","50","0","50","0","0","0","50","50","50","50","Wed Sep 22 11:17:39 2021","1500","The main experiment item","yes","Flankertask.osexp","/Users/mihailcodreanu/Desktop","no","mono","no","18","no","white","no","yes","768","legacy","50","50","/Users/mihailcodreanu/Desktop/mc-subject-2.csv","legacy","Lentiform Loewenfeld","3.3.9","0","s","NA","s","NA","NA","s","504","NA","22342","NA","NA","504","2","legacy","1024","2","48000","-16","experiment","HHSHH","2","even","110048","26674","NA","NA","101121","4315","NA","NA","111098","4323","NA","NA","111201","111706","111094","111201","Flanker task ","48","25264","51","yes","1024"
"94.23076923076923","94.23076923076923","493.7692307692308","493.7692307692308","black","legacy","legacy","legacy","0","congruent","uniform","1","undefined","1","s","51","0","0","0","51","0","51","0","51","0","0","0","51","51","51","51","Wed Sep 22 11:17:39 2021","1500","The main experiment item","yes","Flankertask.osexp","/Users/mihailcodreanu/Desktop","no","mono","no","18","no","white","no","yes","768","legacy","51","51","/Users/mihailcodreanu/Desktop/mc-subject-2.csv","legacy","Lentiform Loewenfeld","3.3.9","0","s","NA","s","NA","NA","s","412","NA","22342","NA","NA","412","2","legacy","1024","2","48000","-16","experiment","SSSSS","2","even","111712","26674","NA","NA","101121","4315","NA","NA","112765","4323","NA","NA","112869","113282","112761","112868","Flanker task ","49","25676","52","yes","1024"
"94.33962264150944","94.33962264150944","493.8867924528302","493.8867924528302","black","legacy","legacy","legacy","0","incongruent","uniform","1","undefined","1","h","52","0","0","0","52","0","52","0","52","0","0","0","52","52","52","52","Wed Sep 22 11:17:39 2021","1500","The main experiment item","yes","Flankertask.osexp","/Users/mihailcodreanu/Desktop","no","mono","no","18","no","white","no","yes","768","legacy","52","52","/Users/mihailcodreanu/Desktop/mc-subject-2.csv","legacy","Lentiform Loewenfeld","3.3.9","0","h","NA","s","NA","NA","h","500","NA","22342","NA","NA","500","2","legacy","1024","2","48000","-16","experiment","SSHSS","2","even","113289","26674","NA","NA","101121","4315","NA","NA","114341","4323","NA","NA","114445","114946","114337","114444","Flanker task ","50","26176","53","yes","1024"
"94.44444444444444","94.44444444444444","491.68518518518516","491.68518518518516","black","legacy","legacy","legacy","0","incongruent","uniform","1","undefined","1","h","53","0","0","0","53","0","53","0","53","0","0","0","53","53","53","53","Wed Sep 22 11:17:39 2021","1500","The main experiment item","yes","Flankertask.osexp","/Users/mihailcodreanu/Desktop","no","mono","no","18","no","white","no","yes","768","legacy","53","53","/Users/mihailcodreanu/Desktop/mc-subject-2.csv","legacy","Lentiform Loewenfeld","3.3.9","0","h","NA","s","NA","NA","h","375","NA","22342","NA","NA","375","2","legacy","1024","2","48000","-16","experiment","SSHSS","2","even","114953","26674","NA","NA","101121","4315","NA","NA","116002","4323","NA","NA","116106","116482","115998","116106","Flanker task ","51","26551","54","yes","1024"
"94.54545454545455","94.54545454545455","490.45454545454544","490.45454545454544","black","legacy","legacy","legacy","0","congruent","uniform","1","undefined","1","h","54","0","0","0","54","0","54","0","54","0","0","0","54","54","54","54","Wed Sep 22 11:17:39 2021","1500","The main experiment item","yes","Flankertask.osexp","/Users/mihailcodreanu/Desktop","no","mono","no","18","no","white","no","yes","768","legacy","54","54","/Users/mihailcodreanu/Desktop/mc-subject-2.csv","legacy","Lentiform Loewenfeld","3.3.9","0","h","NA","s","NA","NA","h","424","NA","22342","NA","NA","424","2","legacy","1024","2","48000","-16","experiment","HHHHH","2","even","116489","26674","NA","NA","101121","4315","NA","NA","117538","4323","NA","NA","117641","118066","117534","117641","Flanker task ","52","26975","55","yes","1024"
"94.64285714285714","94.64285714285714","488.19642857142856","488.19642857142856","black","legacy","legacy","legacy","0","congruent","uniform","1","undefined","1","s","55","0","0","0","55","0","55","0","55","0","0","0","55","55","55","55","Wed Sep 22 11:17:39 2021","1500","The main experiment item","yes","Flankertask.osexp","/Users/mihailcodreanu/Desktop","no","mono","no","18","no","white","no","yes","768","legacy","55","55","/Users/mihailcodreanu/Desktop/mc-subject-2.csv","legacy","Lentiform Loewenfeld","3.3.9","0","s","NA","s","NA","NA","s","364","NA","22342","NA","NA","364","2","legacy","1024","2","48000","-16","experiment","SSSSS","2","even","118072","26674","NA","NA","101121","4315","NA","NA","119125","4323","NA","NA","119229","119594","119121","119229","Flanker task ","53","27339","56","yes","1024"
"94.73684210526316","94.73684210526316","486.50877192982455","486.50877192982455","black","legacy","legacy","legacy","0","congruent","uniform","1","undefined","1","s","56","0","0","0","56","0","56","0","56","0","0","0","56","56","56","56","Wed Sep 22 11:17:39 2021","1500","The main experiment item","yes","Flankertask.osexp","/Users/mihailcodreanu/Desktop","no","mono","no","18","no","white","no","yes","768","legacy","56","56","/Users/mihailcodreanu/Desktop/mc-subject-2.csv","legacy","Lentiform Loewenfeld","3.3.9","0","s","NA","s","NA","NA","s","392","NA","22342","NA","NA","392","2","legacy","1024","2","48000","-16","experiment","SSSSS","2","even","119601","26674","NA","NA","101121","4315","NA","NA","120650","4323","NA","NA","120753","121146","120647","120753","Flanker task ","54","27731","57","yes","1024"
"94.82758620689656","94.82758620689656","484.6034482758621","484.6034482758621","black","legacy","legacy","legacy","0","incongruent","uniform","1","undefined","1","s","57","0","0","0","57","0","57","0","57","0","0","0","57","57","57","57","Wed Sep 22 11:17:39 2021","1500","The main experiment item","yes","Flankertask.osexp","/Users/mihailcodreanu/Desktop","no","mono","no","18","no","white","no","yes","768","legacy","57","57","/Users/mihailcodreanu/Desktop/mc-subject-2.csv","legacy","Lentiform Loewenfeld","3.3.9","0","s","NA","s","NA","NA","s","376","NA","22342","NA","NA","376","2","legacy","1024","2","48000","-16","experiment","HHSHH","2","even","121152","26674","NA","NA","101121","4315","NA","NA","122201","4323","NA","NA","122305","122682","122197","122304","Flanker task ","55","28107","58","yes","1024"
"94.91525423728814","94.91525423728814","482.22033898305085","482.22033898305085","black","legacy","legacy","legacy","0","incongruent","uniform","1","undefined","1","s","58","0","0","0","58","0","58","0","58","0","0","0","58","58","58","58","Wed Sep 22 11:17:39 2021","1500","The main experiment item","yes","Flankertask.osexp","/Users/mihailcodreanu/Desktop","no","mono","no","18","no","white","no","yes","768","legacy","58","58","/Users/mihailcodreanu/Desktop/mc-subject-2.csv","legacy","Lentiform Loewenfeld","3.3.9","0","s","NA","s","NA","NA","s","344","NA","22342","NA","NA","344","2","legacy","1024","2","48000","-16","experiment","HHSHH","2","even","122689","26674","NA","NA","101121","4315","NA","NA","123738","4323","NA","NA","123841","124186","123734","123841","Flanker task ","56","28451","59","yes","1024"
"95","95","479.71666666666664","479.71666666666664","black","legacy","legacy","legacy","0","incongruent","uniform","1","undefined","1","s","59","0","0","0","59","0","59","0","59","0","0","0","59","59","59","59","Wed Sep 22 11:17:39 2021","1500","The main experiment item","yes","Flankertask.osexp","/Users/mihailcodreanu/Desktop","no","mono","no","18","no","white","no","yes","768","legacy","59","59","/Users/mihailcodreanu/Desktop/mc-subject-2.csv","legacy","Lentiform Loewenfeld","3.3.9","0","s","NA","s","NA","NA","s","332","NA","22342","NA","NA","332","2","legacy","1024","2","48000","-16","experiment","HHSHH","2","even","124192","26674","NA","NA","101121","4315","NA","NA","125245","4323","NA","NA","125349","125682","125241","125348","Flanker task ","57","28783","60","yes","1024"
"95.08196721311475","95.08196721311475","479.39344262295083","479.39344262295083","black","legacy","legacy","legacy","0","congruent","uniform","1","undefined","1","h","60","0","0","0","60","0","60","0","60","0","0","0","60","60","60","60","Wed Sep 22 11:17:39 2021","1500","The main experiment item","yes","Flankertask.osexp","/Users/mihailcodreanu/Desktop","no","mono","no","18","no","white","no","yes","768","legacy","60","60","/Users/mihailcodreanu/Desktop/mc-subject-2.csv","legacy","Lentiform Loewenfeld","3.3.9","0","h","NA","s","NA","NA","h","460","NA","22342","NA","NA","460","2","legacy","1024","2","48000","-16","experiment","HHHHH","2","even","125689","26674","NA","NA","101121","4315","NA","NA","126742","4323","NA","NA","126845","127306","126738","126845","Flanker task ","58","29243","61","yes","1024"
"95.16129032258064","95.16129032258064","480.741935483871","480.741935483871","black","legacy","legacy","legacy","0","incongruent","uniform","1","undefined","1","s","61","0","0","0","61","0","61","0","61","0","0","0","61","61","61","61","Wed Sep 22 11:17:39 2021","1500","The main experiment item","yes","Flankertask.osexp","/Users/mihailcodreanu/Desktop","no","mono","no","18","no","white","no","yes","768","legacy","61","61","/Users/mihailcodreanu/Desktop/mc-subject-2.csv","legacy","Lentiform Loewenfeld","3.3.9","0","s","NA","s","NA","NA","s","563","NA","22342","NA","NA","563","2","legacy","1024","2","48000","-16","experiment","HHSHH","2","even","127313","26674","NA","NA","101121","4315","NA","NA","128366","4323","NA","NA","128470","129034","128362","128470","Flanker task ","59","29806","62","yes","1024"
"95.23809523809524","95.23809523809524","480.6984126984127","480.6984126984127","black","legacy","legacy","legacy","0","congruent","uniform","1","undefined","1","h","62","0","0","0","62","0","62","0","62","0","0","0","62","62","62","62","Wed Sep 22 11:17:39 2021","1500","The main experiment item","yes","Flankertask.osexp","/Users/mihailcodreanu/Desktop","no","mono","no","18","no","white","no","yes","768","legacy","62","62","/Users/mihailcodreanu/Desktop/mc-subject-2.csv","legacy","Lentiform Loewenfeld","3.3.9","0","h","NA","s","NA","NA","h","478","NA","22342","NA","NA","478","2","legacy","1024","2","48000","-16","experiment","HHHHH","2","even","129040","26674","NA","NA","101121","4315","NA","NA","130091","4323","NA","NA","130195","130675","130087","130195","Flanker task ","60","30284","63","yes","1024"
"95.3125","95.3125","478.96875","478.96875","black","legacy","legacy","legacy","0","congruent","uniform","1","undefined","1","h","63","0","0","0","63","0","63","0","63","0","0","0","63","63","63","63","Wed Sep 22 11:17:39 2021","1500","The main experiment item","yes","Flankertask.osexp","/Users/mihailcodreanu/Desktop","no","mono","no","18","no","white","no","yes","768","legacy","63","63","/Users/mihailcodreanu/Desktop/mc-subject-2.csv","legacy","Lentiform Loewenfeld","3.3.9","0","h","NA","s","NA","NA","h","370","NA","22342","NA","NA","370","2","legacy","1024","2","48000","-16","experiment","HHHHH","2","even","130680","26674","NA","NA","101121","4315","NA","NA","131735","4323","NA","NA","131839","132210","131732","131838","Flanker task ","61","30654","64","yes","1024"
"95.38461538461539","95.38461538461539","478.95384615384614","478.95384615384614","black","legacy","legacy","legacy","0","incongruent","uniform","1","undefined","1","s","64","0","0","0","64","0","64","0","64","0","0","0","64","64","64","64","Wed Sep 22 11:17:39 2021","1500","The main experiment item","yes","Flankertask.osexp","/Users/mihailcodreanu/Desktop","no","mono","no","18","no","white","no","yes","768","legacy","64","64","/Users/mihailcodreanu/Desktop/mc-subject-2.csv","legacy","Lentiform Loewenfeld","3.3.9","0","s","NA","s","NA","NA","s","478","NA","22342","NA","NA","478","2","legacy","1024","2","48000","-16","experiment","HHSHH","2","even","132217","26674","NA","NA","101121","4315","NA","NA","133267","4323","NA","NA","133371","133850","133263","133370","Flanker task ","62","31132","65","yes","1024"
"95.45454545454545","95.45454545454545","478.3333333333333","478.3333333333333","black","legacy","legacy","legacy","0","congruent","uniform","1","undefined","1","h","65","0","0","0","65","0","65","0","65","0","0","0","65","65","65","65","Wed Sep 22 11:17:39 2021","1500","The main experiment item","yes","Flankertask.osexp","/Users/mihailcodreanu/Desktop","no","mono","no","18","no","white","no","yes","768","legacy","65","65","/Users/mihailcodreanu/Desktop/mc-subject-2.csv","legacy","Lentiform Loewenfeld","3.3.9","0","h","NA","s","NA","NA","h","438","NA","22342","NA","NA","438","2","legacy","1024","2","48000","-16","experiment","HHHHH","2","even","133857","26674","NA","NA","101121","4315","NA","NA","134906","4323","NA","NA","135011","135450","134903","135010","Flanker task ","63","31570","66","yes","1024"
"95.5223880597015","95.5223880597015","479.05970149253733","479.05970149253733","black","legacy","legacy","legacy","0","incongruent","uniform","1","undefined","1","h","66","0","0","0","66","0","66","0","66","0","0","0","66","66","66","66","Wed Sep 22 11:17:39 2021","1500","The main experiment item","yes","Flankertask.osexp","/Users/mihailcodreanu/Desktop","no","mono","no","18","no","white","no","yes","768","legacy","66","66","/Users/mihailcodreanu/Desktop/mc-subject-2.csv","legacy","Lentiform Loewenfeld","3.3.9","0","h","NA","s","NA","NA","h","527","NA","22342","NA","NA","527","2","legacy","1024","2","48000","-16","experiment","SSHSS","2","even","135457","26674","NA","NA","101121","4315","NA","NA","136506","4323","NA","NA","136610","137138","136502","136610","Flanker task ","64","32097","67","yes","1024"
"95.58823529411765","95.58823529411765","479.27941176470586","479.27941176470586","black","legacy","legacy","legacy","0","incongruent","uniform","1","undefined","1","h","67","0","0","0","67","0","67","0","67","0","0","0","67","67","67","67","Wed Sep 22 11:17:39 2021","1500","The main experiment item","yes","Flankertask.osexp","/Users/mihailcodreanu/Desktop","no","mono","no","18","no","white","no","yes","768","legacy","67","67","/Users/mihailcodreanu/Desktop/mc-subject-2.csv","legacy","Lentiform Loewenfeld","3.3.9","0","h","NA","s","NA","NA","h","494","NA","22342","NA","NA","494","2","legacy","1024","2","48000","-16","experiment","SSHSS","2","even","137144","26674","NA","NA","101121","4315","NA","NA","138195","4323","NA","NA","138299","138794","138191","138298","Flanker task ","65","32591","68","yes","1024"
"95.65217391304348","95.65217391304348","479.05797101449275","479.05797101449275","black","legacy","legacy","legacy","0","incongruent","uniform","1","undefined","1","s","68","0","0","0","68","0","68","0","68","0","0","0","68","68","68","68","Wed Sep 22 11:17:39 2021","1500","The main experiment item","yes","Flankertask.osexp","/Users/mihailcodreanu/Desktop","no","mono","no","18","no","white","no","yes","768","legacy","68","68","/Users/mihailcodreanu/Desktop/mc-subject-2.csv","legacy","Lentiform Loewenfeld","3.3.9","0","s","NA","s","NA","NA","s","464","NA","22342","NA","NA","464","2","legacy","1024","2","48000","-16","experiment","HHSHH","2","even","138800","26674","NA","NA","101121","4315","NA","NA","139850","4323","NA","NA","139953","140418","139846","139953","Flanker task ","66","33055","69","yes","1024"
"95.71428571428571","95.71428571428571","478.22857142857146","478.22857142857146","black","legacy","legacy","legacy","0","congruent","uniform","1","undefined","1","h","69","0","0","0","69","0","69","0","69","0","0","0","69","69","69","69","Wed Sep 22 11:17:39 2021","1500","The main experiment item","yes","Flankertask.osexp","/Users/mihailcodreanu/Desktop","no","mono","no","18","no","white","no","yes","768","legacy","69","69","/Users/mihailcodreanu/Desktop/mc-subject-2.csv","legacy","Lentiform Loewenfeld","3.3.9","0","h","NA","s","NA","NA","h","421","NA","22342","NA","NA","421","2","legacy","1024","2","48000","-16","experiment","HHHHH","2","even","140425","26674","NA","NA","101121","4315","NA","NA","141476","4323","NA","NA","141580","142002","141473","141579","Flanker task ","67","33476","70","yes","1024"
"95.77464788732394","95.77464788732394","477.4225352112676","477.4225352112676","black","legacy","legacy","legacy","0","incongruent","uniform","1","undefined","1","s","70","0","0","0","70","0","70","0","70","0","0","0","70","70","70","70","Wed Sep 22 11:17:39 2021","1500","The main experiment item","yes","Flankertask.osexp","/Users/mihailcodreanu/Desktop","no","mono","no","18","no","white","no","yes","768","legacy","70","70","/Users/mihailcodreanu/Desktop/mc-subject-2.csv","legacy","Lentiform Loewenfeld","3.3.9","0","s","NA","s","NA","NA","s","421","NA","22342","NA","NA","421","2","legacy","1024","2","48000","-16","experiment","HHSHH","2","even","142009","26674","NA","NA","101121","4315","NA","NA","143061","4323","NA","NA","143164","143586","143057","143164","Flanker task ","68","33897","71","yes","1024"
"95.83333333333333","95.83333333333333","479.625","479.625","black","legacy","legacy","legacy","0","congruent","uniform","1","undefined","1","s","71","0","0","0","71","0","71","0","71","0","0","0","71","71","71","71","Wed Sep 22 11:17:39 2021","1500","The main experiment item","yes","Flankertask.osexp","/Users/mihailcodreanu/Desktop","no","mono","no","18","no","white","no","yes","768","legacy","71","71","/Users/mihailcodreanu/Desktop/mc-subject-2.csv","legacy","Lentiform Loewenfeld","3.3.9","0","s","NA","s","NA","NA","s","636","NA","22342","NA","NA","636","2","legacy","1024","2","48000","-16","experiment","SSSSS","2","even","143594","26674","NA","NA","101121","4315","NA","NA","144646","4323","NA","NA","144749","145386","144642","144749","Flanker task ","69","34533","72","yes","1024"
"95.89041095890411","95.89041095890411","479.05479452054794","479.05479452054794","black","legacy","legacy","legacy","0","congruent","uniform","1","undefined","1","s","72","0","0","0","72","0","72","0","72","0","0","0","72","72","72","72","Wed Sep 22 11:17:39 2021","1500","The main experiment item","yes","Flankertask.osexp","/Users/mihailcodreanu/Desktop","no","mono","no","18","no","white","no","yes","768","legacy","72","72","/Users/mihailcodreanu/Desktop/mc-subject-2.csv","legacy","Lentiform Loewenfeld","3.3.9","0","s","NA","s","NA","NA","s","438","NA","22342","NA","NA","438","2","legacy","1024","2","48000","-16","experiment","SSSSS","2","even","145391","26674","NA","NA","101121","4315","NA","NA","146442","4323","NA","NA","146547","146987","146439","146547","Flanker task ","70","34971","73","yes","1024"
"95.94594594594595","95.94594594594595","478.36486486486484","478.36486486486484","black","legacy","legacy","legacy","0","incongruent","uniform","1","undefined","1","h","73","0","0","0","73","0","73","0","73","0","0","0","73","73","73","73","Wed Sep 22 11:17:39 2021","1500","The main experiment item","yes","Flankertask.osexp","/Users/mihailcodreanu/Desktop","no","mono","no","18","no","white","no","yes","768","legacy","73","73","/Users/mihailcodreanu/Desktop/mc-subject-2.csv","legacy","Lentiform Loewenfeld","3.3.9","0","h","NA","s","NA","NA","h","428","NA","22342","NA","NA","428","2","legacy","1024","2","48000","-16","experiment","SSHSS","2","even","146993","26674","NA","NA","101121","4315","NA","NA","148045","4323","NA","NA","148149","148578","148041","148148","Flanker task ","71","35399","74","yes","1024"
"96","96","476.96","476.96","black","legacy","legacy","legacy","0","congruent","uniform","1","undefined","1","h","74","0","0","0","74","0","74","0","74","0","0","0","74","74","74","74","Wed Sep 22 11:17:39 2021","1500","The main experiment item","yes","Flankertask.osexp","/Users/mihailcodreanu/Desktop","no","mono","no","18","no","white","no","yes","768","legacy","74","74","/Users/mihailcodreanu/Desktop/mc-subject-2.csv","legacy","Lentiform Loewenfeld","3.3.9","0","h","NA","s","NA","NA","h","373","NA","22342","NA","NA","373","2","legacy","1024","2","48000","-16","experiment","HHHHH","2","even","148584","26674","NA","NA","101121","4315","NA","NA","149636","4323","NA","NA","149740","150114","149633","149739","Flanker task ","72","35772","75","yes","1024"
"96.05263157894737","96.05263157894737","477.19736842105266","477.19736842105266","black","legacy","legacy","legacy","0","congruent","uniform","1","undefined","1","s","75","0","0","0","75","0","75","0","75","0","0","0","75","75","75","75","Wed Sep 22 11:17:39 2021","1500","The main experiment item","yes","Flankertask.osexp","/Users/mihailcodreanu/Desktop","no","mono","no","18","no","white","no","yes","768","legacy","75","75","/Users/mihailcodreanu/Desktop/mc-subject-2.csv","legacy","Lentiform Loewenfeld","3.3.9","0","s","NA","s","NA","NA","s","495","NA","22342","NA","NA","495","2","legacy","1024","2","48000","-16","experiment","SSSSS","2","even","150120","26674","NA","NA","101121","4315","NA","NA","151171","4323","NA","NA","151274","151770","151166","151274","Flanker task ","73","36267","76","yes","1024"
"96.1038961038961","96.1038961038961","476.4025974025974","476.4025974025974","black","legacy","legacy","legacy","0","incongruent","uniform","1","undefined","1","h","76","0","0","0","76","0","76","0","76","0","0","0","76","76","76","76","Wed Sep 22 11:17:39 2021","1500","The main experiment item","yes","Flankertask.osexp","/Users/mihailcodreanu/Desktop","no","mono","no","18","no","white","no","yes","768","legacy","76","76","/Users/mihailcodreanu/Desktop/mc-subject-2.csv","legacy","Lentiform Loewenfeld","3.3.9","0","h","NA","s","NA","NA","h","416","NA","22342","NA","NA","416","2","legacy","1024","2","48000","-16","experiment","SSHSS","2","even","151777","26674","NA","NA","101121","4315","NA","NA","152825","4323","NA","NA","152929","153346","152821","152929","Flanker task ","74","36683","77","yes","1024"
"96.15384615384616","96.15384615384616","475.46153846153845","475.46153846153845","black","legacy","legacy","legacy","0","congruent","uniform","1","undefined","1","h","77","0","0","0","77","0","77","0","77","0","0","0","77","77","77","77","Wed Sep 22 11:17:39 2021","1500","The main experiment item","yes","Flankertask.osexp","/Users/mihailcodreanu/Desktop","no","mono","no","18","no","white","no","yes","768","legacy","77","77","/Users/mihailcodreanu/Desktop/mc-subject-2.csv","legacy","Lentiform Loewenfeld","3.3.9","0","h","NA","s","NA","NA","h","403","NA","22342","NA","NA","403","2","legacy","1024","2","48000","-16","experiment","HHHHH","2","even","153352","26674","NA","NA","101121","4315","NA","NA","154406","4323","NA","NA","154510","154914","154402","154509","Flanker task ","75","37086","78","yes","1024"
"96.20253164556962","96.20253164556962","475.50632911392404","475.50632911392404","black","legacy","legacy","legacy","0","congruent","uniform","1","undefined","1","s","78","0","0","0","78","0","78","0","78","0","0","0","78","78","78","78","Wed Sep 22 11:17:39 2021","1500","The main experiment item","yes","Flankertask.osexp","/Users/mihailcodreanu/Desktop","no","mono","no","18","no","white","no","yes","768","legacy","78","78","/Users/mihailcodreanu/Desktop/mc-subject-2.csv","legacy","Lentiform Loewenfeld","3.3.9","0","s","NA","s","NA","NA","s","479","NA","22342","NA","NA","479","2","legacy","1024","2","48000","-16","experiment","SSSSS","2","even","154921","26674","NA","NA","101121","4315","NA","NA","155971","4323","NA","NA","156074","156554","155967","156074","Flanker task ","76","37565","79","yes","1024"
"96.25","96.25","475.15","475.15","black","legacy","legacy","legacy","0","incongruent","uniform","1","undefined","1","s","79","0","0","0","79","0","79","0","79","0","0","0","79","79","79","79","Wed Sep 22 11:17:39 2021","1500","The main experiment item","yes","Flankertask.osexp","/Users/mihailcodreanu/Desktop","no","mono","no","18","no","white","no","yes","768","legacy","79","79","/Users/mihailcodreanu/Desktop/mc-subject-2.csv","legacy","Lentiform Loewenfeld","3.3.9","0","s","NA","s","NA","NA","s","447","NA","22342","NA","NA","447","2","legacy","1024","2","48000","-16","experiment","HHSHH","2","even","156561","26674","NA","NA","101121","4315","NA","NA","157610","4323","NA","NA","157714","158162","157606","157713","Flanker task ","77","38012","80","yes","1024"
"96.29629629629629","96.29629629629629","477.0246913580247","477.0246913580247","black","legacy","legacy","legacy","0","congruent","uniform","1","undefined","1","h","80","0","0","0","80","0","80","0","80","0","0","0","80","80","80","80","Wed Sep 22 11:17:39 2021","600","The main experiment item","yes","Flankertask.osexp","/Users/mihailcodreanu/Desktop","no","mono","no","18","no","white","no","yes","768","legacy","0","79","/Users/mihailcodreanu/Desktop/mc-subject-2.csv","legacy","Lentiform Loewenfeld","3.3.9","0","h","NA","s","h","NA","h","627","NA","22342","10535","NA","627","2","legacy","1024","2","48000","-16","experiment","HHHHH","2","even","158168","26674","169731","NA","101121","4315","NA","NA","169766","4323","159195","NA","169870","170498","169762","169870","Flanker task ","78","38639","81","yes","1024"
"96.34146341463415","96.34146341463415","480.0731707317073","480.0731707317073","black","legacy","legacy","legacy","0","incongruent","uniform","1","undefined","1","s","81","0","0","0","81","0","81","0","81","0","0","0","81","81","81","81","Wed Sep 22 11:17:39 2021","600","The main experiment item","yes","Flankertask.osexp","/Users/mihailcodreanu/Desktop","no","mono","no","18","no","white","no","yes","768","legacy","1","79","/Users/mihailcodreanu/Desktop/mc-subject-2.csv","legacy","Lentiform Loewenfeld","3.3.9","0","s","NA","s","h","NA","s","727","NA","22342","10535","NA","727","2","legacy","1024","2","48000","-16","experiment","HHSHH","2","even","171009","26674","169731","NA","101121","4315","170505","NA","172059","4323","159195","NA","172162","172890","172055","172162","Flanker task ","79","39366","82","yes","1024"
"96.3855421686747","96.3855421686747","479.1566265060241","479.1566265060241","black","legacy","legacy","legacy","0","congruent","uniform","1","undefined","1","h","82","0","0","0","82","0","82","0","82","0","0","0","82","82","82","82","Wed Sep 22 11:17:39 2021","600","The main experiment item","yes","Flankertask.osexp","/Users/mihailcodreanu/Desktop","no","mono","no","18","no","white","no","yes","768","legacy","2","79","/Users/mihailcodreanu/Desktop/mc-subject-2.csv","legacy","Lentiform Loewenfeld","3.3.9","0","h","NA","s","h","NA","h","404","NA","22342","10535","NA","404","2","legacy","1024","2","48000","-16","experiment","HHHHH","2","even","173402","26674","169731","NA","101121","4315","172897","NA","174452","4323","159195","NA","174557","174962","174449","174557","Flanker task ","80","39770","83","yes","1024"
"95.23809523809524","95.23809523809524","478.76190476190476","478.76190476190476","black","legacy","legacy","legacy","0","incongruent","uniform","0","undefined","0","h","83","0","0","0","83","0","83","0","83","0","0","0","83","83","83","83","Wed Sep 22 11:17:39 2021","600","The main experiment item","yes","Flankertask.osexp","/Users/mihailcodreanu/Desktop","no","mono","no","18","no","white","no","yes","768","legacy","3","79","/Users/mihailcodreanu/Desktop/mc-subject-2.csv","legacy","Lentiform Loewenfeld","3.3.9","0","s","NA","s","h","NA","s","446","NA","22342","10535","NA","446","2","legacy","1024","2","48000","-16","experiment","SSHSS","2","even","174967","26674","169731","NA","101121","4315","172897","NA","176019","4323","159195","NA","176123","176570","176015","176122","Flanker task ","80","40216","84","yes","1024"
"95.29411764705883","95.29411764705883","479.38823529411764","479.38823529411764","black","legacy","legacy","legacy","0","incongruent","uniform","1","undefined","1","s","84","0","0","0","84","0","84","0","84","0","0","0","84","84","84","84","Wed Sep 22 11:17:39 2021","600","The main experiment item","yes","Flankertask.osexp","/Users/mihailcodreanu/Desktop","no","mono","no","18","no","white","no","yes","768","legacy","4","79","/Users/mihailcodreanu/Desktop/mc-subject-2.csv","legacy","Lentiform Loewenfeld","3.3.9","0","s","NA","s","h","NA","s","532","NA","22342","10535","NA","532","2","legacy","1024","2","48000","-16","experiment","HHSHH","2","even","177082","26674","169731","NA","176577","4315","172897","NA","178133","4323","159195","NA","178237","178770","178129","178237","Flanker task ","81","40748","85","yes","1024"
"95.34883720930233","95.34883720930233","478.5232558139535","478.5232558139535","black","legacy","legacy","legacy","0","incongruent","uniform","1","undefined","1","s","85","0","0","0","85","0","85","0","85","0","0","0","85","85","85","85","Wed Sep 22 11:17:39 2021","600","The main experiment item","yes","Flankertask.osexp","/Users/mihailcodreanu/Desktop","no","mono","no","18","no","white","no","yes","768","legacy","5","79","/Users/mihailcodreanu/Desktop/mc-subject-2.csv","legacy","Lentiform Loewenfeld","3.3.9","0","s","NA","s","h","NA","s","405","NA","22342","10535","NA","405","2","legacy","1024","2","48000","-16","experiment","HHSHH","2","even","178777","26674","169731","NA","176577","4315","172897","NA","179829","4323","159195","NA","179932","180338","179826","179932","Flanker task ","82","41153","86","yes","1024"
"95.40229885057471","95.40229885057471","477.71264367816093","477.71264367816093","black","legacy","legacy","legacy","0","congruent","uniform","1","undefined","1","s","86","0","0","0","86","0","86","0","86","0","0","0","86","86","86","86","Wed Sep 22 11:17:39 2021","600","The main experiment item","yes","Flankertask.osexp","/Users/mihailcodreanu/Desktop","no","mono","no","18","no","white","no","yes","768","legacy","6","79","/Users/mihailcodreanu/Desktop/mc-subject-2.csv","legacy","Lentiform Loewenfeld","3.3.9","0","s","NA","s","h","NA","s","408","NA","22342","10535","NA","408","2","legacy","1024","2","48000","-16","experiment","SSSSS","2","even","180343","26674","169731","NA","176577","4315","172897","NA","181393","4323","159195","NA","181497","181906","181389","181496","Flanker task ","83","41561","87","yes","1024"
"94.31818181818181","94.31818181818181","476.34090909090907","476.34090909090907","black","legacy","legacy","legacy","0","incongruent","uniform","0","undefined","0","h","87","0","0","0","87","0","87","0","87","0","0","0","87","87","87","87","Wed Sep 22 11:17:39 2021","600","The main experiment item","yes","Flankertask.osexp","/Users/mihailcodreanu/Desktop","no","mono","no","18","no","white","no","yes","768","legacy","7","79","/Users/mihailcodreanu/Desktop/mc-subject-2.csv","legacy","Lentiform Loewenfeld","3.3.9","0","s","NA","s","h","NA","s","357","NA","22342","10535","NA","357","2","legacy","1024","2","48000","-16","experiment","SSHSS","2","even","181913","26674","169731","NA","176577","4315","172897","NA","182964","4323","159195","NA","183068","183426","182960","183067","Flanker task ","83","41918","88","yes","1024"
"94.38202247191012","94.38202247191012","474.23595505617976","474.23595505617976","black","legacy","legacy","legacy","0","incongruent","uniform","1","undefined","1","s","88","0","0","0","88","0","88","0","88","0","0","0","88","88","88","88","Wed Sep 22 11:17:39 2021","600","The main experiment item","yes","Flankertask.osexp","/Users/mihailcodreanu/Desktop","no","mono","no","18","no","white","no","yes","768","legacy","8","79","/Users/mihailcodreanu/Desktop/mc-subject-2.csv","legacy","Lentiform Loewenfeld","3.3.9","0","s","NA","s","h","NA","s","289","NA","22342","10535","NA","289","2","legacy","1024","2","48000","-16","experiment","HHSHH","2","even","183937","26674","169731","NA","183433","4315","172897","NA","184985","4323","159195","NA","185088","185378","184981","185088","Flanker task ","84","42207","89","yes","1024"
"94.44444444444444","94.44444444444444","472.24444444444447","472.24444444444447","black","legacy","legacy","legacy","0","incongruent","uniform","1","undefined","1","h","89","0","0","0","89","0","89","0","89","0","0","0","89","89","89","89","Wed Sep 22 11:17:39 2021","600","The main experiment item","yes","Flankertask.osexp","/Users/mihailcodreanu/Desktop","no","mono","no","18","no","white","no","yes","768","legacy","9","79","/Users/mihailcodreanu/Desktop/mc-subject-2.csv","legacy","Lentiform Loewenfeld","3.3.9","0","h","NA","s","h","NA","h","295","NA","22342","10535","NA","295","2","legacy","1024","2","48000","-16","experiment","SSHSS","2","even","185385","26674","169731","NA","183433","4315","172897","NA","186434","4323","159195","NA","186538","186834","186430","186538","Flanker task ","85","42502","90","yes","1024"
"94.50549450549451","94.50549450549451","470.14285714285717","470.14285714285717","black","legacy","legacy","legacy","0","congruent","uniform","1","undefined","1","h","90","0","0","0","90","0","90","0","90","0","0","0","90","90","90","90","Wed Sep 22 11:17:39 2021","600","The main experiment item","yes","Flankertask.osexp","/Users/mihailcodreanu/Desktop","no","mono","no","18","no","white","no","yes","768","legacy","10","79","/Users/mihailcodreanu/Desktop/mc-subject-2.csv","legacy","Lentiform Loewenfeld","3.3.9","0","h","NA","s","h","NA","h","281","NA","22342","10535","NA","281","2","legacy","1024","2","48000","-16","experiment","HHHHH","2","even","186841","26674","169731","NA","183433","4315","172897","NA","187889","4323","159195","NA","187992","188274","187886","187992","Flanker task ","86","42783","91","yes","1024"
"94.56521739130434","94.56521739130434","469.3478260869565","469.3478260869565","black","legacy","legacy","legacy","0","congruent","uniform","1","undefined","1","s","91","0","0","0","91","0","91","0","91","0","0","0","91","91","91","91","Wed Sep 22 11:17:39 2021","600","The main experiment item","yes","Flankertask.osexp","/Users/mihailcodreanu/Desktop","no","mono","no","18","no","white","no","yes","768","legacy","11","79","/Users/mihailcodreanu/Desktop/mc-subject-2.csv","legacy","Lentiform Loewenfeld","3.3.9","0","s","NA","s","h","NA","s","397","NA","22342","10535","NA","397","2","legacy","1024","2","48000","-16","experiment","SSSSS","2","even","188281","26674","169731","NA","183433","4315","172897","NA","189332","4323","159195","NA","189436","189834","189328","189436","Flanker task ","87","43180","92","yes","1024"
"94.6236559139785","94.6236559139785","469.1720430107527","469.1720430107527","black","legacy","legacy","legacy","0","incongruent","uniform","1","undefined","1","s","92","0","0","0","92","0","92","0","92","0","0","0","92","92","92","92","Wed Sep 22 11:17:39 2021","600","The main experiment item","yes","Flankertask.osexp","/Users/mihailcodreanu/Desktop","no","mono","no","18","no","white","no","yes","768","legacy","12","79","/Users/mihailcodreanu/Desktop/mc-subject-2.csv","legacy","Lentiform Loewenfeld","3.3.9","0","s","NA","s","h","NA","s","453","NA","22342","10535","NA","453","2","legacy","1024","2","48000","-16","experiment","HHSHH","2","even","189841","26674","169731","NA","183433","4315","172897","NA","190892","4323","159195","NA","190996","191450","190888","190995","Flanker task ","88","43633","93","yes","1024"
"94.68085106382979","94.68085106382979","468.1595744680851","468.1595744680851","black","legacy","legacy","legacy","0","congruent","uniform","1","undefined","1","h","93","0","0","0","93","0","93","0","93","0","0","0","93","93","93","93","Wed Sep 22 11:17:39 2021","600","The main experiment item","yes","Flankertask.osexp","/Users/mihailcodreanu/Desktop","no","mono","no","18","no","white","no","yes","768","legacy","13","79","/Users/mihailcodreanu/Desktop/mc-subject-2.csv","legacy","Lentiform Loewenfeld","3.3.9","0","h","NA","s","h","NA","h","374","NA","22342","10535","NA","374","2","legacy","1024","2","48000","-16","experiment","HHHHH","2","even","191457","26674","169731","NA","183433","4315","172897","NA","192507","4323","159195","NA","192611","192986","192503","192610","Flanker task ","89","44007","94","yes","1024"
"94.73684210526316","94.73684210526316","466.7263157894737","466.7263157894737","black","legacy","legacy","legacy","0","incongruent","uniform","1","undefined","1","h","94","0","0","0","94","0","94","0","94","0","0","0","94","94","94","94","Wed Sep 22 11:17:39 2021","600","The main experiment item","yes","Flankertask.osexp","/Users/mihailcodreanu/Desktop","no","mono","no","18","no","white","no","yes","768","legacy","14","79","/Users/mihailcodreanu/Desktop/mc-subject-2.csv","legacy","Lentiform Loewenfeld","3.3.9","0","h","NA","s","h","NA","h","332","NA","22342","10535","NA","332","2","legacy","1024","2","48000","-16","experiment","SSHSS","2","even","192993","26674","169731","NA","183433","4315","172897","NA","194045","4323","159195","NA","194149","194482","194041","194149","Flanker task ","90","44339","95","yes","1024"
"94.79166666666667","94.79166666666667","466.2708333333333","466.2708333333333","black","legacy","legacy","legacy","0","congruent","uniform","1","undefined","1","h","95","0","0","0","95","0","95","0","95","0","0","0","95","95","95","95","Wed Sep 22 11:17:39 2021","600","The main experiment item","yes","Flankertask.osexp","/Users/mihailcodreanu/Desktop","no","mono","no","18","no","white","no","yes","768","legacy","15","79","/Users/mihailcodreanu/Desktop/mc-subject-2.csv","legacy","Lentiform Loewenfeld","3.3.9","0","h","NA","s","h","NA","h","423","NA","22342","10535","NA","423","2","legacy","1024","2","48000","-16","experiment","HHHHH","2","even","194489","26674","169731","NA","183433","4315","172897","NA","195539","4323","159195","NA","195642","196066","195535","195642","Flanker task ","91","44762","96","yes","1024"
"94.84536082474227","94.84536082474227","465.97938144329896","465.97938144329896","black","legacy","legacy","legacy","0","incongruent","uniform","1","undefined","1","s","96","0","0","0","96","0","96","0","96","0","0","0","96","96","96","96","Wed Sep 22 11:17:39 2021","600","The main experiment item","yes","Flankertask.osexp","/Users/mihailcodreanu/Desktop","no","mono","no","18","no","white","no","yes","768","legacy","16","79","/Users/mihailcodreanu/Desktop/mc-subject-2.csv","legacy","Lentiform Loewenfeld","3.3.9","0","s","NA","s","h","NA","s","438","NA","22342","10535","NA","438","2","legacy","1024","2","48000","-16","experiment","HHSHH","2","even","196073","26674","169731","NA","183433","4315","172897","NA","197124","4323","159195","NA","197227","197667","197120","197227","Flanker task ","92","45200","97","yes","1024"
"94.89795918367346","94.89795918367346","465.44897959183675","465.44897959183675","black","legacy","legacy","legacy","0","congruent","uniform","1","undefined","1","h","97","0","0","0","97","0","97","0","97","0","0","0","97","97","97","97","Wed Sep 22 11:17:39 2021","600","The main experiment item","yes","Flankertask.osexp","/Users/mihailcodreanu/Desktop","no","mono","no","18","no","white","no","yes","768","legacy","17","79","/Users/mihailcodreanu/Desktop/mc-subject-2.csv","legacy","Lentiform Loewenfeld","3.3.9","0","h","NA","s","h","NA","h","414","NA","22342","10535","NA","414","2","legacy","1024","2","48000","-16","experiment","HHHHH","2","even","197673","26674","169731","NA","183433","4315","172897","NA","198724","4323","159195","NA","198827","199242","198720","198827","Flanker task ","93","45614","98","yes","1024"
"94.94949494949495","94.94949494949495","465.4141414141414","465.4141414141414","black","legacy","legacy","legacy","0","congruent","uniform","1","undefined","1","s","98","0","0","0","98","0","98","0","98","0","0","0","98","98","98","98","Wed Sep 22 11:17:39 2021","600","The main experiment item","yes","Flankertask.osexp","/Users/mihailcodreanu/Desktop","no","mono","no","18","no","white","no","yes","768","legacy","18","79","/Users/mihailcodreanu/Desktop/mc-subject-2.csv","legacy","Lentiform Loewenfeld","3.3.9","0","s","NA","s","h","NA","s","462","NA","22342","10535","NA","462","2","legacy","1024","2","48000","-16","experiment","SSSSS","2","even","199249","26674","169731","NA","183433","4315","172897","NA","200300","4323","159195","NA","200403","200866","200297","200403","Flanker task ","94","46076","99","yes","1024"
"95","95","465.6","465.6","black","legacy","legacy","legacy","0","congruent","uniform","1","undefined","1","h","99","0","0","0","99","0","99","0","99","0","0","0","99","99","99","99","Wed Sep 22 11:17:39 2021","600","The main experiment item","yes","Flankertask.osexp","/Users/mihailcodreanu/Desktop","no","mono","no","18","no","white","no","yes","768","legacy","19","79","/Users/mihailcodreanu/Desktop/mc-subject-2.csv","legacy","Lentiform Loewenfeld","3.3.9","0","h","NA","s","h","NA","h","484","NA","22342","10535","NA","484","2","legacy","1024","2","48000","-16","experiment","HHHHH","2","even","200873","26674","169731","NA","183433","4315","172897","NA","201925","4323","159195","NA","202029","202514","201921","202028","Flanker task ","95","46560","100","yes","1024"
"94.05940594059406","94.05940594059406","463.8910891089109","463.8910891089109","black","legacy","legacy","legacy","0","incongruent","uniform","0","undefined","0","s","100","0","0","0","100","0","100","0","100","0","0","0","100","100","100","100","Wed Sep 22 11:17:39 2021","600","The main experiment item","yes","Flankertask.osexp","/Users/mihailcodreanu/Desktop","no","mono","no","18","no","white","no","yes","768","legacy","20","79","/Users/mihailcodreanu/Desktop/mc-subject-2.csv","legacy","Lentiform Loewenfeld","3.3.9","0","h","NA","s","h","NA","h","293","NA","22342","10535","NA","293","2","legacy","1024","2","48000","-16","experiment","HHSHH","2","even","202521","26674","169731","NA","183433","4315","172897","NA","203573","4323","159195","NA","203676","203971","203569","203676","Flanker task ","95","46853","101","yes","1024"
"94.11764705882354","94.11764705882354","463.8137254901961","463.8137254901961","black","legacy","legacy","legacy","0","congruent","uniform","1","undefined","1","s","101","0","0","0","101","0","101","0","101","0","0","0","101","101","101","101","Wed Sep 22 11:17:39 2021","600","The main experiment item","yes","Flankertask.osexp","/Users/mihailcodreanu/Desktop","no","mono","no","18","no","white","no","yes","768","legacy","21","79","/Users/mihailcodreanu/Desktop/mc-subject-2.csv","legacy","Lentiform Loewenfeld","3.3.9","0","s","NA","s","h","NA","s","456","NA","22342","10535","NA","456","2","legacy","1024","2","48000","-16","experiment","SSSSS","2","even","204481","26674","169731","NA","203977","4315","172897","NA","205530","4323","159195","NA","205633","206091","205527","205633","Flanker task ","96","47309","102","yes","1024"
"94.1747572815534","94.1747572815534","463.71844660194176","463.71844660194176","black","legacy","legacy","legacy","0","incongruent","uniform","1","undefined","1","s","102","0","0","0","102","0","102","0","102","0","0","0","102","102","102","102","Wed Sep 22 11:17:39 2021","600","The main experiment item","yes","Flankertask.osexp","/Users/mihailcodreanu/Desktop","no","mono","no","18","no","white","no","yes","768","legacy","22","79","/Users/mihailcodreanu/Desktop/mc-subject-2.csv","legacy","Lentiform Loewenfeld","3.3.9","0","s","NA","s","h","NA","s","454","NA","22342","10535","NA","454","2","legacy","1024","2","48000","-16","experiment","HHSHH","2","even","206097","26674","169731","NA","203977","4315","172897","NA","207147","4323","159195","NA","207251","207707","207143","207250","Flanker task ","97","47763","103","yes","1024"
"94.23076923076923","94.23076923076923","464.6442307692308","464.6442307692308","black","legacy","legacy","legacy","0","incongruent","uniform","1","undefined","1","h","103","0","0","0","103","0","103","0","103","0","0","0","103","103","103","103","Wed Sep 22 11:17:39 2021","600","The main experiment item","yes","Flankertask.osexp","/Users/mihailcodreanu/Desktop","no","mono","no","18","no","white","no","yes","768","legacy","23","79","/Users/mihailcodreanu/Desktop/mc-subject-2.csv","legacy","Lentiform Loewenfeld","3.3.9","0","h","NA","s","h","NA","h","560","NA","22342","10535","NA","560","2","legacy","1024","2","48000","-16","experiment","SSHSS","2","even","207713","26674","169731","NA","203977","4315","172897","NA","208761","4323","159195","NA","208865","209427","208757","208864","Flanker task ","98","48323","104","yes","1024"
"94.28571428571429","94.28571428571429","465.3904761904762","465.3904761904762","black","legacy","legacy","legacy","0","incongruent","uniform","1","undefined","1","h","104","0","0","0","104","0","104","0","104","0","0","0","104","104","104","104","Wed Sep 22 11:17:39 2021","600","The main experiment item","yes","Flankertask.osexp","/Users/mihailcodreanu/Desktop","no","mono","no","18","no","white","no","yes","768","legacy","24","79","/Users/mihailcodreanu/Desktop/mc-subject-2.csv","legacy","Lentiform Loewenfeld","3.3.9","0","h","NA","s","h","NA","h","543","NA","22342","10535","NA","543","2","legacy","1024","2","48000","-16","experiment","SSHSS","2","even","209433","26674","169731","NA","203977","4315","172897","NA","210482","4323","159195","NA","210586","211130","210478","210586","Flanker task ","99","48866","105","yes","1024"
"94.33962264150944","94.33962264150944","465.2830188679245","465.2830188679245","black","legacy","legacy","legacy","0","incongruent","uniform","1","undefined","1","s","105","0","0","0","105","0","105","0","105","0","0","0","105","105","105","105","Wed Sep 22 11:17:39 2021","600","The main experiment item","yes","Flankertask.osexp","/Users/mihailcodreanu/Desktop","no","mono","no","18","no","white","no","yes","768","legacy","25","79","/Users/mihailcodreanu/Desktop/mc-subject-2.csv","legacy","Lentiform Loewenfeld","3.3.9","0","s","NA","s","h","NA","s","454","NA","22342","10535","NA","454","2","legacy","1024","2","48000","-16","experiment","HHSHH","2","even","211137","26674","169731","NA","203977","4315","172897","NA","212188","4323","159195","NA","212291","212747","212184","212291","Flanker task ","100","49320","106","yes","1024"
"94.39252336448598","94.39252336448598","465.50467289719626","465.50467289719626","black","legacy","legacy","legacy","0","incongruent","uniform","1","undefined","1","h","106","0","0","0","106","0","106","0","106","0","0","0","106","106","106","106","Wed Sep 22 11:17:39 2021","600","The main experiment item","yes","Flankertask.osexp","/Users/mihailcodreanu/Desktop","no","mono","no","18","no","white","no","yes","768","legacy","26","79","/Users/mihailcodreanu/Desktop/mc-subject-2.csv","legacy","Lentiform Loewenfeld","3.3.9","0","h","NA","s","h","NA","h","489","NA","22342","10535","NA","489","2","legacy","1024","2","48000","-16","experiment","SSHSS","2","even","212751","26674","169731","NA","203977","4315","172897","NA","213801","4323","159195","NA","213904","214394","213797","213904","Flanker task ","101","49809","107","yes","1024"
"94.44444444444444","94.44444444444444","465.3796296296296","465.3796296296296","black","legacy","legacy","legacy","0","incongruent","uniform","1","undefined","1","h","107","0","0","0","107","0","107","0","107","0","0","0","107","107","107","107","Wed Sep 22 11:17:39 2021","600","The main experiment item","yes","Flankertask.osexp","/Users/mihailcodreanu/Desktop","no","mono","no","18","no","white","no","yes","768","legacy","27","79","/Users/mihailcodreanu/Desktop/mc-subject-2.csv","legacy","Lentiform Loewenfeld","3.3.9","0","h","NA","s","h","NA","h","452","NA","22342","10535","NA","452","2","legacy","1024","2","48000","-16","experiment","SSHSS","2","even","214400","26674","169731","NA","203977","4315","172897","NA","215453","4323","159195","NA","215557","216011","215449","215557","Flanker task ","102","50261","108","yes","1024"
"94.4954128440367","94.4954128440367","464.5321100917431","464.5321100917431","black","legacy","legacy","legacy","0","congruent","uniform","1","undefined","1","h","108","0","0","0","108","0","108","0","108","0","0","0","108","108","108","108","Wed Sep 22 11:17:39 2021","600","The main experiment item","yes","Flankertask.osexp","/Users/mihailcodreanu/Desktop","no","mono","no","18","no","white","no","yes","768","legacy","28","79","/Users/mihailcodreanu/Desktop/mc-subject-2.csv","legacy","Lentiform Loewenfeld","3.3.9","0","h","NA","s","h","NA","h","373","NA","22342","10535","NA","373","2","legacy","1024","2","48000","-16","experiment","HHHHH","2","even","216016","26674","169731","NA","203977","4315","172897","NA","217069","4323","159195","NA","217172","217546","217065","217172","Flanker task ","103","50634","109","yes","1024"
"94.54545454545455","94.54545454545455","466.3363636363636","466.3363636363636","black","legacy","legacy","legacy","0","congruent","uniform","1","undefined","1","s","109","0","0","0","109","0","109","0","109","0","0","0","109","109","109","109","Wed Sep 22 11:17:39 2021","600","The main experiment item","yes","Flankertask.osexp","/Users/mihailcodreanu/Desktop","no","mono","no","18","no","white","no","yes","768","legacy","29","79","/Users/mihailcodreanu/Desktop/mc-subject-2.csv","legacy","Lentiform Loewenfeld","3.3.9","0","s","NA","s","h","NA","s","663","NA","22342","10535","NA","663","2","legacy","1024","2","48000","-16","experiment","SSSSS","2","even","217553","26674","169731","NA","203977","4315","172897","NA","218603","4323","159195","NA","218706","219371","218599","218706","Flanker task ","104","51297","110","yes","1024"
"94.5945945945946","94.5945945945946","466.44144144144144","466.44144144144144","black","legacy","legacy","legacy","0","congruent","uniform","1","undefined","1","s","110","0","0","0","110","0","110","0","110","0","0","0","110","110","110","110","Wed Sep 22 11:17:39 2021","600","The main experiment item","yes","Flankertask.osexp","/Users/mihailcodreanu/Desktop","no","mono","no","18","no","white","no","yes","768","legacy","30","79","/Users/mihailcodreanu/Desktop/mc-subject-2.csv","legacy","Lentiform Loewenfeld","3.3.9","0","s","NA","s","h","NA","s","478","NA","22342","10535","NA","478","2","legacy","1024","2","48000","-16","experiment","SSSSS","2","even","219880","26674","169731","NA","203977","4315","219377","NA","220931","4323","159195","NA","221035","221515","220927","221035","Flanker task ","105","51775","111","yes","1024"
"93.75","93.75","465.38392857142856","465.38392857142856","black","legacy","legacy","legacy","0","incongruent","uniform","0","undefined","0","h","111","0","0","0","111","0","111","0","111","0","0","0","111","111","111","111","Wed Sep 22 11:17:39 2021","600","The main experiment item","yes","Flankertask.osexp","/Users/mihailcodreanu/Desktop","no","mono","no","18","no","white","no","yes","768","legacy","31","79","/Users/mihailcodreanu/Desktop/mc-subject-2.csv","legacy","Lentiform Loewenfeld","3.3.9","0","s","NA","s","h","NA","s","348","NA","22342","10535","NA","348","2","legacy","1024","2","48000","-16","experiment","SSHSS","2","even","221521","26674","169731","NA","203977","4315","219377","NA","222573","4323","159195","NA","222677","223026","222570","222676","Flanker task ","105","52123","112","yes","1024"
"93.80530973451327","93.80530973451327","468.23893805309734","468.23893805309734","black","legacy","legacy","legacy","0","incongruent","uniform","1","undefined","1","s","112","0","0","0","112","0","112","0","112","0","0","0","112","112","112","112","Wed Sep 22 11:17:39 2021","600","The main experiment item","yes","Flankertask.osexp","/Users/mihailcodreanu/Desktop","no","mono","no","18","no","white","no","yes","768","legacy","32","79","/Users/mihailcodreanu/Desktop/mc-subject-2.csv","legacy","Lentiform Loewenfeld","3.3.9","0","s","NA","s","h","NA","s","788","NA","22342","10535","NA","788","2","legacy","1024","2","48000","-16","experiment","HHSHH","2","even","223536","26674","169731","NA","223032","4315","219377","NA","224589","4323","159195","NA","224693","225483","224586","224692","Flanker task ","106","52911","113","yes","1024"
"93.85964912280701","93.85964912280701","467.4298245614035","467.4298245614035","black","legacy","legacy","legacy","0","congruent","uniform","1","undefined","1","s","113","0","0","0","113","0","113","0","113","0","0","0","113","113","113","113","Wed Sep 22 11:17:39 2021","600","The main experiment item","yes","Flankertask.osexp","/Users/mihailcodreanu/Desktop","no","mono","no","18","no","white","no","yes","768","legacy","33","79","/Users/mihailcodreanu/Desktop/mc-subject-2.csv","legacy","Lentiform Loewenfeld","3.3.9","0","s","NA","s","h","NA","s","376","NA","22342","10535","NA","376","2","legacy","1024","2","48000","-16","experiment","SSSSS","2","even","225992","26674","169731","NA","223032","4315","225489","NA","227042","4323","159195","NA","227145","227523","227039","227145","Flanker task ","107","53287","114","yes","1024"
"93.91304347826087","93.91304347826087","466.7739130434783","466.7739130434783","black","legacy","legacy","legacy","0","congruent","uniform","1","undefined","1","h","114","0","0","0","114","0","114","0","114","0","0","0","114","114","114","114","Wed Sep 22 11:17:39 2021","600","The main experiment item","yes","Flankertask.osexp","/Users/mihailcodreanu/Desktop","no","mono","no","18","no","white","no","yes","768","legacy","34","79","/Users/mihailcodreanu/Desktop/mc-subject-2.csv","legacy","Lentiform Loewenfeld","3.3.9","0","h","NA","s","h","NA","h","392","NA","22342","10535","NA","392","2","legacy","1024","2","48000","-16","experiment","HHHHH","2","even","227529","26674","169731","NA","223032","4315","225489","NA","228578","4323","159195","NA","228681","229075","228574","228681","Flanker task ","108","53679","115","yes","1024"
"93.96551724137932","93.96551724137932","467.01724137931035","467.01724137931035","black","legacy","legacy","legacy","0","incongruent","uniform","1","undefined","1","s","115","0","0","0","115","0","115","0","115","0","0","0","115","115","115","115","Wed Sep 22 11:17:39 2021","600","The main experiment item","yes","Flankertask.osexp","/Users/mihailcodreanu/Desktop","no","mono","no","18","no","white","no","yes","768","legacy","35","79","/Users/mihailcodreanu/Desktop/mc-subject-2.csv","legacy","Lentiform Loewenfeld","3.3.9","0","s","NA","s","h","NA","s","495","NA","22342","10535","NA","495","2","legacy","1024","2","48000","-16","experiment","HHSHH","2","even","229081","26674","169731","NA","223032","4315","225489","NA","230131","4323","159195","NA","230234","230731","230127","230234","Flanker task ","109","54174","116","yes","1024"
"94.01709401709402","94.01709401709402","467.04273504273505","467.04273504273505","black","legacy","legacy","legacy","0","congruent","uniform","1","undefined","1","h","116","0","0","0","116","0","116","0","116","0","0","0","116","116","116","116","Wed Sep 22 11:17:39 2021","600","The main experiment item","yes","Flankertask.osexp","/Users/mihailcodreanu/Desktop","no","mono","no","18","no","white","no","yes","768","legacy","36","79","/Users/mihailcodreanu/Desktop/mc-subject-2.csv","legacy","Lentiform Loewenfeld","3.3.9","0","h","NA","s","h","NA","h","470","NA","22342","10535","NA","470","2","legacy","1024","2","48000","-16","experiment","HHHHH","2","even","230737","26674","169731","NA","223032","4315","225489","NA","231788","4323","159195","NA","231891","232362","231785","231891","Flanker task ","110","54644","117","yes","1024"
"94.0677966101695","94.0677966101695","466.0593220338983","466.0593220338983","black","legacy","legacy","legacy","0","congruent","uniform","1","undefined","1","h","117","0","0","0","117","0","117","0","117","0","0","0","117","117","117","117","Wed Sep 22 11:17:39 2021","600","The main experiment item","yes","Flankertask.osexp","/Users/mihailcodreanu/Desktop","no","mono","no","18","no","white","no","yes","768","legacy","37","79","/Users/mihailcodreanu/Desktop/mc-subject-2.csv","legacy","Lentiform Loewenfeld","3.3.9","0","h","NA","s","h","NA","h","351","NA","22342","10535","NA","351","2","legacy","1024","2","48000","-16","experiment","HHHHH","2","even","232369","26674","169731","NA","223032","4315","225489","NA","233419","4323","159195","NA","233522","233875","233415","233522","Flanker task ","111","54995","118","yes","1024"
"94.11764705882354","94.11764705882354","466.07563025210084","466.07563025210084","black","legacy","legacy","legacy","0","incongruent","uniform","1","undefined","1","h","118","0","0","0","118","0","118","0","118","0","0","0","118","118","118","118","Wed Sep 22 11:17:39 2021","600","The main experiment item","yes","Flankertask.osexp","/Users/mihailcodreanu/Desktop","no","mono","no","18","no","white","no","yes","768","legacy","38","79","/Users/mihailcodreanu/Desktop/mc-subject-2.csv","legacy","Lentiform Loewenfeld","3.3.9","0","h","NA","s","h","NA","h","468","NA","22342","10535","NA","468","2","legacy","1024","2","48000","-16","experiment","SSHSS","2","even","233885","26674","169731","NA","223032","4315","225489","NA","234933","4323","159195","NA","235037","235507","234930","235036","Flanker task ","112","55463","119","yes","1024"
"94.16666666666667","94.16666666666667","465.98333333333335","465.98333333333335","black","legacy","legacy","legacy","0","congruent","uniform","1","undefined","1","s","119","0","0","0","119","0","119","0","119","0","0","0","119","119","119","119","Wed Sep 22 11:17:39 2021","600","The main experiment item","yes","Flankertask.osexp","/Users/mihailcodreanu/Desktop","no","mono","no","18","no","white","no","yes","768","legacy","39","79","/Users/mihailcodreanu/Desktop/mc-subject-2.csv","legacy","Lentiform Loewenfeld","3.3.9","0","s","NA","s","h","NA","s","455","NA","22342","10535","NA","455","2","legacy","1024","2","48000","-16","experiment","SSSSS","2","even","235513","26674","169731","NA","223032","4315","225489","NA","236563","4323","159195","NA","236666","237123","236559","236666","Flanker task ","113","55918","120","yes","1024"
"94.21487603305785","94.21487603305785","465.89256198347107","465.89256198347107","black","legacy","legacy","legacy","0","congruent","uniform","1","undefined","1","h","120","0","0","0","120","0","120","0","120","0","0","0","120","120","120","120","Wed Sep 22 11:17:39 2021","600","The main experiment item","yes","Flankertask.osexp","/Users/mihailcodreanu/Desktop","no","mono","no","18","no","white","no","yes","768","legacy","40","79","/Users/mihailcodreanu/Desktop/mc-subject-2.csv","legacy","Lentiform Loewenfeld","3.3.9","0","h","NA","s","h","NA","h","455","NA","22342","10535","NA","455","2","legacy","1024","2","48000","-16","experiment","HHHHH","2","even","237129","26674","169731","NA","223032","4315","225489","NA","238179","4323","159195","NA","238282","238739","238175","238282","Flanker task ","114","56373","121","yes","1024"
