"acc","accuracy","average_response_time","avg_rt","background","canvas_backend","clock_backend","color_backend","compensation","condition","coordinates","correct","correct_instructions1","correct_keyboard_response","correct_response","count_InterStimulusInterval","count_block1","count_block2","count_block3","count_errorFeedback","count_experiment","count_faster","count_finish","count_fixation","count_instructions1","count_instructions2","count_instructions3","count_keyboard_response","count_logger","count_sequence","count_stimulus","datetime","deadline","description","disable_garbage_collection","experiment_file","experiment_path","font_bold","font_family","font_italic","font_size","font_underline","foreground","form_clicks","fullscreen","height","keyboard_backend","live_row","live_row_block1","logfile","mouse_backend","opensesame_codename","opensesame_version","repeat_cycle","response","response_finish","response_instructions1","response_instructions2","response_instructions3","response_keyboard_response","response_time","response_time_finish","response_time_instructions1","response_time_instructions2","response_time_instructions3","response_time_keyboard_response","round_decimals","sampler_backend","sound_buf_size","sound_channels","sound_freq","sound_sample_size","start","stimulus","subject_nr","subject_parity","time_InterStimulusInterval","time_block1","time_block2","time_block3","time_errorFeedback","time_experiment","time_faster","time_finish","time_fixation","time_instructions1","time_instructions2","time_instructions3","time_keyboard_response","time_logger","time_sequence","time_stimulus","title","total_correct","total_response_time","total_responses","uniform_coordinates","width"
"0","0","1500","1500","black","legacy","legacy","legacy","0","incongruent","uniform","0","undefined","0","h","0","0","0","0","0","0","0","0","0","0","0","0","0","0","0","0","09/26/21 13:22:39","1500","The main experiment item","yes","FlankerTask.osexp","C:\Users\suici\Desktop\Tarleton\Fall 2021 - Graduate Studies\PSYC 5316-010 Advanced Quantitative Methods & Experiment Design\Lab 2 - the flanker task (an experiment on attention)","no","mono","no","18","no","white","no","yes","768","legacy","0","0","C:/Users/suici/Desktop/Tarleton/Fall 2021 - Graduate Studies/PSYC 5316-010 Advanced Quantitative Methods & Experiment Design/Lab 2 - the flanker task (an experiment on attention)/SM-subject-3.csv","legacy","Lentiform Loewenfeld","3.3.9","0","None","NA","h","NA","NA","None","1500","NA","43466","NA","NA","1500","2","legacy","1024","2","48000","-16","experiment","SSHSS","3","odd","NA","44872","NA","NA","NA","1404","NA","NA","44907","1405","NA","NA","45007","46507","44906","45007","Flanker Task","0","1500","1","yes","1024"
"50","50","1076","1076","black","legacy","legacy","legacy","0","congruent","uniform","1","undefined","1","s","1","0","0","0","1","0","1","0","1","0","0","0","1","1","1","1","09/26/21 13:22:39","1500","The main experiment item","yes","FlankerTask.osexp","C:\Users\suici\Desktop\Tarleton\Fall 2021 - Graduate Studies\PSYC 5316-010 Advanced Quantitative Methods & Experiment Design\Lab 2 - the flanker task (an experiment on attention)","no","mono","no","18","no","white","no","yes","768","legacy","1","1","C:/Users/suici/Desktop/Tarleton/Fall 2021 - Graduate Studies/PSYC 5316-010 Advanced Quantitative Methods & Experiment Design/Lab 2 - the flanker task (an experiment on attention)/SM-subject-3.csv","legacy","Lentiform Loewenfeld","3.3.9","0","s","NA","h","NA","NA","s","652","NA","43466","NA","NA","652","2","legacy","1024","2","48000","-16","experiment","SSSSS","3","odd","47010","44872","NA","NA","46510","1404","NA","NA","48039","1405","NA","NA","48139","48791","48038","48139","Flanker Task","1","2152","2","yes","1024"
"66.6666666667","66.6666666667","898.333333333","898.333333333","black","legacy","legacy","legacy","0","congruent","uniform","1","undefined","1","h","2","0","0","0","2","0","2","0","2","0","0","0","2","2","2","2","09/26/21 13:22:39","1500","The main experiment item","yes","FlankerTask.osexp","C:\Users\suici\Desktop\Tarleton\Fall 2021 - Graduate Studies\PSYC 5316-010 Advanced Quantitative Methods & Experiment Design\Lab 2 - the flanker task (an experiment on attention)","no","mono","no","18","no","white","no","yes","768","legacy","2","2","C:/Users/suici/Desktop/Tarleton/Fall 2021 - Graduate Studies/PSYC 5316-010 Advanced Quantitative Methods & Experiment Design/Lab 2 - the flanker task (an experiment on attention)/SM-subject-3.csv","legacy","Lentiform Loewenfeld","3.3.9","0","h","NA","h","NA","NA","h","543","NA","43466","NA","NA","543","2","legacy","1024","2","48000","-16","experiment","HHHHH","3","odd","48793","44872","NA","NA","46510","1404","NA","NA","49821","1405","NA","NA","49921","50464","49820","49921","Flanker Task","2","2695","3","yes","1024"
"75","75","867","867","black","legacy","legacy","legacy","0","incongruent","uniform","1","undefined","1","h","3","0","0","0","3","0","3","0","3","0","0","0","3","3","3","3","09/26/21 13:22:39","1500","The main experiment item","yes","FlankerTask.osexp","C:\Users\suici\Desktop\Tarleton\Fall 2021 - Graduate Studies\PSYC 5316-010 Advanced Quantitative Methods & Experiment Design\Lab 2 - the flanker task (an experiment on attention)","no","mono","no","18","no","white","no","yes","768","legacy","3","3","C:/Users/suici/Desktop/Tarleton/Fall 2021 - Graduate Studies/PSYC 5316-010 Advanced Quantitative Methods & Experiment Design/Lab 2 - the flanker task (an experiment on attention)/SM-subject-3.csv","legacy","Lentiform Loewenfeld","3.3.9","0","h","NA","h","NA","NA","h","773","NA","43466","NA","NA","773","2","legacy","1024","2","48000","-16","experiment","SSHSS","3","odd","50466","44872","NA","NA","46510","1404","NA","NA","51494","1405","NA","NA","51594","52367","51493","51594","Flanker Task","3","3468","4","yes","1024"
"80","80","805.2","805.2","black","legacy","legacy","legacy","0","congruent","uniform","1","undefined","1","s","4","0","0","0","4","0","4","0","4","0","0","0","4","4","4","4","09/26/21 13:22:39","1500","The main experiment item","yes","FlankerTask.osexp","C:\Users\suici\Desktop\Tarleton\Fall 2021 - Graduate Studies\PSYC 5316-010 Advanced Quantitative Methods & Experiment Design\Lab 2 - the flanker task (an experiment on attention)","no","mono","no","18","no","white","no","yes","768","legacy","4","4","C:/Users/suici/Desktop/Tarleton/Fall 2021 - Graduate Studies/PSYC 5316-010 Advanced Quantitative Methods & Experiment Design/Lab 2 - the flanker task (an experiment on attention)/SM-subject-3.csv","legacy","Lentiform Loewenfeld","3.3.9","0","s","NA","h","NA","NA","s","558","NA","43466","NA","NA","558","2","legacy","1024","2","48000","-16","experiment","SSSSS","3","odd","52369","44872","NA","NA","46510","1404","NA","NA","53397","1405","NA","NA","53497","54056","53396","53497","Flanker Task","4","4026","5","yes","1024"
"83.3333333333","83.3333333333","761.333333333","761.333333333","black","legacy","legacy","legacy","0","incongruent","uniform","1","undefined","1","h","5","0","0","0","5","0","5","0","5","0","0","0","5","5","5","5","09/26/21 13:22:39","1500","The main experiment item","yes","FlankerTask.osexp","C:\Users\suici\Desktop\Tarleton\Fall 2021 - Graduate Studies\PSYC 5316-010 Advanced Quantitative Methods & Experiment Design\Lab 2 - the flanker task (an experiment on attention)","no","mono","no","18","no","white","no","yes","768","legacy","5","5","C:/Users/suici/Desktop/Tarleton/Fall 2021 - Graduate Studies/PSYC 5316-010 Advanced Quantitative Methods & Experiment Design/Lab 2 - the flanker task (an experiment on attention)/SM-subject-3.csv","legacy","Lentiform Loewenfeld","3.3.9","0","h","NA","h","NA","NA","h","542","NA","43466","NA","NA","542","2","legacy","1024","2","48000","-16","experiment","SSHSS","3","odd","54057","44872","NA","NA","46510","1404","NA","NA","55085","1405","NA","NA","55185","55727","55084","55185","Flanker Task","5","4568","6","yes","1024"
"85.7142857143","85.7142857143","741.571428571","741.571428571","black","legacy","legacy","legacy","0","incongruent","uniform","1","undefined","1","h","6","0","0","0","6","0","6","0","6","0","0","0","6","6","6","6","09/26/21 13:22:39","1500","The main experiment item","yes","FlankerTask.osexp","C:\Users\suici\Desktop\Tarleton\Fall 2021 - Graduate Studies\PSYC 5316-010 Advanced Quantitative Methods & Experiment Design\Lab 2 - the flanker task (an experiment on attention)","no","mono","no","18","no","white","no","yes","768","legacy","6","6","C:/Users/suici/Desktop/Tarleton/Fall 2021 - Graduate Studies/PSYC 5316-010 Advanced Quantitative Methods & Experiment Design/Lab 2 - the flanker task (an experiment on attention)/SM-subject-3.csv","legacy","Lentiform Loewenfeld","3.3.9","0","h","NA","h","NA","NA","h","623","NA","43466","NA","NA","623","2","legacy","1024","2","48000","-16","experiment","SSHSS","3","odd","55729","44872","NA","NA","46510","1404","NA","NA","56756","1405","NA","NA","56856","57480","56755","56856","Flanker Task","6","5191","7","yes","1024"
"87.5","87.5","738.75","738.75","black","legacy","legacy","legacy","0","incongruent","uniform","1","undefined","1","s","7","0","0","0","7","0","7","0","7","0","0","0","7","7","7","7","09/26/21 13:22:39","1500","The main experiment item","yes","FlankerTask.osexp","C:\Users\suici\Desktop\Tarleton\Fall 2021 - Graduate Studies\PSYC 5316-010 Advanced Quantitative Methods & Experiment Design\Lab 2 - the flanker task (an experiment on attention)","no","mono","no","18","no","white","no","yes","768","legacy","7","7","C:/Users/suici/Desktop/Tarleton/Fall 2021 - Graduate Studies/PSYC 5316-010 Advanced Quantitative Methods & Experiment Design/Lab 2 - the flanker task (an experiment on attention)/SM-subject-3.csv","legacy","Lentiform Loewenfeld","3.3.9","0","s","NA","h","NA","NA","s","719","NA","43466","NA","NA","719","2","legacy","1024","2","48000","-16","experiment","HHSHH","3","odd","57481","44872","NA","NA","46510","1404","NA","NA","58509","1405","NA","NA","58609","59328","58508","58609","Flanker Task","7","5910","8","yes","1024"
"88.8888888889","88.8888888889","720.444444444","720.444444444","black","legacy","legacy","legacy","0","incongruent","uniform","1","undefined","1","h","8","0","0","0","8","0","8","0","8","0","0","0","8","8","8","8","09/26/21 13:22:39","1500","The main experiment item","yes","FlankerTask.osexp","C:\Users\suici\Desktop\Tarleton\Fall 2021 - Graduate Studies\PSYC 5316-010 Advanced Quantitative Methods & Experiment Design\Lab 2 - the flanker task (an experiment on attention)","no","mono","no","18","no","white","no","yes","768","legacy","8","8","C:/Users/suici/Desktop/Tarleton/Fall 2021 - Graduate Studies/PSYC 5316-010 Advanced Quantitative Methods & Experiment Design/Lab 2 - the flanker task (an experiment on attention)/SM-subject-3.csv","legacy","Lentiform Loewenfeld","3.3.9","0","h","NA","h","NA","NA","h","574","NA","43466","NA","NA","574","2","legacy","1024","2","48000","-16","experiment","SSHSS","3","odd","59330","44872","NA","NA","46510","1404","NA","NA","60358","1405","NA","NA","60458","61032","60357","60458","Flanker Task","8","6484","9","yes","1024"
"90","90","721.7","721.7","black","legacy","legacy","legacy","0","incongruent","uniform","1","undefined","1","s","9","0","0","0","9","0","9","0","9","0","0","0","9","9","9","9","09/26/21 13:22:39","1500","The main experiment item","yes","FlankerTask.osexp","C:\Users\suici\Desktop\Tarleton\Fall 2021 - Graduate Studies\PSYC 5316-010 Advanced Quantitative Methods & Experiment Design\Lab 2 - the flanker task (an experiment on attention)","no","mono","no","18","no","white","no","yes","768","legacy","9","9","C:/Users/suici/Desktop/Tarleton/Fall 2021 - Graduate Studies/PSYC 5316-010 Advanced Quantitative Methods & Experiment Design/Lab 2 - the flanker task (an experiment on attention)/SM-subject-3.csv","legacy","Lentiform Loewenfeld","3.3.9","0","s","NA","h","NA","NA","s","733","NA","43466","NA","NA","733","2","legacy","1024","2","48000","-16","experiment","HHSHH","3","odd","61034","44872","NA","NA","46510","1404","NA","NA","62062","1405","NA","NA","62162","62896","62061","62162","Flanker Task","9","7217","10","yes","1024"
"90.9090909091","90.9090909091","699.727272727","699.727272727","black","legacy","legacy","legacy","0","incongruent","uniform","1","undefined","1","h","10","0","0","0","10","0","10","0","10","0","0","0","10","10","10","10","09/26/21 13:22:39","1500","The main experiment item","yes","FlankerTask.osexp","C:\Users\suici\Desktop\Tarleton\Fall 2021 - Graduate Studies\PSYC 5316-010 Advanced Quantitative Methods & Experiment Design\Lab 2 - the flanker task (an experiment on attention)","no","mono","no","18","no","white","no","yes","768","legacy","10","10","C:/Users/suici/Desktop/Tarleton/Fall 2021 - Graduate Studies/PSYC 5316-010 Advanced Quantitative Methods & Experiment Design/Lab 2 - the flanker task (an experiment on attention)/SM-subject-3.csv","legacy","Lentiform Loewenfeld","3.3.9","0","h","NA","h","NA","NA","h","480","NA","43466","NA","NA","480","2","legacy","1024","2","48000","-16","experiment","SSHSS","3","odd","62897","44872","NA","NA","46510","1404","NA","NA","63924","1405","NA","NA","64024","64504","63923","64024","Flanker Task","10","7697","11","yes","1024"
"83.3333333333","83.3333333333","679.166666667","679.166666667","black","legacy","legacy","legacy","0","incongruent","uniform","0","undefined","0","h","11","0","0","0","11","0","11","0","11","0","0","0","11","11","11","11","09/26/21 13:22:39","1500","The main experiment item","yes","FlankerTask.osexp","C:\Users\suici\Desktop\Tarleton\Fall 2021 - Graduate Studies\PSYC 5316-010 Advanced Quantitative Methods & Experiment Design\Lab 2 - the flanker task (an experiment on attention)","no","mono","no","18","no","white","no","yes","768","legacy","11","11","C:/Users/suici/Desktop/Tarleton/Fall 2021 - Graduate Studies/PSYC 5316-010 Advanced Quantitative Methods & Experiment Design/Lab 2 - the flanker task (an experiment on attention)/SM-subject-3.csv","legacy","Lentiform Loewenfeld","3.3.9","0","s","NA","h","NA","NA","s","453","NA","43466","NA","NA","453","2","legacy","1024","2","48000","-16","experiment","SSHSS","3","odd","64506","44872","NA","NA","46510","1404","NA","NA","65534","1405","NA","NA","65634","66087","65533","65634","Flanker Task","10","8150","12","yes","1024"
"84.6153846154","84.6153846154","678.230769231","678.230769231","black","legacy","legacy","legacy","0","congruent","uniform","1","undefined","1","h","12","0","0","0","12","0","12","0","12","0","0","0","12","12","12","12","09/26/21 13:22:39","1500","The main experiment item","yes","FlankerTask.osexp","C:\Users\suici\Desktop\Tarleton\Fall 2021 - Graduate Studies\PSYC 5316-010 Advanced Quantitative Methods & Experiment Design\Lab 2 - the flanker task (an experiment on attention)","no","mono","no","18","no","white","no","yes","768","legacy","12","12","C:/Users/suici/Desktop/Tarleton/Fall 2021 - Graduate Studies/PSYC 5316-010 Advanced Quantitative Methods & Experiment Design/Lab 2 - the flanker task (an experiment on attention)/SM-subject-3.csv","legacy","Lentiform Loewenfeld","3.3.9","0","h","NA","h","NA","NA","h","667","NA","43466","NA","NA","667","2","legacy","1024","2","48000","-16","experiment","HHHHH","3","odd","66589","44872","NA","NA","66089","1404","NA","NA","67617","1405","NA","NA","67717","68384","67615","67717","Flanker Task","11","8817","13","yes","1024"
"85.7142857143","85.7142857143","675.357142857","675.357142857","black","legacy","legacy","legacy","0","congruent","uniform","1","undefined","1","s","13","0","0","0","13","0","13","0","13","0","0","0","13","13","13","13","09/26/21 13:22:39","1500","The main experiment item","yes","FlankerTask.osexp","C:\Users\suici\Desktop\Tarleton\Fall 2021 - Graduate Studies\PSYC 5316-010 Advanced Quantitative Methods & Experiment Design\Lab 2 - the flanker task (an experiment on attention)","no","mono","no","18","no","white","no","yes","768","legacy","13","13","C:/Users/suici/Desktop/Tarleton/Fall 2021 - Graduate Studies/PSYC 5316-010 Advanced Quantitative Methods & Experiment Design/Lab 2 - the flanker task (an experiment on attention)/SM-subject-3.csv","legacy","Lentiform Loewenfeld","3.3.9","0","s","NA","h","NA","NA","s","638","NA","43466","NA","NA","638","2","legacy","1024","2","48000","-16","experiment","SSSSS","3","odd","68386","44872","NA","NA","66089","1404","NA","NA","69414","1405","NA","NA","69514","70152","69413","69514","Flanker Task","12","9455","14","yes","1024"
"86.6666666667","86.6666666667","679.733333333","679.733333333","black","legacy","legacy","legacy","0","incongruent","uniform","1","undefined","1","s","14","0","0","0","14","0","14","0","14","0","0","0","14","14","14","14","09/26/21 13:22:39","1500","The main experiment item","yes","FlankerTask.osexp","C:\Users\suici\Desktop\Tarleton\Fall 2021 - Graduate Studies\PSYC 5316-010 Advanced Quantitative Methods & Experiment Design\Lab 2 - the flanker task (an experiment on attention)","no","mono","no","18","no","white","no","yes","768","legacy","14","14","C:/Users/suici/Desktop/Tarleton/Fall 2021 - Graduate Studies/PSYC 5316-010 Advanced Quantitative Methods & Experiment Design/Lab 2 - the flanker task (an experiment on attention)/SM-subject-3.csv","legacy","Lentiform Loewenfeld","3.3.9","0","s","NA","h","NA","NA","s","741","NA","43466","NA","NA","741","2","legacy","1024","2","48000","-16","experiment","HHSHH","3","odd","70154","44872","NA","NA","66089","1404","NA","NA","71182","1405","NA","NA","71282","72023","71180","71282","Flanker Task","13","10196","15","yes","1024"
"87.5","87.5","676.1875","676.1875","black","legacy","legacy","legacy","0","congruent","uniform","1","undefined","1","h","15","0","0","0","15","0","15","0","15","0","0","0","15","15","15","15","09/26/21 13:22:39","1500","The main experiment item","yes","FlankerTask.osexp","C:\Users\suici\Desktop\Tarleton\Fall 2021 - Graduate Studies\PSYC 5316-010 Advanced Quantitative Methods & Experiment Design\Lab 2 - the flanker task (an experiment on attention)","no","mono","no","18","no","white","no","yes","768","legacy","15","15","C:/Users/suici/Desktop/Tarleton/Fall 2021 - Graduate Studies/PSYC 5316-010 Advanced Quantitative Methods & Experiment Design/Lab 2 - the flanker task (an experiment on attention)/SM-subject-3.csv","legacy","Lentiform Loewenfeld","3.3.9","0","h","NA","h","NA","NA","h","623","NA","43466","NA","NA","623","2","legacy","1024","2","48000","-16","experiment","HHHHH","3","odd","72025","44872","NA","NA","66089","1404","NA","NA","73053","1405","NA","NA","73153","73776","73052","73153","Flanker Task","14","10819","16","yes","1024"
"88.2352941176","88.2352941176","681.882352941","681.882352941","black","legacy","legacy","legacy","0","incongruent","uniform","1","undefined","1","s","16","0","0","0","16","0","16","0","16","0","0","0","16","16","16","16","09/26/21 13:22:39","1500","The main experiment item","yes","FlankerTask.osexp","C:\Users\suici\Desktop\Tarleton\Fall 2021 - Graduate Studies\PSYC 5316-010 Advanced Quantitative Methods & Experiment Design\Lab 2 - the flanker task (an experiment on attention)","no","mono","no","18","no","white","no","yes","768","legacy","16","16","C:/Users/suici/Desktop/Tarleton/Fall 2021 - Graduate Studies/PSYC 5316-010 Advanced Quantitative Methods & Experiment Design/Lab 2 - the flanker task (an experiment on attention)/SM-subject-3.csv","legacy","Lentiform Loewenfeld","3.3.9","0","s","NA","h","NA","NA","s","773","NA","43466","NA","NA","773","2","legacy","1024","2","48000","-16","experiment","HHSHH","3","odd","73778","44872","NA","NA","66089","1404","NA","NA","74806","1405","NA","NA","74906","75680","74805","74906","Flanker Task","15","11592","17","yes","1024"
"88.8888888889","88.8888888889","678.555555556","678.555555556","black","legacy","legacy","legacy","0","congruent","uniform","1","undefined","1","s","17","0","0","0","17","0","17","0","17","0","0","0","17","17","17","17","09/26/21 13:22:39","1500","The main experiment item","yes","FlankerTask.osexp","C:\Users\suici\Desktop\Tarleton\Fall 2021 - Graduate Studies\PSYC 5316-010 Advanced Quantitative Methods & Experiment Design\Lab 2 - the flanker task (an experiment on attention)","no","mono","no","18","no","white","no","yes","768","legacy","17","17","C:/Users/suici/Desktop/Tarleton/Fall 2021 - Graduate Studies/PSYC 5316-010 Advanced Quantitative Methods & Experiment Design/Lab 2 - the flanker task (an experiment on attention)/SM-subject-3.csv","legacy","Lentiform Loewenfeld","3.3.9","0","s","NA","h","NA","NA","s","622","NA","43466","NA","NA","622","2","legacy","1024","2","48000","-16","experiment","SSSSS","3","odd","75681","44872","NA","NA","66089","1404","NA","NA","76709","1405","NA","NA","76809","77431","76708","76809","Flanker Task","16","12214","18","yes","1024"
"89.4736842105","89.4736842105","671.894736842","671.894736842","black","legacy","legacy","legacy","0","congruent","uniform","1","undefined","1","s","18","0","0","0","18","0","18","0","18","0","0","0","18","18","18","18","09/26/21 13:22:39","1500","The main experiment item","yes","FlankerTask.osexp","C:\Users\suici\Desktop\Tarleton\Fall 2021 - Graduate Studies\PSYC 5316-010 Advanced Quantitative Methods & Experiment Design\Lab 2 - the flanker task (an experiment on attention)","no","mono","no","18","no","white","no","yes","768","legacy","18","18","C:/Users/suici/Desktop/Tarleton/Fall 2021 - Graduate Studies/PSYC 5316-010 Advanced Quantitative Methods & Experiment Design/Lab 2 - the flanker task (an experiment on attention)/SM-subject-3.csv","legacy","Lentiform Loewenfeld","3.3.9","0","s","NA","h","NA","NA","s","552","NA","43466","NA","NA","552","2","legacy","1024","2","48000","-16","experiment","SSSSS","3","odd","77433","44872","NA","NA","66089","1404","NA","NA","78460","1405","NA","NA","78560","79112","78459","78560","Flanker Task","17","12766","19","yes","1024"
"90","90","669","669","black","legacy","legacy","legacy","0","congruent","uniform","1","undefined","1","h","19","0","0","0","19","0","19","0","19","0","0","0","19","19","19","19","09/26/21 13:22:39","1500","The main experiment item","yes","FlankerTask.osexp","C:\Users\suici\Desktop\Tarleton\Fall 2021 - Graduate Studies\PSYC 5316-010 Advanced Quantitative Methods & Experiment Design\Lab 2 - the flanker task (an experiment on attention)","no","mono","no","18","no","white","no","yes","768","legacy","19","19","C:/Users/suici/Desktop/Tarleton/Fall 2021 - Graduate Studies/PSYC 5316-010 Advanced Quantitative Methods & Experiment Design/Lab 2 - the flanker task (an experiment on attention)/SM-subject-3.csv","legacy","Lentiform Loewenfeld","3.3.9","0","h","NA","h","NA","NA","h","614","NA","43466","NA","NA","614","2","legacy","1024","2","48000","-16","experiment","HHHHH","3","odd","79113","44872","NA","NA","66089","1404","NA","NA","80141","1405","NA","NA","80241","80855","80140","80241","Flanker Task","18","13380","20","yes","1024"
"90.4761904762","90.4761904762","665.666666667","665.666666667","black","legacy","legacy","legacy","0","congruent","uniform","1","undefined","1","h","20","0","0","0","20","0","20","0","20","0","0","0","20","20","20","20","09/26/21 13:22:39","1500","The main experiment item","yes","FlankerTask.osexp","C:\Users\suici\Desktop\Tarleton\Fall 2021 - Graduate Studies\PSYC 5316-010 Advanced Quantitative Methods & Experiment Design\Lab 2 - the flanker task (an experiment on attention)","no","mono","no","18","no","white","no","yes","768","legacy","20","20","C:/Users/suici/Desktop/Tarleton/Fall 2021 - Graduate Studies/PSYC 5316-010 Advanced Quantitative Methods & Experiment Design/Lab 2 - the flanker task (an experiment on attention)/SM-subject-3.csv","legacy","Lentiform Loewenfeld","3.3.9","0","h","NA","h","NA","NA","h","599","NA","43466","NA","NA","599","2","legacy","1024","2","48000","-16","experiment","HHHHH","3","odd","80857","44872","NA","NA","66089","1404","NA","NA","81885","1405","NA","NA","81985","82584","81884","81985","Flanker Task","19","13979","21","yes","1024"
"90.9090909091","90.9090909091","661.136363636","661.136363636","black","legacy","legacy","legacy","0","incongruent","uniform","1","undefined","1","s","21","0","0","0","21","0","21","0","21","0","0","0","21","21","21","21","09/26/21 13:22:39","1500","The main experiment item","yes","FlankerTask.osexp","C:\Users\suici\Desktop\Tarleton\Fall 2021 - Graduate Studies\PSYC 5316-010 Advanced Quantitative Methods & Experiment Design\Lab 2 - the flanker task (an experiment on attention)","no","mono","no","18","no","white","no","yes","768","legacy","21","21","C:/Users/suici/Desktop/Tarleton/Fall 2021 - Graduate Studies/PSYC 5316-010 Advanced Quantitative Methods & Experiment Design/Lab 2 - the flanker task (an experiment on attention)/SM-subject-3.csv","legacy","Lentiform Loewenfeld","3.3.9","0","s","NA","h","NA","NA","s","566","NA","43466","NA","NA","566","2","legacy","1024","2","48000","-16","experiment","HHSHH","3","odd","82586","44872","NA","NA","66089","1404","NA","NA","83614","1405","NA","NA","83714","84280","83613","83714","Flanker Task","20","14545","22","yes","1024"
"91.3043478261","91.3043478261","656.695652174","656.695652174","black","legacy","legacy","legacy","0","congruent","uniform","1","undefined","1","h","22","0","0","0","22","0","22","0","22","0","0","0","22","22","22","22","09/26/21 13:22:39","1500","The main experiment item","yes","FlankerTask.osexp","C:\Users\suici\Desktop\Tarleton\Fall 2021 - Graduate Studies\PSYC 5316-010 Advanced Quantitative Methods & Experiment Design\Lab 2 - the flanker task (an experiment on attention)","no","mono","no","18","no","white","no","yes","768","legacy","22","22","C:/Users/suici/Desktop/Tarleton/Fall 2021 - Graduate Studies/PSYC 5316-010 Advanced Quantitative Methods & Experiment Design/Lab 2 - the flanker task (an experiment on attention)/SM-subject-3.csv","legacy","Lentiform Loewenfeld","3.3.9","0","h","NA","h","NA","NA","h","559","NA","43466","NA","NA","559","2","legacy","1024","2","48000","-16","experiment","HHHHH","3","odd","84282","44872","NA","NA","66089","1404","NA","NA","85309","1405","NA","NA","85409","85968","85308","85409","Flanker Task","21","15104","23","yes","1024"
"91.6666666667","91.6666666667","655.583333333","655.583333333","black","legacy","legacy","legacy","0","incongruent","uniform","1","undefined","1","s","23","0","0","0","23","0","23","0","23","0","0","0","23","23","23","23","09/26/21 13:22:39","1500","The main experiment item","yes","FlankerTask.osexp","C:\Users\suici\Desktop\Tarleton\Fall 2021 - Graduate Studies\PSYC 5316-010 Advanced Quantitative Methods & Experiment Design\Lab 2 - the flanker task (an experiment on attention)","no","mono","no","18","no","white","no","yes","768","legacy","23","23","C:/Users/suici/Desktop/Tarleton/Fall 2021 - Graduate Studies/PSYC 5316-010 Advanced Quantitative Methods & Experiment Design/Lab 2 - the flanker task (an experiment on attention)/SM-subject-3.csv","legacy","Lentiform Loewenfeld","3.3.9","0","s","NA","h","NA","NA","s","630","NA","43466","NA","NA","630","2","legacy","1024","2","48000","-16","experiment","HHSHH","3","odd","85970","44872","NA","NA","66089","1404","NA","NA","86998","1405","NA","NA","87098","87728","86997","87098","Flanker Task","22","15734","24","yes","1024"
"92","92","655.48","655.48","black","legacy","legacy","legacy","0","incongruent","uniform","1","undefined","1","s","24","0","0","0","24","0","24","0","24","0","0","0","24","24","24","24","09/26/21 13:22:39","1500","The main experiment item","yes","FlankerTask.osexp","C:\Users\suici\Desktop\Tarleton\Fall 2021 - Graduate Studies\PSYC 5316-010 Advanced Quantitative Methods & Experiment Design\Lab 2 - the flanker task (an experiment on attention)","no","mono","no","18","no","white","no","yes","768","legacy","24","24","C:/Users/suici/Desktop/Tarleton/Fall 2021 - Graduate Studies/PSYC 5316-010 Advanced Quantitative Methods & Experiment Design/Lab 2 - the flanker task (an experiment on attention)/SM-subject-3.csv","legacy","Lentiform Loewenfeld","3.3.9","0","s","NA","h","NA","NA","s","653","NA","43466","NA","NA","653","2","legacy","1024","2","48000","-16","experiment","HHSHH","3","odd","87730","44872","NA","NA","66089","1404","NA","NA","88758","1405","NA","NA","88858","89512","88757","88858","Flanker Task","23","16387","25","yes","1024"
"92.3076923077","92.3076923077","652.961538462","652.961538462","black","legacy","legacy","legacy","0","congruent","uniform","1","undefined","1","s","25","0","0","0","25","0","25","0","25","0","0","0","25","25","25","25","09/26/21 13:22:39","1500","The main experiment item","yes","FlankerTask.osexp","C:\Users\suici\Desktop\Tarleton\Fall 2021 - Graduate Studies\PSYC 5316-010 Advanced Quantitative Methods & Experiment Design\Lab 2 - the flanker task (an experiment on attention)","no","mono","no","18","no","white","no","yes","768","legacy","25","25","C:/Users/suici/Desktop/Tarleton/Fall 2021 - Graduate Studies/PSYC 5316-010 Advanced Quantitative Methods & Experiment Design/Lab 2 - the flanker task (an experiment on attention)/SM-subject-3.csv","legacy","Lentiform Loewenfeld","3.3.9","0","s","NA","h","NA","NA","s","590","NA","43466","NA","NA","590","2","legacy","1024","2","48000","-16","experiment","SSSSS","3","odd","89513","44872","NA","NA","66089","1404","NA","NA","90541","1405","NA","NA","90641","91231","90540","90641","Flanker Task","24","16977","26","yes","1024"
"92.5925925926","92.5925925926","649.740740741","649.740740741","black","legacy","legacy","legacy","0","incongruent","uniform","1","undefined","1","h","26","0","0","0","26","0","26","0","26","0","0","0","26","26","26","26","09/26/21 13:22:39","1500","The main experiment item","yes","FlankerTask.osexp","C:\Users\suici\Desktop\Tarleton\Fall 2021 - Graduate Studies\PSYC 5316-010 Advanced Quantitative Methods & Experiment Design\Lab 2 - the flanker task (an experiment on attention)","no","mono","no","18","no","white","no","yes","768","legacy","26","26","C:/Users/suici/Desktop/Tarleton/Fall 2021 - Graduate Studies/PSYC 5316-010 Advanced Quantitative Methods & Experiment Design/Lab 2 - the flanker task (an experiment on attention)/SM-subject-3.csv","legacy","Lentiform Loewenfeld","3.3.9","0","h","NA","h","NA","NA","h","566","NA","43466","NA","NA","566","2","legacy","1024","2","48000","-16","experiment","SSHSS","3","odd","91233","44872","NA","NA","66089","1404","NA","NA","92261","1405","NA","NA","92361","92928","92260","92361","Flanker Task","25","17543","27","yes","1024"
"92.8571428571","92.8571428571","646.428571429","646.428571429","black","legacy","legacy","legacy","0","incongruent","uniform","1","undefined","1","h","27","0","0","0","27","0","27","0","27","0","0","0","27","27","27","27","09/26/21 13:22:39","1500","The main experiment item","yes","FlankerTask.osexp","C:\Users\suici\Desktop\Tarleton\Fall 2021 - Graduate Studies\PSYC 5316-010 Advanced Quantitative Methods & Experiment Design\Lab 2 - the flanker task (an experiment on attention)","no","mono","no","18","no","white","no","yes","768","legacy","27","27","C:/Users/suici/Desktop/Tarleton/Fall 2021 - Graduate Studies/PSYC 5316-010 Advanced Quantitative Methods & Experiment Design/Lab 2 - the flanker task (an experiment on attention)/SM-subject-3.csv","legacy","Lentiform Loewenfeld","3.3.9","0","h","NA","h","NA","NA","h","557","NA","43466","NA","NA","557","2","legacy","1024","2","48000","-16","experiment","SSHSS","3","odd","92929","44872","NA","NA","66089","1404","NA","NA","93958","1405","NA","NA","94058","94616","93957","94058","Flanker Task","26","18100","28","yes","1024"
"93.1034482759","93.1034482759","641.793103448","641.793103448","black","legacy","legacy","legacy","0","congruent","uniform","1","undefined","1","s","28","0","0","0","28","0","28","0","28","0","0","0","28","28","28","28","09/26/21 13:22:39","1500","The main experiment item","yes","FlankerTask.osexp","C:\Users\suici\Desktop\Tarleton\Fall 2021 - Graduate Studies\PSYC 5316-010 Advanced Quantitative Methods & Experiment Design\Lab 2 - the flanker task (an experiment on attention)","no","mono","no","18","no","white","no","yes","768","legacy","28","28","C:/Users/suici/Desktop/Tarleton/Fall 2021 - Graduate Studies/PSYC 5316-010 Advanced Quantitative Methods & Experiment Design/Lab 2 - the flanker task (an experiment on attention)/SM-subject-3.csv","legacy","Lentiform Loewenfeld","3.3.9","0","s","NA","h","NA","NA","s","512","NA","43466","NA","NA","512","2","legacy","1024","2","48000","-16","experiment","SSSSS","3","odd","94617","44872","NA","NA","66089","1404","NA","NA","95644","1405","NA","NA","95744","96256","95643","95744","Flanker Task","27","18612","29","yes","1024"
"93.3333333333","93.3333333333","642.7","642.7","black","legacy","legacy","legacy","0","incongruent","uniform","1","undefined","1","s","29","0","0","0","29","0","29","0","29","0","0","0","29","29","29","29","09/26/21 13:22:39","1500","The main experiment item","yes","FlankerTask.osexp","C:\Users\suici\Desktop\Tarleton\Fall 2021 - Graduate Studies\PSYC 5316-010 Advanced Quantitative Methods & Experiment Design\Lab 2 - the flanker task (an experiment on attention)","no","mono","no","18","no","white","no","yes","768","legacy","29","29","C:/Users/suici/Desktop/Tarleton/Fall 2021 - Graduate Studies/PSYC 5316-010 Advanced Quantitative Methods & Experiment Design/Lab 2 - the flanker task (an experiment on attention)/SM-subject-3.csv","legacy","Lentiform Loewenfeld","3.3.9","0","s","NA","h","NA","NA","s","669","NA","43466","NA","NA","669","2","legacy","1024","2","48000","-16","experiment","HHSHH","3","odd","96258","44872","NA","NA","66089","1404","NA","NA","97286","1405","NA","NA","97386","98056","97285","97386","Flanker Task","28","19281","30","yes","1024"
"93.5483870968","93.5483870968","643.870967742","643.870967742","black","legacy","legacy","legacy","0","incongruent","uniform","1","undefined","1","s","30","0","0","0","30","0","30","0","30","0","0","0","30","30","30","30","09/26/21 13:22:39","1500","The main experiment item","yes","FlankerTask.osexp","C:\Users\suici\Desktop\Tarleton\Fall 2021 - Graduate Studies\PSYC 5316-010 Advanced Quantitative Methods & Experiment Design\Lab 2 - the flanker task (an experiment on attention)","no","mono","no","18","no","white","no","yes","768","legacy","30","30","C:/Users/suici/Desktop/Tarleton/Fall 2021 - Graduate Studies/PSYC 5316-010 Advanced Quantitative Methods & Experiment Design/Lab 2 - the flanker task (an experiment on attention)/SM-subject-3.csv","legacy","Lentiform Loewenfeld","3.3.9","0","s","NA","h","NA","NA","s","679","NA","43466","NA","NA","679","2","legacy","1024","2","48000","-16","experiment","HHSHH","3","odd","98057","44872","NA","NA","66089","1404","NA","NA","99085","1405","NA","NA","99185","99864","99084","99185","Flanker Task","29","19960","31","yes","1024"
"93.75","93.75","642.9375","642.9375","black","legacy","legacy","legacy","0","congruent","uniform","1","undefined","1","s","31","0","0","0","31","0","31","0","31","0","0","0","31","31","31","31","09/26/21 13:22:39","1500","The main experiment item","yes","FlankerTask.osexp","C:\Users\suici\Desktop\Tarleton\Fall 2021 - Graduate Studies\PSYC 5316-010 Advanced Quantitative Methods & Experiment Design\Lab 2 - the flanker task (an experiment on attention)","no","mono","no","18","no","white","no","yes","768","legacy","31","31","C:/Users/suici/Desktop/Tarleton/Fall 2021 - Graduate Studies/PSYC 5316-010 Advanced Quantitative Methods & Experiment Design/Lab 2 - the flanker task (an experiment on attention)/SM-subject-3.csv","legacy","Lentiform Loewenfeld","3.3.9","0","s","NA","h","NA","NA","s","614","NA","43466","NA","NA","614","2","legacy","1024","2","48000","-16","experiment","SSSSS","3","odd","99866","44872","NA","NA","66089","1404","NA","NA","100893","1405","NA","NA","100993","101608","100892","100993","Flanker Task","30","20574","32","yes","1024"
"93.9393939394","93.9393939394","640.181818182","640.181818182","black","legacy","legacy","legacy","0","congruent","uniform","1","undefined","1","s","32","0","0","0","32","0","32","0","32","0","0","0","32","32","32","32","09/26/21 13:22:39","1500","The main experiment item","yes","FlankerTask.osexp","C:\Users\suici\Desktop\Tarleton\Fall 2021 - Graduate Studies\PSYC 5316-010 Advanced Quantitative Methods & Experiment Design\Lab 2 - the flanker task (an experiment on attention)","no","mono","no","18","no","white","no","yes","768","legacy","32","32","C:/Users/suici/Desktop/Tarleton/Fall 2021 - Graduate Studies/PSYC 5316-010 Advanced Quantitative Methods & Experiment Design/Lab 2 - the flanker task (an experiment on attention)/SM-subject-3.csv","legacy","Lentiform Loewenfeld","3.3.9","0","s","NA","h","NA","NA","s","552","NA","43466","NA","NA","552","2","legacy","1024","2","48000","-16","experiment","SSSSS","3","odd","101609","44872","NA","NA","66089","1404","NA","NA","102636","1405","NA","NA","102736","103288","102635","102736","Flanker Task","31","21126","33","yes","1024"
"94.1176470588","94.1176470588","645.058823529","645.058823529","black","legacy","legacy","legacy","0","incongruent","uniform","1","undefined","1","s","33","0","0","0","33","0","33","0","33","0","0","0","33","33","33","33","09/26/21 13:22:39","1500","The main experiment item","yes","FlankerTask.osexp","C:\Users\suici\Desktop\Tarleton\Fall 2021 - Graduate Studies\PSYC 5316-010 Advanced Quantitative Methods & Experiment Design\Lab 2 - the flanker task (an experiment on attention)","no","mono","no","18","no","white","no","yes","768","legacy","33","33","C:/Users/suici/Desktop/Tarleton/Fall 2021 - Graduate Studies/PSYC 5316-010 Advanced Quantitative Methods & Experiment Design/Lab 2 - the flanker task (an experiment on attention)/SM-subject-3.csv","legacy","Lentiform Loewenfeld","3.3.9","0","s","NA","h","NA","NA","s","806","NA","43466","NA","NA","806","2","legacy","1024","2","48000","-16","experiment","HHSHH","3","odd","103290","44872","NA","NA","66089","1404","NA","NA","104318","1405","NA","NA","104418","105224","104317","104418","Flanker Task","32","21932","34","yes","1024"
"94.2857142857","94.2857142857","645.971428571","645.971428571","black","legacy","legacy","legacy","0","incongruent","uniform","1","undefined","1","h","34","0","0","0","34","0","34","0","34","0","0","0","34","34","34","34","09/26/21 13:22:39","1500","The main experiment item","yes","FlankerTask.osexp","C:\Users\suici\Desktop\Tarleton\Fall 2021 - Graduate Studies\PSYC 5316-010 Advanced Quantitative Methods & Experiment Design\Lab 2 - the flanker task (an experiment on attention)","no","mono","no","18","no","white","no","yes","768","legacy","34","34","C:/Users/suici/Desktop/Tarleton/Fall 2021 - Graduate Studies/PSYC 5316-010 Advanced Quantitative Methods & Experiment Design/Lab 2 - the flanker task (an experiment on attention)/SM-subject-3.csv","legacy","Lentiform Loewenfeld","3.3.9","0","h","NA","h","NA","NA","h","677","NA","43466","NA","NA","677","2","legacy","1024","2","48000","-16","experiment","SSHSS","3","odd","105226","44872","NA","NA","66089","1404","NA","NA","106253","1405","NA","NA","106354","107031","106252","106354","Flanker Task","33","22609","35","yes","1024"
"94.4444444444","94.4444444444","645.305555556","645.305555556","black","legacy","legacy","legacy","0","congruent","uniform","1","undefined","1","s","35","0","0","0","35","0","35","0","35","0","0","0","35","35","35","35","09/26/21 13:22:39","1500","The main experiment item","yes","FlankerTask.osexp","C:\Users\suici\Desktop\Tarleton\Fall 2021 - Graduate Studies\PSYC 5316-010 Advanced Quantitative Methods & Experiment Design\Lab 2 - the flanker task (an experiment on attention)","no","mono","no","18","no","white","no","yes","768","legacy","35","35","C:/Users/suici/Desktop/Tarleton/Fall 2021 - Graduate Studies/PSYC 5316-010 Advanced Quantitative Methods & Experiment Design/Lab 2 - the flanker task (an experiment on attention)/SM-subject-3.csv","legacy","Lentiform Loewenfeld","3.3.9","0","s","NA","h","NA","NA","s","622","NA","43466","NA","NA","622","2","legacy","1024","2","48000","-16","experiment","SSSSS","3","odd","107033","44872","NA","NA","66089","1404","NA","NA","108061","1405","NA","NA","108161","108784","108060","108161","Flanker Task","34","23231","36","yes","1024"
"94.5945945946","94.5945945946","645.540540541","645.540540541","black","legacy","legacy","legacy","0","incongruent","uniform","1","undefined","1","h","36","0","0","0","36","0","36","0","36","0","0","0","36","36","36","36","09/26/21 13:22:39","1500","The main experiment item","yes","FlankerTask.osexp","C:\Users\suici\Desktop\Tarleton\Fall 2021 - Graduate Studies\PSYC 5316-010 Advanced Quantitative Methods & Experiment Design\Lab 2 - the flanker task (an experiment on attention)","no","mono","no","18","no","white","no","yes","768","legacy","36","36","C:/Users/suici/Desktop/Tarleton/Fall 2021 - Graduate Studies/PSYC 5316-010 Advanced Quantitative Methods & Experiment Design/Lab 2 - the flanker task (an experiment on attention)/SM-subject-3.csv","legacy","Lentiform Loewenfeld","3.3.9","0","h","NA","h","NA","NA","h","654","NA","43466","NA","NA","654","2","legacy","1024","2","48000","-16","experiment","SSHSS","3","odd","108785","44872","NA","NA","66089","1404","NA","NA","109813","1405","NA","NA","109913","110568","109812","109913","Flanker Task","35","23885","37","yes","1024"
"94.7368421053","94.7368421053","642.657894737","642.657894737","black","legacy","legacy","legacy","0","congruent","uniform","1","undefined","1","s","37","0","0","0","37","0","37","0","37","0","0","0","37","37","37","37","09/26/21 13:22:39","1500","The main experiment item","yes","FlankerTask.osexp","C:\Users\suici\Desktop\Tarleton\Fall 2021 - Graduate Studies\PSYC 5316-010 Advanced Quantitative Methods & Experiment Design\Lab 2 - the flanker task (an experiment on attention)","no","mono","no","18","no","white","no","yes","768","legacy","37","37","C:/Users/suici/Desktop/Tarleton/Fall 2021 - Graduate Studies/PSYC 5316-010 Advanced Quantitative Methods & Experiment Design/Lab 2 - the flanker task (an experiment on attention)/SM-subject-3.csv","legacy","Lentiform Loewenfeld","3.3.9","0","s","NA","h","NA","NA","s","536","NA","43466","NA","NA","536","2","legacy","1024","2","48000","-16","experiment","SSSSS","3","odd","110569","44872","NA","NA","66089","1404","NA","NA","111596","1405","NA","NA","111696","112232","111595","111696","Flanker Task","36","24421","38","yes","1024"
"94.8717948718","94.8717948718","642.487179487","642.487179487","black","legacy","legacy","legacy","0","incongruent","uniform","1","undefined","1","s","38","0","0","0","38","0","38","0","38","0","0","0","38","38","38","38","09/26/21 13:22:39","1500","The main experiment item","yes","FlankerTask.osexp","C:\Users\suici\Desktop\Tarleton\Fall 2021 - Graduate Studies\PSYC 5316-010 Advanced Quantitative Methods & Experiment Design\Lab 2 - the flanker task (an experiment on attention)","no","mono","no","18","no","white","no","yes","768","legacy","38","38","C:/Users/suici/Desktop/Tarleton/Fall 2021 - Graduate Studies/PSYC 5316-010 Advanced Quantitative Methods & Experiment Design/Lab 2 - the flanker task (an experiment on attention)/SM-subject-3.csv","legacy","Lentiform Loewenfeld","3.3.9","0","s","NA","h","NA","NA","s","636","NA","43466","NA","NA","636","2","legacy","1024","2","48000","-16","experiment","HHSHH","3","odd","112234","44872","NA","NA","66089","1404","NA","NA","113263","1405","NA","NA","113363","114000","113260","113363","Flanker Task","37","25057","39","yes","1024"
"95","95","641.425","641.425","black","legacy","legacy","legacy","0","congruent","uniform","1","undefined","1","h","39","0","0","0","39","0","39","0","39","0","0","0","39","39","39","39","09/26/21 13:22:39","1500","The main experiment item","yes","FlankerTask.osexp","C:\Users\suici\Desktop\Tarleton\Fall 2021 - Graduate Studies\PSYC 5316-010 Advanced Quantitative Methods & Experiment Design\Lab 2 - the flanker task (an experiment on attention)","no","mono","no","18","no","white","no","yes","768","legacy","39","39","C:/Users/suici/Desktop/Tarleton/Fall 2021 - Graduate Studies/PSYC 5316-010 Advanced Quantitative Methods & Experiment Design/Lab 2 - the flanker task (an experiment on attention)/SM-subject-3.csv","legacy","Lentiform Loewenfeld","3.3.9","0","h","NA","h","NA","NA","h","600","NA","43466","NA","NA","600","2","legacy","1024","2","48000","-16","experiment","HHHHH","3","odd","114001","44872","NA","NA","66089","1404","NA","NA","115028","1405","NA","NA","115128","115728","115027","115128","Flanker Task","38","25657","40","yes","1024"
"95.1219512195","95.1219512195","640.756097561","640.756097561","black","legacy","legacy","legacy","0","congruent","uniform","1","undefined","1","h","40","0","0","0","40","0","40","0","40","0","0","0","40","40","40","40","09/26/21 13:22:39","1500","The main experiment item","yes","FlankerTask.osexp","C:\Users\suici\Desktop\Tarleton\Fall 2021 - Graduate Studies\PSYC 5316-010 Advanced Quantitative Methods & Experiment Design\Lab 2 - the flanker task (an experiment on attention)","no","mono","no","18","no","white","no","yes","768","legacy","40","40","C:/Users/suici/Desktop/Tarleton/Fall 2021 - Graduate Studies/PSYC 5316-010 Advanced Quantitative Methods & Experiment Design/Lab 2 - the flanker task (an experiment on attention)/SM-subject-3.csv","legacy","Lentiform Loewenfeld","3.3.9","0","h","NA","h","NA","NA","h","614","NA","43466","NA","NA","614","2","legacy","1024","2","48000","-16","experiment","HHHHH","3","odd","115730","44872","NA","NA","66089","1404","NA","NA","116757","1405","NA","NA","116857","117472","116756","116857","Flanker Task","39","26271","41","yes","1024"
"95.2380952381","95.2380952381","640.904761905","640.904761905","black","legacy","legacy","legacy","0","incongruent","uniform","1","undefined","1","h","41","0","0","0","41","0","41","0","41","0","0","0","41","41","41","41","09/26/21 13:22:39","1500","The main experiment item","yes","FlankerTask.osexp","C:\Users\suici\Desktop\Tarleton\Fall 2021 - Graduate Studies\PSYC 5316-010 Advanced Quantitative Methods & Experiment Design\Lab 2 - the flanker task (an experiment on attention)","no","mono","no","18","no","white","no","yes","768","legacy","41","41","C:/Users/suici/Desktop/Tarleton/Fall 2021 - Graduate Studies/PSYC 5316-010 Advanced Quantitative Methods & Experiment Design/Lab 2 - the flanker task (an experiment on attention)/SM-subject-3.csv","legacy","Lentiform Loewenfeld","3.3.9","0","h","NA","h","NA","NA","h","647","NA","43466","NA","NA","647","2","legacy","1024","2","48000","-16","experiment","SSHSS","3","odd","117473","44872","NA","NA","66089","1404","NA","NA","118501","1405","NA","NA","118601","119248","118500","118601","Flanker Task","40","26918","42","yes","1024"
"95.3488372093","95.3488372093","638.209302326","638.209302326","black","legacy","legacy","legacy","0","congruent","uniform","1","undefined","1","s","42","0","0","0","42","0","42","0","42","0","0","0","42","42","42","42","09/26/21 13:22:39","1500","The main experiment item","yes","FlankerTask.osexp","C:\Users\suici\Desktop\Tarleton\Fall 2021 - Graduate Studies\PSYC 5316-010 Advanced Quantitative Methods & Experiment Design\Lab 2 - the flanker task (an experiment on attention)","no","mono","no","18","no","white","no","yes","768","legacy","42","42","C:/Users/suici/Desktop/Tarleton/Fall 2021 - Graduate Studies/PSYC 5316-010 Advanced Quantitative Methods & Experiment Design/Lab 2 - the flanker task (an experiment on attention)/SM-subject-3.csv","legacy","Lentiform Loewenfeld","3.3.9","0","s","NA","h","NA","NA","s","525","NA","43466","NA","NA","525","2","legacy","1024","2","48000","-16","experiment","SSSSS","3","odd","119250","44872","NA","NA","66089","1404","NA","NA","120278","1405","NA","NA","120378","120904","120276","120378","Flanker Task","41","27443","43","yes","1024"
"95.4545454545","95.4545454545","637.863636364","637.863636364","black","legacy","legacy","legacy","0","incongruent","uniform","1","undefined","1","s","43","0","0","0","43","0","43","0","43","0","0","0","43","43","43","43","09/26/21 13:22:39","1500","The main experiment item","yes","FlankerTask.osexp","C:\Users\suici\Desktop\Tarleton\Fall 2021 - Graduate Studies\PSYC 5316-010 Advanced Quantitative Methods & Experiment Design\Lab 2 - the flanker task (an experiment on attention)","no","mono","no","18","no","white","no","yes","768","legacy","43","43","C:/Users/suici/Desktop/Tarleton/Fall 2021 - Graduate Studies/PSYC 5316-010 Advanced Quantitative Methods & Experiment Design/Lab 2 - the flanker task (an experiment on attention)/SM-subject-3.csv","legacy","Lentiform Loewenfeld","3.3.9","0","s","NA","h","NA","NA","s","623","NA","43466","NA","NA","623","2","legacy","1024","2","48000","-16","experiment","HHSHH","3","odd","120905","44872","NA","NA","66089","1404","NA","NA","121933","1405","NA","NA","122033","122656","121932","122033","Flanker Task","42","28066","44","yes","1024"
"95.5555555556","95.5555555556","636.955555556","636.955555556","black","legacy","legacy","legacy","0","incongruent","uniform","1","undefined","1","s","44","0","0","0","44","0","44","0","44","0","0","0","44","44","44","44","09/26/21 13:22:39","1500","The main experiment item","yes","FlankerTask.osexp","C:\Users\suici\Desktop\Tarleton\Fall 2021 - Graduate Studies\PSYC 5316-010 Advanced Quantitative Methods & Experiment Design\Lab 2 - the flanker task (an experiment on attention)","no","mono","no","18","no","white","no","yes","768","legacy","44","44","C:/Users/suici/Desktop/Tarleton/Fall 2021 - Graduate Studies/PSYC 5316-010 Advanced Quantitative Methods & Experiment Design/Lab 2 - the flanker task (an experiment on attention)/SM-subject-3.csv","legacy","Lentiform Loewenfeld","3.3.9","0","s","NA","h","NA","NA","s","597","NA","43466","NA","NA","597","2","legacy","1024","2","48000","-16","experiment","HHSHH","3","odd","122658","44872","NA","NA","66089","1404","NA","NA","123686","1405","NA","NA","123786","124384","123685","123786","Flanker Task","43","28663","45","yes","1024"
"95.652173913","95.652173913","636.304347826","636.304347826","black","legacy","legacy","legacy","0","incongruent","uniform","1","undefined","1","s","45","0","0","0","45","0","45","0","45","0","0","0","45","45","45","45","09/26/21 13:22:39","1500","The main experiment item","yes","FlankerTask.osexp","C:\Users\suici\Desktop\Tarleton\Fall 2021 - Graduate Studies\PSYC 5316-010 Advanced Quantitative Methods & Experiment Design\Lab 2 - the flanker task (an experiment on attention)","no","mono","no","18","no","white","no","yes","768","legacy","45","45","C:/Users/suici/Desktop/Tarleton/Fall 2021 - Graduate Studies/PSYC 5316-010 Advanced Quantitative Methods & Experiment Design/Lab 2 - the flanker task (an experiment on attention)/SM-subject-3.csv","legacy","Lentiform Loewenfeld","3.3.9","0","s","NA","h","NA","NA","s","607","NA","43466","NA","NA","607","2","legacy","1024","2","48000","-16","experiment","HHSHH","3","odd","124385","44872","NA","NA","66089","1404","NA","NA","125421","1405","NA","NA","125521","126128","125419","125521","Flanker Task","44","29270","46","yes","1024"
"95.7446808511","95.7446808511","634.106382979","634.106382979","black","legacy","legacy","legacy","0","congruent","uniform","1","undefined","1","s","46","0","0","0","46","0","46","0","46","0","0","0","46","46","46","46","09/26/21 13:22:39","1500","The main experiment item","yes","FlankerTask.osexp","C:\Users\suici\Desktop\Tarleton\Fall 2021 - Graduate Studies\PSYC 5316-010 Advanced Quantitative Methods & Experiment Design\Lab 2 - the flanker task (an experiment on attention)","no","mono","no","18","no","white","no","yes","768","legacy","46","46","C:/Users/suici/Desktop/Tarleton/Fall 2021 - Graduate Studies/PSYC 5316-010 Advanced Quantitative Methods & Experiment Design/Lab 2 - the flanker task (an experiment on attention)/SM-subject-3.csv","legacy","Lentiform Loewenfeld","3.3.9","0","s","NA","h","NA","NA","s","533","NA","43466","NA","NA","533","2","legacy","1024","2","48000","-16","experiment","SSSSS","3","odd","126130","44872","NA","NA","66089","1404","NA","NA","127158","1405","NA","NA","127258","127791","127157","127258","Flanker Task","45","29803","47","yes","1024"
"95.8333333333","95.8333333333","632.375","632.375","black","legacy","legacy","legacy","0","congruent","uniform","1","undefined","1","s","47","0","0","0","47","0","47","0","47","0","0","0","47","47","47","47","09/26/21 13:22:39","1500","The main experiment item","yes","FlankerTask.osexp","C:\Users\suici\Desktop\Tarleton\Fall 2021 - Graduate Studies\PSYC 5316-010 Advanced Quantitative Methods & Experiment Design\Lab 2 - the flanker task (an experiment on attention)","no","mono","no","18","no","white","no","yes","768","legacy","47","47","C:/Users/suici/Desktop/Tarleton/Fall 2021 - Graduate Studies/PSYC 5316-010 Advanced Quantitative Methods & Experiment Design/Lab 2 - the flanker task (an experiment on attention)/SM-subject-3.csv","legacy","Lentiform Loewenfeld","3.3.9","0","s","NA","h","NA","NA","s","551","NA","43466","NA","NA","551","2","legacy","1024","2","48000","-16","experiment","SSSSS","3","odd","127793","44872","NA","NA","66089","1404","NA","NA","128821","1405","NA","NA","128921","129472","128820","128921","Flanker Task","46","30354","48","yes","1024"
"95.9183673469","95.9183673469","633.93877551","633.93877551","black","legacy","legacy","legacy","0","incongruent","uniform","1","undefined","1","s","48","0","0","0","48","0","48","0","48","0","0","0","48","48","48","48","09/26/21 13:22:39","1500","The main experiment item","yes","FlankerTask.osexp","C:\Users\suici\Desktop\Tarleton\Fall 2021 - Graduate Studies\PSYC 5316-010 Advanced Quantitative Methods & Experiment Design\Lab 2 - the flanker task (an experiment on attention)","no","mono","no","18","no","white","no","yes","768","legacy","48","48","C:/Users/suici/Desktop/Tarleton/Fall 2021 - Graduate Studies/PSYC 5316-010 Advanced Quantitative Methods & Experiment Design/Lab 2 - the flanker task (an experiment on attention)/SM-subject-3.csv","legacy","Lentiform Loewenfeld","3.3.9","0","s","NA","h","NA","NA","s","709","NA","43466","NA","NA","709","2","legacy","1024","2","48000","-16","experiment","HHSHH","3","odd","129474","44872","NA","NA","66089","1404","NA","NA","130502","1405","NA","NA","130602","131311","130501","130602","Flanker Task","47","31063","49","yes","1024"
"96","96","635.46","635.46","black","legacy","legacy","legacy","0","congruent","uniform","1","undefined","1","h","49","0","0","0","49","0","49","0","49","0","0","0","49","49","49","49","09/26/21 13:22:39","1500","The main experiment item","yes","FlankerTask.osexp","C:\Users\suici\Desktop\Tarleton\Fall 2021 - Graduate Studies\PSYC 5316-010 Advanced Quantitative Methods & Experiment Design\Lab 2 - the flanker task (an experiment on attention)","no","mono","no","18","no","white","no","yes","768","legacy","49","49","C:/Users/suici/Desktop/Tarleton/Fall 2021 - Graduate Studies/PSYC 5316-010 Advanced Quantitative Methods & Experiment Design/Lab 2 - the flanker task (an experiment on attention)/SM-subject-3.csv","legacy","Lentiform Loewenfeld","3.3.9","0","h","NA","h","NA","NA","h","710","NA","43466","NA","NA","710","2","legacy","1024","2","48000","-16","experiment","HHHHH","3","odd","131313","44872","NA","NA","66089","1404","NA","NA","132341","1405","NA","NA","132441","133151","132340","132441","Flanker Task","48","31773","50","yes","1024"
"96.0784313725","96.0784313725","633.62745098","633.62745098","black","legacy","legacy","legacy","0","incongruent","uniform","1","undefined","1","h","50","0","0","0","50","0","50","0","50","0","0","0","50","50","50","50","09/26/21 13:22:39","1500","The main experiment item","yes","FlankerTask.osexp","C:\Users\suici\Desktop\Tarleton\Fall 2021 - Graduate Studies\PSYC 5316-010 Advanced Quantitative Methods & Experiment Design\Lab 2 - the flanker task (an experiment on attention)","no","mono","no","18","no","white","no","yes","768","legacy","50","50","C:/Users/suici/Desktop/Tarleton/Fall 2021 - Graduate Studies/PSYC 5316-010 Advanced Quantitative Methods & Experiment Design/Lab 2 - the flanker task (an experiment on attention)/SM-subject-3.csv","legacy","Lentiform Loewenfeld","3.3.9","0","h","NA","h","NA","NA","h","542","NA","43466","NA","NA","542","2","legacy","1024","2","48000","-16","experiment","SSHSS","3","odd","133153","44872","NA","NA","66089","1404","NA","NA","134181","1405","NA","NA","134281","134823","134180","134281","Flanker Task","49","32315","51","yes","1024"
"96.1538461538","96.1538461538","633.346153846","633.346153846","black","legacy","legacy","legacy","0","congruent","uniform","1","undefined","1","h","51","0","0","0","51","0","51","0","51","0","0","0","51","51","51","51","09/26/21 13:22:39","1500","The main experiment item","yes","FlankerTask.osexp","C:\Users\suici\Desktop\Tarleton\Fall 2021 - Graduate Studies\PSYC 5316-010 Advanced Quantitative Methods & Experiment Design\Lab 2 - the flanker task (an experiment on attention)","no","mono","no","18","no","white","no","yes","768","legacy","51","51","C:/Users/suici/Desktop/Tarleton/Fall 2021 - Graduate Studies/PSYC 5316-010 Advanced Quantitative Methods & Experiment Design/Lab 2 - the flanker task (an experiment on attention)/SM-subject-3.csv","legacy","Lentiform Loewenfeld","3.3.9","0","h","NA","h","NA","NA","h","619","NA","43466","NA","NA","619","2","legacy","1024","2","48000","-16","experiment","HHHHH","3","odd","134825","44872","NA","NA","66089","1404","NA","NA","135856","1405","NA","NA","135956","136576","135855","135956","Flanker Task","50","32934","52","yes","1024"
"96.2264150943","96.2264150943","635.716981132","635.716981132","black","legacy","legacy","legacy","0","incongruent","uniform","1","undefined","1","s","52","0","0","0","52","0","52","0","52","0","0","0","52","52","52","52","09/26/21 13:22:39","1500","The main experiment item","yes","FlankerTask.osexp","C:\Users\suici\Desktop\Tarleton\Fall 2021 - Graduate Studies\PSYC 5316-010 Advanced Quantitative Methods & Experiment Design\Lab 2 - the flanker task (an experiment on attention)","no","mono","no","18","no","white","no","yes","768","legacy","52","52","C:/Users/suici/Desktop/Tarleton/Fall 2021 - Graduate Studies/PSYC 5316-010 Advanced Quantitative Methods & Experiment Design/Lab 2 - the flanker task (an experiment on attention)/SM-subject-3.csv","legacy","Lentiform Loewenfeld","3.3.9","0","s","NA","h","NA","NA","s","759","NA","43466","NA","NA","759","2","legacy","1024","2","48000","-16","experiment","HHSHH","3","odd","136577","44872","NA","NA","66089","1404","NA","NA","137605","1405","NA","NA","137705","138464","137603","137705","Flanker Task","51","33693","53","yes","1024"
"96.2962962963","96.2962962963","636.185185185","636.185185185","black","legacy","legacy","legacy","0","congruent","uniform","1","undefined","1","h","53","0","0","0","53","0","53","0","53","0","0","0","53","53","53","53","09/26/21 13:22:39","1500","The main experiment item","yes","FlankerTask.osexp","C:\Users\suici\Desktop\Tarleton\Fall 2021 - Graduate Studies\PSYC 5316-010 Advanced Quantitative Methods & Experiment Design\Lab 2 - the flanker task (an experiment on attention)","no","mono","no","18","no","white","no","yes","768","legacy","53","53","C:/Users/suici/Desktop/Tarleton/Fall 2021 - Graduate Studies/PSYC 5316-010 Advanced Quantitative Methods & Experiment Design/Lab 2 - the flanker task (an experiment on attention)/SM-subject-3.csv","legacy","Lentiform Loewenfeld","3.3.9","0","h","NA","h","NA","NA","h","661","NA","43466","NA","NA","661","2","legacy","1024","2","48000","-16","experiment","HHHHH","3","odd","138466","44872","NA","NA","66089","1404","NA","NA","139494","1405","NA","NA","139594","140255","139493","139594","Flanker Task","52","34354","54","yes","1024"
"96.3636363636","96.3636363636","635.781818182","635.781818182","black","legacy","legacy","legacy","0","incongruent","uniform","1","undefined","1","s","54","0","0","0","54","0","54","0","54","0","0","0","54","54","54","54","09/26/21 13:22:39","1500","The main experiment item","yes","FlankerTask.osexp","C:\Users\suici\Desktop\Tarleton\Fall 2021 - Graduate Studies\PSYC 5316-010 Advanced Quantitative Methods & Experiment Design\Lab 2 - the flanker task (an experiment on attention)","no","mono","no","18","no","white","no","yes","768","legacy","54","54","C:/Users/suici/Desktop/Tarleton/Fall 2021 - Graduate Studies/PSYC 5316-010 Advanced Quantitative Methods & Experiment Design/Lab 2 - the flanker task (an experiment on attention)/SM-subject-3.csv","legacy","Lentiform Loewenfeld","3.3.9","0","s","NA","h","NA","NA","s","614","NA","43466","NA","NA","614","2","legacy","1024","2","48000","-16","experiment","HHSHH","3","odd","140257","44872","NA","NA","66089","1404","NA","NA","141285","1405","NA","NA","141385","141999","141284","141385","Flanker Task","53","34968","55","yes","1024"
"96.4285714286","96.4285714286","638.553571429","638.553571429","black","legacy","legacy","legacy","0","incongruent","uniform","1","undefined","1","s","55","0","0","0","55","0","55","0","55","0","0","0","55","55","55","55","09/26/21 13:22:39","1500","The main experiment item","yes","FlankerTask.osexp","C:\Users\suici\Desktop\Tarleton\Fall 2021 - Graduate Studies\PSYC 5316-010 Advanced Quantitative Methods & Experiment Design\Lab 2 - the flanker task (an experiment on attention)","no","mono","no","18","no","white","no","yes","768","legacy","55","55","C:/Users/suici/Desktop/Tarleton/Fall 2021 - Graduate Studies/PSYC 5316-010 Advanced Quantitative Methods & Experiment Design/Lab 2 - the flanker task (an experiment on attention)/SM-subject-3.csv","legacy","Lentiform Loewenfeld","3.3.9","0","s","NA","h","NA","NA","s","791","NA","43466","NA","NA","791","2","legacy","1024","2","48000","-16","experiment","HHSHH","3","odd","142001","44872","NA","NA","66089","1404","NA","NA","143029","1405","NA","NA","143129","143920","143028","143129","Flanker Task","54","35759","56","yes","1024"
"96.4912280702","96.4912280702","639.087719298","639.087719298","black","legacy","legacy","legacy","0","congruent","uniform","1","undefined","1","h","56","0","0","0","56","0","56","0","56","0","0","0","56","56","56","56","09/26/21 13:22:39","1500","The main experiment item","yes","FlankerTask.osexp","C:\Users\suici\Desktop\Tarleton\Fall 2021 - Graduate Studies\PSYC 5316-010 Advanced Quantitative Methods & Experiment Design\Lab 2 - the flanker task (an experiment on attention)","no","mono","no","18","no","white","no","yes","768","legacy","56","56","C:/Users/suici/Desktop/Tarleton/Fall 2021 - Graduate Studies/PSYC 5316-010 Advanced Quantitative Methods & Experiment Design/Lab 2 - the flanker task (an experiment on attention)/SM-subject-3.csv","legacy","Lentiform Loewenfeld","3.3.9","0","h","NA","h","NA","NA","h","669","NA","43466","NA","NA","669","2","legacy","1024","2","48000","-16","experiment","HHHHH","3","odd","143922","44872","NA","NA","66089","1404","NA","NA","144950","1405","NA","NA","145050","145719","144949","145050","Flanker Task","55","36428","57","yes","1024"
"96.5517241379","96.5517241379","637.844827586","637.844827586","black","legacy","legacy","legacy","0","congruent","uniform","1","undefined","1","h","57","0","0","0","57","0","57","0","57","0","0","0","57","57","57","57","09/26/21 13:22:39","1500","The main experiment item","yes","FlankerTask.osexp","C:\Users\suici\Desktop\Tarleton\Fall 2021 - Graduate Studies\PSYC 5316-010 Advanced Quantitative Methods & Experiment Design\Lab 2 - the flanker task (an experiment on attention)","no","mono","no","18","no","white","no","yes","768","legacy","57","57","C:/Users/suici/Desktop/Tarleton/Fall 2021 - Graduate Studies/PSYC 5316-010 Advanced Quantitative Methods & Experiment Design/Lab 2 - the flanker task (an experiment on attention)/SM-subject-3.csv","legacy","Lentiform Loewenfeld","3.3.9","0","h","NA","h","NA","NA","h","567","NA","43466","NA","NA","567","2","legacy","1024","2","48000","-16","experiment","HHHHH","3","odd","145721","44872","NA","NA","66089","1404","NA","NA","146749","1405","NA","NA","146849","147416","146748","146849","Flanker Task","56","36995","58","yes","1024"
"96.6101694915","96.6101694915","639.338983051","639.338983051","black","legacy","legacy","legacy","0","incongruent","uniform","1","undefined","1","s","58","0","0","0","58","0","58","0","58","0","0","0","58","58","58","58","09/26/21 13:22:39","1500","The main experiment item","yes","FlankerTask.osexp","C:\Users\suici\Desktop\Tarleton\Fall 2021 - Graduate Studies\PSYC 5316-010 Advanced Quantitative Methods & Experiment Design\Lab 2 - the flanker task (an experiment on attention)","no","mono","no","18","no","white","no","yes","768","legacy","58","58","C:/Users/suici/Desktop/Tarleton/Fall 2021 - Graduate Studies/PSYC 5316-010 Advanced Quantitative Methods & Experiment Design/Lab 2 - the flanker task (an experiment on attention)/SM-subject-3.csv","legacy","Lentiform Loewenfeld","3.3.9","0","s","NA","h","NA","NA","s","726","NA","43466","NA","NA","726","2","legacy","1024","2","48000","-16","experiment","HHSHH","3","odd","147418","44872","NA","NA","66089","1404","NA","NA","148446","1405","NA","NA","148546","149272","148445","148546","Flanker Task","57","37721","59","yes","1024"
"96.6666666667","96.6666666667","642.65","642.65","black","legacy","legacy","legacy","0","congruent","uniform","1","undefined","1","s","59","0","0","0","59","0","59","0","59","0","0","0","59","59","59","59","09/26/21 13:22:39","1500","The main experiment item","yes","FlankerTask.osexp","C:\Users\suici\Desktop\Tarleton\Fall 2021 - Graduate Studies\PSYC 5316-010 Advanced Quantitative Methods & Experiment Design\Lab 2 - the flanker task (an experiment on attention)","no","mono","no","18","no","white","no","yes","768","legacy","59","59","C:/Users/suici/Desktop/Tarleton/Fall 2021 - Graduate Studies/PSYC 5316-010 Advanced Quantitative Methods & Experiment Design/Lab 2 - the flanker task (an experiment on attention)/SM-subject-3.csv","legacy","Lentiform Loewenfeld","3.3.9","0","s","NA","h","NA","NA","s","838","NA","43466","NA","NA","838","2","legacy","1024","2","48000","-16","experiment","SSSSS","3","odd","149274","44872","NA","NA","66089","1404","NA","NA","150301","1405","NA","NA","150401","151239","150300","150401","Flanker Task","58","38559","60","yes","1024"
"96.7213114754","96.7213114754","642.721311475","642.721311475","black","legacy","legacy","legacy","0","incongruent","uniform","1","undefined","1","h","60","0","0","0","60","0","60","0","60","0","0","0","60","60","60","60","09/26/21 13:22:39","1500","The main experiment item","yes","FlankerTask.osexp","C:\Users\suici\Desktop\Tarleton\Fall 2021 - Graduate Studies\PSYC 5316-010 Advanced Quantitative Methods & Experiment Design\Lab 2 - the flanker task (an experiment on attention)","no","mono","no","18","no","white","no","yes","768","legacy","60","60","C:/Users/suici/Desktop/Tarleton/Fall 2021 - Graduate Studies/PSYC 5316-010 Advanced Quantitative Methods & Experiment Design/Lab 2 - the flanker task (an experiment on attention)/SM-subject-3.csv","legacy","Lentiform Loewenfeld","3.3.9","0","h","NA","h","NA","NA","h","647","NA","43466","NA","NA","647","2","legacy","1024","2","48000","-16","experiment","SSHSS","3","odd","151241","44872","NA","NA","66089","1404","NA","NA","152269","1405","NA","NA","152369","153016","152267","152369","Flanker Task","59","39206","61","yes","1024"
"96.7741935484","96.7741935484","644.564516129","644.564516129","black","legacy","legacy","legacy","0","incongruent","uniform","1","undefined","1","h","61","0","0","0","61","0","61","0","61","0","0","0","61","61","61","61","09/26/21 13:22:39","1500","The main experiment item","yes","FlankerTask.osexp","C:\Users\suici\Desktop\Tarleton\Fall 2021 - Graduate Studies\PSYC 5316-010 Advanced Quantitative Methods & Experiment Design\Lab 2 - the flanker task (an experiment on attention)","no","mono","no","18","no","white","no","yes","768","legacy","61","61","C:/Users/suici/Desktop/Tarleton/Fall 2021 - Graduate Studies/PSYC 5316-010 Advanced Quantitative Methods & Experiment Design/Lab 2 - the flanker task (an experiment on attention)/SM-subject-3.csv","legacy","Lentiform Loewenfeld","3.3.9","0","h","NA","h","NA","NA","h","757","NA","43466","NA","NA","757","2","legacy","1024","2","48000","-16","experiment","SSHSS","3","odd","153018","44872","NA","NA","66089","1404","NA","NA","154046","1405","NA","NA","154146","154904","154045","154146","Flanker Task","60","39963","62","yes","1024"
"96.8253968254","96.8253968254","643.349206349","643.349206349","black","legacy","legacy","legacy","0","congruent","uniform","1","undefined","1","s","62","0","0","0","62","0","62","0","62","0","0","0","62","62","62","62","09/26/21 13:22:39","1500","The main experiment item","yes","FlankerTask.osexp","C:\Users\suici\Desktop\Tarleton\Fall 2021 - Graduate Studies\PSYC 5316-010 Advanced Quantitative Methods & Experiment Design\Lab 2 - the flanker task (an experiment on attention)","no","mono","no","18","no","white","no","yes","768","legacy","62","62","C:/Users/suici/Desktop/Tarleton/Fall 2021 - Graduate Studies/PSYC 5316-010 Advanced Quantitative Methods & Experiment Design/Lab 2 - the flanker task (an experiment on attention)/SM-subject-3.csv","legacy","Lentiform Loewenfeld","3.3.9","0","s","NA","h","NA","NA","s","568","NA","43466","NA","NA","568","2","legacy","1024","2","48000","-16","experiment","SSSSS","3","odd","154905","44872","NA","NA","66089","1404","NA","NA","155932","1405","NA","NA","156032","156600","155931","156032","Flanker Task","61","40531","63","yes","1024"
"96.875","96.875","641.625","641.625","black","legacy","legacy","legacy","0","congruent","uniform","1","undefined","1","h","63","0","0","0","63","0","63","0","63","0","0","0","63","63","63","63","09/26/21 13:22:39","1500","The main experiment item","yes","FlankerTask.osexp","C:\Users\suici\Desktop\Tarleton\Fall 2021 - Graduate Studies\PSYC 5316-010 Advanced Quantitative Methods & Experiment Design\Lab 2 - the flanker task (an experiment on attention)","no","mono","no","18","no","white","no","yes","768","legacy","63","63","C:/Users/suici/Desktop/Tarleton/Fall 2021 - Graduate Studies/PSYC 5316-010 Advanced Quantitative Methods & Experiment Design/Lab 2 - the flanker task (an experiment on attention)/SM-subject-3.csv","legacy","Lentiform Loewenfeld","3.3.9","0","h","NA","h","NA","NA","h","533","NA","43466","NA","NA","533","2","legacy","1024","2","48000","-16","experiment","HHHHH","3","odd","156602","44872","NA","NA","66089","1404","NA","NA","157630","1405","NA","NA","157730","158264","157629","157730","Flanker Task","62","41064","64","yes","1024"
"96.9230769231","96.9230769231","640.553846154","640.553846154","black","legacy","legacy","legacy","0","congruent","uniform","1","undefined","1","s","64","0","0","0","64","0","64","0","64","0","0","0","64","64","64","64","09/26/21 13:22:39","1500","The main experiment item","yes","FlankerTask.osexp","C:\Users\suici\Desktop\Tarleton\Fall 2021 - Graduate Studies\PSYC 5316-010 Advanced Quantitative Methods & Experiment Design\Lab 2 - the flanker task (an experiment on attention)","no","mono","no","18","no","white","no","yes","768","legacy","64","64","C:/Users/suici/Desktop/Tarleton/Fall 2021 - Graduate Studies/PSYC 5316-010 Advanced Quantitative Methods & Experiment Design/Lab 2 - the flanker task (an experiment on attention)/SM-subject-3.csv","legacy","Lentiform Loewenfeld","3.3.9","0","s","NA","h","NA","NA","s","572","NA","43466","NA","NA","572","2","legacy","1024","2","48000","-16","experiment","SSSSS","3","odd","158266","44872","NA","NA","66089","1404","NA","NA","159295","1405","NA","NA","159395","159968","159294","159395","Flanker Task","63","41636","65","yes","1024"
"96.9696969697","96.9696969697","639.075757576","639.075757576","black","legacy","legacy","legacy","0","congruent","uniform","1","undefined","1","h","65","0","0","0","65","0","65","0","65","0","0","0","65","65","65","65","09/26/21 13:22:39","1500","The main experiment item","yes","FlankerTask.osexp","C:\Users\suici\Desktop\Tarleton\Fall 2021 - Graduate Studies\PSYC 5316-010 Advanced Quantitative Methods & Experiment Design\Lab 2 - the flanker task (an experiment on attention)","no","mono","no","18","no","white","no","yes","768","legacy","65","65","C:/Users/suici/Desktop/Tarleton/Fall 2021 - Graduate Studies/PSYC 5316-010 Advanced Quantitative Methods & Experiment Design/Lab 2 - the flanker task (an experiment on attention)/SM-subject-3.csv","legacy","Lentiform Loewenfeld","3.3.9","0","h","NA","h","NA","NA","h","543","NA","43466","NA","NA","543","2","legacy","1024","2","48000","-16","experiment","HHHHH","3","odd","159969","44872","NA","NA","66089","1404","NA","NA","160997","1405","NA","NA","161097","161640","160996","161097","Flanker Task","64","42179","66","yes","1024"
"97.0149253731","97.0149253731","639.059701493","639.059701493","black","legacy","legacy","legacy","0","congruent","uniform","1","undefined","1","s","66","0","0","0","66","0","66","0","66","0","0","0","66","66","66","66","09/26/21 13:22:39","1500","The main experiment item","yes","FlankerTask.osexp","C:\Users\suici\Desktop\Tarleton\Fall 2021 - Graduate Studies\PSYC 5316-010 Advanced Quantitative Methods & Experiment Design\Lab 2 - the flanker task (an experiment on attention)","no","mono","no","18","no","white","no","yes","768","legacy","66","66","C:/Users/suici/Desktop/Tarleton/Fall 2021 - Graduate Studies/PSYC 5316-010 Advanced Quantitative Methods & Experiment Design/Lab 2 - the flanker task (an experiment on attention)/SM-subject-3.csv","legacy","Lentiform Loewenfeld","3.3.9","0","s","NA","h","NA","NA","s","638","NA","43466","NA","NA","638","2","legacy","1024","2","48000","-16","experiment","SSSSS","3","odd","161642","44872","NA","NA","66089","1404","NA","NA","162669","1405","NA","NA","162769","163408","162668","162769","Flanker Task","65","42817","67","yes","1024"
"97.0588235294","97.0588235294","638.352941176","638.352941176","black","legacy","legacy","legacy","0","incongruent","uniform","1","undefined","1","h","67","0","0","0","67","0","67","0","67","0","0","0","67","67","67","67","09/26/21 13:22:39","1500","The main experiment item","yes","FlankerTask.osexp","C:\Users\suici\Desktop\Tarleton\Fall 2021 - Graduate Studies\PSYC 5316-010 Advanced Quantitative Methods & Experiment Design\Lab 2 - the flanker task (an experiment on attention)","no","mono","no","18","no","white","no","yes","768","legacy","67","67","C:/Users/suici/Desktop/Tarleton/Fall 2021 - Graduate Studies/PSYC 5316-010 Advanced Quantitative Methods & Experiment Design/Lab 2 - the flanker task (an experiment on attention)/SM-subject-3.csv","legacy","Lentiform Loewenfeld","3.3.9","0","h","NA","h","NA","NA","h","591","NA","43466","NA","NA","591","2","legacy","1024","2","48000","-16","experiment","SSHSS","3","odd","163409","44872","NA","NA","66089","1404","NA","NA","164437","1405","NA","NA","164537","165128","164436","164537","Flanker Task","66","43408","68","yes","1024"
"97.1014492754","97.1014492754","636.826086957","636.826086957","black","legacy","legacy","legacy","0","congruent","uniform","1","undefined","1","s","68","0","0","0","68","0","68","0","68","0","0","0","68","68","68","68","09/26/21 13:22:39","1500","The main experiment item","yes","FlankerTask.osexp","C:\Users\suici\Desktop\Tarleton\Fall 2021 - Graduate Studies\PSYC 5316-010 Advanced Quantitative Methods & Experiment Design\Lab 2 - the flanker task (an experiment on attention)","no","mono","no","18","no","white","no","yes","768","legacy","68","68","C:/Users/suici/Desktop/Tarleton/Fall 2021 - Graduate Studies/PSYC 5316-010 Advanced Quantitative Methods & Experiment Design/Lab 2 - the flanker task (an experiment on attention)/SM-subject-3.csv","legacy","Lentiform Loewenfeld","3.3.9","0","s","NA","h","NA","NA","s","533","NA","43466","NA","NA","533","2","legacy","1024","2","48000","-16","experiment","SSSSS","3","odd","165130","44872","NA","NA","66089","1404","NA","NA","166158","1405","NA","NA","166258","166792","166156","166258","Flanker Task","67","43941","69","yes","1024"
"97.1428571429","97.1428571429","636.057142857","636.057142857","black","legacy","legacy","legacy","0","congruent","uniform","1","undefined","1","h","69","0","0","0","69","0","69","0","69","0","0","0","69","69","69","69","09/26/21 13:22:39","1500","The main experiment item","yes","FlankerTask.osexp","C:\Users\suici\Desktop\Tarleton\Fall 2021 - Graduate Studies\PSYC 5316-010 Advanced Quantitative Methods & Experiment Design\Lab 2 - the flanker task (an experiment on attention)","no","mono","no","18","no","white","no","yes","768","legacy","69","69","C:/Users/suici/Desktop/Tarleton/Fall 2021 - Graduate Studies/PSYC 5316-010 Advanced Quantitative Methods & Experiment Design/Lab 2 - the flanker task (an experiment on attention)/SM-subject-3.csv","legacy","Lentiform Loewenfeld","3.3.9","0","h","NA","h","NA","NA","h","583","NA","43466","NA","NA","583","2","legacy","1024","2","48000","-16","experiment","HHHHH","3","odd","166793","44872","NA","NA","66089","1404","NA","NA","167821","1405","NA","NA","167921","168504","167820","167921","Flanker Task","68","44524","70","yes","1024"
"97.1830985915","97.1830985915","636.535211268","636.535211268","black","legacy","legacy","legacy","0","incongruent","uniform","1","undefined","1","h","70","0","0","0","70","0","70","0","70","0","0","0","70","70","70","70","09/26/21 13:22:39","1500","The main experiment item","yes","FlankerTask.osexp","C:\Users\suici\Desktop\Tarleton\Fall 2021 - Graduate Studies\PSYC 5316-010 Advanced Quantitative Methods & Experiment Design\Lab 2 - the flanker task (an experiment on attention)","no","mono","no","18","no","white","no","yes","768","legacy","70","70","C:/Users/suici/Desktop/Tarleton/Fall 2021 - Graduate Studies/PSYC 5316-010 Advanced Quantitative Methods & Experiment Design/Lab 2 - the flanker task (an experiment on attention)/SM-subject-3.csv","legacy","Lentiform Loewenfeld","3.3.9","0","h","NA","h","NA","NA","h","670","NA","43466","NA","NA","670","2","legacy","1024","2","48000","-16","experiment","SSHSS","3","odd","168506","44872","NA","NA","66089","1404","NA","NA","169533","1405","NA","NA","169633","170304","169532","169633","Flanker Task","69","45194","71","yes","1024"
"97.2222222222","97.2222222222","635.777777778","635.777777778","black","legacy","legacy","legacy","0","congruent","uniform","1","undefined","1","h","71","0","0","0","71","0","71","0","71","0","0","0","71","71","71","71","09/26/21 13:22:39","1500","The main experiment item","yes","FlankerTask.osexp","C:\Users\suici\Desktop\Tarleton\Fall 2021 - Graduate Studies\PSYC 5316-010 Advanced Quantitative Methods & Experiment Design\Lab 2 - the flanker task (an experiment on attention)","no","mono","no","18","no","white","no","yes","768","legacy","71","71","C:/Users/suici/Desktop/Tarleton/Fall 2021 - Graduate Studies/PSYC 5316-010 Advanced Quantitative Methods & Experiment Design/Lab 2 - the flanker task (an experiment on attention)/SM-subject-3.csv","legacy","Lentiform Loewenfeld","3.3.9","0","h","NA","h","NA","NA","h","582","NA","43466","NA","NA","582","2","legacy","1024","2","48000","-16","experiment","HHHHH","3","odd","170305","44872","NA","NA","66089","1404","NA","NA","171333","1405","NA","NA","171433","172016","171332","171433","Flanker Task","70","45776","72","yes","1024"
"97.2602739726","97.2602739726","635.04109589","635.04109589","black","legacy","legacy","legacy","0","congruent","uniform","1","undefined","1","h","72","0","0","0","72","0","72","0","72","0","0","0","72","72","72","72","09/26/21 13:22:39","1500","The main experiment item","yes","FlankerTask.osexp","C:\Users\suici\Desktop\Tarleton\Fall 2021 - Graduate Studies\PSYC 5316-010 Advanced Quantitative Methods & Experiment Design\Lab 2 - the flanker task (an experiment on attention)","no","mono","no","18","no","white","no","yes","768","legacy","72","72","C:/Users/suici/Desktop/Tarleton/Fall 2021 - Graduate Studies/PSYC 5316-010 Advanced Quantitative Methods & Experiment Design/Lab 2 - the flanker task (an experiment on attention)/SM-subject-3.csv","legacy","Lentiform Loewenfeld","3.3.9","0","h","NA","h","NA","NA","h","582","NA","43466","NA","NA","582","2","legacy","1024","2","48000","-16","experiment","HHHHH","3","odd","172018","44872","NA","NA","66089","1404","NA","NA","173045","1405","NA","NA","173145","173727","173044","173145","Flanker Task","71","46358","73","yes","1024"
"97.2972972973","97.2972972973","635.081081081","635.081081081","black","legacy","legacy","legacy","0","incongruent","uniform","1","undefined","1","h","73","0","0","0","73","0","73","0","73","0","0","0","73","73","73","73","09/26/21 13:22:39","1500","The main experiment item","yes","FlankerTask.osexp","C:\Users\suici\Desktop\Tarleton\Fall 2021 - Graduate Studies\PSYC 5316-010 Advanced Quantitative Methods & Experiment Design\Lab 2 - the flanker task (an experiment on attention)","no","mono","no","18","no","white","no","yes","768","legacy","73","73","C:/Users/suici/Desktop/Tarleton/Fall 2021 - Graduate Studies/PSYC 5316-010 Advanced Quantitative Methods & Experiment Design/Lab 2 - the flanker task (an experiment on attention)/SM-subject-3.csv","legacy","Lentiform Loewenfeld","3.3.9","0","h","NA","h","NA","NA","h","638","NA","43466","NA","NA","638","2","legacy","1024","2","48000","-16","experiment","SSHSS","3","odd","173729","44872","NA","NA","66089","1404","NA","NA","174757","1405","NA","NA","174857","175496","174756","174857","Flanker Task","72","46996","74","yes","1024"
"97.3333333333","97.3333333333","634.266666667","634.266666667","black","legacy","legacy","legacy","0","congruent","uniform","1","undefined","1","h","74","0","0","0","74","0","74","0","74","0","0","0","74","74","74","74","09/26/21 13:22:39","1500","The main experiment item","yes","FlankerTask.osexp","C:\Users\suici\Desktop\Tarleton\Fall 2021 - Graduate Studies\PSYC 5316-010 Advanced Quantitative Methods & Experiment Design\Lab 2 - the flanker task (an experiment on attention)","no","mono","no","18","no","white","no","yes","768","legacy","74","74","C:/Users/suici/Desktop/Tarleton/Fall 2021 - Graduate Studies/PSYC 5316-010 Advanced Quantitative Methods & Experiment Design/Lab 2 - the flanker task (an experiment on attention)/SM-subject-3.csv","legacy","Lentiform Loewenfeld","3.3.9","0","h","NA","h","NA","NA","h","574","NA","43466","NA","NA","574","2","legacy","1024","2","48000","-16","experiment","HHHHH","3","odd","175497","44872","NA","NA","66089","1404","NA","NA","176525","1405","NA","NA","176625","177200","176524","176625","Flanker Task","73","47570","75","yes","1024"
"97.3684210526","97.3684210526","633.684210526","633.684210526","black","legacy","legacy","legacy","0","congruent","uniform","1","undefined","1","h","75","0","0","0","75","0","75","0","75","0","0","0","75","75","75","75","09/26/21 13:22:39","1500","The main experiment item","yes","FlankerTask.osexp","C:\Users\suici\Desktop\Tarleton\Fall 2021 - Graduate Studies\PSYC 5316-010 Advanced Quantitative Methods & Experiment Design\Lab 2 - the flanker task (an experiment on attention)","no","mono","no","18","no","white","no","yes","768","legacy","75","75","C:/Users/suici/Desktop/Tarleton/Fall 2021 - Graduate Studies/PSYC 5316-010 Advanced Quantitative Methods & Experiment Design/Lab 2 - the flanker task (an experiment on attention)/SM-subject-3.csv","legacy","Lentiform Loewenfeld","3.3.9","0","h","NA","h","NA","NA","h","590","NA","43466","NA","NA","590","2","legacy","1024","2","48000","-16","experiment","HHHHH","3","odd","177202","44872","NA","NA","66089","1404","NA","NA","178230","1405","NA","NA","178330","178920","178229","178330","Flanker Task","74","48160","76","yes","1024"
"97.4025974026","97.4025974026","632.38961039","632.38961039","black","legacy","legacy","legacy","0","incongruent","uniform","1","undefined","1","h","76","0","0","0","76","0","76","0","76","0","0","0","76","76","76","76","09/26/21 13:22:39","1500","The main experiment item","yes","FlankerTask.osexp","C:\Users\suici\Desktop\Tarleton\Fall 2021 - Graduate Studies\PSYC 5316-010 Advanced Quantitative Methods & Experiment Design\Lab 2 - the flanker task (an experiment on attention)","no","mono","no","18","no","white","no","yes","768","legacy","76","76","C:/Users/suici/Desktop/Tarleton/Fall 2021 - Graduate Studies/PSYC 5316-010 Advanced Quantitative Methods & Experiment Design/Lab 2 - the flanker task (an experiment on attention)/SM-subject-3.csv","legacy","Lentiform Loewenfeld","3.3.9","0","h","NA","h","NA","NA","h","534","NA","43466","NA","NA","534","2","legacy","1024","2","48000","-16","experiment","SSHSS","3","odd","178922","44872","NA","NA","66089","1404","NA","NA","179949","1405","NA","NA","180049","180584","179948","180049","Flanker Task","75","48694","77","yes","1024"
"97.4358974359","97.4358974359","633.987179487","633.987179487","black","legacy","legacy","legacy","0","incongruent","uniform","1","undefined","1","s","77","0","0","0","77","0","77","0","77","0","0","0","77","77","77","77","09/26/21 13:22:39","1500","The main experiment item","yes","FlankerTask.osexp","C:\Users\suici\Desktop\Tarleton\Fall 2021 - Graduate Studies\PSYC 5316-010 Advanced Quantitative Methods & Experiment Design\Lab 2 - the flanker task (an experiment on attention)","no","mono","no","18","no","white","no","yes","768","legacy","77","77","C:/Users/suici/Desktop/Tarleton/Fall 2021 - Graduate Studies/PSYC 5316-010 Advanced Quantitative Methods & Experiment Design/Lab 2 - the flanker task (an experiment on attention)/SM-subject-3.csv","legacy","Lentiform Loewenfeld","3.3.9","0","s","NA","h","NA","NA","s","757","NA","43466","NA","NA","757","2","legacy","1024","2","48000","-16","experiment","HHSHH","3","odd","180585","44872","NA","NA","66089","1404","NA","NA","181614","1405","NA","NA","181714","182472","181613","181714","Flanker Task","76","49451","78","yes","1024"
"97.4683544304","97.4683544304","633.417721519","633.417721519","black","legacy","legacy","legacy","0","incongruent","uniform","1","undefined","1","h","78","0","0","0","78","0","78","0","78","0","0","0","78","78","78","78","09/26/21 13:22:39","1500","The main experiment item","yes","FlankerTask.osexp","C:\Users\suici\Desktop\Tarleton\Fall 2021 - Graduate Studies\PSYC 5316-010 Advanced Quantitative Methods & Experiment Design\Lab 2 - the flanker task (an experiment on attention)","no","mono","no","18","no","white","no","yes","768","legacy","78","78","C:/Users/suici/Desktop/Tarleton/Fall 2021 - Graduate Studies/PSYC 5316-010 Advanced Quantitative Methods & Experiment Design/Lab 2 - the flanker task (an experiment on attention)/SM-subject-3.csv","legacy","Lentiform Loewenfeld","3.3.9","0","h","NA","h","NA","NA","h","589","NA","43466","NA","NA","589","2","legacy","1024","2","48000","-16","experiment","SSHSS","3","odd","182473","44872","NA","NA","66089","1404","NA","NA","183502","1405","NA","NA","183602","184191","183501","183602","Flanker Task","77","50040","79","yes","1024"
"97.5","97.5","631.975","631.975","black","legacy","legacy","legacy","0","congruent","uniform","1","undefined","1","s","79","0","0","0","79","0","79","0","79","0","0","0","79","79","79","79","09/26/21 13:22:39","1500","The main experiment item","yes","FlankerTask.osexp","C:\Users\suici\Desktop\Tarleton\Fall 2021 - Graduate Studies\PSYC 5316-010 Advanced Quantitative Methods & Experiment Design\Lab 2 - the flanker task (an experiment on attention)","no","mono","no","18","no","white","no","yes","768","legacy","79","79","C:/Users/suici/Desktop/Tarleton/Fall 2021 - Graduate Studies/PSYC 5316-010 Advanced Quantitative Methods & Experiment Design/Lab 2 - the flanker task (an experiment on attention)/SM-subject-3.csv","legacy","Lentiform Loewenfeld","3.3.9","0","s","NA","h","NA","NA","s","518","NA","43466","NA","NA","518","2","legacy","1024","2","48000","-16","experiment","SSSSS","3","odd","184193","44872","NA","NA","66089","1404","NA","NA","185221","1405","NA","NA","185321","185840","185220","185321","Flanker Task","78","50558","80","yes","1024"
"97.5308641975","97.5308641975","634.50617284","634.50617284","black","legacy","legacy","legacy","0","incongruent","uniform","1","undefined","1","s","80","0","0","0","80","0","80","0","80","0","0","0","80","80","80","80","09/26/21 13:22:39","600","The main experiment item","yes","FlankerTask.osexp","C:\Users\suici\Desktop\Tarleton\Fall 2021 - Graduate Studies\PSYC 5316-010 Advanced Quantitative Methods & Experiment Design\Lab 2 - the flanker task (an experiment on attention)","no","mono","no","18","no","white","no","yes","768","legacy","0","79","C:/Users/suici/Desktop/Tarleton/Fall 2021 - Graduate Studies/PSYC 5316-010 Advanced Quantitative Methods & Experiment Design/Lab 2 - the flanker task (an experiment on attention)/SM-subject-3.csv","legacy","Lentiform Loewenfeld","3.3.9","0","s","NA","h","h","NA","s","837","NA","43466","27263","NA","837","2","legacy","1024","2","48000","-16","experiment","HHSHH","3","odd","185841","44872","214112","NA","66089","1404","NA","NA","214142","1405","186848","NA","214242","215079","214141","214242","Flanker Task","79","51395","81","yes","1024"
"96.3414634146","96.3414634146","632.829268293","632.829268293","black","legacy","legacy","legacy","0","incongruent","uniform","0","undefined","0","s","81","0","0","0","81","0","81","0","81","0","0","0","81","81","81","81","09/26/21 13:22:39","600","The main experiment item","yes","FlankerTask.osexp","C:\Users\suici\Desktop\Tarleton\Fall 2021 - Graduate Studies\PSYC 5316-010 Advanced Quantitative Methods & Experiment Design\Lab 2 - the flanker task (an experiment on attention)","no","mono","no","18","no","white","no","yes","768","legacy","1","79","C:/Users/suici/Desktop/Tarleton/Fall 2021 - Graduate Studies/PSYC 5316-010 Advanced Quantitative Methods & Experiment Design/Lab 2 - the flanker task (an experiment on attention)/SM-subject-3.csv","legacy","Lentiform Loewenfeld","3.3.9","0","h","NA","h","h","NA","h","497","NA","43466","27263","NA","497","2","legacy","1024","2","48000","-16","experiment","HHSHH","3","odd","215582","44872","214112","NA","66089","1404","215081","NA","216611","1405","186848","NA","216711","217208","216610","216711","Flanker Task","79","51892","82","yes","1024"
"96.3855421687","96.3855421687","631.602409639","631.602409639","black","legacy","legacy","legacy","0","congruent","uniform","1","undefined","1","h","82","0","0","0","82","0","82","0","82","0","0","0","82","82","82","82","09/26/21 13:22:39","600","The main experiment item","yes","FlankerTask.osexp","C:\Users\suici\Desktop\Tarleton\Fall 2021 - Graduate Studies\PSYC 5316-010 Advanced Quantitative Methods & Experiment Design\Lab 2 - the flanker task (an experiment on attention)","no","mono","no","18","no","white","no","yes","768","legacy","2","79","C:/Users/suici/Desktop/Tarleton/Fall 2021 - Graduate Studies/PSYC 5316-010 Advanced Quantitative Methods & Experiment Design/Lab 2 - the flanker task (an experiment on attention)/SM-subject-3.csv","legacy","Lentiform Loewenfeld","3.3.9","0","h","NA","h","h","NA","h","531","NA","43466","27263","NA","531","2","legacy","1024","2","48000","-16","experiment","HHHHH","3","odd","217711","44872","214112","NA","217210","1404","215081","NA","218744","1405","186848","NA","218844","219376","218743","218844","Flanker Task","80","52423","83","yes","1024"
"96.4285714286","96.4285714286","630.869047619","630.869047619","black","legacy","legacy","legacy","0","incongruent","uniform","1","undefined","1","s","83","0","0","0","83","0","83","0","83","0","0","0","83","83","83","83","09/26/21 13:22:39","600","The main experiment item","yes","FlankerTask.osexp","C:\Users\suici\Desktop\Tarleton\Fall 2021 - Graduate Studies\PSYC 5316-010 Advanced Quantitative Methods & Experiment Design\Lab 2 - the flanker task (an experiment on attention)","no","mono","no","18","no","white","no","yes","768","legacy","3","79","C:/Users/suici/Desktop/Tarleton/Fall 2021 - Graduate Studies/PSYC 5316-010 Advanced Quantitative Methods & Experiment Design/Lab 2 - the flanker task (an experiment on attention)/SM-subject-3.csv","legacy","Lentiform Loewenfeld","3.3.9","0","s","NA","h","h","NA","s","570","NA","43466","27263","NA","570","2","legacy","1024","2","48000","-16","experiment","HHSHH","3","odd","219378","44872","214112","NA","217210","1404","215081","NA","220409","1405","186848","NA","220509","221079","220408","220509","Flanker Task","81","52993","84","yes","1024"
"96.4705882353","96.4705882353","629.905882353","629.905882353","black","legacy","legacy","legacy","0","incongruent","uniform","1","undefined","1","h","84","0","0","0","84","0","84","0","84","0","0","0","84","84","84","84","09/26/21 13:22:39","600","The main experiment item","yes","FlankerTask.osexp","C:\Users\suici\Desktop\Tarleton\Fall 2021 - Graduate Studies\PSYC 5316-010 Advanced Quantitative Methods & Experiment Design\Lab 2 - the flanker task (an experiment on attention)","no","mono","no","18","no","white","no","yes","768","legacy","4","79","C:/Users/suici/Desktop/Tarleton/Fall 2021 - Graduate Studies/PSYC 5316-010 Advanced Quantitative Methods & Experiment Design/Lab 2 - the flanker task (an experiment on attention)/SM-subject-3.csv","legacy","Lentiform Loewenfeld","3.3.9","0","h","NA","h","h","NA","h","549","NA","43466","27263","NA","549","2","legacy","1024","2","48000","-16","experiment","SSHSS","3","odd","221081","44872","214112","NA","217210","1404","215081","NA","222118","1405","186848","NA","222218","222768","222117","222218","Flanker Task","82","53542","85","yes","1024"
"96.511627907","96.511627907","629.476744186","629.476744186","black","legacy","legacy","legacy","0","incongruent","uniform","1","undefined","1","s","85","0","0","0","85","0","85","0","85","0","0","0","85","85","85","85","09/26/21 13:22:39","600","The main experiment item","yes","FlankerTask.osexp","C:\Users\suici\Desktop\Tarleton\Fall 2021 - Graduate Studies\PSYC 5316-010 Advanced Quantitative Methods & Experiment Design\Lab 2 - the flanker task (an experiment on attention)","no","mono","no","18","no","white","no","yes","768","legacy","5","79","C:/Users/suici/Desktop/Tarleton/Fall 2021 - Graduate Studies/PSYC 5316-010 Advanced Quantitative Methods & Experiment Design/Lab 2 - the flanker task (an experiment on attention)/SM-subject-3.csv","legacy","Lentiform Loewenfeld","3.3.9","0","s","NA","h","h","NA","s","593","NA","43466","27263","NA","593","2","legacy","1024","2","48000","-16","experiment","HHSHH","3","odd","222770","44872","214112","NA","217210","1404","215081","NA","223802","1405","186848","NA","223902","224496","223801","223902","Flanker Task","83","54135","86","yes","1024"
"96.5517241379","96.5517241379","629.183908046","629.183908046","black","legacy","legacy","legacy","0","congruent","uniform","1","undefined","1","s","86","0","0","0","86","0","86","0","86","0","0","0","86","86","86","86","09/26/21 13:22:39","600","The main experiment item","yes","FlankerTask.osexp","C:\Users\suici\Desktop\Tarleton\Fall 2021 - Graduate Studies\PSYC 5316-010 Advanced Quantitative Methods & Experiment Design\Lab 2 - the flanker task (an experiment on attention)","no","mono","no","18","no","white","no","yes","768","legacy","6","79","C:/Users/suici/Desktop/Tarleton/Fall 2021 - Graduate Studies/PSYC 5316-010 Advanced Quantitative Methods & Experiment Design/Lab 2 - the flanker task (an experiment on attention)/SM-subject-3.csv","legacy","Lentiform Loewenfeld","3.3.9","0","s","NA","h","h","NA","s","604","NA","43466","27263","NA","604","2","legacy","1024","2","48000","-16","experiment","SSSSS","3","odd","224497","44872","214112","NA","217210","1404","215081","NA","225527","1405","186848","NA","225627","226232","225526","225627","Flanker Task","84","54739","87","yes","1024"
"96.5909090909","96.5909090909","629.931818182","629.931818182","black","legacy","legacy","legacy","0","congruent","uniform","1","undefined","1","s","87","0","0","0","87","0","87","0","87","0","0","0","87","87","87","87","09/26/21 13:22:39","600","The main experiment item","yes","FlankerTask.osexp","C:\Users\suici\Desktop\Tarleton\Fall 2021 - Graduate Studies\PSYC 5316-010 Advanced Quantitative Methods & Experiment Design\Lab 2 - the flanker task (an experiment on attention)","no","mono","no","18","no","white","no","yes","768","legacy","7","79","C:/Users/suici/Desktop/Tarleton/Fall 2021 - Graduate Studies/PSYC 5316-010 Advanced Quantitative Methods & Experiment Design/Lab 2 - the flanker task (an experiment on attention)/SM-subject-3.csv","legacy","Lentiform Loewenfeld","3.3.9","0","s","NA","h","h","NA","s","695","NA","43466","27263","NA","695","2","legacy","1024","2","48000","-16","experiment","SSSSS","3","odd","226734","44872","214112","NA","217210","1404","226234","NA","227764","1405","186848","NA","227864","228560","227763","227864","Flanker Task","85","55434","88","yes","1024"
"95.5056179775","95.5056179775","630.730337079","630.730337079","black","legacy","legacy","legacy","0","incongruent","uniform","0","undefined","0","s","88","0","0","0","88","0","88","0","88","0","0","0","88","88","88","88","09/26/21 13:22:39","600","The main experiment item","yes","FlankerTask.osexp","C:\Users\suici\Desktop\Tarleton\Fall 2021 - Graduate Studies\PSYC 5316-010 Advanced Quantitative Methods & Experiment Design\Lab 2 - the flanker task (an experiment on attention)","no","mono","no","18","no","white","no","yes","768","legacy","8","79","C:/Users/suici/Desktop/Tarleton/Fall 2021 - Graduate Studies/PSYC 5316-010 Advanced Quantitative Methods & Experiment Design/Lab 2 - the flanker task (an experiment on attention)/SM-subject-3.csv","legacy","Lentiform Loewenfeld","3.3.9","0","h","NA","h","h","NA","h","701","NA","43466","27263","NA","701","2","legacy","1024","2","48000","-16","experiment","HHSHH","3","odd","229062","44872","214112","NA","217210","1404","228562","NA","230094","1405","186848","NA","230194","230896","230093","230194","Flanker Task","85","56135","89","yes","1024"
"95.5555555556","95.5555555556","630.677777778","630.677777778","black","legacy","legacy","legacy","0","congruent","uniform","1","undefined","1","h","89","0","0","0","89","0","89","0","89","0","0","0","89","89","89","89","09/26/21 13:22:39","600","The main experiment item","yes","FlankerTask.osexp","C:\Users\suici\Desktop\Tarleton\Fall 2021 - Graduate Studies\PSYC 5316-010 Advanced Quantitative Methods & Experiment Design\Lab 2 - the flanker task (an experiment on attention)","no","mono","no","18","no","white","no","yes","768","legacy","9","79","C:/Users/suici/Desktop/Tarleton/Fall 2021 - Graduate Studies/PSYC 5316-010 Advanced Quantitative Methods & Experiment Design/Lab 2 - the flanker task (an experiment on attention)/SM-subject-3.csv","legacy","Lentiform Loewenfeld","3.3.9","0","h","NA","h","h","NA","h","626","NA","43466","27263","NA","626","2","legacy","1024","2","48000","-16","experiment","HHHHH","3","odd","231898","44872","214112","NA","230897","1404","231397","NA","232929","1405","186848","NA","233029","233656","232928","233029","Flanker Task","86","56761","90","yes","1024"
