"acc","accuracy","average_response_time","avg_rt","background","canvas_backend","clock_backend","color_backend","compensation","condition","coordinates","correct","correct_instructions1","correct_keyboard_response","correct_response","count_ISI","count_block1","count_block2","count_block3","count_errorFeedback","count_experiment","count_faster","count_finish","count_fixation","count_instructions1","count_instructions2","count_instructions3","count_keyboard_response","count_logger","count_sequence","count_stimulus","datetime","deadline","description","disable_garbage_collection","experiment_file","experiment_path","font_bold","font_family","font_italic","font_size","font_underline","foreground","form_clicks","fullscreen","height","keyboard_backend","live_row","live_row_block1","logfile","mouse_backend","opensesame_codename","opensesame_version","repeat_cycle","response","response_finish","response_instructions1","response_instructions2","response_instructions3","response_keyboard_response","response_time","response_time_finish","response_time_instructions1","response_time_instructions2","response_time_instructions3","response_time_keyboard_response","round_decimals","sampler_backend","sound_buf_size","sound_channels","sound_freq","sound_sample_size","start","stimulus","subject_nr","subject_parity","time_ISI","time_block1","time_block2","time_block3","time_errorFeedback","time_experiment","time_faster","time_finish","time_fixation","time_instructions1","time_instructions2","time_instructions3","time_keyboard_response","time_logger","time_sequence","time_stimulus","title","total_correct","total_response_time","total_responses","uniform_coordinates","width"
"100","100","673","673","black","legacy","legacy","legacy","0","congruent","uniform","1","undefined","1","h","0","0","0","0","0","0","0","0","0","0","0","0","0","0","0","0","Thu Sep 23 17:07:14 2021","1500","The main experiment item","yes","Flankertask.osexp","/Users/mihailcodreanu/Desktop","no","mono","no","18","no","white","no","yes","768","legacy","0","0","/Users/mihailcodreanu/Desktop/mc-subject-3.csv","legacy","Lentiform Loewenfeld","3.3.9","0","h","NA","h","NA","NA","h","673","NA","21013","NA","NA","673","2","legacy","1024","2","48000","-16","experiment","HHHHH","3","odd","NA","24302","NA","NA","NA","3275","NA","NA","24349","3283","NA","NA","24455","25131","24345","24455","Flanker task ","1","673","1","yes","1024"
"50","50","537.5","537.5","black","legacy","legacy","legacy","0","incongruent","uniform","0","undefined","0","h","1","0","0","0","1","0","1","0","1","0","0","0","1","1","1","1","Thu Sep 23 17:07:14 2021","1500","The main experiment item","yes","Flankertask.osexp","/Users/mihailcodreanu/Desktop","no","mono","no","18","no","white","no","yes","768","legacy","1","1","/Users/mihailcodreanu/Desktop/mc-subject-3.csv","legacy","Lentiform Loewenfeld","3.3.9","0","s","NA","h","NA","NA","s","402","NA","21013","NA","NA","402","2","legacy","1024","2","48000","-16","experiment","SSHSS","3","odd","25140","24302","NA","NA","NA","3275","NA","NA","26198","3283","NA","NA","26302","26705","26193","26302","Flanker task ","1","1075","2","yes","1024"
"33.333333333333336","33.333333333333336","493.3333333333333","493.3333333333333","black","legacy","legacy","legacy","0","congruent","uniform","0","undefined","0","s","2","0","0","0","2","0","2","0","2","0","0","0","2","2","2","2","Thu Sep 23 17:07:14 2021","1500","The main experiment item","yes","Flankertask.osexp","/Users/mihailcodreanu/Desktop","no","mono","no","18","no","white","no","yes","768","legacy","2","2","/Users/mihailcodreanu/Desktop/mc-subject-3.csv","legacy","Lentiform Loewenfeld","3.3.9","0","h","NA","h","NA","NA","h","405","NA","21013","NA","NA","405","2","legacy","1024","2","48000","-16","experiment","SSSSS","3","odd","27216","24302","NA","NA","26711","3275","NA","NA","28267","3283","NA","NA","28371","28776","28263","28371","Flanker task ","1","1480","3","yes","1024"
"25","25","745","745","black","legacy","legacy","legacy","0","congruent","uniform","0","undefined","0","h","3","0","0","0","3","0","3","0","3","0","0","0","3","3","3","3","Thu Sep 23 17:07:14 2021","1500","The main experiment item","yes","Flankertask.osexp","/Users/mihailcodreanu/Desktop","no","mono","no","18","no","white","no","yes","768","legacy","3","3","/Users/mihailcodreanu/Desktop/mc-subject-3.csv","legacy","Lentiform Loewenfeld","3.3.9","0","None","NA","h","NA","NA","None","1500","NA","21013","NA","NA","1500","2","legacy","1024","2","48000","-16","experiment","HHHHH","3","odd","29287","24302","NA","NA","28783","3275","NA","NA","30341","3283","NA","NA","30446","31946","30335","30445","Flanker task ","1","2980","4","yes","1024"
"40","40","669","669","black","legacy","legacy","legacy","0","congruent","uniform","1","undefined","1","s","4","0","0","0","4","0","4","0","4","0","0","0","4","4","4","4","Thu Sep 23 17:07:14 2021","1500","The main experiment item","yes","Flankertask.osexp","/Users/mihailcodreanu/Desktop","no","mono","no","18","no","white","no","yes","768","legacy","4","4","/Users/mihailcodreanu/Desktop/mc-subject-3.csv","legacy","Lentiform Loewenfeld","3.3.9","0","s","NA","h","NA","NA","s","365","NA","21013","NA","NA","365","2","legacy","1024","2","48000","-16","experiment","SSSSS","3","odd","32459","24302","NA","NA","31953","3275","NA","NA","33514","3283","NA","NA","33619","33984","33507","33618","Flanker task ","2","3345","5","yes","1024"
"50","50","626.3333333333334","626.3333333333334","black","legacy","legacy","legacy","0","congruent","uniform","1","undefined","1","h","5","0","0","0","5","0","5","0","5","0","0","0","5","5","5","5","Thu Sep 23 17:07:14 2021","1500","The main experiment item","yes","Flankertask.osexp","/Users/mihailcodreanu/Desktop","no","mono","no","18","no","white","no","yes","768","legacy","5","5","/Users/mihailcodreanu/Desktop/mc-subject-3.csv","legacy","Lentiform Loewenfeld","3.3.9","0","h","NA","h","NA","NA","h","413","NA","21013","NA","NA","413","2","legacy","1024","2","48000","-16","experiment","HHHHH","3","odd","33991","24302","NA","NA","31953","3275","NA","NA","35043","3283","NA","NA","35147","35560","35039","35147","Flanker task ","3","3758","6","yes","1024"
"57.142857142857146","57.142857142857146","600.4285714285714","600.4285714285714","black","legacy","legacy","legacy","0","congruent","uniform","1","undefined","1","s","6","0","0","0","6","0","6","0","6","0","0","0","6","6","6","6","Thu Sep 23 17:07:14 2021","1500","The main experiment item","yes","Flankertask.osexp","/Users/mihailcodreanu/Desktop","no","mono","no","18","no","white","no","yes","768","legacy","6","6","/Users/mihailcodreanu/Desktop/mc-subject-3.csv","legacy","Lentiform Loewenfeld","3.3.9","0","s","NA","h","NA","NA","s","445","NA","21013","NA","NA","445","2","legacy","1024","2","48000","-16","experiment","SSSSS","3","odd","35567","24302","NA","NA","31953","3275","NA","NA","36618","3283","NA","NA","36723","37168","36614","36722","Flanker task ","4","4203","7","yes","1024"
"62.5","62.5","575","575","black","legacy","legacy","legacy","0","congruent","uniform","1","undefined","1","h","7","0","0","0","7","0","7","0","7","0","0","0","7","7","7","7","Thu Sep 23 17:07:14 2021","1500","The main experiment item","yes","Flankertask.osexp","/Users/mihailcodreanu/Desktop","no","mono","no","18","no","white","no","yes","768","legacy","7","7","/Users/mihailcodreanu/Desktop/mc-subject-3.csv","legacy","Lentiform Loewenfeld","3.3.9","0","h","NA","h","NA","NA","h","397","NA","21013","NA","NA","397","2","legacy","1024","2","48000","-16","experiment","HHHHH","3","odd","37175","24302","NA","NA","31953","3275","NA","NA","38227","3283","NA","NA","38331","38728","38223","38331","Flanker task ","5","4600","8","yes","1024"
"66.66666666666667","66.66666666666667","574.6666666666666","574.6666666666666","black","legacy","legacy","legacy","0","incongruent","uniform","1","undefined","1","h","8","0","0","0","8","0","8","0","8","0","0","0","8","8","8","8","Thu Sep 23 17:07:14 2021","1500","The main experiment item","yes","Flankertask.osexp","/Users/mihailcodreanu/Desktop","no","mono","no","18","no","white","no","yes","768","legacy","8","8","/Users/mihailcodreanu/Desktop/mc-subject-3.csv","legacy","Lentiform Loewenfeld","3.3.9","0","h","NA","h","NA","NA","h","572","NA","21013","NA","NA","572","2","legacy","1024","2","48000","-16","experiment","SSHSS","3","odd","38735","24302","NA","NA","31953","3275","NA","NA","39788","3283","NA","NA","39892","40464","39782","39892","Flanker task ","6","5172","9","yes","1024"
"70","70","563.3","563.3","black","legacy","legacy","legacy","0","congruent","uniform","1","undefined","1","s","9","0","0","0","9","0","9","0","9","0","0","0","9","9","9","9","Thu Sep 23 17:07:14 2021","1500","The main experiment item","yes","Flankertask.osexp","/Users/mihailcodreanu/Desktop","no","mono","no","18","no","white","no","yes","768","legacy","9","9","/Users/mihailcodreanu/Desktop/mc-subject-3.csv","legacy","Lentiform Loewenfeld","3.3.9","0","s","NA","h","NA","NA","s","461","NA","21013","NA","NA","461","2","legacy","1024","2","48000","-16","experiment","SSSSS","3","odd","40471","24302","NA","NA","31953","3275","NA","NA","41523","3283","NA","NA","41627","42089","41519","41627","Flanker task ","7","5633","10","yes","1024"
"72.72727272727273","72.72727272727273","548.1818181818181","548.1818181818181","black","legacy","legacy","legacy","0","congruent","uniform","1","undefined","1","h","10","0","0","0","10","0","10","0","10","0","0","0","10","10","10","10","Thu Sep 23 17:07:14 2021","1500","The main experiment item","yes","Flankertask.osexp","/Users/mihailcodreanu/Desktop","no","mono","no","18","no","white","no","yes","768","legacy","10","10","/Users/mihailcodreanu/Desktop/mc-subject-3.csv","legacy","Lentiform Loewenfeld","3.3.9","0","h","NA","h","NA","NA","h","397","NA","21013","NA","NA","397","2","legacy","1024","2","48000","-16","experiment","HHHHH","3","odd","42096","24302","NA","NA","31953","3275","NA","NA","43147","3283","NA","NA","43251","43648","43142","43251","Flanker task ","8","6030","11","yes","1024"
"75","75","536.4166666666666","536.4166666666666","black","legacy","legacy","legacy","0","congruent","uniform","1","undefined","1","h","11","0","0","0","11","0","11","0","11","0","0","0","11","11","11","11","Thu Sep 23 17:07:14 2021","1500","The main experiment item","yes","Flankertask.osexp","/Users/mihailcodreanu/Desktop","no","mono","no","18","no","white","no","yes","768","legacy","11","11","/Users/mihailcodreanu/Desktop/mc-subject-3.csv","legacy","Lentiform Loewenfeld","3.3.9","0","h","NA","h","NA","NA","h","407","NA","21013","NA","NA","407","2","legacy","1024","2","48000","-16","experiment","HHHHH","3","odd","43655","24302","NA","NA","31953","3275","NA","NA","44705","3283","NA","NA","44809","45216","44700","44809","Flanker task ","9","6437","12","yes","1024"
"76.92307692307692","76.92307692307692","540.6153846153846","540.6153846153846","black","legacy","legacy","legacy","0","incongruent","uniform","1","undefined","1","s","12","0","0","0","12","0","12","0","12","0","0","0","12","12","12","12","Thu Sep 23 17:07:14 2021","1500","The main experiment item","yes","Flankertask.osexp","/Users/mihailcodreanu/Desktop","no","mono","no","18","no","white","no","yes","768","legacy","12","12","/Users/mihailcodreanu/Desktop/mc-subject-3.csv","legacy","Lentiform Loewenfeld","3.3.9","0","s","NA","h","NA","NA","s","591","NA","21013","NA","NA","591","2","legacy","1024","2","48000","-16","experiment","HHSHH","3","odd","45222","24302","NA","NA","31953","3275","NA","NA","46272","3283","NA","NA","46377","46969","46269","46377","Flanker task ","10","7028","13","yes","1024"
"78.57142857142857","78.57142857142857","529.8571428571429","529.8571428571429","black","legacy","legacy","legacy","0","incongruent","uniform","1","undefined","1","s","13","0","0","0","13","0","13","0","13","0","0","0","13","13","13","13","Thu Sep 23 17:07:14 2021","1500","The main experiment item","yes","Flankertask.osexp","/Users/mihailcodreanu/Desktop","no","mono","no","18","no","white","no","yes","768","legacy","13","13","/Users/mihailcodreanu/Desktop/mc-subject-3.csv","legacy","Lentiform Loewenfeld","3.3.9","0","s","NA","h","NA","NA","s","390","NA","21013","NA","NA","390","2","legacy","1024","2","48000","-16","experiment","HHSHH","3","odd","46975","24302","NA","NA","31953","3275","NA","NA","48025","3283","NA","NA","48130","48521","48022","48129","Flanker task ","11","7418","14","yes","1024"
"80","80","517.9333333333333","517.9333333333333","black","legacy","legacy","legacy","0","congruent","uniform","1","undefined","1","h","14","0","0","0","14","0","14","0","14","0","0","0","14","14","14","14","Thu Sep 23 17:07:14 2021","1500","The main experiment item","yes","Flankertask.osexp","/Users/mihailcodreanu/Desktop","no","mono","no","18","no","white","no","yes","768","legacy","14","14","/Users/mihailcodreanu/Desktop/mc-subject-3.csv","legacy","Lentiform Loewenfeld","3.3.9","0","h","NA","h","NA","NA","h","351","NA","21013","NA","NA","351","2","legacy","1024","2","48000","-16","experiment","HHHHH","3","odd","48528","24302","NA","NA","31953","3275","NA","NA","49578","3283","NA","NA","49681","50032","49574","49681","Flanker task ","12","7769","15","yes","1024"
"81.25","81.25","506.875","506.875","black","legacy","legacy","legacy","0","incongruent","uniform","1","undefined","1","s","15","0","0","0","15","0","15","0","15","0","0","0","15","15","15","15","Thu Sep 23 17:07:14 2021","1500","The main experiment item","yes","Flankertask.osexp","/Users/mihailcodreanu/Desktop","no","mono","no","18","no","white","no","yes","768","legacy","15","15","/Users/mihailcodreanu/Desktop/mc-subject-3.csv","legacy","Lentiform Loewenfeld","3.3.9","0","s","NA","h","NA","NA","s","341","NA","21013","NA","NA","341","2","legacy","1024","2","48000","-16","experiment","HHSHH","3","odd","50038","24302","NA","NA","31953","3275","NA","NA","51091","3283","NA","NA","51195","51537","51087","51195","Flanker task ","13","8110","16","yes","1024"
"82.3529411764706","82.3529411764706","500.6470588235294","500.6470588235294","black","legacy","legacy","legacy","0","congruent","uniform","1","undefined","1","s","16","0","0","0","16","0","16","0","16","0","0","0","16","16","16","16","Thu Sep 23 17:07:14 2021","1500","The main experiment item","yes","Flankertask.osexp","/Users/mihailcodreanu/Desktop","no","mono","no","18","no","white","no","yes","768","legacy","16","16","/Users/mihailcodreanu/Desktop/mc-subject-3.csv","legacy","Lentiform Loewenfeld","3.3.9","0","s","NA","h","NA","NA","s","401","NA","21013","NA","NA","401","2","legacy","1024","2","48000","-16","experiment","SSSSS","3","odd","51541","24302","NA","NA","31953","3275","NA","NA","52591","3283","NA","NA","52695","53096","52587","52695","Flanker task ","14","8511","17","yes","1024"
"83.33333333333333","83.33333333333333","500.77777777777777","500.77777777777777","black","legacy","legacy","legacy","0","incongruent","uniform","1","undefined","1","h","17","0","0","0","17","0","17","0","17","0","0","0","17","17","17","17","Thu Sep 23 17:07:14 2021","1500","The main experiment item","yes","Flankertask.osexp","/Users/mihailcodreanu/Desktop","no","mono","no","18","no","white","no","yes","768","legacy","17","17","/Users/mihailcodreanu/Desktop/mc-subject-3.csv","legacy","Lentiform Loewenfeld","3.3.9","0","h","NA","h","NA","NA","h","503","NA","21013","NA","NA","503","2","legacy","1024","2","48000","-16","experiment","SSHSS","3","odd","53103","24302","NA","NA","31953","3275","NA","NA","54153","3283","NA","NA","54257","54761","54150","54257","Flanker task ","15","9014","18","yes","1024"
"84.21052631578948","84.21052631578948","496.57894736842104","496.57894736842104","black","legacy","legacy","legacy","0","congruent","uniform","1","undefined","1","h","18","0","0","0","18","0","18","0","18","0","0","0","18","18","18","18","Thu Sep 23 17:07:14 2021","1500","The main experiment item","yes","Flankertask.osexp","/Users/mihailcodreanu/Desktop","no","mono","no","18","no","white","no","yes","768","legacy","18","18","/Users/mihailcodreanu/Desktop/mc-subject-3.csv","legacy","Lentiform Loewenfeld","3.3.9","0","h","NA","h","NA","NA","h","421","NA","21013","NA","NA","421","2","legacy","1024","2","48000","-16","experiment","HHHHH","3","odd","54767","24302","NA","NA","31953","3275","NA","NA","55819","3283","NA","NA","55923","56344","55815","55923","Flanker task ","16","9435","19","yes","1024"
"85","85","494.05","494.05","black","legacy","legacy","legacy","0","incongruent","uniform","1","undefined","1","h","19","0","0","0","19","0","19","0","19","0","0","0","19","19","19","19","Thu Sep 23 17:07:14 2021","1500","The main experiment item","yes","Flankertask.osexp","/Users/mihailcodreanu/Desktop","no","mono","no","18","no","white","no","yes","768","legacy","19","19","/Users/mihailcodreanu/Desktop/mc-subject-3.csv","legacy","Lentiform Loewenfeld","3.3.9","0","h","NA","h","NA","NA","h","446","NA","21013","NA","NA","446","2","legacy","1024","2","48000","-16","experiment","SSHSS","3","odd","56351","24302","NA","NA","31953","3275","NA","NA","57402","3283","NA","NA","57506","57952","57398","57506","Flanker task ","17","9881","20","yes","1024"
"85.71428571428571","85.71428571428571","489.95238095238096","489.95238095238096","black","legacy","legacy","legacy","0","incongruent","uniform","1","undefined","1","s","20","0","0","0","20","0","20","0","20","0","0","0","20","20","20","20","Thu Sep 23 17:07:14 2021","1500","The main experiment item","yes","Flankertask.osexp","/Users/mihailcodreanu/Desktop","no","mono","no","18","no","white","no","yes","768","legacy","20","20","/Users/mihailcodreanu/Desktop/mc-subject-3.csv","legacy","Lentiform Loewenfeld","3.3.9","0","s","NA","h","NA","NA","s","408","NA","21013","NA","NA","408","2","legacy","1024","2","48000","-16","experiment","HHSHH","3","odd","57959","24302","NA","NA","31953","3275","NA","NA","59008","3283","NA","NA","59112","59521","59004","59112","Flanker task ","18","10289","21","yes","1024"
"86.36363636363636","86.36363636363636","485.04545454545456","485.04545454545456","black","legacy","legacy","legacy","0","congruent","uniform","1","undefined","1","h","21","0","0","0","21","0","21","0","21","0","0","0","21","21","21","21","Thu Sep 23 17:07:14 2021","1500","The main experiment item","yes","Flankertask.osexp","/Users/mihailcodreanu/Desktop","no","mono","no","18","no","white","no","yes","768","legacy","21","21","/Users/mihailcodreanu/Desktop/mc-subject-3.csv","legacy","Lentiform Loewenfeld","3.3.9","0","h","NA","h","NA","NA","h","382","NA","21013","NA","NA","382","2","legacy","1024","2","48000","-16","experiment","HHHHH","3","odd","59527","24302","NA","NA","31953","3275","NA","NA","60578","3283","NA","NA","60682","61064","60574","60682","Flanker task ","19","10671","22","yes","1024"
"86.95652173913044","86.95652173913044","481.2608695652174","481.2608695652174","black","legacy","legacy","legacy","0","congruent","uniform","1","undefined","1","h","22","0","0","0","22","0","22","0","22","0","0","0","22","22","22","22","Thu Sep 23 17:07:14 2021","1500","The main experiment item","yes","Flankertask.osexp","/Users/mihailcodreanu/Desktop","no","mono","no","18","no","white","no","yes","768","legacy","22","22","/Users/mihailcodreanu/Desktop/mc-subject-3.csv","legacy","Lentiform Loewenfeld","3.3.9","0","h","NA","h","NA","NA","h","398","NA","21013","NA","NA","398","2","legacy","1024","2","48000","-16","experiment","HHHHH","3","odd","61070","24302","NA","NA","31953","3275","NA","NA","62122","3283","NA","NA","62226","62625","62118","62226","Flanker task ","20","11069","23","yes","1024"
"87.5","87.5","477.8333333333333","477.8333333333333","black","legacy","legacy","legacy","0","congruent","uniform","1","undefined","1","s","23","0","0","0","23","0","23","0","23","0","0","0","23","23","23","23","Thu Sep 23 17:07:14 2021","1500","The main experiment item","yes","Flankertask.osexp","/Users/mihailcodreanu/Desktop","no","mono","no","18","no","white","no","yes","768","legacy","23","23","/Users/mihailcodreanu/Desktop/mc-subject-3.csv","legacy","Lentiform Loewenfeld","3.3.9","0","s","NA","h","NA","NA","s","399","NA","21013","NA","NA","399","2","legacy","1024","2","48000","-16","experiment","SSSSS","3","odd","62631","24302","NA","NA","31953","3275","NA","NA","63681","3283","NA","NA","63785","64185","63678","63785","Flanker task ","21","11468","24","yes","1024"
"88","88","475.32","475.32","black","legacy","legacy","legacy","0","incongruent","uniform","1","undefined","1","s","24","0","0","0","24","0","24","0","24","0","0","0","24","24","24","24","Thu Sep 23 17:07:14 2021","1500","The main experiment item","yes","Flankertask.osexp","/Users/mihailcodreanu/Desktop","no","mono","no","18","no","white","no","yes","768","legacy","24","24","/Users/mihailcodreanu/Desktop/mc-subject-3.csv","legacy","Lentiform Loewenfeld","3.3.9","0","s","NA","h","NA","NA","s","415","NA","21013","NA","NA","415","2","legacy","1024","2","48000","-16","experiment","HHSHH","3","odd","64191","24302","NA","NA","31953","3275","NA","NA","65241","3283","NA","NA","65345","65761","65237","65345","Flanker task ","22","11883","25","yes","1024"
"88.46153846153847","88.46153846153847","477.61538461538464","477.61538461538464","black","legacy","legacy","legacy","0","incongruent","uniform","1","undefined","1","h","25","0","0","0","25","0","25","0","25","0","0","0","25","25","25","25","Thu Sep 23 17:07:14 2021","1500","The main experiment item","yes","Flankertask.osexp","/Users/mihailcodreanu/Desktop","no","mono","no","18","no","white","no","yes","768","legacy","25","25","/Users/mihailcodreanu/Desktop/mc-subject-3.csv","legacy","Lentiform Loewenfeld","3.3.9","0","h","NA","h","NA","NA","h","535","NA","21013","NA","NA","535","2","legacy","1024","2","48000","-16","experiment","SSHSS","3","odd","65767","24302","NA","NA","31953","3275","NA","NA","66817","3283","NA","NA","66921","67456","66813","66921","Flanker task ","23","12418","26","yes","1024"
"88.88888888888889","88.88888888888889","475.85185185185185","475.85185185185185","black","legacy","legacy","legacy","0","congruent","uniform","1","undefined","1","s","26","0","0","0","26","0","26","0","26","0","0","0","26","26","26","26","Thu Sep 23 17:07:14 2021","1500","The main experiment item","yes","Flankertask.osexp","/Users/mihailcodreanu/Desktop","no","mono","no","18","no","white","no","yes","768","legacy","26","26","/Users/mihailcodreanu/Desktop/mc-subject-3.csv","legacy","Lentiform Loewenfeld","3.3.9","0","s","NA","h","NA","NA","s","430","NA","21013","NA","NA","430","2","legacy","1024","2","48000","-16","experiment","SSSSS","3","odd","67463","24302","NA","NA","31953","3275","NA","NA","68514","3283","NA","NA","68618","69049","68510","68618","Flanker task ","24","12848","27","yes","1024"
"89.28571428571429","89.28571428571429","474.82142857142856","474.82142857142856","black","legacy","legacy","legacy","0","incongruent","uniform","1","undefined","1","s","27","0","0","0","27","0","27","0","27","0","0","0","27","27","27","27","Thu Sep 23 17:07:14 2021","1500","The main experiment item","yes","Flankertask.osexp","/Users/mihailcodreanu/Desktop","no","mono","no","18","no","white","no","yes","768","legacy","27","27","/Users/mihailcodreanu/Desktop/mc-subject-3.csv","legacy","Lentiform Loewenfeld","3.3.9","0","s","NA","h","NA","NA","s","447","NA","21013","NA","NA","447","2","legacy","1024","2","48000","-16","experiment","HHSHH","3","odd","69055","24302","NA","NA","31953","3275","NA","NA","70105","3283","NA","NA","70209","70657","70101","70209","Flanker task ","25","13295","28","yes","1024"
"89.65517241379311","89.65517241379311","471.9310344827586","471.9310344827586","black","legacy","legacy","legacy","0","congruent","uniform","1","undefined","1","h","28","0","0","0","28","0","28","0","28","0","0","0","28","28","28","28","Thu Sep 23 17:07:14 2021","1500","The main experiment item","yes","Flankertask.osexp","/Users/mihailcodreanu/Desktop","no","mono","no","18","no","white","no","yes","768","legacy","28","28","/Users/mihailcodreanu/Desktop/mc-subject-3.csv","legacy","Lentiform Loewenfeld","3.3.9","0","h","NA","h","NA","NA","h","391","NA","21013","NA","NA","391","2","legacy","1024","2","48000","-16","experiment","HHHHH","3","odd","70664","24302","NA","NA","31953","3275","NA","NA","71713","3283","NA","NA","71817","72209","71709","71817","Flanker task ","26","13686","29","yes","1024"
"90","90","469.1666666666667","469.1666666666667","black","legacy","legacy","legacy","0","incongruent","uniform","1","undefined","1","s","29","0","0","0","29","0","29","0","29","0","0","0","29","29","29","29","Thu Sep 23 17:07:14 2021","1500","The main experiment item","yes","Flankertask.osexp","/Users/mihailcodreanu/Desktop","no","mono","no","18","no","white","no","yes","768","legacy","29","29","/Users/mihailcodreanu/Desktop/mc-subject-3.csv","legacy","Lentiform Loewenfeld","3.3.9","0","s","NA","h","NA","NA","s","389","NA","21013","NA","NA","389","2","legacy","1024","2","48000","-16","experiment","HHSHH","3","odd","72214","24302","NA","NA","31953","3275","NA","NA","73267","3283","NA","NA","73371","73761","73263","73371","Flanker task ","27","14075","30","yes","1024"
"90.3225806451613","90.3225806451613","465.8709677419355","465.8709677419355","black","legacy","legacy","legacy","0","congruent","uniform","1","undefined","1","s","30","0","0","0","30","0","30","0","30","0","0","0","30","30","30","30","Thu Sep 23 17:07:14 2021","1500","The main experiment item","yes","Flankertask.osexp","/Users/mihailcodreanu/Desktop","no","mono","no","18","no","white","no","yes","768","legacy","30","30","/Users/mihailcodreanu/Desktop/mc-subject-3.csv","legacy","Lentiform Loewenfeld","3.3.9","0","s","NA","h","NA","NA","s","367","NA","21013","NA","NA","367","2","legacy","1024","2","48000","-16","experiment","SSSSS","3","odd","73767","24302","NA","NA","31953","3275","NA","NA","74817","3283","NA","NA","74921","75289","74813","74921","Flanker task ","28","14442","31","yes","1024"
"90.625","90.625","463.40625","463.40625","black","legacy","legacy","legacy","0","incongruent","uniform","1","undefined","1","s","31","0","0","0","31","0","31","0","31","0","0","0","31","31","31","31","Thu Sep 23 17:07:14 2021","1500","The main experiment item","yes","Flankertask.osexp","/Users/mihailcodreanu/Desktop","no","mono","no","18","no","white","no","yes","768","legacy","31","31","/Users/mihailcodreanu/Desktop/mc-subject-3.csv","legacy","Lentiform Loewenfeld","3.3.9","0","s","NA","h","NA","NA","s","387","NA","21013","NA","NA","387","2","legacy","1024","2","48000","-16","experiment","HHSHH","3","odd","75295","24302","NA","NA","31953","3275","NA","NA","76349","3283","NA","NA","76453","76841","76345","76453","Flanker task ","29","14829","32","yes","1024"
"90.9090909090909","90.9090909090909","462.93939393939394","462.93939393939394","black","legacy","legacy","legacy","0","incongruent","uniform","1","undefined","1","h","32","0","0","0","32","0","32","0","32","0","0","0","32","32","32","32","Thu Sep 23 17:07:14 2021","1500","The main experiment item","yes","Flankertask.osexp","/Users/mihailcodreanu/Desktop","no","mono","no","18","no","white","no","yes","768","legacy","32","32","/Users/mihailcodreanu/Desktop/mc-subject-3.csv","legacy","Lentiform Loewenfeld","3.3.9","0","h","NA","h","NA","NA","h","448","NA","21013","NA","NA","448","2","legacy","1024","2","48000","-16","experiment","SSHSS","3","odd","76847","24302","NA","NA","31953","3275","NA","NA","77896","3283","NA","NA","78000","78449","77893","78000","Flanker task ","30","15277","33","yes","1024"
"91.17647058823529","91.17647058823529","459.6470588235294","459.6470588235294","black","legacy","legacy","legacy","0","congruent","uniform","1","undefined","1","s","33","0","0","0","33","0","33","0","33","0","0","0","33","33","33","33","Thu Sep 23 17:07:14 2021","1500","The main experiment item","yes","Flankertask.osexp","/Users/mihailcodreanu/Desktop","no","mono","no","18","no","white","no","yes","768","legacy","33","33","/Users/mihailcodreanu/Desktop/mc-subject-3.csv","legacy","Lentiform Loewenfeld","3.3.9","0","s","NA","h","NA","NA","s","351","NA","21013","NA","NA","351","2","legacy","1024","2","48000","-16","experiment","SSSSS","3","odd","78455","24302","NA","NA","31953","3275","NA","NA","79505","3283","NA","NA","79609","79961","79501","79609","Flanker task ","31","15628","34","yes","1024"
"91.42857142857143","91.42857142857143","459","459","black","legacy","legacy","legacy","0","incongruent","uniform","1","undefined","1","h","34","0","0","0","34","0","34","0","34","0","0","0","34","34","34","34","Thu Sep 23 17:07:14 2021","1500","The main experiment item","yes","Flankertask.osexp","/Users/mihailcodreanu/Desktop","no","mono","no","18","no","white","no","yes","768","legacy","34","34","/Users/mihailcodreanu/Desktop/mc-subject-3.csv","legacy","Lentiform Loewenfeld","3.3.9","0","h","NA","h","NA","NA","h","437","NA","21013","NA","NA","437","2","legacy","1024","2","48000","-16","experiment","SSHSS","3","odd","79967","24302","NA","NA","31953","3275","NA","NA","81018","3283","NA","NA","81123","81561","81014","81122","Flanker task ","32","16065","35","yes","1024"
"91.66666666666667","91.66666666666667","459.1111111111111","459.1111111111111","black","legacy","legacy","legacy","0","incongruent","uniform","1","undefined","1","h","35","0","0","0","35","0","35","0","35","0","0","0","35","35","35","35","Thu Sep 23 17:07:14 2021","1500","The main experiment item","yes","Flankertask.osexp","/Users/mihailcodreanu/Desktop","no","mono","no","18","no","white","no","yes","768","legacy","35","35","/Users/mihailcodreanu/Desktop/mc-subject-3.csv","legacy","Lentiform Loewenfeld","3.3.9","0","h","NA","h","NA","NA","h","463","NA","21013","NA","NA","463","2","legacy","1024","2","48000","-16","experiment","SSHSS","3","odd","81567","24302","NA","NA","31953","3275","NA","NA","82617","3283","NA","NA","82721","83184","82613","82721","Flanker task ","33","16528","36","yes","1024"
"91.89189189189189","91.89189189189189","456","456","black","legacy","legacy","legacy","0","incongruent","uniform","1","undefined","1","h","36","0","0","0","36","0","36","0","36","0","0","0","36","36","36","36","Thu Sep 23 17:07:14 2021","1500","The main experiment item","yes","Flankertask.osexp","/Users/mihailcodreanu/Desktop","no","mono","no","18","no","white","no","yes","768","legacy","36","36","/Users/mihailcodreanu/Desktop/mc-subject-3.csv","legacy","Lentiform Loewenfeld","3.3.9","0","h","NA","h","NA","NA","h","344","NA","21013","NA","NA","344","2","legacy","1024","2","48000","-16","experiment","SSHSS","3","odd","83191","24302","NA","NA","31953","3275","NA","NA","84241","3283","NA","NA","84344","84689","84237","84344","Flanker task ","34","16872","37","yes","1024"
"92.10526315789474","92.10526315789474","454.1578947368421","454.1578947368421","black","legacy","legacy","legacy","0","incongruent","uniform","1","undefined","1","s","37","0","0","0","37","0","37","0","37","0","0","0","37","37","37","37","Thu Sep 23 17:07:14 2021","1500","The main experiment item","yes","Flankertask.osexp","/Users/mihailcodreanu/Desktop","no","mono","no","18","no","white","no","yes","768","legacy","37","37","/Users/mihailcodreanu/Desktop/mc-subject-3.csv","legacy","Lentiform Loewenfeld","3.3.9","0","s","NA","h","NA","NA","s","386","NA","21013","NA","NA","386","2","legacy","1024","2","48000","-16","experiment","HHSHH","3","odd","84693","24302","NA","NA","31953","3275","NA","NA","85742","3283","NA","NA","85846","86233","85738","85846","Flanker task ","35","17258","38","yes","1024"
"92.3076923076923","92.3076923076923","452.3076923076923","452.3076923076923","black","legacy","legacy","legacy","0","incongruent","uniform","1","undefined","1","s","38","0","0","0","38","0","38","0","38","0","0","0","38","38","38","38","Thu Sep 23 17:07:14 2021","1500","The main experiment item","yes","Flankertask.osexp","/Users/mihailcodreanu/Desktop","no","mono","no","18","no","white","no","yes","768","legacy","38","38","/Users/mihailcodreanu/Desktop/mc-subject-3.csv","legacy","Lentiform Loewenfeld","3.3.9","0","s","NA","h","NA","NA","s","382","NA","21013","NA","NA","382","2","legacy","1024","2","48000","-16","experiment","HHSHH","3","odd","86238","24302","NA","NA","31953","3275","NA","NA","87290","3283","NA","NA","87394","87777","87286","87394","Flanker task ","36","17640","39","yes","1024"
"92.5","92.5","451.5","451.5","black","legacy","legacy","legacy","0","congruent","uniform","1","undefined","1","h","39","0","0","0","39","0","39","0","39","0","0","0","39","39","39","39","Thu Sep 23 17:07:14 2021","1500","The main experiment item","yes","Flankertask.osexp","/Users/mihailcodreanu/Desktop","no","mono","no","18","no","white","no","yes","768","legacy","39","39","/Users/mihailcodreanu/Desktop/mc-subject-3.csv","legacy","Lentiform Loewenfeld","3.3.9","0","h","NA","h","NA","NA","h","420","NA","21013","NA","NA","420","2","legacy","1024","2","48000","-16","experiment","HHHHH","3","odd","87783","24302","NA","NA","31953","3275","NA","NA","88836","3283","NA","NA","88940","89361","88832","88940","Flanker task ","37","18060","40","yes","1024"
"92.6829268292683","92.6829268292683","448.4390243902439","448.4390243902439","black","legacy","legacy","legacy","0","congruent","uniform","1","undefined","1","s","40","0","0","0","40","0","40","0","40","0","0","0","40","40","40","40","Thu Sep 23 17:07:14 2021","1500","The main experiment item","yes","Flankertask.osexp","/Users/mihailcodreanu/Desktop","no","mono","no","18","no","white","no","yes","768","legacy","40","40","/Users/mihailcodreanu/Desktop/mc-subject-3.csv","legacy","Lentiform Loewenfeld","3.3.9","0","s","NA","h","NA","NA","s","326","NA","21013","NA","NA","326","2","legacy","1024","2","48000","-16","experiment","SSSSS","3","odd","89367","24302","NA","NA","31953","3275","NA","NA","90418","3283","NA","NA","90522","90849","90414","90522","Flanker task ","38","18386","41","yes","1024"
"92.85714285714286","92.85714285714286","447.07142857142856","447.07142857142856","black","legacy","legacy","legacy","0","incongruent","uniform","1","undefined","1","h","41","0","0","0","41","0","41","0","41","0","0","0","41","41","41","41","Thu Sep 23 17:07:14 2021","1500","The main experiment item","yes","Flankertask.osexp","/Users/mihailcodreanu/Desktop","no","mono","no","18","no","white","no","yes","768","legacy","41","41","/Users/mihailcodreanu/Desktop/mc-subject-3.csv","legacy","Lentiform Loewenfeld","3.3.9","0","h","NA","h","NA","NA","h","391","NA","21013","NA","NA","391","2","legacy","1024","2","48000","-16","experiment","SSHSS","3","odd","90855","24302","NA","NA","31953","3275","NA","NA","91904","3283","NA","NA","92009","92401","91901","92009","Flanker task ","39","18777","42","yes","1024"
"93.02325581395348","93.02325581395348","445.5581395348837","445.5581395348837","black","legacy","legacy","legacy","0","congruent","uniform","1","undefined","1","h","42","0","0","0","42","0","42","0","42","0","0","0","42","42","42","42","Thu Sep 23 17:07:14 2021","1500","The main experiment item","yes","Flankertask.osexp","/Users/mihailcodreanu/Desktop","no","mono","no","18","no","white","no","yes","768","legacy","42","42","/Users/mihailcodreanu/Desktop/mc-subject-3.csv","legacy","Lentiform Loewenfeld","3.3.9","0","h","NA","h","NA","NA","h","382","NA","21013","NA","NA","382","2","legacy","1024","2","48000","-16","experiment","HHHHH","3","odd","92407","24302","NA","NA","31953","3275","NA","NA","93458","3283","NA","NA","93562","93945","93454","93562","Flanker task ","40","19159","43","yes","1024"
"93.18181818181819","93.18181818181819","445.1818181818182","445.1818181818182","black","legacy","legacy","legacy","0","congruent","uniform","1","undefined","1","s","43","0","0","0","43","0","43","0","43","0","0","0","43","43","43","43","Thu Sep 23 17:07:14 2021","1500","The main experiment item","yes","Flankertask.osexp","/Users/mihailcodreanu/Desktop","no","mono","no","18","no","white","no","yes","768","legacy","43","43","/Users/mihailcodreanu/Desktop/mc-subject-3.csv","legacy","Lentiform Loewenfeld","3.3.9","0","s","NA","h","NA","NA","s","429","NA","21013","NA","NA","429","2","legacy","1024","2","48000","-16","experiment","SSSSS","3","odd","93952","24302","NA","NA","31953","3275","NA","NA","95003","3283","NA","NA","95107","95537","94999","95107","Flanker task ","41","19588","44","yes","1024"
"93.33333333333333","93.33333333333333","444.31111111111113","444.31111111111113","black","legacy","legacy","legacy","0","congruent","uniform","1","undefined","1","s","44","0","0","0","44","0","44","0","44","0","0","0","44","44","44","44","Thu Sep 23 17:07:14 2021","1500","The main experiment item","yes","Flankertask.osexp","/Users/mihailcodreanu/Desktop","no","mono","no","18","no","white","no","yes","768","legacy","44","44","/Users/mihailcodreanu/Desktop/mc-subject-3.csv","legacy","Lentiform Loewenfeld","3.3.9","0","s","NA","h","NA","NA","s","406","NA","21013","NA","NA","406","2","legacy","1024","2","48000","-16","experiment","SSSSS","3","odd","95543","24302","NA","NA","31953","3275","NA","NA","96594","3283","NA","NA","96698","97105","96590","96698","Flanker task ","42","19994","45","yes","1024"
"93.47826086956522","93.47826086956522","442.60869565217394","442.60869565217394","black","legacy","legacy","legacy","0","congruent","uniform","1","undefined","1","h","45","0","0","0","45","0","45","0","45","0","0","0","45","45","45","45","Thu Sep 23 17:07:14 2021","1500","The main experiment item","yes","Flankertask.osexp","/Users/mihailcodreanu/Desktop","no","mono","no","18","no","white","no","yes","768","legacy","45","45","/Users/mihailcodreanu/Desktop/mc-subject-3.csv","legacy","Lentiform Loewenfeld","3.3.9","0","h","NA","h","NA","NA","h","366","NA","21013","NA","NA","366","2","legacy","1024","2","48000","-16","experiment","HHHHH","3","odd","97111","24302","NA","NA","31953","3275","NA","NA","98162","3283","NA","NA","98266","98633","98158","98266","Flanker task ","43","20360","46","yes","1024"
"93.61702127659575","93.61702127659575","443.1489361702128","443.1489361702128","black","legacy","legacy","legacy","0","congruent","uniform","1","undefined","1","s","46","0","0","0","46","0","46","0","46","0","0","0","46","46","46","46","Thu Sep 23 17:07:14 2021","1500","The main experiment item","yes","Flankertask.osexp","/Users/mihailcodreanu/Desktop","no","mono","no","18","no","white","no","yes","768","legacy","46","46","/Users/mihailcodreanu/Desktop/mc-subject-3.csv","legacy","Lentiform Loewenfeld","3.3.9","0","s","NA","h","NA","NA","s","468","NA","21013","NA","NA","468","2","legacy","1024","2","48000","-16","experiment","SSSSS","3","odd","98639","24302","NA","NA","31953","3275","NA","NA","99692","3283","NA","NA","99796","100265","99688","99796","Flanker task ","44","20828","47","yes","1024"
"93.75","93.75","444.0416666666667","444.0416666666667","black","legacy","legacy","legacy","0","incongruent","uniform","1","undefined","1","s","47","0","0","0","47","0","47","0","47","0","0","0","47","47","47","47","Thu Sep 23 17:07:14 2021","1500","The main experiment item","yes","Flankertask.osexp","/Users/mihailcodreanu/Desktop","no","mono","no","18","no","white","no","yes","768","legacy","47","47","/Users/mihailcodreanu/Desktop/mc-subject-3.csv","legacy","Lentiform Loewenfeld","3.3.9","0","s","NA","h","NA","NA","s","486","NA","21013","NA","NA","486","2","legacy","1024","2","48000","-16","experiment","HHSHH","3","odd","100271","24302","NA","NA","31953","3275","NA","NA","101322","3283","NA","NA","101426","101913","101318","101426","Flanker task ","45","21314","48","yes","1024"
"93.87755102040816","93.87755102040816","442.2857142857143","442.2857142857143","black","legacy","legacy","legacy","0","congruent","uniform","1","undefined","1","h","48","0","0","0","48","0","48","0","48","0","0","0","48","48","48","48","Thu Sep 23 17:07:14 2021","1500","The main experiment item","yes","Flankertask.osexp","/Users/mihailcodreanu/Desktop","no","mono","no","18","no","white","no","yes","768","legacy","48","48","/Users/mihailcodreanu/Desktop/mc-subject-3.csv","legacy","Lentiform Loewenfeld","3.3.9","0","h","NA","h","NA","NA","h","358","NA","21013","NA","NA","358","2","legacy","1024","2","48000","-16","experiment","HHHHH","3","odd","101919","24302","NA","NA","31953","3275","NA","NA","102970","3283","NA","NA","103074","103433","102966","103074","Flanker task ","46","21672","49","yes","1024"
"94","94","440.46","440.46","black","legacy","legacy","legacy","0","incongruent","uniform","1","undefined","1","h","49","0","0","0","49","0","49","0","49","0","0","0","49","49","49","49","Thu Sep 23 17:07:14 2021","1500","The main experiment item","yes","Flankertask.osexp","/Users/mihailcodreanu/Desktop","no","mono","no","18","no","white","no","yes","768","legacy","49","49","/Users/mihailcodreanu/Desktop/mc-subject-3.csv","legacy","Lentiform Loewenfeld","3.3.9","0","h","NA","h","NA","NA","h","351","NA","21013","NA","NA","351","2","legacy","1024","2","48000","-16","experiment","SSHSS","3","odd","103440","24302","NA","NA","31953","3275","NA","NA","104489","3283","NA","NA","104593","104945","104485","104593","Flanker task ","47","22023","50","yes","1024"
"94.11764705882354","94.11764705882354","439.62745098039215","439.62745098039215","black","legacy","legacy","legacy","0","incongruent","uniform","1","undefined","1","s","50","0","0","0","50","0","50","0","50","0","0","0","50","50","50","50","Thu Sep 23 17:07:14 2021","1500","The main experiment item","yes","Flankertask.osexp","/Users/mihailcodreanu/Desktop","no","mono","no","18","no","white","no","yes","768","legacy","50","50","/Users/mihailcodreanu/Desktop/mc-subject-3.csv","legacy","Lentiform Loewenfeld","3.3.9","0","s","NA","h","NA","NA","s","398","NA","21013","NA","NA","398","2","legacy","1024","2","48000","-16","experiment","HHSHH","3","odd","104951","24302","NA","NA","31953","3275","NA","NA","106002","3283","NA","NA","106106","106505","105998","106106","Flanker task ","48","22421","51","yes","1024"
"94.23076923076923","94.23076923076923","437.59615384615387","437.59615384615387","black","legacy","legacy","legacy","0","incongruent","uniform","1","undefined","1","h","51","0","0","0","51","0","51","0","51","0","0","0","51","51","51","51","Thu Sep 23 17:07:14 2021","1500","The main experiment item","yes","Flankertask.osexp","/Users/mihailcodreanu/Desktop","no","mono","no","18","no","white","no","yes","768","legacy","51","51","/Users/mihailcodreanu/Desktop/mc-subject-3.csv","legacy","Lentiform Loewenfeld","3.3.9","0","h","NA","h","NA","NA","h","334","NA","21013","NA","NA","334","2","legacy","1024","2","48000","-16","experiment","SSHSS","3","odd","106511","24302","NA","NA","31953","3275","NA","NA","107562","3283","NA","NA","107666","108001","107559","107666","Flanker task ","49","22755","52","yes","1024"
"92.45283018867924","92.45283018867924","435.20754716981133","435.20754716981133","black","legacy","legacy","legacy","0","incongruent","uniform","0","undefined","0","h","52","0","0","0","52","0","52","0","52","0","0","0","52","52","52","52","Thu Sep 23 17:07:14 2021","1500","The main experiment item","yes","Flankertask.osexp","/Users/mihailcodreanu/Desktop","no","mono","no","18","no","white","no","yes","768","legacy","52","52","/Users/mihailcodreanu/Desktop/mc-subject-3.csv","legacy","Lentiform Loewenfeld","3.3.9","0","s","NA","h","NA","NA","s","311","NA","21013","NA","NA","311","2","legacy","1024","2","48000","-16","experiment","SSHSS","3","odd","108007","24302","NA","NA","31953","3275","NA","NA","109057","3283","NA","NA","109161","109473","109053","109161","Flanker task ","49","23066","53","yes","1024"
"92.5925925925926","92.5925925925926","434.8333333333333","434.8333333333333","black","legacy","legacy","legacy","0","incongruent","uniform","1","undefined","1","s","53","0","0","0","53","0","53","0","53","0","0","0","53","53","53","53","Thu Sep 23 17:07:14 2021","1500","The main experiment item","yes","Flankertask.osexp","/Users/mihailcodreanu/Desktop","no","mono","no","18","no","white","no","yes","768","legacy","53","53","/Users/mihailcodreanu/Desktop/mc-subject-3.csv","legacy","Lentiform Loewenfeld","3.3.9","0","s","NA","h","NA","NA","s","415","NA","21013","NA","NA","415","2","legacy","1024","2","48000","-16","experiment","HHSHH","3","odd","109984","24302","NA","NA","109480","3275","NA","NA","111033","3283","NA","NA","111137","111553","111030","111137","Flanker task ","50","23481","54","yes","1024"
"92.72727272727273","92.72727272727273","433.1454545454545","433.1454545454545","black","legacy","legacy","legacy","0","congruent","uniform","1","undefined","1","h","54","0","0","0","54","0","54","0","54","0","0","0","54","54","54","54","Thu Sep 23 17:07:14 2021","1500","The main experiment item","yes","Flankertask.osexp","/Users/mihailcodreanu/Desktop","no","mono","no","18","no","white","no","yes","768","legacy","54","54","/Users/mihailcodreanu/Desktop/mc-subject-3.csv","legacy","Lentiform Loewenfeld","3.3.9","0","h","NA","h","NA","NA","h","342","NA","21013","NA","NA","342","2","legacy","1024","2","48000","-16","experiment","HHHHH","3","odd","111559","24302","NA","NA","109480","3275","NA","NA","112609","3283","NA","NA","112714","113056","112605","112714","Flanker task ","51","23823","55","yes","1024"
"92.85714285714286","92.85714285714286","433.375","433.375","black","legacy","legacy","legacy","0","incongruent","uniform","1","undefined","1","h","55","0","0","0","55","0","55","0","55","0","0","0","55","55","55","55","Thu Sep 23 17:07:14 2021","1500","The main experiment item","yes","Flankertask.osexp","/Users/mihailcodreanu/Desktop","no","mono","no","18","no","white","no","yes","768","legacy","55","55","/Users/mihailcodreanu/Desktop/mc-subject-3.csv","legacy","Lentiform Loewenfeld","3.3.9","0","h","NA","h","NA","NA","h","446","NA","21013","NA","NA","446","2","legacy","1024","2","48000","-16","experiment","SSHSS","3","odd","113063","24302","NA","NA","109480","3275","NA","NA","114114","3283","NA","NA","114218","114665","114109","114218","Flanker task ","52","24269","56","yes","1024"
"92.98245614035088","92.98245614035088","431.36842105263156","431.36842105263156","black","legacy","legacy","legacy","0","incongruent","uniform","1","undefined","1","h","56","0","0","0","56","0","56","0","56","0","0","0","56","56","56","56","Thu Sep 23 17:07:14 2021","1500","The main experiment item","yes","Flankertask.osexp","/Users/mihailcodreanu/Desktop","no","mono","no","18","no","white","no","yes","768","legacy","56","56","/Users/mihailcodreanu/Desktop/mc-subject-3.csv","legacy","Lentiform Loewenfeld","3.3.9","0","h","NA","h","NA","NA","h","319","NA","21013","NA","NA","319","2","legacy","1024","2","48000","-16","experiment","SSHSS","3","odd","114670","24302","NA","NA","109480","3275","NA","NA","115721","3283","NA","NA","115825","116145","115717","115825","Flanker task ","53","24588","57","yes","1024"
"93.10344827586206","93.10344827586206","431.62068965517244","431.62068965517244","black","legacy","legacy","legacy","0","incongruent","uniform","1","undefined","1","s","57","0","0","0","57","0","57","0","57","0","0","0","57","57","57","57","Thu Sep 23 17:07:14 2021","1500","The main experiment item","yes","Flankertask.osexp","/Users/mihailcodreanu/Desktop","no","mono","no","18","no","white","no","yes","768","legacy","57","57","/Users/mihailcodreanu/Desktop/mc-subject-3.csv","legacy","Lentiform Loewenfeld","3.3.9","0","s","NA","h","NA","NA","s","446","NA","21013","NA","NA","446","2","legacy","1024","2","48000","-16","experiment","HHSHH","3","odd","116151","24302","NA","NA","109480","3275","NA","NA","117202","3283","NA","NA","117306","117753","117197","117305","Flanker task ","54","25034","58","yes","1024"
"93.22033898305085","93.22033898305085","431.3220338983051","431.3220338983051","black","legacy","legacy","legacy","0","incongruent","uniform","1","undefined","1","s","58","0","0","0","58","0","58","0","58","0","0","0","58","58","58","58","Thu Sep 23 17:07:14 2021","1500","The main experiment item","yes","Flankertask.osexp","/Users/mihailcodreanu/Desktop","no","mono","no","18","no","white","no","yes","768","legacy","58","58","/Users/mihailcodreanu/Desktop/mc-subject-3.csv","legacy","Lentiform Loewenfeld","3.3.9","0","s","NA","h","NA","NA","s","414","NA","21013","NA","NA","414","2","legacy","1024","2","48000","-16","experiment","HHSHH","3","odd","117759","24302","NA","NA","109480","3275","NA","NA","118810","3283","NA","NA","118914","119329","118806","118914","Flanker task ","55","25448","59","yes","1024"
"93.33333333333333","93.33333333333333","430.51666666666665","430.51666666666665","black","legacy","legacy","legacy","0","incongruent","uniform","1","undefined","1","h","59","0","0","0","59","0","59","0","59","0","0","0","59","59","59","59","Thu Sep 23 17:07:14 2021","1500","The main experiment item","yes","Flankertask.osexp","/Users/mihailcodreanu/Desktop","no","mono","no","18","no","white","no","yes","768","legacy","59","59","/Users/mihailcodreanu/Desktop/mc-subject-3.csv","legacy","Lentiform Loewenfeld","3.3.9","0","h","NA","h","NA","NA","h","383","NA","21013","NA","NA","383","2","legacy","1024","2","48000","-16","experiment","SSHSS","3","odd","119335","24302","NA","NA","109480","3275","NA","NA","120385","3283","NA","NA","120489","120873","120381","120489","Flanker task ","56","25831","60","yes","1024"
"93.44262295081967","93.44262295081967","429.1967213114754","429.1967213114754","black","legacy","legacy","legacy","0","incongruent","uniform","1","undefined","1","h","60","0","0","0","60","0","60","0","60","0","0","0","60","60","60","60","Thu Sep 23 17:07:14 2021","1500","The main experiment item","yes","Flankertask.osexp","/Users/mihailcodreanu/Desktop","no","mono","no","18","no","white","no","yes","768","legacy","60","60","/Users/mihailcodreanu/Desktop/mc-subject-3.csv","legacy","Lentiform Loewenfeld","3.3.9","0","h","NA","h","NA","NA","h","350","NA","21013","NA","NA","350","2","legacy","1024","2","48000","-16","experiment","SSHSS","3","odd","120879","24302","NA","NA","109480","3275","NA","NA","121929","3283","NA","NA","122034","122385","121925","122034","Flanker task ","57","26181","61","yes","1024"
"93.54838709677419","93.54838709677419","430.1290322580645","430.1290322580645","black","legacy","legacy","legacy","0","incongruent","uniform","1","undefined","1","h","61","0","0","0","61","0","61","0","61","0","0","0","61","61","61","61","Thu Sep 23 17:07:14 2021","1500","The main experiment item","yes","Flankertask.osexp","/Users/mihailcodreanu/Desktop","no","mono","no","18","no","white","no","yes","768","legacy","61","61","/Users/mihailcodreanu/Desktop/mc-subject-3.csv","legacy","Lentiform Loewenfeld","3.3.9","0","h","NA","h","NA","NA","h","487","NA","21013","NA","NA","487","2","legacy","1024","2","48000","-16","experiment","SSHSS","3","odd","122391","24302","NA","NA","109480","3275","NA","NA","123441","3283","NA","NA","123545","124033","123437","123545","Flanker task ","58","26668","62","yes","1024"
"93.65079365079364","93.65079365079364","429.8253968253968","429.8253968253968","black","legacy","legacy","legacy","0","congruent","uniform","1","undefined","1","s","62","0","0","0","62","0","62","0","62","0","0","0","62","62","62","62","Thu Sep 23 17:07:14 2021","1500","The main experiment item","yes","Flankertask.osexp","/Users/mihailcodreanu/Desktop","no","mono","no","18","no","white","no","yes","768","legacy","62","62","/Users/mihailcodreanu/Desktop/mc-subject-3.csv","legacy","Lentiform Loewenfeld","3.3.9","0","s","NA","h","NA","NA","s","411","NA","21013","NA","NA","411","2","legacy","1024","2","48000","-16","experiment","SSSSS","3","odd","124039","24302","NA","NA","109480","3275","NA","NA","125092","3283","NA","NA","125197","125609","125089","125197","Flanker task ","59","27079","63","yes","1024"
"93.75","93.75","428.453125","428.453125","black","legacy","legacy","legacy","0","incongruent","uniform","1","undefined","1","s","63","0","0","0","63","0","63","0","63","0","0","0","63","63","63","63","Thu Sep 23 17:07:14 2021","1500","The main experiment item","yes","Flankertask.osexp","/Users/mihailcodreanu/Desktop","no","mono","no","18","no","white","no","yes","768","legacy","63","63","/Users/mihailcodreanu/Desktop/mc-subject-3.csv","legacy","Lentiform Loewenfeld","3.3.9","0","s","NA","h","NA","NA","s","342","NA","21013","NA","NA","342","2","legacy","1024","2","48000","-16","experiment","HHSHH","3","odd","125615","24302","NA","NA","109480","3275","NA","NA","126666","3283","NA","NA","126770","127113","126662","126770","Flanker task ","60","27421","64","yes","1024"
"93.84615384615384","93.84615384615384","428.5846153846154","428.5846153846154","black","legacy","legacy","legacy","0","incongruent","uniform","1","undefined","1","s","64","0","0","0","64","0","64","0","64","0","0","0","64","64","64","64","Thu Sep 23 17:07:14 2021","1500","The main experiment item","yes","Flankertask.osexp","/Users/mihailcodreanu/Desktop","no","mono","no","18","no","white","no","yes","768","legacy","64","64","/Users/mihailcodreanu/Desktop/mc-subject-3.csv","legacy","Lentiform Loewenfeld","3.3.9","0","s","NA","h","NA","NA","s","437","NA","21013","NA","NA","437","2","legacy","1024","2","48000","-16","experiment","HHSHH","3","odd","127119","24302","NA","NA","109480","3275","NA","NA","128171","3283","NA","NA","128275","128713","128167","128274","Flanker task ","61","27858","65","yes","1024"
"93.93939393939394","93.93939393939394","428.6969696969697","428.6969696969697","black","legacy","legacy","legacy","0","incongruent","uniform","1","undefined","1","h","65","0","0","0","65","0","65","0","65","0","0","0","65","65","65","65","Thu Sep 23 17:07:14 2021","1500","The main experiment item","yes","Flankertask.osexp","/Users/mihailcodreanu/Desktop","no","mono","no","18","no","white","no","yes","768","legacy","65","65","/Users/mihailcodreanu/Desktop/mc-subject-3.csv","legacy","Lentiform Loewenfeld","3.3.9","0","h","NA","h","NA","NA","h","436","NA","21013","NA","NA","436","2","legacy","1024","2","48000","-16","experiment","SSHSS","3","odd","128719","24302","NA","NA","109480","3275","NA","NA","129772","3283","NA","NA","129876","130313","129768","129875","Flanker task ","62","28294","66","yes","1024"
"94.02985074626865","94.02985074626865","428.2686567164179","428.2686567164179","black","legacy","legacy","legacy","0","congruent","uniform","1","undefined","1","s","66","0","0","0","66","0","66","0","66","0","0","0","66","66","66","66","Thu Sep 23 17:07:14 2021","1500","The main experiment item","yes","Flankertask.osexp","/Users/mihailcodreanu/Desktop","no","mono","no","18","no","white","no","yes","768","legacy","66","66","/Users/mihailcodreanu/Desktop/mc-subject-3.csv","legacy","Lentiform Loewenfeld","3.3.9","0","s","NA","h","NA","NA","s","400","NA","21013","NA","NA","400","2","legacy","1024","2","48000","-16","experiment","SSSSS","3","odd","130317","24302","NA","NA","109480","3275","NA","NA","131368","3283","NA","NA","131472","131873","131365","131472","Flanker task ","63","28694","67","yes","1024"
"94.11764705882354","94.11764705882354","427.5882352941176","427.5882352941176","black","legacy","legacy","legacy","0","incongruent","uniform","1","undefined","1","s","67","0","0","0","67","0","67","0","67","0","0","0","67","67","67","67","Thu Sep 23 17:07:14 2021","1500","The main experiment item","yes","Flankertask.osexp","/Users/mihailcodreanu/Desktop","no","mono","no","18","no","white","no","yes","768","legacy","67","67","/Users/mihailcodreanu/Desktop/mc-subject-3.csv","legacy","Lentiform Loewenfeld","3.3.9","0","s","NA","h","NA","NA","s","382","NA","21013","NA","NA","382","2","legacy","1024","2","48000","-16","experiment","HHSHH","3","odd","131879","24302","NA","NA","109480","3275","NA","NA","132929","3283","NA","NA","133034","133417","132926","133034","Flanker task ","64","29076","68","yes","1024"
"94.20289855072464","94.20289855072464","426.94202898550725","426.94202898550725","black","legacy","legacy","legacy","0","congruent","uniform","1","undefined","1","h","68","0","0","0","68","0","68","0","68","0","0","0","68","68","68","68","Thu Sep 23 17:07:14 2021","1500","The main experiment item","yes","Flankertask.osexp","/Users/mihailcodreanu/Desktop","no","mono","no","18","no","white","no","yes","768","legacy","68","68","/Users/mihailcodreanu/Desktop/mc-subject-3.csv","legacy","Lentiform Loewenfeld","3.3.9","0","h","NA","h","NA","NA","h","383","NA","21013","NA","NA","383","2","legacy","1024","2","48000","-16","experiment","HHHHH","3","odd","133422","24302","NA","NA","109480","3275","NA","NA","134473","3283","NA","NA","134577","134961","134469","134577","Flanker task ","65","29459","69","yes","1024"
"94.28571428571429","94.28571428571429","426.5285714285714","426.5285714285714","black","legacy","legacy","legacy","0","congruent","uniform","1","undefined","1","h","69","0","0","0","69","0","69","0","69","0","0","0","69","69","69","69","Thu Sep 23 17:07:14 2021","1500","The main experiment item","yes","Flankertask.osexp","/Users/mihailcodreanu/Desktop","no","mono","no","18","no","white","no","yes","768","legacy","69","69","/Users/mihailcodreanu/Desktop/mc-subject-3.csv","legacy","Lentiform Loewenfeld","3.3.9","0","h","NA","h","NA","NA","h","398","NA","21013","NA","NA","398","2","legacy","1024","2","48000","-16","experiment","HHHHH","3","odd","134968","24302","NA","NA","109480","3275","NA","NA","136017","3283","NA","NA","136122","136521","136013","136121","Flanker task ","66","29857","70","yes","1024"
"94.36619718309859","94.36619718309859","425.4788732394366","425.4788732394366","black","legacy","legacy","legacy","0","congruent","uniform","1","undefined","1","h","70","0","0","0","70","0","70","0","70","0","0","0","70","70","70","70","Thu Sep 23 17:07:14 2021","1500","The main experiment item","yes","Flankertask.osexp","/Users/mihailcodreanu/Desktop","no","mono","no","18","no","white","no","yes","768","legacy","70","70","/Users/mihailcodreanu/Desktop/mc-subject-3.csv","legacy","Lentiform Loewenfeld","3.3.9","0","h","NA","h","NA","NA","h","352","NA","21013","NA","NA","352","2","legacy","1024","2","48000","-16","experiment","HHHHH","3","odd","136527","24302","NA","NA","109480","3275","NA","NA","137577","3283","NA","NA","137680","138033","137573","137680","Flanker task ","67","30209","71","yes","1024"
"94.44444444444444","94.44444444444444","424.7638888888889","424.7638888888889","black","legacy","legacy","legacy","0","congruent","uniform","1","undefined","1","s","71","0","0","0","71","0","71","0","71","0","0","0","71","71","71","71","Thu Sep 23 17:07:14 2021","1500","The main experiment item","yes","Flankertask.osexp","/Users/mihailcodreanu/Desktop","no","mono","no","18","no","white","no","yes","768","legacy","71","71","/Users/mihailcodreanu/Desktop/mc-subject-3.csv","legacy","Lentiform Loewenfeld","3.3.9","0","s","NA","h","NA","NA","s","374","NA","21013","NA","NA","374","2","legacy","1024","2","48000","-16","experiment","SSSSS","3","odd","138039","24302","NA","NA","109480","3275","NA","NA","139090","3283","NA","NA","139194","139569","139086","139194","Flanker task ","68","30583","72","yes","1024"
"94.52054794520548","94.52054794520548","423.82191780821915","423.82191780821915","black","legacy","legacy","legacy","0","incongruent","uniform","1","undefined","1","s","72","0","0","0","72","0","72","0","72","0","0","0","72","72","72","72","Thu Sep 23 17:07:14 2021","1500","The main experiment item","yes","Flankertask.osexp","/Users/mihailcodreanu/Desktop","no","mono","no","18","no","white","no","yes","768","legacy","72","72","/Users/mihailcodreanu/Desktop/mc-subject-3.csv","legacy","Lentiform Loewenfeld","3.3.9","0","s","NA","h","NA","NA","s","356","NA","21013","NA","NA","356","2","legacy","1024","2","48000","-16","experiment","HHSHH","3","odd","139576","24302","NA","NA","109480","3275","NA","NA","140628","3283","NA","NA","140732","141089","140624","140732","Flanker task ","69","30939","73","yes","1024"
"94.5945945945946","94.5945945945946","423.47297297297297","423.47297297297297","black","legacy","legacy","legacy","0","congruent","uniform","1","undefined","1","s","73","0","0","0","73","0","73","0","73","0","0","0","73","73","73","73","Thu Sep 23 17:07:14 2021","1500","The main experiment item","yes","Flankertask.osexp","/Users/mihailcodreanu/Desktop","no","mono","no","18","no","white","no","yes","768","legacy","73","73","/Users/mihailcodreanu/Desktop/mc-subject-3.csv","legacy","Lentiform Loewenfeld","3.3.9","0","s","NA","h","NA","NA","s","398","NA","21013","NA","NA","398","2","legacy","1024","2","48000","-16","experiment","SSSSS","3","odd","141095","24302","NA","NA","109480","3275","NA","NA","142146","3283","NA","NA","142250","142649","142142","142250","Flanker task ","70","31337","74","yes","1024"
"94.66666666666667","94.66666666666667","422.72","422.72","black","legacy","legacy","legacy","0","congruent","uniform","1","undefined","1","s","74","0","0","0","74","0","74","0","74","0","0","0","74","74","74","74","Thu Sep 23 17:07:14 2021","1500","The main experiment item","yes","Flankertask.osexp","/Users/mihailcodreanu/Desktop","no","mono","no","18","no","white","no","yes","768","legacy","74","74","/Users/mihailcodreanu/Desktop/mc-subject-3.csv","legacy","Lentiform Loewenfeld","3.3.9","0","s","NA","h","NA","NA","s","367","NA","21013","NA","NA","367","2","legacy","1024","2","48000","-16","experiment","SSSSS","3","odd","142655","24302","NA","NA","109480","3275","NA","NA","143705","3283","NA","NA","143809","144177","143701","143809","Flanker task ","71","31704","75","yes","1024"
"94.73684210526316","94.73684210526316","422.5921052631579","422.5921052631579","black","legacy","legacy","legacy","0","congruent","uniform","1","undefined","1","s","75","0","0","0","75","0","75","0","75","0","0","0","75","75","75","75","Thu Sep 23 17:07:14 2021","1500","The main experiment item","yes","Flankertask.osexp","/Users/mihailcodreanu/Desktop","no","mono","no","18","no","white","no","yes","768","legacy","75","75","/Users/mihailcodreanu/Desktop/mc-subject-3.csv","legacy","Lentiform Loewenfeld","3.3.9","0","s","NA","h","NA","NA","s","413","NA","21013","NA","NA","413","2","legacy","1024","2","48000","-16","experiment","SSSSS","3","odd","144184","24302","NA","NA","109480","3275","NA","NA","145235","3283","NA","NA","145339","145753","145231","145339","Flanker task ","72","32117","76","yes","1024"
"94.8051948051948","94.8051948051948","423.1948051948052","423.1948051948052","black","legacy","legacy","legacy","0","incongruent","uniform","1","undefined","1","s","76","0","0","0","76","0","76","0","76","0","0","0","76","76","76","76","Thu Sep 23 17:07:14 2021","1500","The main experiment item","yes","Flankertask.osexp","/Users/mihailcodreanu/Desktop","no","mono","no","18","no","white","no","yes","768","legacy","76","76","/Users/mihailcodreanu/Desktop/mc-subject-3.csv","legacy","Lentiform Loewenfeld","3.3.9","0","s","NA","h","NA","NA","s","469","NA","21013","NA","NA","469","2","legacy","1024","2","48000","-16","experiment","HHSHH","3","odd","145759","24302","NA","NA","109480","3275","NA","NA","146810","3283","NA","NA","146915","147385","146807","146915","Flanker task ","73","32586","77","yes","1024"
"94.87179487179488","94.87179487179488","422.97435897435895","422.97435897435895","black","legacy","legacy","legacy","0","congruent","uniform","1","undefined","1","h","77","0","0","0","77","0","77","0","77","0","0","0","77","77","77","77","Thu Sep 23 17:07:14 2021","1500","The main experiment item","yes","Flankertask.osexp","/Users/mihailcodreanu/Desktop","no","mono","no","18","no","white","no","yes","768","legacy","77","77","/Users/mihailcodreanu/Desktop/mc-subject-3.csv","legacy","Lentiform Loewenfeld","3.3.9","0","h","NA","h","NA","NA","h","406","NA","21013","NA","NA","406","2","legacy","1024","2","48000","-16","experiment","HHHHH","3","odd","147391","24302","NA","NA","109480","3275","NA","NA","148442","3283","NA","NA","148546","148953","148438","148546","Flanker task ","74","32992","78","yes","1024"
"94.9367088607595","94.9367088607595","422.44303797468353","422.44303797468353","black","legacy","legacy","legacy","0","incongruent","uniform","1","undefined","1","h","78","0","0","0","78","0","78","0","78","0","0","0","78","78","78","78","Thu Sep 23 17:07:14 2021","1500","The main experiment item","yes","Flankertask.osexp","/Users/mihailcodreanu/Desktop","no","mono","no","18","no","white","no","yes","768","legacy","78","78","/Users/mihailcodreanu/Desktop/mc-subject-3.csv","legacy","Lentiform Loewenfeld","3.3.9","0","h","NA","h","NA","NA","h","381","NA","21013","NA","NA","381","2","legacy","1024","2","48000","-16","experiment","SSHSS","3","odd","148960","24302","NA","NA","109480","3275","NA","NA","150010","3283","NA","NA","150115","150497","150006","150115","Flanker task ","75","33373","79","yes","1024"
"95","95","422.45","422.45","black","legacy","legacy","legacy","0","congruent","uniform","1","undefined","1","s","79","0","0","0","79","0","79","0","79","0","0","0","79","79","79","79","Thu Sep 23 17:07:14 2021","1500","The main experiment item","yes","Flankertask.osexp","/Users/mihailcodreanu/Desktop","no","mono","no","18","no","white","no","yes","768","legacy","79","79","/Users/mihailcodreanu/Desktop/mc-subject-3.csv","legacy","Lentiform Loewenfeld","3.3.9","0","s","NA","h","NA","NA","s","423","NA","21013","NA","NA","423","2","legacy","1024","2","48000","-16","experiment","SSSSS","3","odd","150504","24302","NA","NA","109480","3275","NA","NA","151553","3283","NA","NA","151657","152081","151549","151656","Flanker task ","76","33796","80","yes","1024"
"95.06172839506173","95.06172839506173","422.1604938271605","422.1604938271605","black","legacy","legacy","legacy","0","congruent","uniform","1","undefined","1","s","80","0","0","0","80","0","80","0","80","0","0","0","80","80","80","80","Thu Sep 23 17:07:14 2021","600","The main experiment item","yes","Flankertask.osexp","/Users/mihailcodreanu/Desktop","no","mono","no","18","no","white","no","yes","768","legacy","0","79","/Users/mihailcodreanu/Desktop/mc-subject-3.csv","legacy","Lentiform Loewenfeld","3.3.9","0","s","NA","h","h","NA","s","399","NA","21013","10719","NA","399","2","legacy","1024","2","48000","-16","experiment","SSSSS","3","odd","152087","24302","163833","NA","109480","3275","NA","NA","163865","3283","153113","NA","163969","164369","163861","163969","Flanker task ","77","34195","81","yes","1024"
"95.1219512195122","95.1219512195122","422.1463414634146","422.1463414634146","black","legacy","legacy","legacy","0","incongruent","uniform","1","undefined","1","h","81","0","0","0","81","0","81","0","81","0","0","0","81","81","81","81","Thu Sep 23 17:07:14 2021","600","The main experiment item","yes","Flankertask.osexp","/Users/mihailcodreanu/Desktop","no","mono","no","18","no","white","no","yes","768","legacy","1","79","/Users/mihailcodreanu/Desktop/mc-subject-3.csv","legacy","Lentiform Loewenfeld","3.3.9","0","h","NA","h","h","NA","h","421","NA","21013","10719","NA","421","2","legacy","1024","2","48000","-16","experiment","SSHSS","3","odd","164375","24302","163833","NA","109480","3275","NA","NA","165427","3283","153113","NA","165531","165953","165423","165531","Flanker task ","78","34616","82","yes","1024"
"95.18072289156626","95.18072289156626","420.87951807228916","420.87951807228916","black","legacy","legacy","legacy","0","incongruent","uniform","1","undefined","1","s","82","0","0","0","82","0","82","0","82","0","0","0","82","82","82","82","Thu Sep 23 17:07:14 2021","600","The main experiment item","yes","Flankertask.osexp","/Users/mihailcodreanu/Desktop","no","mono","no","18","no","white","no","yes","768","legacy","2","79","/Users/mihailcodreanu/Desktop/mc-subject-3.csv","legacy","Lentiform Loewenfeld","3.3.9","0","s","NA","h","h","NA","s","317","NA","21013","10719","NA","317","2","legacy","1024","2","48000","-16","experiment","HHSHH","3","odd","165960","24302","163833","NA","109480","3275","NA","NA","167011","3283","153113","NA","167115","167433","167006","167115","Flanker task ","79","34933","83","yes","1024"
"95.23809523809524","95.23809523809524","419.57142857142856","419.57142857142856","black","legacy","legacy","legacy","0","incongruent","uniform","1","undefined","1","h","83","0","0","0","83","0","83","0","83","0","0","0","83","83","83","83","Thu Sep 23 17:07:14 2021","600","The main experiment item","yes","Flankertask.osexp","/Users/mihailcodreanu/Desktop","no","mono","no","18","no","white","no","yes","768","legacy","3","79","/Users/mihailcodreanu/Desktop/mc-subject-3.csv","legacy","Lentiform Loewenfeld","3.3.9","0","h","NA","h","h","NA","h","311","NA","21013","10719","NA","311","2","legacy","1024","2","48000","-16","experiment","SSHSS","3","odd","167439","24302","163833","NA","109480","3275","NA","NA","168489","3283","153113","NA","168593","168905","168486","168593","Flanker task ","80","35244","84","yes","1024"
"94.11764705882354","94.11764705882354","418.2705882352941","418.2705882352941","black","legacy","legacy","legacy","0","incongruent","uniform","0","undefined","0","h","84","0","0","0","84","0","84","0","84","0","0","0","84","84","84","84","Thu Sep 23 17:07:14 2021","600","The main experiment item","yes","Flankertask.osexp","/Users/mihailcodreanu/Desktop","no","mono","no","18","no","white","no","yes","768","legacy","4","79","/Users/mihailcodreanu/Desktop/mc-subject-3.csv","legacy","Lentiform Loewenfeld","3.3.9","0","s","NA","h","h","NA","s","309","NA","21013","10719","NA","309","2","legacy","1024","2","48000","-16","experiment","SSHSS","3","odd","168911","24302","163833","NA","109480","3275","NA","NA","169963","3283","153113","NA","170067","170377","169959","170067","Flanker task ","80","35553","85","yes","1024"
"94.18604651162791","94.18604651162791","418.51162790697674","418.51162790697674","black","legacy","legacy","legacy","0","congruent","uniform","1","undefined","1","s","85","0","0","0","85","0","85","0","85","0","0","0","85","85","85","85","Thu Sep 23 17:07:14 2021","600","The main experiment item","yes","Flankertask.osexp","/Users/mihailcodreanu/Desktop","no","mono","no","18","no","white","no","yes","768","legacy","5","79","/Users/mihailcodreanu/Desktop/mc-subject-3.csv","legacy","Lentiform Loewenfeld","3.3.9","0","s","NA","h","h","NA","s","439","NA","21013","10719","NA","439","2","legacy","1024","2","48000","-16","experiment","SSSSS","3","odd","170887","24302","163833","NA","170383","3275","NA","NA","171936","3283","153113","NA","172041","172481","171932","172041","Flanker task ","81","35992","86","yes","1024"
"94.25287356321839","94.25287356321839","418.71264367816093","418.71264367816093","black","legacy","legacy","legacy","0","incongruent","uniform","1","undefined","1","h","86","0","0","0","86","0","86","0","86","0","0","0","86","86","86","86","Thu Sep 23 17:07:14 2021","600","The main experiment item","yes","Flankertask.osexp","/Users/mihailcodreanu/Desktop","no","mono","no","18","no","white","no","yes","768","legacy","6","79","/Users/mihailcodreanu/Desktop/mc-subject-3.csv","legacy","Lentiform Loewenfeld","3.3.9","0","h","NA","h","h","NA","h","436","NA","21013","10719","NA","436","2","legacy","1024","2","48000","-16","experiment","SSHSS","3","odd","172487","24302","163833","NA","170383","3275","NA","NA","173540","3283","153113","NA","173644","174081","173536","173644","Flanker task ","82","36428","87","yes","1024"
"94.31818181818181","94.31818181818181","418.22727272727275","418.22727272727275","black","legacy","legacy","legacy","0","congruent","uniform","1","undefined","1","h","87","0","0","0","87","0","87","0","87","0","0","0","87","87","87","87","Thu Sep 23 17:07:14 2021","600","The main experiment item","yes","Flankertask.osexp","/Users/mihailcodreanu/Desktop","no","mono","no","18","no","white","no","yes","768","legacy","7","79","/Users/mihailcodreanu/Desktop/mc-subject-3.csv","legacy","Lentiform Loewenfeld","3.3.9","0","h","NA","h","h","NA","h","376","NA","21013","10719","NA","376","2","legacy","1024","2","48000","-16","experiment","HHHHH","3","odd","174087","24302","163833","NA","170383","3275","NA","NA","175136","3283","153113","NA","175240","175617","175133","175240","Flanker task ","83","36804","88","yes","1024"
"94.38202247191012","94.38202247191012","417.4719101123595","417.4719101123595","black","legacy","legacy","legacy","0","congruent","uniform","1","undefined","1","h","88","0","0","0","88","0","88","0","88","0","0","0","88","88","88","88","Thu Sep 23 17:07:14 2021","600","The main experiment item","yes","Flankertask.osexp","/Users/mihailcodreanu/Desktop","no","mono","no","18","no","white","no","yes","768","legacy","8","79","/Users/mihailcodreanu/Desktop/mc-subject-3.csv","legacy","Lentiform Loewenfeld","3.3.9","0","h","NA","h","h","NA","h","351","NA","21013","10719","NA","351","2","legacy","1024","2","48000","-16","experiment","HHHHH","3","odd","175623","24302","163833","NA","170383","3275","NA","NA","176673","3283","153113","NA","176777","177129","176669","176777","Flanker task ","84","37155","89","yes","1024"
"94.44444444444444","94.44444444444444","418.52222222222224","418.52222222222224","black","legacy","legacy","legacy","0","incongruent","uniform","1","undefined","1","s","89","0","0","0","89","0","89","0","89","0","0","0","89","89","89","89","Thu Sep 23 17:07:14 2021","600","The main experiment item","yes","Flankertask.osexp","/Users/mihailcodreanu/Desktop","no","mono","no","18","no","white","no","yes","768","legacy","9","79","/Users/mihailcodreanu/Desktop/mc-subject-3.csv","legacy","Lentiform Loewenfeld","3.3.9","0","s","NA","h","h","NA","s","512","NA","21013","10719","NA","512","2","legacy","1024","2","48000","-16","experiment","HHSHH","3","odd","177135","24302","163833","NA","170383","3275","NA","NA","178184","3283","153113","NA","178288","178801","178181","178288","Flanker task ","85","37667","90","yes","1024"
"94.50549450549451","94.50549450549451","419.0989010989011","419.0989010989011","black","legacy","legacy","legacy","0","incongruent","uniform","1","undefined","1","h","90","0","0","0","90","0","90","0","90","0","0","0","90","90","90","90","Thu Sep 23 17:07:14 2021","600","The main experiment item","yes","Flankertask.osexp","/Users/mihailcodreanu/Desktop","no","mono","no","18","no","white","no","yes","768","legacy","10","79","/Users/mihailcodreanu/Desktop/mc-subject-3.csv","legacy","Lentiform Loewenfeld","3.3.9","0","h","NA","h","h","NA","h","471","NA","21013","10719","NA","471","2","legacy","1024","2","48000","-16","experiment","SSHSS","3","odd","178807","24302","163833","NA","170383","3275","NA","NA","179857","3283","153113","NA","179961","180433","179853","179961","Flanker task ","86","38138","91","yes","1024"
"94.56521739130434","94.56521739130434","418.2717391304348","418.2717391304348","black","legacy","legacy","legacy","0","congruent","uniform","1","undefined","1","s","91","0","0","0","91","0","91","0","91","0","0","0","91","91","91","91","Thu Sep 23 17:07:14 2021","600","The main experiment item","yes","Flankertask.osexp","/Users/mihailcodreanu/Desktop","no","mono","no","18","no","white","no","yes","768","legacy","11","79","/Users/mihailcodreanu/Desktop/mc-subject-3.csv","legacy","Lentiform Loewenfeld","3.3.9","0","s","NA","h","h","NA","s","343","NA","21013","10719","NA","343","2","legacy","1024","2","48000","-16","experiment","SSSSS","3","odd","180439","24302","163833","NA","170383","3275","NA","NA","181489","3283","153113","NA","181593","181937","181485","181593","Flanker task ","87","38481","92","yes","1024"
"94.6236559139785","94.6236559139785","417.18279569892474","417.18279569892474","black","legacy","legacy","legacy","0","incongruent","uniform","1","undefined","1","h","92","0","0","0","92","0","92","0","92","0","0","0","92","92","92","92","Thu Sep 23 17:07:14 2021","600","The main experiment item","yes","Flankertask.osexp","/Users/mihailcodreanu/Desktop","no","mono","no","18","no","white","no","yes","768","legacy","12","79","/Users/mihailcodreanu/Desktop/mc-subject-3.csv","legacy","Lentiform Loewenfeld","3.3.9","0","h","NA","h","h","NA","h","317","NA","21013","10719","NA","317","2","legacy","1024","2","48000","-16","experiment","SSHSS","3","odd","181944","24302","163833","NA","170383","3275","NA","NA","182994","3283","153113","NA","183099","183417","182991","183099","Flanker task ","88","38798","93","yes","1024"
"94.68085106382979","94.68085106382979","417.9255319148936","417.9255319148936","black","legacy","legacy","legacy","0","congruent","uniform","1","undefined","1","h","93","0","0","0","93","0","93","0","93","0","0","0","93","93","93","93","Thu Sep 23 17:07:14 2021","600","The main experiment item","yes","Flankertask.osexp","/Users/mihailcodreanu/Desktop","no","mono","no","18","no","white","no","yes","768","legacy","13","79","/Users/mihailcodreanu/Desktop/mc-subject-3.csv","legacy","Lentiform Loewenfeld","3.3.9","0","h","NA","h","h","NA","h","487","NA","21013","10719","NA","487","2","legacy","1024","2","48000","-16","experiment","HHHHH","3","odd","183423","24302","163833","NA","170383","3275","NA","NA","184473","3283","153113","NA","184577","185065","184469","184577","Flanker task ","89","39285","94","yes","1024"
"94.73684210526316","94.73684210526316","416.87368421052633","416.87368421052633","black","legacy","legacy","legacy","0","incongruent","uniform","1","undefined","1","h","94","0","0","0","94","0","94","0","94","0","0","0","94","94","94","94","Thu Sep 23 17:07:14 2021","600","The main experiment item","yes","Flankertask.osexp","/Users/mihailcodreanu/Desktop","no","mono","no","18","no","white","no","yes","768","legacy","14","79","/Users/mihailcodreanu/Desktop/mc-subject-3.csv","legacy","Lentiform Loewenfeld","3.3.9","0","h","NA","h","h","NA","h","318","NA","21013","10719","NA","318","2","legacy","1024","2","48000","-16","experiment","SSHSS","3","odd","185071","24302","163833","NA","170383","3275","NA","NA","186122","3283","153113","NA","186226","186545","186118","186226","Flanker task ","90","39603","95","yes","1024"
"94.79166666666667","94.79166666666667","416.5104166666667","416.5104166666667","black","legacy","legacy","legacy","0","congruent","uniform","1","undefined","1","h","95","0","0","0","95","0","95","0","95","0","0","0","95","95","95","95","Thu Sep 23 17:07:14 2021","600","The main experiment item","yes","Flankertask.osexp","/Users/mihailcodreanu/Desktop","no","mono","no","18","no","white","no","yes","768","legacy","15","79","/Users/mihailcodreanu/Desktop/mc-subject-3.csv","legacy","Lentiform Loewenfeld","3.3.9","0","h","NA","h","h","NA","h","382","NA","21013","10719","NA","382","2","legacy","1024","2","48000","-16","experiment","HHHHH","3","odd","186551","24302","163833","NA","170383","3275","NA","NA","187602","3283","153113","NA","187706","188089","187598","187706","Flanker task ","91","39985","96","yes","1024"
"94.84536082474227","94.84536082474227","416.8041237113402","416.8041237113402","black","legacy","legacy","legacy","0","incongruent","uniform","1","undefined","1","h","96","0","0","0","96","0","96","0","96","0","0","0","96","96","96","96","Thu Sep 23 17:07:14 2021","600","The main experiment item","yes","Flankertask.osexp","/Users/mihailcodreanu/Desktop","no","mono","no","18","no","white","no","yes","768","legacy","16","79","/Users/mihailcodreanu/Desktop/mc-subject-3.csv","legacy","Lentiform Loewenfeld","3.3.9","0","h","NA","h","h","NA","h","445","NA","21013","10719","NA","445","2","legacy","1024","2","48000","-16","experiment","SSHSS","3","odd","188095","24302","163833","NA","170383","3275","NA","NA","189147","3283","153113","NA","189251","189697","189143","189251","Flanker task ","92","40430","97","yes","1024"
"94.89795918367346","94.89795918367346","416.05102040816325","416.05102040816325","black","legacy","legacy","legacy","0","incongruent","uniform","1","undefined","1","h","97","0","0","0","97","0","97","0","97","0","0","0","97","97","97","97","Thu Sep 23 17:07:14 2021","600","The main experiment item","yes","Flankertask.osexp","/Users/mihailcodreanu/Desktop","no","mono","no","18","no","white","no","yes","768","legacy","17","79","/Users/mihailcodreanu/Desktop/mc-subject-3.csv","legacy","Lentiform Loewenfeld","3.3.9","0","h","NA","h","h","NA","h","343","NA","21013","10719","NA","343","2","legacy","1024","2","48000","-16","experiment","SSHSS","3","odd","189704","24302","163833","NA","170383","3275","NA","NA","190753","3283","153113","NA","190857","191201","190749","190857","Flanker task ","93","40773","98","yes","1024"
"94.94949494949495","94.94949494949495","415.93939393939394","415.93939393939394","black","legacy","legacy","legacy","0","congruent","uniform","1","undefined","1","s","98","0","0","0","98","0","98","0","98","0","0","0","98","98","98","98","Thu Sep 23 17:07:14 2021","600","The main experiment item","yes","Flankertask.osexp","/Users/mihailcodreanu/Desktop","no","mono","no","18","no","white","no","yes","768","legacy","18","79","/Users/mihailcodreanu/Desktop/mc-subject-3.csv","legacy","Lentiform Loewenfeld","3.3.9","0","s","NA","h","h","NA","s","405","NA","21013","10719","NA","405","2","legacy","1024","2","48000","-16","experiment","SSSSS","3","odd","191207","24302","163833","NA","170383","3275","NA","NA","192259","3283","153113","NA","192363","192769","192255","192363","Flanker task ","94","41178","99","yes","1024"
"95","95","415.92","415.92","black","legacy","legacy","legacy","0","incongruent","uniform","1","undefined","1","h","99","0","0","0","99","0","99","0","99","0","0","0","99","99","99","99","Thu Sep 23 17:07:14 2021","600","The main experiment item","yes","Flankertask.osexp","/Users/mihailcodreanu/Desktop","no","mono","no","18","no","white","no","yes","768","legacy","19","79","/Users/mihailcodreanu/Desktop/mc-subject-3.csv","legacy","Lentiform Loewenfeld","3.3.9","0","h","NA","h","h","NA","h","414","NA","21013","10719","NA","414","2","legacy","1024","2","48000","-16","experiment","SSHSS","3","odd","192775","24302","163833","NA","170383","3275","NA","NA","193826","3283","153113","NA","193930","194345","193822","193930","Flanker task ","95","41592","100","yes","1024"
"95.04950495049505","95.04950495049505","416.45544554455444","416.45544554455444","black","legacy","legacy","legacy","0","incongruent","uniform","1","undefined","1","s","100","0","0","0","100","0","100","0","100","0","0","0","100","100","100","100","Thu Sep 23 17:07:14 2021","600","The main experiment item","yes","Flankertask.osexp","/Users/mihailcodreanu/Desktop","no","mono","no","18","no","white","no","yes","768","legacy","20","79","/Users/mihailcodreanu/Desktop/mc-subject-3.csv","legacy","Lentiform Loewenfeld","3.3.9","0","s","NA","h","h","NA","s","470","NA","21013","10719","NA","470","2","legacy","1024","2","48000","-16","experiment","HHSHH","3","odd","194352","24302","163833","NA","170383","3275","NA","NA","195402","3283","153113","NA","195506","195977","195398","195506","Flanker task ","96","42062","101","yes","1024"
"95.09803921568627","95.09803921568627","416.3627450980392","416.3627450980392","black","legacy","legacy","legacy","0","incongruent","uniform","1","undefined","1","s","101","0","0","0","101","0","101","0","101","0","0","0","101","101","101","101","Thu Sep 23 17:07:14 2021","600","The main experiment item","yes","Flankertask.osexp","/Users/mihailcodreanu/Desktop","no","mono","no","18","no","white","no","yes","768","legacy","21","79","/Users/mihailcodreanu/Desktop/mc-subject-3.csv","legacy","Lentiform Loewenfeld","3.3.9","0","s","NA","h","h","NA","s","407","NA","21013","10719","NA","407","2","legacy","1024","2","48000","-16","experiment","HHSHH","3","odd","195983","24302","163833","NA","170383","3275","NA","NA","197033","3283","153113","NA","197137","197545","197029","197137","Flanker task ","97","42469","102","yes","1024"
"95.14563106796116","95.14563106796116","416.873786407767","416.873786407767","black","legacy","legacy","legacy","0","congruent","uniform","1","undefined","1","h","102","0","0","0","102","0","102","0","102","0","0","0","102","102","102","102","Thu Sep 23 17:07:14 2021","600","The main experiment item","yes","Flankertask.osexp","/Users/mihailcodreanu/Desktop","no","mono","no","18","no","white","no","yes","768","legacy","22","79","/Users/mihailcodreanu/Desktop/mc-subject-3.csv","legacy","Lentiform Loewenfeld","3.3.9","0","h","NA","h","h","NA","h","469","NA","21013","10719","NA","469","2","legacy","1024","2","48000","-16","experiment","HHHHH","3","odd","197551","24302","163833","NA","170383","3275","NA","NA","198603","3283","153113","NA","198707","199177","198600","198707","Flanker task ","98","42938","103","yes","1024"
"95.1923076923077","95.1923076923077","417.36538461538464","417.36538461538464","black","legacy","legacy","legacy","0","incongruent","uniform","1","undefined","1","s","103","0","0","0","103","0","103","0","103","0","0","0","103","103","103","103","Thu Sep 23 17:07:14 2021","600","The main experiment item","yes","Flankertask.osexp","/Users/mihailcodreanu/Desktop","no","mono","no","18","no","white","no","yes","768","legacy","23","79","/Users/mihailcodreanu/Desktop/mc-subject-3.csv","legacy","Lentiform Loewenfeld","3.3.9","0","s","NA","h","h","NA","s","468","NA","21013","10719","NA","468","2","legacy","1024","2","48000","-16","experiment","HHSHH","3","odd","199183","24302","163833","NA","170383","3275","NA","NA","200236","3283","153113","NA","200340","200809","200231","200340","Flanker task ","99","43406","104","yes","1024"
"95.23809523809524","95.23809523809524","417.26666666666665","417.26666666666665","black","legacy","legacy","legacy","0","incongruent","uniform","1","undefined","1","s","104","0","0","0","104","0","104","0","104","0","0","0","104","104","104","104","Thu Sep 23 17:07:14 2021","600","The main experiment item","yes","Flankertask.osexp","/Users/mihailcodreanu/Desktop","no","mono","no","18","no","white","no","yes","768","legacy","24","79","/Users/mihailcodreanu/Desktop/mc-subject-3.csv","legacy","Lentiform Loewenfeld","3.3.9","0","s","NA","h","h","NA","s","407","NA","21013","10719","NA","407","2","legacy","1024","2","48000","-16","experiment","HHSHH","3","odd","200816","24302","163833","NA","170383","3275","NA","NA","201865","3283","153113","NA","201969","202377","201861","201969","Flanker task ","100","43813","105","yes","1024"
"95.28301886792453","95.28301886792453","417.3018867924528","417.3018867924528","black","legacy","legacy","legacy","0","incongruent","uniform","1","undefined","1","h","105","0","0","0","105","0","105","0","105","0","0","0","105","105","105","105","Thu Sep 23 17:07:14 2021","600","The main experiment item","yes","Flankertask.osexp","/Users/mihailcodreanu/Desktop","no","mono","no","18","no","white","no","yes","768","legacy","25","79","/Users/mihailcodreanu/Desktop/mc-subject-3.csv","legacy","Lentiform Loewenfeld","3.3.9","0","h","NA","h","h","NA","h","421","NA","21013","10719","NA","421","2","legacy","1024","2","48000","-16","experiment","SSHSS","3","odd","202383","24302","163833","NA","170383","3275","NA","NA","203434","3283","153113","NA","203539","203961","203431","203539","Flanker task ","101","44234","106","yes","1024"
"95.32710280373831","95.32710280373831","416.8130841121495","416.8130841121495","black","legacy","legacy","legacy","0","congruent","uniform","1","undefined","1","s","106","0","0","0","106","0","106","0","106","0","0","0","106","106","106","106","Thu Sep 23 17:07:14 2021","600","The main experiment item","yes","Flankertask.osexp","/Users/mihailcodreanu/Desktop","no","mono","no","18","no","white","no","yes","768","legacy","26","79","/Users/mihailcodreanu/Desktop/mc-subject-3.csv","legacy","Lentiform Loewenfeld","3.3.9","0","s","NA","h","h","NA","s","365","NA","21013","10719","NA","365","2","legacy","1024","2","48000","-16","experiment","SSSSS","3","odd","203967","24302","163833","NA","170383","3275","NA","NA","205019","3283","153113","NA","205123","205489","205015","205123","Flanker task ","102","44599","107","yes","1024"
"95.37037037037037","95.37037037037037","416.93518518518516","416.93518518518516","black","legacy","legacy","legacy","0","incongruent","uniform","1","undefined","1","h","107","0","0","0","107","0","107","0","107","0","0","0","107","107","107","107","Thu Sep 23 17:07:14 2021","600","The main experiment item","yes","Flankertask.osexp","/Users/mihailcodreanu/Desktop","no","mono","no","18","no","white","no","yes","768","legacy","27","79","/Users/mihailcodreanu/Desktop/mc-subject-3.csv","legacy","Lentiform Loewenfeld","3.3.9","0","h","NA","h","h","NA","h","430","NA","21013","10719","NA","430","2","legacy","1024","2","48000","-16","experiment","SSHSS","3","odd","205496","24302","163833","NA","170383","3275","NA","NA","206546","3283","153113","NA","206650","207081","206542","206650","Flanker task ","103","45029","108","yes","1024"
"95.41284403669725","95.41284403669725","416.4678899082569","416.4678899082569","black","legacy","legacy","legacy","0","congruent","uniform","1","undefined","1","h","108","0","0","0","108","0","108","0","108","0","0","0","108","108","108","108","Thu Sep 23 17:07:14 2021","600","The main experiment item","yes","Flankertask.osexp","/Users/mihailcodreanu/Desktop","no","mono","no","18","no","white","no","yes","768","legacy","28","79","/Users/mihailcodreanu/Desktop/mc-subject-3.csv","legacy","Lentiform Loewenfeld","3.3.9","0","h","NA","h","h","NA","h","366","NA","21013","10719","NA","366","2","legacy","1024","2","48000","-16","experiment","HHHHH","3","odd","207088","24302","163833","NA","170383","3275","NA","NA","208138","3283","153113","NA","208242","208609","208134","208242","Flanker task ","104","45395","109","yes","1024"
"95.45454545454545","95.45454545454545","416.3181818181818","416.3181818181818","black","legacy","legacy","legacy","0","congruent","uniform","1","undefined","1","s","109","0","0","0","109","0","109","0","109","0","0","0","109","109","109","109","Thu Sep 23 17:07:14 2021","600","The main experiment item","yes","Flankertask.osexp","/Users/mihailcodreanu/Desktop","no","mono","no","18","no","white","no","yes","768","legacy","29","79","/Users/mihailcodreanu/Desktop/mc-subject-3.csv","legacy","Lentiform Loewenfeld","3.3.9","0","s","NA","h","h","NA","s","400","NA","21013","10719","NA","400","2","legacy","1024","2","48000","-16","experiment","SSSSS","3","odd","208615","24302","163833","NA","170383","3275","NA","NA","209664","3283","153113","NA","209768","210169","209660","209768","Flanker task ","105","45795","110","yes","1024"
"95.49549549549549","95.49549549549549","415.93693693693695","415.93693693693695","black","legacy","legacy","legacy","0","congruent","uniform","1","undefined","1","s","110","0","0","0","110","0","110","0","110","0","0","0","110","110","110","110","Thu Sep 23 17:07:14 2021","600","The main experiment item","yes","Flankertask.osexp","/Users/mihailcodreanu/Desktop","no","mono","no","18","no","white","no","yes","768","legacy","30","79","/Users/mihailcodreanu/Desktop/mc-subject-3.csv","legacy","Lentiform Loewenfeld","3.3.9","0","s","NA","h","h","NA","s","374","NA","21013","10719","NA","374","2","legacy","1024","2","48000","-16","experiment","SSSSS","3","odd","210175","24302","163833","NA","170383","3275","NA","NA","211226","3283","153113","NA","211330","211705","211221","211330","Flanker task ","106","46169","111","yes","1024"
"95.53571428571429","95.53571428571429","415.4107142857143","415.4107142857143","black","legacy","legacy","legacy","0","congruent","uniform","1","undefined","1","h","111","0","0","0","111","0","111","0","111","0","0","0","111","111","111","111","Thu Sep 23 17:07:14 2021","600","The main experiment item","yes","Flankertask.osexp","/Users/mihailcodreanu/Desktop","no","mono","no","18","no","white","no","yes","768","legacy","31","79","/Users/mihailcodreanu/Desktop/mc-subject-3.csv","legacy","Lentiform Loewenfeld","3.3.9","0","h","NA","h","h","NA","h","357","NA","21013","10719","NA","357","2","legacy","1024","2","48000","-16","experiment","HHHHH","3","odd","211712","24302","163833","NA","170383","3275","NA","NA","212763","3283","153113","NA","212867","213225","212759","212867","Flanker task ","107","46526","112","yes","1024"
"95.57522123893806","95.57522123893806","416.3805309734513","416.3805309734513","black","legacy","legacy","legacy","0","congruent","uniform","1","undefined","1","s","112","0","0","0","112","0","112","0","112","0","0","0","112","112","112","112","Thu Sep 23 17:07:14 2021","600","The main experiment item","yes","Flankertask.osexp","/Users/mihailcodreanu/Desktop","no","mono","no","18","no","white","no","yes","768","legacy","32","79","/Users/mihailcodreanu/Desktop/mc-subject-3.csv","legacy","Lentiform Loewenfeld","3.3.9","0","s","NA","h","h","NA","s","525","NA","21013","10719","NA","525","2","legacy","1024","2","48000","-16","experiment","SSSSS","3","odd","213231","24302","163833","NA","170383","3275","NA","NA","214282","3283","153113","NA","214387","214913","214277","214387","Flanker task ","108","47051","113","yes","1024"
"95.6140350877193","95.6140350877193","416.42105263157896","416.42105263157896","black","legacy","legacy","legacy","0","congruent","uniform","1","undefined","1","s","113","0","0","0","113","0","113","0","113","0","0","0","113","113","113","113","Thu Sep 23 17:07:14 2021","600","The main experiment item","yes","Flankertask.osexp","/Users/mihailcodreanu/Desktop","no","mono","no","18","no","white","no","yes","768","legacy","33","79","/Users/mihailcodreanu/Desktop/mc-subject-3.csv","legacy","Lentiform Loewenfeld","3.3.9","0","s","NA","h","h","NA","s","421","NA","21013","10719","NA","421","2","legacy","1024","2","48000","-16","experiment","SSSSS","3","odd","214919","24302","163833","NA","170383","3275","NA","NA","215971","3283","153113","NA","216075","216497","215967","216075","Flanker task ","109","47472","114","yes","1024"
"95.65217391304348","95.65217391304348","416.2695652173913","416.2695652173913","black","legacy","legacy","legacy","0","congruent","uniform","1","undefined","1","h","114","0","0","0","114","0","114","0","114","0","0","0","114","114","114","114","Thu Sep 23 17:07:14 2021","600","The main experiment item","yes","Flankertask.osexp","/Users/mihailcodreanu/Desktop","no","mono","no","18","no","white","no","yes","768","legacy","34","79","/Users/mihailcodreanu/Desktop/mc-subject-3.csv","legacy","Lentiform Loewenfeld","3.3.9","0","h","NA","h","h","NA","h","399","NA","21013","10719","NA","399","2","legacy","1024","2","48000","-16","experiment","HHHHH","3","odd","216504","24302","163833","NA","170383","3275","NA","NA","217553","3283","153113","NA","217657","218057","217549","217657","Flanker task ","110","47871","115","yes","1024"
"95.6896551724138","95.6896551724138","415.9741379310345","415.9741379310345","black","legacy","legacy","legacy","0","incongruent","uniform","1","undefined","1","s","115","0","0","0","115","0","115","0","115","0","0","0","115","115","115","115","Thu Sep 23 17:07:14 2021","600","The main experiment item","yes","Flankertask.osexp","/Users/mihailcodreanu/Desktop","no","mono","no","18","no","white","no","yes","768","legacy","35","79","/Users/mihailcodreanu/Desktop/mc-subject-3.csv","legacy","Lentiform Loewenfeld","3.3.9","0","s","NA","h","h","NA","s","382","NA","21013","10719","NA","382","2","legacy","1024","2","48000","-16","experiment","HHSHH","3","odd","218063","24302","163833","NA","170383","3275","NA","NA","219114","3283","153113","NA","219218","219601","219110","219218","Flanker task ","111","48253","116","yes","1024"
"95.72649572649573","95.72649572649573","416.15384615384613","416.15384615384613","black","legacy","legacy","legacy","0","incongruent","uniform","1","undefined","1","s","116","0","0","0","116","0","116","0","116","0","0","0","116","116","116","116","Thu Sep 23 17:07:14 2021","600","The main experiment item","yes","Flankertask.osexp","/Users/mihailcodreanu/Desktop","no","mono","no","18","no","white","no","yes","768","legacy","36","79","/Users/mihailcodreanu/Desktop/mc-subject-3.csv","legacy","Lentiform Loewenfeld","3.3.9","0","s","NA","h","h","NA","s","437","NA","21013","10719","NA","437","2","legacy","1024","2","48000","-16","experiment","HHSHH","3","odd","219607","24302","163833","NA","170383","3275","NA","NA","220659","3283","153113","NA","220763","221201","220655","220763","Flanker task ","112","48690","117","yes","1024"
"95.76271186440678","95.76271186440678","415.3135593220339","415.3135593220339","black","legacy","legacy","legacy","0","incongruent","uniform","1","undefined","1","s","117","0","0","0","117","0","117","0","117","0","0","0","117","117","117","117","Thu Sep 23 17:07:14 2021","600","The main experiment item","yes","Flankertask.osexp","/Users/mihailcodreanu/Desktop","no","mono","no","18","no","white","no","yes","768","legacy","37","79","/Users/mihailcodreanu/Desktop/mc-subject-3.csv","legacy","Lentiform Loewenfeld","3.3.9","0","s","NA","h","h","NA","s","317","NA","21013","10719","NA","317","2","legacy","1024","2","48000","-16","experiment","HHSHH","3","odd","221208","24302","163833","NA","170383","3275","NA","NA","222259","3283","153113","NA","222363","222681","222256","222363","Flanker task ","113","49007","118","yes","1024"
"95.7983193277311","95.7983193277311","414.9075630252101","414.9075630252101","black","legacy","legacy","legacy","0","congruent","uniform","1","undefined","1","s","118","0","0","0","118","0","118","0","118","0","0","0","118","118","118","118","Thu Sep 23 17:07:14 2021","600","The main experiment item","yes","Flankertask.osexp","/Users/mihailcodreanu/Desktop","no","mono","no","18","no","white","no","yes","768","legacy","38","79","/Users/mihailcodreanu/Desktop/mc-subject-3.csv","legacy","Lentiform Loewenfeld","3.3.9","0","s","NA","h","h","NA","s","367","NA","21013","10719","NA","367","2","legacy","1024","2","48000","-16","experiment","SSSSS","3","odd","222688","24302","163833","NA","170383","3275","NA","NA","223737","3283","153113","NA","223841","224209","223734","223841","Flanker task ","114","49374","119","yes","1024"
"95.83333333333333","95.83333333333333","413.675","413.675","black","legacy","legacy","legacy","0","congruent","uniform","1","undefined","1","h","119","0","0","0","119","0","119","0","119","0","0","0","119","119","119","119","Thu Sep 23 17:07:14 2021","600","The main experiment item","yes","Flankertask.osexp","/Users/mihailcodreanu/Desktop","no","mono","no","18","no","white","no","yes","768","legacy","39","79","/Users/mihailcodreanu/Desktop/mc-subject-3.csv","legacy","Lentiform Loewenfeld","3.3.9","0","h","NA","h","h","NA","h","267","NA","21013","10719","NA","267","2","legacy","1024","2","48000","-16","experiment","HHHHH","3","odd","224216","24302","163833","NA","170383","3275","NA","NA","225268","3283","153113","NA","225373","225641","225264","225372","Flanker task ","115","49641","120","yes","1024"
"95.86776859504133","95.86776859504133","413.3305785123967","413.3305785123967","black","legacy","legacy","legacy","0","congruent","uniform","1","undefined","1","s","120","0","0","0","120","0","120","0","120","0","0","0","120","120","120","120","Thu Sep 23 17:07:14 2021","600","The main experiment item","yes","Flankertask.osexp","/Users/mihailcodreanu/Desktop","no","mono","no","18","no","white","no","yes","768","legacy","40","79","/Users/mihailcodreanu/Desktop/mc-subject-3.csv","legacy","Lentiform Loewenfeld","3.3.9","0","s","NA","h","h","NA","s","372","NA","21013","10719","NA","372","2","legacy","1024","2","48000","-16","experiment","SSSSS","3","odd","225648","24302","163833","NA","170383","3275","NA","NA","226700","3283","153113","NA","226804","227177","226696","226804","Flanker task ","116","50013","121","yes","1024"
