"acc","accuracy","average_response_time","avg_rt","background","canvas_backend","clock_backend","color_backend","compensation","condition","coordinates","correct","correct_instructions1","correct_keyboard_response","correct_response","count_InterStimulusInterval","count_block1","count_block2","count_block3","count_errorFeedback","count_experiment","count_faster","count_finish","count_fixation","count_instructions1","count_instructions2","count_instructions3","count_keyboard_response","count_logger","count_sequence","count_stimulus","datetime","deadline","description","disable_garbage_collection","experiment_file","experiment_path","font_bold","font_family","font_italic","font_size","font_underline","foreground","form_clicks","fullscreen","height","keyboard_backend","live_row","live_row_block1","logfile","mouse_backend","opensesame_codename","opensesame_version","repeat_cycle","response","response_finish","response_instructions1","response_instructions2","response_instructions3","response_keyboard_response","response_time","response_time_finish","response_time_instructions1","response_time_instructions2","response_time_instructions3","response_time_keyboard_response","round_decimals","sampler_backend","sound_buf_size","sound_channels","sound_freq","sound_sample_size","start","stimulus","subject_nr","subject_parity","time_InterStimulusInterval","time_block1","time_block2","time_block3","time_errorFeedback","time_experiment","time_faster","time_finish","time_fixation","time_instructions1","time_instructions2","time_instructions3","time_keyboard_response","time_logger","time_sequence","time_stimulus","title","total_correct","total_response_time","total_responses","uniform_coordinates","width"
"100","100","649","649","black","legacy","legacy","legacy","0","congruent","uniform","1","undefined","1","s","0","0","0","0","0","0","0","0","0","0","0","0","0","0","0","0","09/23/21 16:01:11","1500","The main experiment item","yes","FlankerTask.osexp","D:\AdvQuant","no","mono","no","18","no","white","no","yes","768","legacy","0","0","D:/AdvQuant/SM-subject-5.csv","legacy","Lentiform Loewenfeld","3.3.9","0","s","NA","s","NA","NA","s","649","NA","41649","NA","NA","649","2","legacy","1024","2","48000","-16","experiment","SSSSS","5","odd","NA","44428","NA","NA","NA","2770","NA","NA","44542","2777","NA","NA","44651","45301","44538","44650","Flanker Task","1","649","1","yes","1024"
"100","100","604","604","black","legacy","legacy","legacy","0","incongruent","uniform","1","undefined","1","h","1","0","0","0","1","0","1","0","1","0","0","0","1","1","1","1","09/23/21 16:01:11","1500","The main experiment item","yes","FlankerTask.osexp","D:\AdvQuant","no","mono","no","18","no","white","no","yes","768","legacy","1","1","D:/AdvQuant/SM-subject-5.csv","legacy","Lentiform Loewenfeld","3.3.9","0","h","NA","s","NA","NA","h","559","NA","41649","NA","NA","559","2","legacy","1024","2","48000","-16","experiment","SSHSS","5","odd","46388","44428","NA","NA","NA","2770","NA","NA","47509","2777","NA","NA","47618","48178","47505","47617","Flanker Task","2","1208","2","yes","1024"
"100","100","622.666666667","622.666666667","black","legacy","legacy","legacy","0","incongruent","uniform","1","undefined","1","h","2","0","0","0","2","0","2","0","2","0","0","0","2","2","2","2","09/23/21 16:01:11","1500","The main experiment item","yes","FlankerTask.osexp","D:\AdvQuant","no","mono","no","18","no","white","no","yes","768","legacy","2","2","D:/AdvQuant/SM-subject-5.csv","legacy","Lentiform Loewenfeld","3.3.9","0","h","NA","s","NA","NA","h","660","NA","41649","NA","NA","660","2","legacy","1024","2","48000","-16","experiment","SSHSS","5","odd","48200","44428","NA","NA","NA","2770","NA","NA","49328","2777","NA","NA","49437","50098","49324","49436","Flanker Task","3","1868","3","yes","1024"
"100","100","645","645","black","legacy","legacy","legacy","0","congruent","uniform","1","undefined","1","h","3","0","0","0","3","0","3","0","3","0","0","0","3","3","3","3","09/23/21 16:01:11","1500","The main experiment item","yes","FlankerTask.osexp","D:\AdvQuant","no","mono","no","18","no","white","no","yes","768","legacy","3","3","D:/AdvQuant/SM-subject-5.csv","legacy","Lentiform Loewenfeld","3.3.9","0","h","NA","s","NA","NA","h","712","NA","41649","NA","NA","712","2","legacy","1024","2","48000","-16","experiment","HHHHH","5","odd","50117","44428","NA","NA","NA","2770","NA","NA","51232","2777","NA","NA","51342","52055","51228","51341","Flanker Task","4","2580","4","yes","1024"
"100","100","654.8","654.8","black","legacy","legacy","legacy","0","incongruent","uniform","1","undefined","1","s","4","0","0","0","4","0","4","0","4","0","0","0","4","4","4","4","09/23/21 16:01:11","1500","The main experiment item","yes","FlankerTask.osexp","D:\AdvQuant","no","mono","no","18","no","white","no","yes","768","legacy","4","4","D:/AdvQuant/SM-subject-5.csv","legacy","Lentiform Loewenfeld","3.3.9","0","s","NA","s","NA","NA","s","694","NA","41649","NA","NA","694","2","legacy","1024","2","48000","-16","experiment","HHSHH","5","odd","52771","44428","NA","NA","NA","2770","NA","NA","53893","2777","NA","NA","54002","54697","53889","54001","Flanker Task","5","3274","5","yes","1024"
"100","100","633","633","black","legacy","legacy","legacy","0","incongruent","uniform","1","undefined","1","s","5","0","0","0","5","0","5","0","5","0","0","0","5","5","5","5","09/23/21 16:01:11","1500","The main experiment item","yes","FlankerTask.osexp","D:\AdvQuant","no","mono","no","18","no","white","no","yes","768","legacy","5","5","D:/AdvQuant/SM-subject-5.csv","legacy","Lentiform Loewenfeld","3.3.9","0","s","NA","s","NA","NA","s","524","NA","41649","NA","NA","524","2","legacy","1024","2","48000","-16","experiment","HHSHH","5","odd","55068","44428","NA","NA","NA","2770","NA","NA","56182","2777","NA","NA","56291","56816","56177","56290","Flanker Task","6","3798","6","yes","1024"
"100","100","622.142857143","622.142857143","black","legacy","legacy","legacy","0","incongruent","uniform","1","undefined","1","h","6","0","0","0","6","0","6","0","6","0","0","0","6","6","6","6","09/23/21 16:01:11","1500","The main experiment item","yes","FlankerTask.osexp","D:\AdvQuant","no","mono","no","18","no","white","no","yes","768","legacy","6","6","D:/AdvQuant/SM-subject-5.csv","legacy","Lentiform Loewenfeld","3.3.9","0","h","NA","s","NA","NA","h","557","NA","41649","NA","NA","557","2","legacy","1024","2","48000","-16","experiment","SSHSS","5","odd","56833","44428","NA","NA","NA","2770","NA","NA","57950","2777","NA","NA","58053","58611","57945","58053","Flanker Task","7","4355","7","yes","1024"
"100","100","610.625","610.625","black","legacy","legacy","legacy","0","incongruent","uniform","1","undefined","1","s","7","0","0","0","7","0","7","0","7","0","0","0","7","7","7","7","09/23/21 16:01:11","1500","The main experiment item","yes","FlankerTask.osexp","D:\AdvQuant","no","mono","no","18","no","white","no","yes","768","legacy","7","7","D:/AdvQuant/SM-subject-5.csv","legacy","Lentiform Loewenfeld","3.3.9","0","s","NA","s","NA","NA","s","530","NA","41649","NA","NA","530","2","legacy","1024","2","48000","-16","experiment","HHSHH","5","odd","58627","44428","NA","NA","NA","2770","NA","NA","59746","2777","NA","NA","59855","60386","59742","59854","Flanker Task","8","4885","8","yes","1024"
"100","100","592.111111111","592.111111111","black","legacy","legacy","legacy","0","congruent","uniform","1","undefined","1","s","8","0","0","0","8","0","8","0","8","0","0","0","8","8","8","8","09/23/21 16:01:11","1500","The main experiment item","yes","FlankerTask.osexp","D:\AdvQuant","no","mono","no","18","no","white","no","yes","768","legacy","8","8","D:/AdvQuant/SM-subject-5.csv","legacy","Lentiform Loewenfeld","3.3.9","0","s","NA","s","NA","NA","s","444","NA","41649","NA","NA","444","2","legacy","1024","2","48000","-16","experiment","SSSSS","5","odd","60402","44428","NA","NA","NA","2770","NA","NA","61519","2777","NA","NA","61628","62073","61514","61627","Flanker Task","9","5329","9","yes","1024"
"100","100","587.5","587.5","black","legacy","legacy","legacy","0","incongruent","uniform","1","undefined","1","s","9","0","0","0","9","0","9","0","9","0","0","0","9","9","9","9","09/23/21 16:01:11","1500","The main experiment item","yes","FlankerTask.osexp","D:\AdvQuant","no","mono","no","18","no","white","no","yes","768","legacy","9","9","D:/AdvQuant/SM-subject-5.csv","legacy","Lentiform Loewenfeld","3.3.9","0","s","NA","s","NA","NA","s","546","NA","41649","NA","NA","546","2","legacy","1024","2","48000","-16","experiment","HHSHH","5","odd","62090","44428","NA","NA","NA","2770","NA","NA","63205","2777","NA","NA","63314","63860","63201","63313","Flanker Task","10","5875","10","yes","1024"
"100","100","580.545454545","580.545454545","black","legacy","legacy","legacy","0","congruent","uniform","1","undefined","1","h","10","0","0","0","10","0","10","0","10","0","0","0","10","10","10","10","09/23/21 16:01:11","1500","The main experiment item","yes","FlankerTask.osexp","D:\AdvQuant","no","mono","no","18","no","white","no","yes","768","legacy","10","10","D:/AdvQuant/SM-subject-5.csv","legacy","Lentiform Loewenfeld","3.3.9","0","h","NA","s","NA","NA","h","511","NA","41649","NA","NA","511","2","legacy","1024","2","48000","-16","experiment","HHHHH","5","odd","63881","44428","NA","NA","NA","2770","NA","NA","65000","2777","NA","NA","65109","65621","64995","65108","Flanker Task","11","6386","11","yes","1024"
"100","100","566.5","566.5","black","legacy","legacy","legacy","0","congruent","uniform","1","undefined","1","h","11","0","0","0","11","0","11","0","11","0","0","0","11","11","11","11","09/23/21 16:01:11","1500","The main experiment item","yes","FlankerTask.osexp","D:\AdvQuant","no","mono","no","18","no","white","no","yes","768","legacy","11","11","D:/AdvQuant/SM-subject-5.csv","legacy","Lentiform Loewenfeld","3.3.9","0","h","NA","s","NA","NA","h","412","NA","41649","NA","NA","412","2","legacy","1024","2","48000","-16","experiment","HHHHH","5","odd","65639","44428","NA","NA","NA","2770","NA","NA","66764","2777","NA","NA","66873","67286","66760","66872","Flanker Task","12","6798","12","yes","1024"
"100","100","551.615384615","551.615384615","black","legacy","legacy","legacy","0","congruent","uniform","1","undefined","1","h","12","0","0","0","12","0","12","0","12","0","0","0","12","12","12","12","09/23/21 16:01:11","1500","The main experiment item","yes","FlankerTask.osexp","D:\AdvQuant","no","mono","no","18","no","white","no","yes","768","legacy","12","12","D:/AdvQuant/SM-subject-5.csv","legacy","Lentiform Loewenfeld","3.3.9","0","h","NA","s","NA","NA","h","373","NA","41649","NA","NA","373","2","legacy","1024","2","48000","-16","experiment","HHHHH","5","odd","67303","44428","NA","NA","NA","2770","NA","NA","68421","2777","NA","NA","68529","68903","68416","68529","Flanker Task","13","7171","13","yes","1024"
"92.8571428571","92.8571428571","537.857142857","537.857142857","black","legacy","legacy","legacy","0","incongruent","uniform","0","undefined","0","s","13","0","0","0","13","0","13","0","13","0","0","0","13","13","13","13","09/23/21 16:01:11","1500","The main experiment item","yes","FlankerTask.osexp","D:\AdvQuant","no","mono","no","18","no","white","no","yes","768","legacy","13","13","D:/AdvQuant/SM-subject-5.csv","legacy","Lentiform Loewenfeld","3.3.9","0","h","NA","s","NA","NA","h","359","NA","41649","NA","NA","359","2","legacy","1024","2","48000","-16","experiment","HHSHH","5","odd","68920","44428","NA","NA","NA","2770","NA","NA","70040","2777","NA","NA","70149","70509","70035","70148","Flanker Task","13","7530","14","yes","1024"
"93.3333333333","93.3333333333","543.333333333","543.333333333","black","legacy","legacy","legacy","0","congruent","uniform","1","undefined","1","h","14","0","0","0","14","0","14","0","14","0","0","0","14","14","14","14","09/23/21 16:01:11","1500","The main experiment item","yes","FlankerTask.osexp","D:\AdvQuant","no","mono","no","18","no","white","no","yes","768","legacy","14","14","D:/AdvQuant/SM-subject-5.csv","legacy","Lentiform Loewenfeld","3.3.9","0","h","NA","s","NA","NA","h","620","NA","41649","NA","NA","620","2","legacy","1024","2","48000","-16","experiment","HHHHH","5","odd","71037","44428","NA","NA","70529","2770","NA","NA","72161","2777","NA","NA","72270","72891","72156","72269","Flanker Task","14","8150","15","yes","1024"
"93.75","93.75","545.8125","545.8125","black","legacy","legacy","legacy","0","congruent","uniform","1","undefined","1","h","15","0","0","0","15","0","15","0","15","0","0","0","15","15","15","15","09/23/21 16:01:11","1500","The main experiment item","yes","FlankerTask.osexp","D:\AdvQuant","no","mono","no","18","no","white","no","yes","768","legacy","15","15","D:/AdvQuant/SM-subject-5.csv","legacy","Lentiform Loewenfeld","3.3.9","0","h","NA","s","NA","NA","h","583","NA","41649","NA","NA","583","2","legacy","1024","2","48000","-16","experiment","HHHHH","5","odd","72908","44428","NA","NA","70529","2770","NA","NA","74028","2777","NA","NA","74137","74721","74024","74137","Flanker Task","15","8733","16","yes","1024"
"94.1176470588","94.1176470588","546.588235294","546.588235294","black","legacy","legacy","legacy","0","congruent","uniform","1","undefined","1","h","16","0","0","0","16","0","16","0","16","0","0","0","16","16","16","16","09/23/21 16:01:11","1500","The main experiment item","yes","FlankerTask.osexp","D:\AdvQuant","no","mono","no","18","no","white","no","yes","768","legacy","16","16","D:/AdvQuant/SM-subject-5.csv","legacy","Lentiform Loewenfeld","3.3.9","0","h","NA","s","NA","NA","h","559","NA","41649","NA","NA","559","2","legacy","1024","2","48000","-16","experiment","HHHHH","5","odd","74737","44428","NA","NA","70529","2770","NA","NA","75856","2777","NA","NA","75965","76525","75852","75964","Flanker Task","16","9292","17","yes","1024"
"94.4444444444","94.4444444444","542.5","542.5","black","legacy","legacy","legacy","0","congruent","uniform","1","undefined","1","h","17","0","0","0","17","0","17","0","17","0","0","0","17","17","17","17","09/23/21 16:01:11","1500","The main experiment item","yes","FlankerTask.osexp","D:\AdvQuant","no","mono","no","18","no","white","no","yes","768","legacy","17","17","D:/AdvQuant/SM-subject-5.csv","legacy","Lentiform Loewenfeld","3.3.9","0","h","NA","s","NA","NA","h","473","NA","41649","NA","NA","473","2","legacy","1024","2","48000","-16","experiment","HHHHH","5","odd","76543","44428","NA","NA","70529","2770","NA","NA","77660","2777","NA","NA","77768","78242","77656","77768","Flanker Task","17","9765","18","yes","1024"
"94.7368421053","94.7368421053","543.842105263","543.842105263","black","legacy","legacy","legacy","0","incongruent","uniform","1","undefined","1","s","18","0","0","0","18","0","18","0","18","0","0","0","18","18","18","18","09/23/21 16:01:11","1500","The main experiment item","yes","FlankerTask.osexp","D:\AdvQuant","no","mono","no","18","no","white","no","yes","768","legacy","18","18","D:/AdvQuant/SM-subject-5.csv","legacy","Lentiform Loewenfeld","3.3.9","0","s","NA","s","NA","NA","s","568","NA","41649","NA","NA","568","2","legacy","1024","2","48000","-16","experiment","HHSHH","5","odd","78263","44428","NA","NA","70529","2770","NA","NA","79391","2777","NA","NA","79500","80069","79386","79499","Flanker Task","18","10333","19","yes","1024"
"95","95","541.6","541.6","black","legacy","legacy","legacy","0","congruent","uniform","1","undefined","1","s","19","0","0","0","19","0","19","0","19","0","0","0","19","19","19","19","09/23/21 16:01:11","1500","The main experiment item","yes","FlankerTask.osexp","D:\AdvQuant","no","mono","no","18","no","white","no","yes","768","legacy","19","19","D:/AdvQuant/SM-subject-5.csv","legacy","Lentiform Loewenfeld","3.3.9","0","s","NA","s","NA","NA","s","499","NA","41649","NA","NA","499","2","legacy","1024","2","48000","-16","experiment","SSSSS","5","odd","80087","44428","NA","NA","70529","2770","NA","NA","81201","2777","NA","NA","81310","81810","81197","81309","Flanker Task","19","10832","20","yes","1024"
"95.2380952381","95.2380952381","539.476190476","539.476190476","black","legacy","legacy","legacy","0","congruent","uniform","1","undefined","1","s","20","0","0","0","20","0","20","0","20","0","0","0","20","20","20","20","09/23/21 16:01:11","1500","The main experiment item","yes","FlankerTask.osexp","D:\AdvQuant","no","mono","no","18","no","white","no","yes","768","legacy","20","20","D:/AdvQuant/SM-subject-5.csv","legacy","Lentiform Loewenfeld","3.3.9","0","s","NA","s","NA","NA","s","497","NA","41649","NA","NA","497","2","legacy","1024","2","48000","-16","experiment","SSSSS","5","odd","81826","44428","NA","NA","70529","2770","NA","NA","82957","2777","NA","NA","83065","83562","82952","83065","Flanker Task","20","11329","21","yes","1024"
"95.4545454545","95.4545454545","537.090909091","537.090909091","black","legacy","legacy","legacy","0","incongruent","uniform","1","undefined","1","s","21","0","0","0","21","0","21","0","21","0","0","0","21","21","21","21","09/23/21 16:01:11","1500","The main experiment item","yes","FlankerTask.osexp","D:\AdvQuant","no","mono","no","18","no","white","no","yes","768","legacy","21","21","D:/AdvQuant/SM-subject-5.csv","legacy","Lentiform Loewenfeld","3.3.9","0","s","NA","s","NA","NA","s","487","NA","41649","NA","NA","487","2","legacy","1024","2","48000","-16","experiment","HHSHH","5","odd","83580","44428","NA","NA","70529","2770","NA","NA","84703","2777","NA","NA","84812","85300","84698","84811","Flanker Task","21","11816","22","yes","1024"
"95.652173913","95.652173913","535.869565217","535.869565217","black","legacy","legacy","legacy","0","incongruent","uniform","1","undefined","1","s","22","0","0","0","22","0","22","0","22","0","0","0","22","22","22","22","09/23/21 16:01:11","1500","The main experiment item","yes","FlankerTask.osexp","D:\AdvQuant","no","mono","no","18","no","white","no","yes","768","legacy","22","22","D:/AdvQuant/SM-subject-5.csv","legacy","Lentiform Loewenfeld","3.3.9","0","s","NA","s","NA","NA","s","509","NA","41649","NA","NA","509","2","legacy","1024","2","48000","-16","experiment","HHSHH","5","odd","85320","44428","NA","NA","70529","2770","NA","NA","86443","2777","NA","NA","86552","87062","86439","86551","Flanker Task","22","12325","23","yes","1024"
"95.8333333333","95.8333333333","534.125","534.125","black","legacy","legacy","legacy","0","congruent","uniform","1","undefined","1","h","23","0","0","0","23","0","23","0","23","0","0","0","23","23","23","23","09/23/21 16:01:11","1500","The main experiment item","yes","FlankerTask.osexp","D:\AdvQuant","no","mono","no","18","no","white","no","yes","768","legacy","23","23","D:/AdvQuant/SM-subject-5.csv","legacy","Lentiform Loewenfeld","3.3.9","0","h","NA","s","NA","NA","h","494","NA","41649","NA","NA","494","2","legacy","1024","2","48000","-16","experiment","HHHHH","5","odd","87078","44428","NA","NA","70529","2770","NA","NA","88193","2777","NA","NA","88303","88798","88189","88302","Flanker Task","23","12819","24","yes","1024"
"96","96","535.08","535.08","black","legacy","legacy","legacy","0","incongruent","uniform","1","undefined","1","h","24","0","0","0","24","0","24","0","24","0","0","0","24","24","24","24","09/23/21 16:01:11","1500","The main experiment item","yes","FlankerTask.osexp","D:\AdvQuant","no","mono","no","18","no","white","no","yes","768","legacy","24","24","D:/AdvQuant/SM-subject-5.csv","legacy","Lentiform Loewenfeld","3.3.9","0","h","NA","s","NA","NA","h","558","NA","41649","NA","NA","558","2","legacy","1024","2","48000","-16","experiment","SSHSS","5","odd","88812","44428","NA","NA","70529","2770","NA","NA","89930","2777","NA","NA","90039","90598","89925","90038","Flanker Task","24","13377","25","yes","1024"
"96.1538461538","96.1538461538","535.730769231","535.730769231","black","legacy","legacy","legacy","0","incongruent","uniform","1","undefined","1","h","25","0","0","0","25","0","25","0","25","0","0","0","25","25","25","25","09/23/21 16:01:11","1500","The main experiment item","yes","FlankerTask.osexp","D:\AdvQuant","no","mono","no","18","no","white","no","yes","768","legacy","25","25","D:/AdvQuant/SM-subject-5.csv","legacy","Lentiform Loewenfeld","3.3.9","0","h","NA","s","NA","NA","h","552","NA","41649","NA","NA","552","2","legacy","1024","2","48000","-16","experiment","SSHSS","5","odd","90615","44428","NA","NA","70529","2770","NA","NA","91743","2777","NA","NA","91852","92405","91738","91851","Flanker Task","25","13929","26","yes","1024"
"96.2962962963","96.2962962963","532.777777778","532.777777778","black","legacy","legacy","legacy","0","congruent","uniform","1","undefined","1","s","26","0","0","0","26","0","26","0","26","0","0","0","26","26","26","26","09/23/21 16:01:11","1500","The main experiment item","yes","FlankerTask.osexp","D:\AdvQuant","no","mono","no","18","no","white","no","yes","768","legacy","26","26","D:/AdvQuant/SM-subject-5.csv","legacy","Lentiform Loewenfeld","3.3.9","0","s","NA","s","NA","NA","s","456","NA","41649","NA","NA","456","2","legacy","1024","2","48000","-16","experiment","SSSSS","5","odd","92427","44428","NA","NA","70529","2770","NA","NA","93552","2777","NA","NA","93660","94117","93547","93660","Flanker Task","26","14385","27","yes","1024"
"96.4285714286","96.4285714286","529.642857143","529.642857143","black","legacy","legacy","legacy","0","congruent","uniform","1","undefined","1","s","27","0","0","0","27","0","27","0","27","0","0","0","27","27","27","27","09/23/21 16:01:11","1500","The main experiment item","yes","FlankerTask.osexp","D:\AdvQuant","no","mono","no","18","no","white","no","yes","768","legacy","27","27","D:/AdvQuant/SM-subject-5.csv","legacy","Lentiform Loewenfeld","3.3.9","0","s","NA","s","NA","NA","s","445","NA","41649","NA","NA","445","2","legacy","1024","2","48000","-16","experiment","SSSSS","5","odd","94136","44428","NA","NA","70529","2770","NA","NA","95261","2777","NA","NA","95364","95810","95256","95364","Flanker Task","27","14830","28","yes","1024"
"96.5517241379","96.5517241379","529.965517241","529.965517241","black","legacy","legacy","legacy","0","incongruent","uniform","1","undefined","1","h","28","0","0","0","28","0","28","0","28","0","0","0","28","28","28","28","09/23/21 16:01:11","1500","The main experiment item","yes","FlankerTask.osexp","D:\AdvQuant","no","mono","no","18","no","white","no","yes","768","legacy","28","28","D:/AdvQuant/SM-subject-5.csv","legacy","Lentiform Loewenfeld","3.3.9","0","h","NA","s","NA","NA","h","539","NA","41649","NA","NA","539","2","legacy","1024","2","48000","-16","experiment","SSHSS","5","odd","95826","44428","NA","NA","70529","2770","NA","NA","96947","2777","NA","NA","97055","97596","96943","97054","Flanker Task","28","15369","29","yes","1024"
"96.6666666667","96.6666666667","526.566666667","526.566666667","black","legacy","legacy","legacy","0","congruent","uniform","1","undefined","1","s","29","0","0","0","29","0","29","0","29","0","0","0","29","29","29","29","09/23/21 16:01:11","1500","The main experiment item","yes","FlankerTask.osexp","D:\AdvQuant","no","mono","no","18","no","white","no","yes","768","legacy","29","29","D:/AdvQuant/SM-subject-5.csv","legacy","Lentiform Loewenfeld","3.3.9","0","s","NA","s","NA","NA","s","428","NA","41649","NA","NA","428","2","legacy","1024","2","48000","-16","experiment","SSSSS","5","odd","97613","44428","NA","NA","70529","2770","NA","NA","98719","2777","NA","NA","98828","99257","98715","98827","Flanker Task","29","15797","30","yes","1024"
"96.7741935484","96.7741935484","525.774193548","525.774193548","black","legacy","legacy","legacy","0","congruent","uniform","1","undefined","1","s","30","0","0","0","30","0","30","0","30","0","0","0","30","30","30","30","09/23/21 16:01:11","1500","The main experiment item","yes","FlankerTask.osexp","D:\AdvQuant","no","mono","no","18","no","white","no","yes","768","legacy","30","30","D:/AdvQuant/SM-subject-5.csv","legacy","Lentiform Loewenfeld","3.3.9","0","s","NA","s","NA","NA","s","502","NA","41649","NA","NA","502","2","legacy","1024","2","48000","-16","experiment","SSSSS","5","odd","99277","44428","NA","NA","70529","2770","NA","NA","100384","2777","NA","NA","100493","100996","100379","100492","Flanker Task","30","16299","31","yes","1024"
"96.875","96.875","525.40625","525.40625","black","legacy","legacy","legacy","0","congruent","uniform","1","undefined","1","h","31","0","0","0","31","0","31","0","31","0","0","0","31","31","31","31","09/23/21 16:01:11","1500","The main experiment item","yes","FlankerTask.osexp","D:\AdvQuant","no","mono","no","18","no","white","no","yes","768","legacy","31","31","D:/AdvQuant/SM-subject-5.csv","legacy","Lentiform Loewenfeld","3.3.9","0","h","NA","s","NA","NA","h","514","NA","41649","NA","NA","514","2","legacy","1024","2","48000","-16","experiment","HHHHH","5","odd","101013","44428","NA","NA","70529","2770","NA","NA","102136","2777","NA","NA","102245","102760","102132","102244","Flanker Task","31","16813","32","yes","1024"
"96.9696969697","96.9696969697","523","523","black","legacy","legacy","legacy","0","congruent","uniform","1","undefined","1","s","32","0","0","0","32","0","32","0","32","0","0","0","32","32","32","32","09/23/21 16:01:11","1500","The main experiment item","yes","FlankerTask.osexp","D:\AdvQuant","no","mono","no","18","no","white","no","yes","768","legacy","32","32","D:/AdvQuant/SM-subject-5.csv","legacy","Lentiform Loewenfeld","3.3.9","0","s","NA","s","NA","NA","s","446","NA","41649","NA","NA","446","2","legacy","1024","2","48000","-16","experiment","SSSSS","5","odd","102775","44428","NA","NA","70529","2770","NA","NA","103900","2777","NA","NA","104009","104457","103896","104008","Flanker Task","32","17259","33","yes","1024"
"97.0588235294","97.0588235294","518.058823529","518.058823529","black","legacy","legacy","legacy","0","congruent","uniform","1","undefined","1","s","33","0","0","0","33","0","33","0","33","0","0","0","33","33","33","33","09/23/21 16:01:11","1500","The main experiment item","yes","FlankerTask.osexp","D:\AdvQuant","no","mono","no","18","no","white","no","yes","768","legacy","33","33","D:/AdvQuant/SM-subject-5.csv","legacy","Lentiform Loewenfeld","3.3.9","0","s","NA","s","NA","NA","s","355","NA","41649","NA","NA","355","2","legacy","1024","2","48000","-16","experiment","SSSSS","5","odd","104473","44428","NA","NA","70529","2770","NA","NA","105581","2777","NA","NA","105690","106046","105576","105689","Flanker Task","33","17614","34","yes","1024"
"97.1428571429","97.1428571429","514.114285714","514.114285714","black","legacy","legacy","legacy","0","congruent","uniform","1","undefined","1","s","34","0","0","0","34","0","34","0","34","0","0","0","34","34","34","34","09/23/21 16:01:11","1500","The main experiment item","yes","FlankerTask.osexp","D:\AdvQuant","no","mono","no","18","no","white","no","yes","768","legacy","34","34","D:/AdvQuant/SM-subject-5.csv","legacy","Lentiform Loewenfeld","3.3.9","0","s","NA","s","NA","NA","s","380","NA","41649","NA","NA","380","2","legacy","1024","2","48000","-16","experiment","SSSSS","5","odd","106067","44428","NA","NA","70529","2770","NA","NA","107183","2777","NA","NA","107292","107673","107178","107291","Flanker Task","34","17994","35","yes","1024"
"97.2222222222","97.2222222222","513.083333333","513.083333333","black","legacy","legacy","legacy","0","congruent","uniform","1","undefined","1","h","35","0","0","0","35","0","35","0","35","0","0","0","35","35","35","35","09/23/21 16:01:11","1500","The main experiment item","yes","FlankerTask.osexp","D:\AdvQuant","no","mono","no","18","no","white","no","yes","768","legacy","35","35","D:/AdvQuant/SM-subject-5.csv","legacy","Lentiform Loewenfeld","3.3.9","0","h","NA","s","NA","NA","h","477","NA","41649","NA","NA","477","2","legacy","1024","2","48000","-16","experiment","HHHHH","5","odd","107693","44428","NA","NA","70529","2770","NA","NA","108805","2777","NA","NA","108914","109392","108801","108913","Flanker Task","35","18471","36","yes","1024"
"97.2972972973","97.2972972973","513.432432432","513.432432432","black","legacy","legacy","legacy","0","incongruent","uniform","1","undefined","1","h","36","0","0","0","36","0","36","0","36","0","0","0","36","36","36","36","09/23/21 16:01:11","1500","The main experiment item","yes","FlankerTask.osexp","D:\AdvQuant","no","mono","no","18","no","white","no","yes","768","legacy","36","36","D:/AdvQuant/SM-subject-5.csv","legacy","Lentiform Loewenfeld","3.3.9","0","h","NA","s","NA","NA","h","526","NA","41649","NA","NA","526","2","legacy","1024","2","48000","-16","experiment","SSHSS","5","odd","109408","44428","NA","NA","70529","2770","NA","NA","110532","2777","NA","NA","110641","111168","110528","110641","Flanker Task","36","18997","37","yes","1024"
"97.3684210526","97.3684210526","513.631578947","513.631578947","black","legacy","legacy","legacy","0","congruent","uniform","1","undefined","1","s","37","0","0","0","37","0","37","0","37","0","0","0","37","37","37","37","09/23/21 16:01:11","1500","The main experiment item","yes","FlankerTask.osexp","D:\AdvQuant","no","mono","no","18","no","white","no","yes","768","legacy","37","37","D:/AdvQuant/SM-subject-5.csv","legacy","Lentiform Loewenfeld","3.3.9","0","s","NA","s","NA","NA","s","521","NA","41649","NA","NA","521","2","legacy","1024","2","48000","-16","experiment","SSSSS","5","odd","111186","44428","NA","NA","70529","2770","NA","NA","112307","2777","NA","NA","112415","112937","112303","112415","Flanker Task","37","19518","38","yes","1024"
"97.4358974359","97.4358974359","513.692307692","513.692307692","black","legacy","legacy","legacy","0","congruent","uniform","1","undefined","1","s","38","0","0","0","38","0","38","0","38","0","0","0","38","38","38","38","09/23/21 16:01:11","1500","The main experiment item","yes","FlankerTask.osexp","D:\AdvQuant","no","mono","no","18","no","white","no","yes","768","legacy","38","38","D:/AdvQuant/SM-subject-5.csv","legacy","Lentiform Loewenfeld","3.3.9","0","s","NA","s","NA","NA","s","516","NA","41649","NA","NA","516","2","legacy","1024","2","48000","-16","experiment","SSSSS","5","odd","112961","44428","NA","NA","70529","2770","NA","NA","114078","2777","NA","NA","114187","114704","114073","114186","Flanker Task","38","20034","39","yes","1024"
"97.5","97.5","514.525","514.525","black","legacy","legacy","legacy","0","incongruent","uniform","1","undefined","1","h","39","0","0","0","39","0","39","0","39","0","0","0","39","39","39","39","09/23/21 16:01:11","1500","The main experiment item","yes","FlankerTask.osexp","D:\AdvQuant","no","mono","no","18","no","white","no","yes","768","legacy","39","39","D:/AdvQuant/SM-subject-5.csv","legacy","Lentiform Loewenfeld","3.3.9","0","h","NA","s","NA","NA","h","547","NA","41649","NA","NA","547","2","legacy","1024","2","48000","-16","experiment","SSHSS","5","odd","114721","44428","NA","NA","70529","2770","NA","NA","115844","2777","NA","NA","115953","116501","115839","115952","Flanker Task","39","20581","40","yes","1024"
"97.5609756098","97.5609756098","512.463414634","512.463414634","black","legacy","legacy","legacy","0","congruent","uniform","1","undefined","1","s","40","0","0","0","40","0","40","0","40","0","0","0","40","40","40","40","09/23/21 16:01:11","1500","The main experiment item","yes","FlankerTask.osexp","D:\AdvQuant","no","mono","no","18","no","white","no","yes","768","legacy","40","40","D:/AdvQuant/SM-subject-5.csv","legacy","Lentiform Loewenfeld","3.3.9","0","s","NA","s","NA","NA","s","430","NA","41649","NA","NA","430","2","legacy","1024","2","48000","-16","experiment","SSSSS","5","odd","116520","44428","NA","NA","70529","2770","NA","NA","117645","2777","NA","NA","117754","118185","117640","117753","Flanker Task","40","21011","41","yes","1024"
"97.619047619","97.619047619","512.30952381","512.30952381","black","legacy","legacy","legacy","0","incongruent","uniform","1","undefined","1","h","41","0","0","0","41","0","41","0","41","0","0","0","41","41","41","41","09/23/21 16:01:11","1500","The main experiment item","yes","FlankerTask.osexp","D:\AdvQuant","no","mono","no","18","no","white","no","yes","768","legacy","41","41","D:/AdvQuant/SM-subject-5.csv","legacy","Lentiform Loewenfeld","3.3.9","0","h","NA","s","NA","NA","h","506","NA","41649","NA","NA","506","2","legacy","1024","2","48000","-16","experiment","SSHSS","5","odd","118204","44428","NA","NA","70529","2770","NA","NA","119327","2777","NA","NA","119436","119943","119323","119435","Flanker Task","41","21517","42","yes","1024"
"97.6744186047","97.6744186047","512.093023256","512.093023256","black","legacy","legacy","legacy","0","incongruent","uniform","1","undefined","1","s","42","0","0","0","42","0","42","0","42","0","0","0","42","42","42","42","09/23/21 16:01:11","1500","The main experiment item","yes","FlankerTask.osexp","D:\AdvQuant","no","mono","no","18","no","white","no","yes","768","legacy","42","42","D:/AdvQuant/SM-subject-5.csv","legacy","Lentiform Loewenfeld","3.3.9","0","s","NA","s","NA","NA","s","503","NA","41649","NA","NA","503","2","legacy","1024","2","48000","-16","experiment","HHSHH","5","odd","119963","44428","NA","NA","70529","2770","NA","NA","121092","2777","NA","NA","121202","121706","121088","121201","Flanker Task","42","22020","43","yes","1024"
"97.7272727273","97.7272727273","513","513","black","legacy","legacy","legacy","0","incongruent","uniform","1","undefined","1","s","43","0","0","0","43","0","43","0","43","0","0","0","43","43","43","43","09/23/21 16:01:11","1500","The main experiment item","yes","FlankerTask.osexp","D:\AdvQuant","no","mono","no","18","no","white","no","yes","768","legacy","43","43","D:/AdvQuant/SM-subject-5.csv","legacy","Lentiform Loewenfeld","3.3.9","0","s","NA","s","NA","NA","s","552","NA","41649","NA","NA","552","2","legacy","1024","2","48000","-16","experiment","HHSHH","5","odd","121723","44428","NA","NA","70529","2770","NA","NA","122840","2777","NA","NA","122948","123501","122836","122948","Flanker Task","43","22572","44","yes","1024"
"97.7777777778","97.7777777778","514.644444444","514.644444444","black","legacy","legacy","legacy","0","incongruent","uniform","1","undefined","1","h","44","0","0","0","44","0","44","0","44","0","0","0","44","44","44","44","09/23/21 16:01:11","1500","The main experiment item","yes","FlankerTask.osexp","D:\AdvQuant","no","mono","no","18","no","white","no","yes","768","legacy","44","44","D:/AdvQuant/SM-subject-5.csv","legacy","Lentiform Loewenfeld","3.3.9","0","h","NA","s","NA","NA","h","587","NA","41649","NA","NA","587","2","legacy","1024","2","48000","-16","experiment","SSHSS","5","odd","123517","44428","NA","NA","70529","2770","NA","NA","124639","2777","NA","NA","124742","125330","124634","124742","Flanker Task","44","23159","45","yes","1024"
"97.8260869565","97.8260869565","514.739130435","514.739130435","black","legacy","legacy","legacy","0","incongruent","uniform","1","undefined","1","s","45","0","0","0","45","0","45","0","45","0","0","0","45","45","45","45","09/23/21 16:01:11","1500","The main experiment item","yes","FlankerTask.osexp","D:\AdvQuant","no","mono","no","18","no","white","no","yes","768","legacy","45","45","D:/AdvQuant/SM-subject-5.csv","legacy","Lentiform Loewenfeld","3.3.9","0","s","NA","s","NA","NA","s","519","NA","41649","NA","NA","519","2","legacy","1024","2","48000","-16","experiment","HHSHH","5","odd","125346","44428","NA","NA","70529","2770","NA","NA","126468","2777","NA","NA","126578","127098","126464","126577","Flanker Task","45","23678","46","yes","1024"
"97.8723404255","97.8723404255","515.914893617","515.914893617","black","legacy","legacy","legacy","0","incongruent","uniform","1","undefined","1","s","46","0","0","0","46","0","46","0","46","0","0","0","46","46","46","46","09/23/21 16:01:11","1500","The main experiment item","yes","FlankerTask.osexp","D:\AdvQuant","no","mono","no","18","no","white","no","yes","768","legacy","46","46","D:/AdvQuant/SM-subject-5.csv","legacy","Lentiform Loewenfeld","3.3.9","0","s","NA","s","NA","NA","s","570","NA","41649","NA","NA","570","2","legacy","1024","2","48000","-16","experiment","HHSHH","5","odd","127117","44428","NA","NA","70529","2770","NA","NA","128241","2777","NA","NA","128350","128921","128237","128349","Flanker Task","46","24248","47","yes","1024"
"97.9166666667","97.9166666667","514.708333333","514.708333333","black","legacy","legacy","legacy","0","congruent","uniform","1","undefined","1","s","47","0","0","0","47","0","47","0","47","0","0","0","47","47","47","47","09/23/21 16:01:11","1500","The main experiment item","yes","FlankerTask.osexp","D:\AdvQuant","no","mono","no","18","no","white","no","yes","768","legacy","47","47","D:/AdvQuant/SM-subject-5.csv","legacy","Lentiform Loewenfeld","3.3.9","0","s","NA","s","NA","NA","s","458","NA","41649","NA","NA","458","2","legacy","1024","2","48000","-16","experiment","SSSSS","5","odd","129294","44428","NA","NA","70529","2770","NA","NA","130421","2777","NA","NA","130531","130990","130417","130530","Flanker Task","47","24706","48","yes","1024"
"97.9591836735","97.9591836735","513.897959184","513.897959184","black","legacy","legacy","legacy","0","congruent","uniform","1","undefined","1","h","48","0","0","0","48","0","48","0","48","0","0","0","48","48","48","48","09/23/21 16:01:11","1500","The main experiment item","yes","FlankerTask.osexp","D:\AdvQuant","no","mono","no","18","no","white","no","yes","768","legacy","48","48","D:/AdvQuant/SM-subject-5.csv","legacy","Lentiform Loewenfeld","3.3.9","0","h","NA","s","NA","NA","h","475","NA","41649","NA","NA","475","2","legacy","1024","2","48000","-16","experiment","HHHHH","5","odd","131005","44428","NA","NA","70529","2770","NA","NA","132117","2777","NA","NA","132226","132702","132113","132225","Flanker Task","48","25181","49","yes","1024"
"98","98","515.6","515.6","black","legacy","legacy","legacy","0","incongruent","uniform","1","undefined","1","h","49","0","0","0","49","0","49","0","49","0","0","0","49","49","49","49","09/23/21 16:01:11","1500","The main experiment item","yes","FlankerTask.osexp","D:\AdvQuant","no","mono","no","18","no","white","no","yes","768","legacy","49","49","D:/AdvQuant/SM-subject-5.csv","legacy","Lentiform Loewenfeld","3.3.9","0","h","NA","s","NA","NA","h","599","NA","41649","NA","NA","599","2","legacy","1024","2","48000","-16","experiment","SSHSS","5","odd","132718","44428","NA","NA","70529","2770","NA","NA","133842","2777","NA","NA","133951","134551","133837","133950","Flanker Task","49","25780","50","yes","1024"
"98.0392156863","98.0392156863","516.705882353","516.705882353","black","legacy","legacy","legacy","0","incongruent","uniform","1","undefined","1","h","50","0","0","0","50","0","50","0","50","0","0","0","50","50","50","50","09/23/21 16:01:11","1500","The main experiment item","yes","FlankerTask.osexp","D:\AdvQuant","no","mono","no","18","no","white","no","yes","768","legacy","50","50","D:/AdvQuant/SM-subject-5.csv","legacy","Lentiform Loewenfeld","3.3.9","0","h","NA","s","NA","NA","h","572","NA","41649","NA","NA","572","2","legacy","1024","2","48000","-16","experiment","SSHSS","5","odd","134571","44428","NA","NA","70529","2770","NA","NA","135700","2777","NA","NA","135809","136382","135696","135808","Flanker Task","50","26352","51","yes","1024"
"98.0769230769","98.0769230769","516.403846154","516.403846154","black","legacy","legacy","legacy","0","incongruent","uniform","1","undefined","1","h","51","0","0","0","51","0","51","0","51","0","0","0","51","51","51","51","09/23/21 16:01:11","1500","The main experiment item","yes","FlankerTask.osexp","D:\AdvQuant","no","mono","no","18","no","white","no","yes","768","legacy","51","51","D:/AdvQuant/SM-subject-5.csv","legacy","Lentiform Loewenfeld","3.3.9","0","h","NA","s","NA","NA","h","501","NA","41649","NA","NA","501","2","legacy","1024","2","48000","-16","experiment","SSHSS","5","odd","136400","44428","NA","NA","70529","2770","NA","NA","137529","2777","NA","NA","137637","138140","137524","137637","Flanker Task","51","26853","52","yes","1024"
"98.1132075472","98.1132075472","516.528301887","516.528301887","black","legacy","legacy","legacy","0","incongruent","uniform","1","undefined","1","h","52","0","0","0","52","0","52","0","52","0","0","0","52","52","52","52","09/23/21 16:01:11","1500","The main experiment item","yes","FlankerTask.osexp","D:\AdvQuant","no","mono","no","18","no","white","no","yes","768","legacy","52","52","D:/AdvQuant/SM-subject-5.csv","legacy","Lentiform Loewenfeld","3.3.9","0","h","NA","s","NA","NA","h","523","NA","41649","NA","NA","523","2","legacy","1024","2","48000","-16","experiment","SSHSS","5","odd","138158","44428","NA","NA","70529","2770","NA","NA","139278","2777","NA","NA","139387","139911","139274","139386","Flanker Task","52","27376","53","yes","1024"
"98.1481481481","98.1481481481","516.851851852","516.851851852","black","legacy","legacy","legacy","0","congruent","uniform","1","undefined","1","s","53","0","0","0","53","0","53","0","53","0","0","0","53","53","53","53","09/23/21 16:01:11","1500","The main experiment item","yes","FlankerTask.osexp","D:\AdvQuant","no","mono","no","18","no","white","no","yes","768","legacy","53","53","D:/AdvQuant/SM-subject-5.csv","legacy","Lentiform Loewenfeld","3.3.9","0","s","NA","s","NA","NA","s","534","NA","41649","NA","NA","534","2","legacy","1024","2","48000","-16","experiment","SSSSS","5","odd","139927","44428","NA","NA","70529","2770","NA","NA","141047","2777","NA","NA","141156","141691","141042","141155","Flanker Task","53","27910","54","yes","1024"
"98.1818181818","98.1818181818","516.527272727","516.527272727","black","legacy","legacy","legacy","0","incongruent","uniform","1","undefined","1","s","54","0","0","0","54","0","54","0","54","0","0","0","54","54","54","54","09/23/21 16:01:11","1500","The main experiment item","yes","FlankerTask.osexp","D:\AdvQuant","no","mono","no","18","no","white","no","yes","768","legacy","54","54","D:/AdvQuant/SM-subject-5.csv","legacy","Lentiform Loewenfeld","3.3.9","0","s","NA","s","NA","NA","s","499","NA","41649","NA","NA","499","2","legacy","1024","2","48000","-16","experiment","HHSHH","5","odd","141711","44428","NA","NA","70529","2770","NA","NA","142840","2777","NA","NA","142949","143450","142835","142948","Flanker Task","54","28409","55","yes","1024"
"98.2142857143","98.2142857143","516.517857143","516.517857143","black","legacy","legacy","legacy","0","congruent","uniform","1","undefined","1","h","55","0","0","0","55","0","55","0","55","0","0","0","55","55","55","55","09/23/21 16:01:11","1500","The main experiment item","yes","FlankerTask.osexp","D:\AdvQuant","no","mono","no","18","no","white","no","yes","768","legacy","55","55","D:/AdvQuant/SM-subject-5.csv","legacy","Lentiform Loewenfeld","3.3.9","0","h","NA","s","NA","NA","h","516","NA","41649","NA","NA","516","2","legacy","1024","2","48000","-16","experiment","HHHHH","5","odd","143467","44428","NA","NA","70529","2770","NA","NA","144589","2777","NA","NA","144698","145215","144585","144697","Flanker Task","55","28925","56","yes","1024"
"98.2456140351","98.2456140351","514.947368421","514.947368421","black","legacy","legacy","legacy","0","congruent","uniform","1","undefined","1","h","56","0","0","0","56","0","56","0","56","0","0","0","56","56","56","56","09/23/21 16:01:11","1500","The main experiment item","yes","FlankerTask.osexp","D:\AdvQuant","no","mono","no","18","no","white","no","yes","768","legacy","56","56","D:/AdvQuant/SM-subject-5.csv","legacy","Lentiform Loewenfeld","3.3.9","0","h","NA","s","NA","NA","h","427","NA","41649","NA","NA","427","2","legacy","1024","2","48000","-16","experiment","HHHHH","5","odd","145230","44428","NA","NA","70529","2770","NA","NA","146354","2777","NA","NA","146462","146890","146350","146461","Flanker Task","56","29352","57","yes","1024"
"98.275862069","98.275862069","514.948275862","514.948275862","black","legacy","legacy","legacy","0","congruent","uniform","1","undefined","1","s","57","0","0","0","57","0","57","0","57","0","0","0","57","57","57","57","09/23/21 16:01:11","1500","The main experiment item","yes","FlankerTask.osexp","D:\AdvQuant","no","mono","no","18","no","white","no","yes","768","legacy","57","57","D:/AdvQuant/SM-subject-5.csv","legacy","Lentiform Loewenfeld","3.3.9","0","s","NA","s","NA","NA","s","515","NA","41649","NA","NA","515","2","legacy","1024","2","48000","-16","experiment","SSSSS","5","odd","146907","44428","NA","NA","70529","2770","NA","NA","148031","2777","NA","NA","148140","148657","148027","148139","Flanker Task","57","29867","58","yes","1024"
"98.3050847458","98.3050847458","515.338983051","515.338983051","black","legacy","legacy","legacy","0","incongruent","uniform","1","undefined","1","s","58","0","0","0","58","0","58","0","58","0","0","0","58","58","58","58","09/23/21 16:01:11","1500","The main experiment item","yes","FlankerTask.osexp","D:\AdvQuant","no","mono","no","18","no","white","no","yes","768","legacy","58","58","D:/AdvQuant/SM-subject-5.csv","legacy","Lentiform Loewenfeld","3.3.9","0","s","NA","s","NA","NA","s","538","NA","41649","NA","NA","538","2","legacy","1024","2","48000","-16","experiment","HHSHH","5","odd","148677","44428","NA","NA","70529","2770","NA","NA","149803","2777","NA","NA","149912","150451","149798","149911","Flanker Task","58","30405","59","yes","1024"
"98.3333333333","98.3333333333","513.033333333","513.033333333","black","legacy","legacy","legacy","0","congruent","uniform","1","undefined","1","s","59","0","0","0","59","0","59","0","59","0","0","0","59","59","59","59","09/23/21 16:01:11","1500","The main experiment item","yes","FlankerTask.osexp","D:\AdvQuant","no","mono","no","18","no","white","no","yes","768","legacy","59","59","D:/AdvQuant/SM-subject-5.csv","legacy","Lentiform Loewenfeld","3.3.9","0","s","NA","s","NA","NA","s","377","NA","41649","NA","NA","377","2","legacy","1024","2","48000","-16","experiment","SSSSS","5","odd","150469","44428","NA","NA","70529","2770","NA","NA","151600","2777","NA","NA","151708","152086","151595","151708","Flanker Task","59","30782","60","yes","1024"
"98.3606557377","98.3606557377","515.639344262","515.639344262","black","legacy","legacy","legacy","0","incongruent","uniform","1","undefined","1","h","60","0","0","0","60","0","60","0","60","0","0","0","60","60","60","60","09/23/21 16:01:11","1500","The main experiment item","yes","FlankerTask.osexp","D:\AdvQuant","no","mono","no","18","no","white","no","yes","768","legacy","60","60","D:/AdvQuant/SM-subject-5.csv","legacy","Lentiform Loewenfeld","3.3.9","0","h","NA","s","NA","NA","h","672","NA","41649","NA","NA","672","2","legacy","1024","2","48000","-16","experiment","SSHSS","5","odd","152103","44428","NA","NA","70529","2770","NA","NA","153225","2777","NA","NA","153335","154009","153221","153334","Flanker Task","60","31454","61","yes","1024"
"98.3870967742","98.3870967742","514.693548387","514.693548387","black","legacy","legacy","legacy","0","congruent","uniform","1","undefined","1","h","61","0","0","0","61","0","61","0","61","0","0","0","61","61","61","61","09/23/21 16:01:11","1500","The main experiment item","yes","FlankerTask.osexp","D:\AdvQuant","no","mono","no","18","no","white","no","yes","768","legacy","61","61","D:/AdvQuant/SM-subject-5.csv","legacy","Lentiform Loewenfeld","3.3.9","0","h","NA","s","NA","NA","h","457","NA","41649","NA","NA","457","2","legacy","1024","2","48000","-16","experiment","HHHHH","5","odd","154027","44428","NA","NA","70529","2770","NA","NA","155149","2777","NA","NA","155258","155716","155144","155257","Flanker Task","61","31911","62","yes","1024"
"98.4126984127","98.4126984127","514.238095238","514.238095238","black","legacy","legacy","legacy","0","incongruent","uniform","1","undefined","1","s","62","0","0","0","62","0","62","0","62","0","0","0","62","62","62","62","09/23/21 16:01:11","1500","The main experiment item","yes","FlankerTask.osexp","D:\AdvQuant","no","mono","no","18","no","white","no","yes","768","legacy","62","62","D:/AdvQuant/SM-subject-5.csv","legacy","Lentiform Loewenfeld","3.3.9","0","s","NA","s","NA","NA","s","486","NA","41649","NA","NA","486","2","legacy","1024","2","48000","-16","experiment","HHSHH","5","odd","155735","44428","NA","NA","70529","2770","NA","NA","156858","2777","NA","NA","156966","157453","156853","156965","Flanker Task","62","32397","63","yes","1024"
"98.4375","98.4375","514.359375","514.359375","black","legacy","legacy","legacy","0","congruent","uniform","1","undefined","1","h","63","0","0","0","63","0","63","0","63","0","0","0","63","63","63","63","09/23/21 16:01:11","1500","The main experiment item","yes","FlankerTask.osexp","D:\AdvQuant","no","mono","no","18","no","white","no","yes","768","legacy","63","63","D:/AdvQuant/SM-subject-5.csv","legacy","Lentiform Loewenfeld","3.3.9","0","h","NA","s","NA","NA","h","522","NA","41649","NA","NA","522","2","legacy","1024","2","48000","-16","experiment","HHHHH","5","odd","157470","44428","NA","NA","70529","2770","NA","NA","158594","2777","NA","NA","158703","159227","158589","158702","Flanker Task","63","32919","64","yes","1024"
"98.4615384615","98.4615384615","512.076923077","512.076923077","black","legacy","legacy","legacy","0","congruent","uniform","1","undefined","1","s","64","0","0","0","64","0","64","0","64","0","0","0","64","64","64","64","09/23/21 16:01:11","1500","The main experiment item","yes","FlankerTask.osexp","D:\AdvQuant","no","mono","no","18","no","white","no","yes","768","legacy","64","64","D:/AdvQuant/SM-subject-5.csv","legacy","Lentiform Loewenfeld","3.3.9","0","s","NA","s","NA","NA","s","366","NA","41649","NA","NA","366","2","legacy","1024","2","48000","-16","experiment","SSSSS","5","odd","159243","44428","NA","NA","70529","2770","NA","NA","160350","2777","NA","NA","160458","160825","160345","160458","Flanker Task","64","33285","65","yes","1024"
"98.4848484848","98.4848484848","511.742424242","511.742424242","black","legacy","legacy","legacy","0","congruent","uniform","1","undefined","1","h","65","0","0","0","65","0","65","0","65","0","0","0","65","65","65","65","09/23/21 16:01:11","1500","The main experiment item","yes","FlankerTask.osexp","D:\AdvQuant","no","mono","no","18","no","white","no","yes","768","legacy","65","65","D:/AdvQuant/SM-subject-5.csv","legacy","Lentiform Loewenfeld","3.3.9","0","h","NA","s","NA","NA","h","490","NA","41649","NA","NA","490","2","legacy","1024","2","48000","-16","experiment","HHHHH","5","odd","160843","44428","NA","NA","70529","2770","NA","NA","161961","2777","NA","NA","162070","162561","161956","162069","Flanker Task","65","33775","66","yes","1024"
"98.5074626866","98.5074626866","511.910447761","511.910447761","black","legacy","legacy","legacy","0","incongruent","uniform","1","undefined","1","h","66","0","0","0","66","0","66","0","66","0","0","0","66","66","66","66","09/23/21 16:01:11","1500","The main experiment item","yes","FlankerTask.osexp","D:\AdvQuant","no","mono","no","18","no","white","no","yes","768","legacy","66","66","D:/AdvQuant/SM-subject-5.csv","legacy","Lentiform Loewenfeld","3.3.9","0","h","NA","s","NA","NA","h","523","NA","41649","NA","NA","523","2","legacy","1024","2","48000","-16","experiment","SSHSS","5","odd","162581","44428","NA","NA","70529","2770","NA","NA","163698","2777","NA","NA","163807","164331","163695","163806","Flanker Task","66","34298","67","yes","1024"
"98.5294117647","98.5294117647","511.132352941","511.132352941","black","legacy","legacy","legacy","0","congruent","uniform","1","undefined","1","s","67","0","0","0","67","0","67","0","67","0","0","0","67","67","67","67","09/23/21 16:01:11","1500","The main experiment item","yes","FlankerTask.osexp","D:\AdvQuant","no","mono","no","18","no","white","no","yes","768","legacy","67","67","D:/AdvQuant/SM-subject-5.csv","legacy","Lentiform Loewenfeld","3.3.9","0","s","NA","s","NA","NA","s","459","NA","41649","NA","NA","459","2","legacy","1024","2","48000","-16","experiment","SSSSS","5","odd","164349","44428","NA","NA","70529","2770","NA","NA","165468","2777","NA","NA","165577","166037","165464","165576","Flanker Task","67","34757","68","yes","1024"
"98.5507246377","98.5507246377","511.376811594","511.376811594","black","legacy","legacy","legacy","0","incongruent","uniform","1","undefined","1","h","68","0","0","0","68","0","68","0","68","0","0","0","68","68","68","68","09/23/21 16:01:11","1500","The main experiment item","yes","FlankerTask.osexp","D:\AdvQuant","no","mono","no","18","no","white","no","yes","768","legacy","68","68","D:/AdvQuant/SM-subject-5.csv","legacy","Lentiform Loewenfeld","3.3.9","0","h","NA","s","NA","NA","h","528","NA","41649","NA","NA","528","2","legacy","1024","2","48000","-16","experiment","SSHSS","5","odd","166054","44428","NA","NA","70529","2770","NA","NA","167176","2777","NA","NA","167285","167814","167172","167284","Flanker Task","68","35285","69","yes","1024"
"98.5714285714","98.5714285714","511.928571429","511.928571429","black","legacy","legacy","legacy","0","incongruent","uniform","1","undefined","1","s","69","0","0","0","69","0","69","0","69","0","0","0","69","69","69","69","09/23/21 16:01:11","1500","The main experiment item","yes","FlankerTask.osexp","D:\AdvQuant","no","mono","no","18","no","white","no","yes","768","legacy","69","69","D:/AdvQuant/SM-subject-5.csv","legacy","Lentiform Loewenfeld","3.3.9","0","s","NA","s","NA","NA","s","550","NA","41649","NA","NA","550","2","legacy","1024","2","48000","-16","experiment","HHSHH","5","odd","167833","44428","NA","NA","70529","2770","NA","NA","168950","2777","NA","NA","169059","169611","168945","169058","Flanker Task","69","35835","70","yes","1024"
"98.5915492958","98.5915492958","511.957746479","511.957746479","black","legacy","legacy","legacy","0","incongruent","uniform","1","undefined","1","h","70","0","0","0","70","0","70","0","70","0","0","0","70","70","70","70","09/23/21 16:01:11","1500","The main experiment item","yes","FlankerTask.osexp","D:\AdvQuant","no","mono","no","18","no","white","no","yes","768","legacy","70","70","D:/AdvQuant/SM-subject-5.csv","legacy","Lentiform Loewenfeld","3.3.9","0","h","NA","s","NA","NA","h","514","NA","41649","NA","NA","514","2","legacy","1024","2","48000","-16","experiment","SSHSS","5","odd","169631","44428","NA","NA","70529","2770","NA","NA","170739","2777","NA","NA","170848","171363","170735","170847","Flanker Task","70","36349","71","yes","1024"
"98.6111111111","98.6111111111","511.888888889","511.888888889","black","legacy","legacy","legacy","0","incongruent","uniform","1","undefined","1","h","71","0","0","0","71","0","71","0","71","0","0","0","71","71","71","71","09/23/21 16:01:11","1500","The main experiment item","yes","FlankerTask.osexp","D:\AdvQuant","no","mono","no","18","no","white","no","yes","768","legacy","71","71","D:/AdvQuant/SM-subject-5.csv","legacy","Lentiform Loewenfeld","3.3.9","0","h","NA","s","NA","NA","h","507","NA","41649","NA","NA","507","2","legacy","1024","2","48000","-16","experiment","SSHSS","5","odd","171380","44428","NA","NA","70529","2770","NA","NA","172494","2777","NA","NA","172603","173111","172490","172602","Flanker Task","71","36856","72","yes","1024"
"98.6301369863","98.6301369863","510.849315068","510.849315068","black","legacy","legacy","legacy","0","congruent","uniform","1","undefined","1","h","72","0","0","0","72","0","72","0","72","0","0","0","72","72","72","72","09/23/21 16:01:11","1500","The main experiment item","yes","FlankerTask.osexp","D:\AdvQuant","no","mono","no","18","no","white","no","yes","768","legacy","72","72","D:/AdvQuant/SM-subject-5.csv","legacy","Lentiform Loewenfeld","3.3.9","0","h","NA","s","NA","NA","h","436","NA","41649","NA","NA","436","2","legacy","1024","2","48000","-16","experiment","HHHHH","5","odd","173126","44428","NA","NA","70529","2770","NA","NA","174253","2777","NA","NA","174362","174799","174249","174361","Flanker Task","72","37292","73","yes","1024"
"98.6486486486","98.6486486486","511.067567568","511.067567568","black","legacy","legacy","legacy","0","incongruent","uniform","1","undefined","1","s","73","0","0","0","73","0","73","0","73","0","0","0","73","73","73","73","09/23/21 16:01:11","1500","The main experiment item","yes","FlankerTask.osexp","D:\AdvQuant","no","mono","no","18","no","white","no","yes","768","legacy","73","73","D:/AdvQuant/SM-subject-5.csv","legacy","Lentiform Loewenfeld","3.3.9","0","s","NA","s","NA","NA","s","527","NA","41649","NA","NA","527","2","legacy","1024","2","48000","-16","experiment","HHSHH","5","odd","174817","44428","NA","NA","70529","2770","NA","NA","175939","2777","NA","NA","176049","176577","175935","176048","Flanker Task","73","37819","74","yes","1024"
"98.6666666667","98.6666666667","511.4","511.4","black","legacy","legacy","legacy","0","incongruent","uniform","1","undefined","1","h","74","0","0","0","74","0","74","0","74","0","0","0","74","74","74","74","09/23/21 16:01:11","1500","The main experiment item","yes","FlankerTask.osexp","D:\AdvQuant","no","mono","no","18","no","white","no","yes","768","legacy","74","74","D:/AdvQuant/SM-subject-5.csv","legacy","Lentiform Loewenfeld","3.3.9","0","h","NA","s","NA","NA","h","536","NA","41649","NA","NA","536","2","legacy","1024","2","48000","-16","experiment","SSHSS","5","odd","176598","44428","NA","NA","70529","2770","NA","NA","177713","2777","NA","NA","177822","178359","177709","177821","Flanker Task","74","38355","75","yes","1024"
"98.6842105263","98.6842105263","512.381578947","512.381578947","black","legacy","legacy","legacy","0","congruent","uniform","1","undefined","1","h","75","0","0","0","75","0","75","0","75","0","0","0","75","75","75","75","09/23/21 16:01:11","1500","The main experiment item","yes","FlankerTask.osexp","D:\AdvQuant","no","mono","no","18","no","white","no","yes","768","legacy","75","75","D:/AdvQuant/SM-subject-5.csv","legacy","Lentiform Loewenfeld","3.3.9","0","h","NA","s","NA","NA","h","586","NA","41649","NA","NA","586","2","legacy","1024","2","48000","-16","experiment","HHHHH","5","odd","178376","44428","NA","NA","70529","2770","NA","NA","179501","2777","NA","NA","179610","180198","179496","179609","Flanker Task","75","38941","76","yes","1024"
"98.7012987013","98.7012987013","511.298701299","511.298701299","black","legacy","legacy","legacy","0","congruent","uniform","1","undefined","1","h","76","0","0","0","76","0","76","0","76","0","0","0","76","76","76","76","09/23/21 16:01:11","1500","The main experiment item","yes","FlankerTask.osexp","D:\AdvQuant","no","mono","no","18","no","white","no","yes","768","legacy","76","76","D:/AdvQuant/SM-subject-5.csv","legacy","Lentiform Loewenfeld","3.3.9","0","h","NA","s","NA","NA","h","429","NA","41649","NA","NA","429","2","legacy","1024","2","48000","-16","experiment","HHHHH","5","odd","180216","44428","NA","NA","70529","2770","NA","NA","181338","2777","NA","NA","181447","181878","181333","181446","Flanker Task","76","39370","77","yes","1024"
"98.7179487179","98.7179487179","512.230769231","512.230769231","black","legacy","legacy","legacy","0","incongruent","uniform","1","undefined","1","s","77","0","0","0","77","0","77","0","77","0","0","0","77","77","77","77","09/23/21 16:01:11","1500","The main experiment item","yes","FlankerTask.osexp","D:\AdvQuant","no","mono","no","18","no","white","no","yes","768","legacy","77","77","D:/AdvQuant/SM-subject-5.csv","legacy","Lentiform Loewenfeld","3.3.9","0","s","NA","s","NA","NA","s","584","NA","41649","NA","NA","584","2","legacy","1024","2","48000","-16","experiment","HHSHH","5","odd","181895","44428","NA","NA","70529","2770","NA","NA","183016","2777","NA","NA","183125","183710","183012","183124","Flanker Task","77","39954","78","yes","1024"
"98.7341772152","98.7341772152","513.088607595","513.088607595","black","legacy","legacy","legacy","0","incongruent","uniform","1","undefined","1","s","78","0","0","0","78","0","78","0","78","0","0","0","78","78","78","78","09/23/21 16:01:11","1500","The main experiment item","yes","FlankerTask.osexp","D:\AdvQuant","no","mono","no","18","no","white","no","yes","768","legacy","78","78","D:/AdvQuant/SM-subject-5.csv","legacy","Lentiform Loewenfeld","3.3.9","0","s","NA","s","NA","NA","s","580","NA","41649","NA","NA","580","2","legacy","1024","2","48000","-16","experiment","HHSHH","5","odd","183730","44428","NA","NA","70529","2770","NA","NA","184850","2777","NA","NA","184958","185540","184845","184957","Flanker Task","78","40534","79","yes","1024"
"98.75","98.75","511.925","511.925","black","legacy","legacy","legacy","0","incongruent","uniform","1","undefined","1","s","79","0","0","0","79","0","79","0","79","0","0","0","79","79","79","79","09/23/21 16:01:11","1500","The main experiment item","yes","FlankerTask.osexp","D:\AdvQuant","no","mono","no","18","no","white","no","yes","768","legacy","79","79","D:/AdvQuant/SM-subject-5.csv","legacy","Lentiform Loewenfeld","3.3.9","0","s","NA","s","NA","NA","s","420","NA","41649","NA","NA","420","2","legacy","1024","2","48000","-16","experiment","HHSHH","5","odd","185558","44428","NA","NA","70529","2770","NA","NA","186678","2777","NA","NA","186782","187204","186674","186782","Flanker Task","79","40954","80","yes","1024"
"98.7654320988","98.7654320988","512.259259259","512.259259259","black","legacy","legacy","legacy","0","incongruent","uniform","1","undefined","1","s","80","0","0","0","80","0","80","0","80","0","0","0","80","80","80","80","09/23/21 16:01:11","600","The main experiment item","yes","FlankerTask.osexp","D:\AdvQuant","no","mono","no","18","no","white","no","yes","768","legacy","0","79","D:/AdvQuant/SM-subject-5.csv","legacy","Lentiform Loewenfeld","3.3.9","0","s","NA","s","s","NA","s","539","NA","41649","42677","NA","539","2","legacy","1024","2","48000","-16","experiment","HHSHH","5","odd","187220","44428","230944","NA","70529","2770","NA","NA","231050","2777","188265","NA","231159","231699","231046","231158","Flanker Task","80","41493","81","yes","1024"
"98.7804878049","98.7804878049","512.658536585","512.658536585","black","legacy","legacy","legacy","0","incongruent","uniform","1","undefined","1","h","81","0","0","0","81","0","81","0","81","0","0","0","81","81","81","81","09/23/21 16:01:11","600","The main experiment item","yes","FlankerTask.osexp","D:\AdvQuant","no","mono","no","18","no","white","no","yes","768","legacy","1","79","D:/AdvQuant/SM-subject-5.csv","legacy","Lentiform Loewenfeld","3.3.9","0","h","NA","s","s","NA","h","545","NA","41649","42677","NA","545","2","legacy","1024","2","48000","-16","experiment","SSHSS","5","odd","231721","44428","230944","NA","70529","2770","NA","NA","232846","2777","188265","NA","232955","233502","232841","232954","Flanker Task","81","42038","82","yes","1024"
"98.7951807229","98.7951807229","512.156626506","512.156626506","black","legacy","legacy","legacy","0","congruent","uniform","1","undefined","1","h","82","0","0","0","82","0","82","0","82","0","0","0","82","82","82","82","09/23/21 16:01:11","600","The main experiment item","yes","FlankerTask.osexp","D:\AdvQuant","no","mono","no","18","no","white","no","yes","768","legacy","2","79","D:/AdvQuant/SM-subject-5.csv","legacy","Lentiform Loewenfeld","3.3.9","0","h","NA","s","s","NA","h","471","NA","41649","42677","NA","471","2","legacy","1024","2","48000","-16","experiment","HHHHH","5","odd","233523","44428","230944","NA","70529","2770","NA","NA","234650","2777","188265","NA","234759","235232","234645","234758","Flanker Task","82","42509","83","yes","1024"
"98.8095238095","98.8095238095","511.071428571","511.071428571","black","legacy","legacy","legacy","0","congruent","uniform","1","undefined","1","h","83","0","0","0","83","0","83","0","83","0","0","0","83","83","83","83","09/23/21 16:01:11","600","The main experiment item","yes","FlankerTask.osexp","D:\AdvQuant","no","mono","no","18","no","white","no","yes","768","legacy","3","79","D:/AdvQuant/SM-subject-5.csv","legacy","Lentiform Loewenfeld","3.3.9","0","h","NA","s","s","NA","h","421","NA","41649","42677","NA","421","2","legacy","1024","2","48000","-16","experiment","HHHHH","5","odd","235250","44428","230944","NA","70529","2770","NA","NA","236364","2777","188265","NA","236473","236896","236359","236472","Flanker Task","83","42930","84","yes","1024"
"98.8235294118","98.8235294118","510.317647059","510.317647059","black","legacy","legacy","legacy","0","congruent","uniform","1","undefined","1","h","84","0","0","0","84","0","84","0","84","0","0","0","84","84","84","84","09/23/21 16:01:11","600","The main experiment item","yes","FlankerTask.osexp","D:\AdvQuant","no","mono","no","18","no","white","no","yes","768","legacy","4","79","D:/AdvQuant/SM-subject-5.csv","legacy","Lentiform Loewenfeld","3.3.9","0","h","NA","s","s","NA","h","447","NA","41649","42677","NA","447","2","legacy","1024","2","48000","-16","experiment","HHHHH","5","odd","236912","44428","230944","NA","70529","2770","NA","NA","238036","2777","188265","NA","238145","238594","238031","238144","Flanker Task","84","43377","85","yes","1024"
"98.8372093023","98.8372093023","511.023255814","511.023255814","black","legacy","legacy","legacy","0","congruent","uniform","1","undefined","1","s","85","0","0","0","85","0","85","0","85","0","0","0","85","85","85","85","09/23/21 16:01:11","600","The main experiment item","yes","FlankerTask.osexp","D:\AdvQuant","no","mono","no","18","no","white","no","yes","768","legacy","5","79","D:/AdvQuant/SM-subject-5.csv","legacy","Lentiform Loewenfeld","3.3.9","0","s","NA","s","s","NA","s","571","NA","41649","42677","NA","571","2","legacy","1024","2","48000","-16","experiment","SSSSS","5","odd","238610","44428","230944","NA","70529","2770","NA","NA","239724","2777","188265","NA","239833","240405","239719","239832","Flanker Task","85","43948","86","yes","1024"
"98.8505747126","98.8505747126","510.67816092","510.67816092","black","legacy","legacy","legacy","0","congruent","uniform","1","undefined","1","h","86","0","0","0","86","0","86","0","86","0","0","0","86","86","86","86","09/23/21 16:01:11","600","The main experiment item","yes","FlankerTask.osexp","D:\AdvQuant","no","mono","no","18","no","white","no","yes","768","legacy","6","79","D:/AdvQuant/SM-subject-5.csv","legacy","Lentiform Loewenfeld","3.3.9","0","h","NA","s","s","NA","h","481","NA","41649","42677","NA","481","2","legacy","1024","2","48000","-16","experiment","HHHHH","5","odd","240426","44428","230944","NA","70529","2770","NA","NA","241546","2777","188265","NA","241655","242137","241541","241654","Flanker Task","86","44429","87","yes","1024"
"98.8636363636","98.8636363636","510.784090909","510.784090909","black","legacy","legacy","legacy","0","incongruent","uniform","1","undefined","1","s","87","0","0","0","87","0","87","0","87","0","0","0","87","87","87","87","09/23/21 16:01:11","600","The main experiment item","yes","FlankerTask.osexp","D:\AdvQuant","no","mono","no","18","no","white","no","yes","768","legacy","7","79","D:/AdvQuant/SM-subject-5.csv","legacy","Lentiform Loewenfeld","3.3.9","0","s","NA","s","s","NA","s","520","NA","41649","42677","NA","520","2","legacy","1024","2","48000","-16","experiment","HHSHH","5","odd","242155","44428","230944","NA","70529","2770","NA","NA","243268","2777","188265","NA","243375","243896","243263","243375","Flanker Task","87","44949","88","yes","1024"
"98.8764044944","98.8764044944","510.719101124","510.719101124","black","legacy","legacy","legacy","0","incongruent","uniform","1","undefined","1","h","88","0","0","0","88","0","88","0","88","0","0","0","88","88","88","88","09/23/21 16:01:11","600","The main experiment item","yes","FlankerTask.osexp","D:\AdvQuant","no","mono","no","18","no","white","no","yes","768","legacy","8","79","D:/AdvQuant/SM-subject-5.csv","legacy","Lentiform Loewenfeld","3.3.9","0","h","NA","s","s","NA","h","505","NA","41649","42677","NA","505","2","legacy","1024","2","48000","-16","experiment","SSHSS","5","odd","243912","44428","230944","NA","70529","2770","NA","NA","245030","2777","188265","NA","245139","245646","245026","245138","Flanker Task","88","45454","89","yes","1024"
"98.8888888889","98.8888888889","509.977777778","509.977777778","black","legacy","legacy","legacy","0","incongruent","uniform","1","undefined","1","h","89","0","0","0","89","0","89","0","89","0","0","0","89","89","89","89","09/23/21 16:01:11","600","The main experiment item","yes","FlankerTask.osexp","D:\AdvQuant","no","mono","no","18","no","white","no","yes","768","legacy","9","79","D:/AdvQuant/SM-subject-5.csv","legacy","Lentiform Loewenfeld","3.3.9","0","h","NA","s","s","NA","h","444","NA","41649","42677","NA","444","2","legacy","1024","2","48000","-16","experiment","SSHSS","5","odd","245665","44428","230944","NA","70529","2770","NA","NA","246792","2777","188265","NA","246901","247347","246788","246900","Flanker Task","89","45898","90","yes","1024"
"98.9010989011","98.9010989011","510.065934066","510.065934066","black","legacy","legacy","legacy","0","incongruent","uniform","1","undefined","1","h","90","0","0","0","90","0","90","0","90","0","0","0","90","90","90","90","09/23/21 16:01:11","600","The main experiment item","yes","FlankerTask.osexp","D:\AdvQuant","no","mono","no","18","no","white","no","yes","768","legacy","10","79","D:/AdvQuant/SM-subject-5.csv","legacy","Lentiform Loewenfeld","3.3.9","0","h","NA","s","s","NA","h","518","NA","41649","42677","NA","518","2","legacy","1024","2","48000","-16","experiment","SSHSS","5","odd","247370","44428","230944","NA","70529","2770","NA","NA","248483","2777","188265","NA","248592","249111","248478","248591","Flanker Task","90","46416","91","yes","1024"
"98.9130434783","98.9130434783","509","509","black","legacy","legacy","legacy","0","incongruent","uniform","1","undefined","1","h","91","0","0","0","91","0","91","0","91","0","0","0","91","91","91","91","09/23/21 16:01:11","600","The main experiment item","yes","FlankerTask.osexp","D:\AdvQuant","no","mono","no","18","no","white","no","yes","768","legacy","11","79","D:/AdvQuant/SM-subject-5.csv","legacy","Lentiform Loewenfeld","3.3.9","0","h","NA","s","s","NA","h","412","NA","41649","42677","NA","412","2","legacy","1024","2","48000","-16","experiment","SSHSS","5","odd","249130","44428","230944","NA","70529","2770","NA","NA","250248","2777","188265","NA","250356","250769","250244","250356","Flanker Task","91","46828","92","yes","1024"
"98.9247311828","98.9247311828","508.301075269","508.301075269","black","legacy","legacy","legacy","0","congruent","uniform","1","undefined","1","h","92","0","0","0","92","0","92","0","92","0","0","0","92","92","92","92","09/23/21 16:01:11","600","The main experiment item","yes","FlankerTask.osexp","D:\AdvQuant","no","mono","no","18","no","white","no","yes","768","legacy","12","79","D:/AdvQuant/SM-subject-5.csv","legacy","Lentiform Loewenfeld","3.3.9","0","h","NA","s","s","NA","h","444","NA","41649","42677","NA","444","2","legacy","1024","2","48000","-16","experiment","HHHHH","5","odd","250786","44428","230944","NA","70529","2770","NA","NA","251905","2777","188265","NA","252014","252460","251899","252013","Flanker Task","92","47272","93","yes","1024"
"98.9361702128","98.9361702128","507.425531915","507.425531915","black","legacy","legacy","legacy","0","congruent","uniform","1","undefined","1","s","93","0","0","0","93","0","93","0","93","0","0","0","93","93","93","93","09/23/21 16:01:11","600","The main experiment item","yes","FlankerTask.osexp","D:\AdvQuant","no","mono","no","18","no","white","no","yes","768","legacy","13","79","D:/AdvQuant/SM-subject-5.csv","legacy","Lentiform Loewenfeld","3.3.9","0","s","NA","s","s","NA","s","426","NA","41649","42677","NA","426","2","legacy","1024","2","48000","-16","experiment","SSSSS","5","odd","252476","44428","230944","NA","70529","2770","NA","NA","253602","2777","188265","NA","253711","254139","253597","253710","Flanker Task","93","47698","94","yes","1024"
"98.9473684211","98.9473684211","506.221052632","506.221052632","black","legacy","legacy","legacy","0","incongruent","uniform","1","undefined","1","s","94","0","0","0","94","0","94","0","94","0","0","0","94","94","94","94","09/23/21 16:01:11","600","The main experiment item","yes","FlankerTask.osexp","D:\AdvQuant","no","mono","no","18","no","white","no","yes","768","legacy","14","79","D:/AdvQuant/SM-subject-5.csv","legacy","Lentiform Loewenfeld","3.3.9","0","s","NA","s","s","NA","s","393","NA","41649","42677","NA","393","2","legacy","1024","2","48000","-16","experiment","HHSHH","5","odd","254158","44428","230944","NA","70529","2770","NA","NA","255284","2777","188265","NA","255392","255787","255280","255391","Flanker Task","94","48091","95","yes","1024"
"98.9583333333","98.9583333333","505.010416667","505.010416667","black","legacy","legacy","legacy","0","incongruent","uniform","1","undefined","1","s","95","0","0","0","95","0","95","0","95","0","0","0","95","95","95","95","09/23/21 16:01:11","600","The main experiment item","yes","FlankerTask.osexp","D:\AdvQuant","no","mono","no","18","no","white","no","yes","768","legacy","15","79","D:/AdvQuant/SM-subject-5.csv","legacy","Lentiform Loewenfeld","3.3.9","0","s","NA","s","s","NA","s","390","NA","41649","42677","NA","390","2","legacy","1024","2","48000","-16","experiment","HHSHH","5","odd","255804","44428","230944","NA","70529","2770","NA","NA","256913","2777","188265","NA","257021","257413","256908","257021","Flanker Task","95","48481","96","yes","1024"
"98.9690721649","98.9690721649","504.917525773","504.917525773","black","legacy","legacy","legacy","0","incongruent","uniform","1","undefined","1","h","96","0","0","0","96","0","96","0","96","0","0","0","96","96","96","96","09/23/21 16:01:11","600","The main experiment item","yes","FlankerTask.osexp","D:\AdvQuant","no","mono","no","18","no","white","no","yes","768","legacy","16","79","D:/AdvQuant/SM-subject-5.csv","legacy","Lentiform Loewenfeld","3.3.9","0","h","NA","s","s","NA","h","496","NA","41649","42677","NA","496","2","legacy","1024","2","48000","-16","experiment","SSHSS","5","odd","257428","44428","230944","NA","70529","2770","NA","NA","258535","2777","188265","NA","258643","259141","258530","258642","Flanker Task","96","48977","97","yes","1024"
"98.9795918367","98.9795918367","503.510204082","503.510204082","black","legacy","legacy","legacy","0","incongruent","uniform","1","undefined","1","s","97","0","0","0","97","0","97","0","97","0","0","0","97","97","97","97","09/23/21 16:01:11","600","The main experiment item","yes","FlankerTask.osexp","D:\AdvQuant","no","mono","no","18","no","white","no","yes","768","legacy","17","79","D:/AdvQuant/SM-subject-5.csv","legacy","Lentiform Loewenfeld","3.3.9","0","s","NA","s","s","NA","s","367","NA","41649","42677","NA","367","2","legacy","1024","2","48000","-16","experiment","HHSHH","5","odd","259159","44428","230944","NA","70529","2770","NA","NA","260289","2777","188265","NA","260398","260767","260284","260397","Flanker Task","97","49344","98","yes","1024"
"98.9898989899","98.9898989899","502.616161616","502.616161616","black","legacy","legacy","legacy","0","congruent","uniform","1","undefined","1","h","98","0","0","0","98","0","98","0","98","0","0","0","98","98","98","98","09/23/21 16:01:11","600","The main experiment item","yes","FlankerTask.osexp","D:\AdvQuant","no","mono","no","18","no","white","no","yes","768","legacy","18","79","D:/AdvQuant/SM-subject-5.csv","legacy","Lentiform Loewenfeld","3.3.9","0","h","NA","s","s","NA","h","415","NA","41649","42677","NA","415","2","legacy","1024","2","48000","-16","experiment","HHHHH","5","odd","260788","44428","230944","NA","70529","2770","NA","NA","261913","2777","188265","NA","262022","262439","261908","262021","Flanker Task","98","49759","99","yes","1024"
"99","99","502.7","502.7","black","legacy","legacy","legacy","0","incongruent","uniform","1","undefined","1","s","99","0","0","0","99","0","99","0","99","0","0","0","99","99","99","99","09/23/21 16:01:11","600","The main experiment item","yes","FlankerTask.osexp","D:\AdvQuant","no","mono","no","18","no","white","no","yes","768","legacy","19","79","D:/AdvQuant/SM-subject-5.csv","legacy","Lentiform Loewenfeld","3.3.9","0","s","NA","s","s","NA","s","511","NA","41649","42677","NA","511","2","legacy","1024","2","48000","-16","experiment","HHSHH","5","odd","262457","44428","230944","NA","70529","2770","NA","NA","263572","2777","188265","NA","263682","264195","263568","263681","Flanker Task","99","50270","100","yes","1024"
"99.0099009901","99.0099009901","501.099009901","501.099009901","black","legacy","legacy","legacy","0","incongruent","uniform","1","undefined","1","s","100","0","0","0","100","0","100","0","100","0","0","0","100","100","100","100","09/23/21 16:01:11","600","The main experiment item","yes","FlankerTask.osexp","D:\AdvQuant","no","mono","no","18","no","white","no","yes","768","legacy","20","79","D:/AdvQuant/SM-subject-5.csv","legacy","Lentiform Loewenfeld","3.3.9","0","s","NA","s","s","NA","s","341","NA","41649","42677","NA","341","2","legacy","1024","2","48000","-16","experiment","HHSHH","5","odd","264211","44428","230944","NA","70529","2770","NA","NA","265336","2777","188265","NA","265445","265788","265331","265444","Flanker Task","100","50611","101","yes","1024"
"99.0196078431","99.0196078431","500.882352941","500.882352941","black","legacy","legacy","legacy","0","incongruent","uniform","1","undefined","1","h","101","0","0","0","101","0","101","0","101","0","0","0","101","101","101","101","09/23/21 16:01:11","600","The main experiment item","yes","FlankerTask.osexp","D:\AdvQuant","no","mono","no","18","no","white","no","yes","768","legacy","21","79","D:/AdvQuant/SM-subject-5.csv","legacy","Lentiform Loewenfeld","3.3.9","0","h","NA","s","s","NA","h","479","NA","41649","42677","NA","479","2","legacy","1024","2","48000","-16","experiment","SSHSS","5","odd","265804","44428","230944","NA","70529","2770","NA","NA","266928","2777","188265","NA","267037","267517","266923","267036","Flanker Task","101","51090","102","yes","1024"
"99.0291262136","99.0291262136","501.097087379","501.097087379","black","legacy","legacy","legacy","0","incongruent","uniform","1","undefined","1","h","102","0","0","0","102","0","102","0","102","0","0","0","102","102","102","102","09/23/21 16:01:11","600","The main experiment item","yes","FlankerTask.osexp","D:\AdvQuant","no","mono","no","18","no","white","no","yes","768","legacy","22","79","D:/AdvQuant/SM-subject-5.csv","legacy","Lentiform Loewenfeld","3.3.9","0","h","NA","s","s","NA","h","523","NA","41649","42677","NA","523","2","legacy","1024","2","48000","-16","experiment","SSHSS","5","odd","267538","44428","230944","NA","70529","2770","NA","NA","268670","2777","188265","NA","268779","269304","268666","268778","Flanker Task","102","51613","103","yes","1024"
"99.0384615385","99.0384615385","500.173076923","500.173076923","black","legacy","legacy","legacy","0","incongruent","uniform","1","undefined","1","h","103","0","0","0","103","0","103","0","103","0","0","0","103","103","103","103","09/23/21 16:01:11","600","The main experiment item","yes","FlankerTask.osexp","D:\AdvQuant","no","mono","no","18","no","white","no","yes","768","legacy","23","79","D:/AdvQuant/SM-subject-5.csv","legacy","Lentiform Loewenfeld","3.3.9","0","h","NA","s","s","NA","h","405","NA","41649","42677","NA","405","2","legacy","1024","2","48000","-16","experiment","SSHSS","5","odd","269322","44428","230944","NA","70529","2770","NA","NA","270440","2777","188265","NA","270549","270956","270436","270548","Flanker Task","103","52018","104","yes","1024"
"99.0476190476","99.0476190476","498.685714286","498.685714286","black","legacy","legacy","legacy","0","congruent","uniform","1","undefined","1","h","104","0","0","0","104","0","104","0","104","0","0","0","104","104","104","104","09/23/21 16:01:11","600","The main experiment item","yes","FlankerTask.osexp","D:\AdvQuant","no","mono","no","18","no","white","no","yes","768","legacy","24","79","D:/AdvQuant/SM-subject-5.csv","legacy","Lentiform Loewenfeld","3.3.9","0","h","NA","s","s","NA","h","344","NA","41649","42677","NA","344","2","legacy","1024","2","48000","-16","experiment","HHHHH","5","odd","270972","44428","230944","NA","70529","2770","NA","NA","272090","2777","188265","NA","272199","272545","272086","272198","Flanker Task","104","52362","105","yes","1024"
"98.1132075472","98.1132075472","497.103773585","497.103773585","black","legacy","legacy","legacy","0","incongruent","uniform","0","undefined","0","h","105","0","0","0","105","0","105","0","105","0","0","0","105","105","105","105","09/23/21 16:01:11","600","The main experiment item","yes","FlankerTask.osexp","D:\AdvQuant","no","mono","no","18","no","white","no","yes","768","legacy","25","79","D:/AdvQuant/SM-subject-5.csv","legacy","Lentiform Loewenfeld","3.3.9","0","s","NA","s","s","NA","s","331","NA","41649","42677","NA","331","2","legacy","1024","2","48000","-16","experiment","SSHSS","5","odd","272562","44428","230944","NA","70529","2770","NA","NA","273680","2777","188265","NA","273788","274121","273676","273787","Flanker Task","104","52693","106","yes","1024"
"98.1308411215","98.1308411215","497.542056075","497.542056075","black","legacy","legacy","legacy","0","congruent","uniform","1","undefined","1","s","106","0","0","0","106","0","106","0","106","0","0","0","106","106","106","106","09/23/21 16:01:11","600","The main experiment item","yes","FlankerTask.osexp","D:\AdvQuant","no","mono","no","18","no","white","no","yes","768","legacy","26","79","D:/AdvQuant/SM-subject-5.csv","legacy","Lentiform Loewenfeld","3.3.9","0","s","NA","s","s","NA","s","544","NA","41649","42677","NA","544","2","legacy","1024","2","48000","-16","experiment","SSSSS","5","odd","274650","44428","230944","NA","274142","2770","NA","NA","275773","2777","188265","NA","275882","276427","275768","275881","Flanker Task","105","53237","107","yes","1024"
"98.1481481481","98.1481481481","497.490740741","497.490740741","black","legacy","legacy","legacy","0","congruent","uniform","1","undefined","1","h","107","0","0","0","107","0","107","0","107","0","0","0","107","107","107","107","09/23/21 16:01:11","600","The main experiment item","yes","FlankerTask.osexp","D:\AdvQuant","no","mono","no","18","no","white","no","yes","768","legacy","27","79","D:/AdvQuant/SM-subject-5.csv","legacy","Lentiform Loewenfeld","3.3.9","0","h","NA","s","s","NA","h","492","NA","41649","42677","NA","492","2","legacy","1024","2","48000","-16","experiment","HHHHH","5","odd","276447","44428","230944","NA","274142","2770","NA","NA","277574","2777","188265","NA","277683","278177","277570","277682","Flanker Task","106","53729","108","yes","1024"
"98.1651376147","98.1651376147","497.706422018","497.706422018","black","legacy","legacy","legacy","0","incongruent","uniform","1","undefined","1","h","108","0","0","0","108","0","108","0","108","0","0","0","108","108","108","108","09/23/21 16:01:11","600","The main experiment item","yes","FlankerTask.osexp","D:\AdvQuant","no","mono","no","18","no","white","no","yes","768","legacy","28","79","D:/AdvQuant/SM-subject-5.csv","legacy","Lentiform Loewenfeld","3.3.9","0","h","NA","s","s","NA","h","521","NA","41649","42677","NA","521","2","legacy","1024","2","48000","-16","experiment","SSHSS","5","odd","278194","44428","230944","NA","274142","2770","NA","NA","279304","2777","188265","NA","279414","279937","279300","279413","Flanker Task","107","54250","109","yes","1024"
"98.1818181818","98.1818181818","496.763636364","496.763636364","black","legacy","legacy","legacy","0","incongruent","uniform","1","undefined","1","h","109","0","0","0","109","0","109","0","109","0","0","0","109","109","109","109","09/23/21 16:01:11","600","The main experiment item","yes","FlankerTask.osexp","D:\AdvQuant","no","mono","no","18","no","white","no","yes","768","legacy","29","79","D:/AdvQuant/SM-subject-5.csv","legacy","Lentiform Loewenfeld","3.3.9","0","h","NA","s","s","NA","h","394","NA","41649","42677","NA","394","2","legacy","1024","2","48000","-16","experiment","SSHSS","5","odd","279952","44428","230944","NA","274142","2770","NA","NA","281065","2777","188265","NA","281168","281564","281060","281168","Flanker Task","108","54644","110","yes","1024"
"98.1981981982","98.1981981982","495.72972973","495.72972973","black","legacy","legacy","legacy","0","congruent","uniform","1","undefined","1","h","110","0","0","0","110","0","110","0","110","0","0","0","110","110","110","110","09/23/21 16:01:11","600","The main experiment item","yes","FlankerTask.osexp","D:\AdvQuant","no","mono","no","18","no","white","no","yes","768","legacy","30","79","D:/AdvQuant/SM-subject-5.csv","legacy","Lentiform Loewenfeld","3.3.9","0","h","NA","s","s","NA","h","382","NA","41649","42677","NA","382","2","legacy","1024","2","48000","-16","experiment","HHHHH","5","odd","281582","44428","230944","NA","274142","2770","NA","NA","282705","2777","188265","NA","282815","283199","282701","282814","Flanker Task","109","55026","111","yes","1024"
"98.2142857143","98.2142857143","495.955357143","495.955357143","black","legacy","legacy","legacy","0","congruent","uniform","1","undefined","1","s","111","0","0","0","111","0","111","0","111","0","0","0","111","111","111","111","09/23/21 16:01:11","600","The main experiment item","yes","FlankerTask.osexp","D:\AdvQuant","no","mono","no","18","no","white","no","yes","768","legacy","31","79","D:/AdvQuant/SM-subject-5.csv","legacy","Lentiform Loewenfeld","3.3.9","0","s","NA","s","s","NA","s","521","NA","41649","42677","NA","521","2","legacy","1024","2","48000","-16","experiment","SSSSS","5","odd","283217","44428","230944","NA","274142","2770","NA","NA","284333","2777","188265","NA","284442","284965","284328","284441","Flanker Task","110","55547","112","yes","1024"
"98.2300884956","98.2300884956","495.477876106","495.477876106","black","legacy","legacy","legacy","0","incongruent","uniform","1","undefined","1","s","112","0","0","0","112","0","112","0","112","0","0","0","112","112","112","112","09/23/21 16:01:11","600","The main experiment item","yes","FlankerTask.osexp","D:\AdvQuant","no","mono","no","18","no","white","no","yes","768","legacy","32","79","D:/AdvQuant/SM-subject-5.csv","legacy","Lentiform Loewenfeld","3.3.9","0","s","NA","s","s","NA","s","442","NA","41649","42677","NA","442","2","legacy","1024","2","48000","-16","experiment","HHSHH","5","odd","284982","44428","230944","NA","274142","2770","NA","NA","286100","2777","188265","NA","286209","286653","286096","286208","Flanker Task","111","55989","113","yes","1024"
"98.2456140351","98.2456140351","495","495","black","legacy","legacy","legacy","0","incongruent","uniform","1","undefined","1","s","113","0","0","0","113","0","113","0","113","0","0","0","113","113","113","113","09/23/21 16:01:11","600","The main experiment item","yes","FlankerTask.osexp","D:\AdvQuant","no","mono","no","18","no","white","no","yes","768","legacy","33","79","D:/AdvQuant/SM-subject-5.csv","legacy","Lentiform Loewenfeld","3.3.9","0","s","NA","s","s","NA","s","441","NA","41649","42677","NA","441","2","legacy","1024","2","48000","-16","experiment","HHSHH","5","odd","286670","44428","230944","NA","274142","2770","NA","NA","287784","2777","188265","NA","287892","288335","287779","287891","Flanker Task","112","56430","114","yes","1024"
"98.2608695652","98.2608695652","495.4","495.4","black","legacy","legacy","legacy","0","incongruent","uniform","1","undefined","1","h","114","0","0","0","114","0","114","0","114","0","0","0","114","114","114","114","09/23/21 16:01:11","600","The main experiment item","yes","FlankerTask.osexp","D:\AdvQuant","no","mono","no","18","no","white","no","yes","768","legacy","34","79","D:/AdvQuant/SM-subject-5.csv","legacy","Lentiform Loewenfeld","3.3.9","0","h","NA","s","s","NA","h","541","NA","41649","42677","NA","541","2","legacy","1024","2","48000","-16","experiment","SSHSS","5","odd","288354","44428","230944","NA","274142","2770","NA","NA","289481","2777","188265","NA","289590","290133","289476","289589","Flanker Task","113","56971","115","yes","1024"
"98.275862069","98.275862069","494.853448276","494.853448276","black","legacy","legacy","legacy","0","congruent","uniform","1","undefined","1","h","115","0","0","0","115","0","115","0","115","0","0","0","115","115","115","115","09/23/21 16:01:11","600","The main experiment item","yes","FlankerTask.osexp","D:\AdvQuant","no","mono","no","18","no","white","no","yes","768","legacy","35","79","D:/AdvQuant/SM-subject-5.csv","legacy","Lentiform Loewenfeld","3.3.9","0","h","NA","s","s","NA","h","432","NA","41649","42677","NA","432","2","legacy","1024","2","48000","-16","experiment","HHHHH","5","odd","290151","44428","230944","NA","274142","2770","NA","NA","291266","2777","188265","NA","291376","291810","291262","291375","Flanker Task","114","57403","116","yes","1024"
"98.2905982906","98.2905982906","494.606837607","494.606837607","black","legacy","legacy","legacy","0","incongruent","uniform","1","undefined","1","h","116","0","0","0","116","0","116","0","116","0","0","0","116","116","116","116","09/23/21 16:01:11","600","The main experiment item","yes","FlankerTask.osexp","D:\AdvQuant","no","mono","no","18","no","white","no","yes","768","legacy","36","79","D:/AdvQuant/SM-subject-5.csv","legacy","Lentiform Loewenfeld","3.3.9","0","h","NA","s","s","NA","h","466","NA","41649","42677","NA","466","2","legacy","1024","2","48000","-16","experiment","SSHSS","5","odd","291827","44428","230944","NA","274142","2770","NA","NA","292944","2777","188265","NA","293053","293521","292939","293052","Flanker Task","115","57869","117","yes","1024"
"98.3050847458","98.3050847458","494.542372881","494.542372881","black","legacy","legacy","legacy","0","congruent","uniform","1","undefined","1","s","117","0","0","0","117","0","117","0","117","0","0","0","117","117","117","117","09/23/21 16:01:11","600","The main experiment item","yes","FlankerTask.osexp","D:\AdvQuant","no","mono","no","18","no","white","no","yes","768","legacy","37","79","D:/AdvQuant/SM-subject-5.csv","legacy","Lentiform Loewenfeld","3.3.9","0","s","NA","s","s","NA","s","487","NA","41649","42677","NA","487","2","legacy","1024","2","48000","-16","experiment","SSSSS","5","odd","293538","44428","230944","NA","274142","2770","NA","NA","294652","2777","188265","NA","294762","295251","294648","294761","Flanker Task","116","58356","118","yes","1024"
"98.3193277311","98.3193277311","493.773109244","493.773109244","black","legacy","legacy","legacy","0","congruent","uniform","1","undefined","1","s","118","0","0","0","118","0","118","0","118","0","0","0","118","118","118","118","09/23/21 16:01:11","600","The main experiment item","yes","FlankerTask.osexp","D:\AdvQuant","no","mono","no","18","no","white","no","yes","768","legacy","38","79","D:/AdvQuant/SM-subject-5.csv","legacy","Lentiform Loewenfeld","3.3.9","0","s","NA","s","s","NA","s","403","NA","41649","42677","NA","403","2","legacy","1024","2","48000","-16","experiment","SSSSS","5","odd","295269","44428","230944","NA","274142","2770","NA","NA","296388","2777","188265","NA","296497","296902","296383","296496","Flanker Task","117","58759","119","yes","1024"
"98.3333333333","98.3333333333","494.008333333","494.008333333","black","legacy","legacy","legacy","0","incongruent","uniform","1","undefined","1","h","119","0","0","0","119","0","119","0","119","0","0","0","119","119","119","119","09/23/21 16:01:11","600","The main experiment item","yes","FlankerTask.osexp","D:\AdvQuant","no","mono","no","18","no","white","no","yes","768","legacy","39","79","D:/AdvQuant/SM-subject-5.csv","legacy","Lentiform Loewenfeld","3.3.9","0","h","NA","s","s","NA","h","522","NA","41649","42677","NA","522","2","legacy","1024","2","48000","-16","experiment","SSHSS","5","odd","296921","44428","230944","NA","274142","2770","NA","NA","298039","2777","188265","NA","298148","298672","298035","298147","Flanker Task","118","59281","120","yes","1024"
"98.347107438","98.347107438","493.371900826","493.371900826","black","legacy","legacy","legacy","0","congruent","uniform","1","undefined","1","s","120","0","0","0","120","0","120","0","120","0","0","0","120","120","120","120","09/23/21 16:01:11","600","The main experiment item","yes","FlankerTask.osexp","D:\AdvQuant","no","mono","no","18","no","white","no","yes","768","legacy","40","79","D:/AdvQuant/SM-subject-5.csv","legacy","Lentiform Loewenfeld","3.3.9","0","s","NA","s","s","NA","s","417","NA","41649","42677","NA","417","2","legacy","1024","2","48000","-16","experiment","SSSSS","5","odd","298689","44428","230944","NA","274142","2770","NA","NA","299808","2777","188265","NA","299917","300336","299804","299916","Flanker Task","119","59698","121","yes","1024"
"98.3606557377","98.3606557377","493.254098361","493.254098361","black","legacy","legacy","legacy","0","incongruent","uniform","1","undefined","1","h","121","0","0","0","121","0","121","0","121","0","0","0","121","121","121","121","09/23/21 16:01:11","600","The main experiment item","yes","FlankerTask.osexp","D:\AdvQuant","no","mono","no","18","no","white","no","yes","768","legacy","41","79","D:/AdvQuant/SM-subject-5.csv","legacy","Lentiform Loewenfeld","3.3.9","0","h","NA","s","s","NA","h","479","NA","41649","42677","NA","479","2","legacy","1024","2","48000","-16","experiment","SSHSS","5","odd","300355","44428","230944","NA","274142","2770","NA","NA","301483","2777","188265","NA","301592","302074","301478","301591","Flanker Task","120","60177","122","yes","1024"
"98.3739837398","98.3739837398","492.398373984","492.398373984","black","legacy","legacy","legacy","0","congruent","uniform","1","undefined","1","h","122","0","0","0","122","0","122","0","122","0","0","0","122","122","122","122","09/23/21 16:01:11","600","The main experiment item","yes","FlankerTask.osexp","D:\AdvQuant","no","mono","no","18","no","white","no","yes","768","legacy","42","79","D:/AdvQuant/SM-subject-5.csv","legacy","Lentiform Loewenfeld","3.3.9","0","h","NA","s","s","NA","h","388","NA","41649","42677","NA","388","2","legacy","1024","2","48000","-16","experiment","HHHHH","5","odd","302094","44428","230944","NA","274142","2770","NA","NA","303220","2777","188265","NA","303329","303719","303216","303329","Flanker Task","121","60565","123","yes","1024"
"98.3870967742","98.3870967742","492.741935484","492.741935484","black","legacy","legacy","legacy","0","incongruent","uniform","1","undefined","1","s","123","0","0","0","123","0","123","0","123","0","0","0","123","123","123","123","09/23/21 16:01:11","600","The main experiment item","yes","FlankerTask.osexp","D:\AdvQuant","no","mono","no","18","no","white","no","yes","768","legacy","43","79","D:/AdvQuant/SM-subject-5.csv","legacy","Lentiform Loewenfeld","3.3.9","0","s","NA","s","s","NA","s","535","NA","41649","42677","NA","535","2","legacy","1024","2","48000","-16","experiment","HHSHH","5","odd","303737","44428","230944","NA","274142","2770","NA","NA","304851","2777","188265","NA","304960","305497","304846","304959","Flanker Task","122","61100","124","yes","1024"
"98.4","98.4","492.032","492.032","black","legacy","legacy","legacy","0","congruent","uniform","1","undefined","1","s","124","0","0","0","124","0","124","0","124","0","0","0","124","124","124","124","09/23/21 16:01:11","600","The main experiment item","yes","FlankerTask.osexp","D:\AdvQuant","no","mono","no","18","no","white","no","yes","768","legacy","44","79","D:/AdvQuant/SM-subject-5.csv","legacy","Lentiform Loewenfeld","3.3.9","0","s","NA","s","s","NA","s","404","NA","41649","42677","NA","404","2","legacy","1024","2","48000","-16","experiment","SSSSS","5","odd","305515","44428","230944","NA","274142","2770","NA","NA","306641","2777","188265","NA","306749","307156","306637","306749","Flanker Task","123","61504","125","yes","1024"
"98.4126984127","98.4126984127","491.182539683","491.182539683","black","legacy","legacy","legacy","0","congruent","uniform","1","undefined","1","s","125","0","0","0","125","0","125","0","125","0","0","0","125","125","125","125","09/23/21 16:01:11","600","The main experiment item","yes","FlankerTask.osexp","D:\AdvQuant","no","mono","no","18","no","white","no","yes","768","legacy","45","79","D:/AdvQuant/SM-subject-5.csv","legacy","Lentiform Loewenfeld","3.3.9","0","s","NA","s","s","NA","s","385","NA","41649","42677","NA","385","2","legacy","1024","2","48000","-16","experiment","SSSSS","5","odd","307171","44428","230944","NA","274142","2770","NA","NA","308294","2777","188265","NA","308403","308790","308290","308402","Flanker Task","124","61889","126","yes","1024"
"98.4251968504","98.4251968504","491.015748031","491.015748031","black","legacy","legacy","legacy","0","incongruent","uniform","1","undefined","1","s","126","0","0","0","126","0","126","0","126","0","0","0","126","126","126","126","09/23/21 16:01:11","600","The main experiment item","yes","FlankerTask.osexp","D:\AdvQuant","no","mono","no","18","no","white","no","yes","768","legacy","46","79","D:/AdvQuant/SM-subject-5.csv","legacy","Lentiform Loewenfeld","3.3.9","0","s","NA","s","s","NA","s","470","NA","41649","42677","NA","470","2","legacy","1024","2","48000","-16","experiment","HHSHH","5","odd","308809","44428","230944","NA","274142","2770","NA","NA","309924","2777","188265","NA","310033","310505","309919","310032","Flanker Task","125","62359","127","yes","1024"
"98.4375","98.4375","490.984375","490.984375","black","legacy","legacy","legacy","0","incongruent","uniform","1","undefined","1","h","127","0","0","0","127","0","127","0","127","0","0","0","127","127","127","127","09/23/21 16:01:11","600","The main experiment item","yes","FlankerTask.osexp","D:\AdvQuant","no","mono","no","18","no","white","no","yes","768","legacy","47","79","D:/AdvQuant/SM-subject-5.csv","legacy","Lentiform Loewenfeld","3.3.9","0","h","NA","s","s","NA","h","487","NA","41649","42677","NA","487","2","legacy","1024","2","48000","-16","experiment","SSHSS","5","odd","310521","44428","230944","NA","274142","2770","NA","NA","311635","2777","188265","NA","311744","312233","311631","311743","Flanker Task","126","62846","128","yes","1024"
"98.4496124031","98.4496124031","490.403100775","490.403100775","black","legacy","legacy","legacy","0","congruent","uniform","1","undefined","1","s","128","0","0","0","128","0","128","0","128","0","0","0","128","128","128","128","09/23/21 16:01:11","600","The main experiment item","yes","FlankerTask.osexp","D:\AdvQuant","no","mono","no","18","no","white","no","yes","768","legacy","48","79","D:/AdvQuant/SM-subject-5.csv","legacy","Lentiform Loewenfeld","3.3.9","0","s","NA","s","s","NA","s","416","NA","41649","42677","NA","416","2","legacy","1024","2","48000","-16","experiment","SSSSS","5","odd","312249","44428","230944","NA","274142","2770","NA","NA","313367","2777","188265","NA","313476","313894","313363","313475","Flanker Task","127","63262","129","yes","1024"
"98.4615384615","98.4615384615","489.284615385","489.284615385","black","legacy","legacy","legacy","0","congruent","uniform","1","undefined","1","s","129","0","0","0","129","0","129","0","129","0","0","0","129","129","129","129","09/23/21 16:01:11","600","The main experiment item","yes","FlankerTask.osexp","D:\AdvQuant","no","mono","no","18","no","white","no","yes","768","legacy","49","79","D:/AdvQuant/SM-subject-5.csv","legacy","Lentiform Loewenfeld","3.3.9","0","s","NA","s","s","NA","s","345","NA","41649","42677","NA","345","2","legacy","1024","2","48000","-16","experiment","SSSSS","5","odd","314267","44428","230944","NA","274142","2770","NA","NA","315379","2777","188265","NA","315488","315835","315374","315487","Flanker Task","128","63607","130","yes","1024"
