"acc","accuracy","average_response_time","avg_rt","background","canvas_backend","clock_backend","color_backend","compensation","condition","coordinates","correct","correct_instructions1","correct_keyboard_response","correct_response","count_Block1","count_Block2","count_Block3","count_ISI","count_errorFeedback","count_experiment","count_faster","count_finish","count_fixation","count_instructions1","count_instructions2","count_instructons3","count_keyboard_response","count_logger","count_sequence","count_stimulus","datetime","deadline","description","disable_garbage_collection","experiment_file","experiment_path","font_bold","font_family","font_italic","font_size","font_underline","foreground","form_clicks","fullscreen","height","keyboard_backend","live_row","live_row_Block1","logfile","mouse_backend","opensesame_codename","opensesame_version","repeat_cycle","response","response_finish","response_instructions1","response_instructions2","response_instructons3","response_keyboard_response","response_time","response_time_finish","response_time_instructions1","response_time_instructions2","response_time_instructons3","response_time_keyboard_response","round_decimals","sampler_backend","sound_buf_size","sound_channels","sound_freq","sound_sample_size","start","stimulus","subject_nr","subject_parity","time_Block1","time_Block2","time_Block3","time_ISI","time_errorFeedback","time_experiment","time_faster","time_finish","time_fixation","time_instructions1","time_instructions2","time_instructons3","time_keyboard_response","time_logger","time_sequence","time_stimulus","title","total_correct","total_response_time","total_responses","uniform_coordinates","width"
"0","0","1500","1500","black","legacy","legacy","legacy","0","congruent","uniform","0","undefined","0","h","0","0","0","0","0","0","0","0","0","0","0","0","0","0","0","0","Mon Sep 13 09:45:42 2021","1500","The main experiment item","yes","SR-FlankerTask.osexp","C:/Users/Simon M. Rook/Documents/School/1 Tarleton/Classes/Adv Quant/Lab 2","no","mono","no","18","no","white","no","yes","768","legacy","0","0","C:/Users/Simon M. Rook/Documents/School/1 Tarleton/Classes/Adv Quant/Lab 2/flanker-data/sr-subject-0.csv","legacy","Lentiform Loewenfeld","3.3.9","0","None","NA","","NA","NA","None","1500","NA","7175","NA","NA","1500","2","legacy","1024","2","48000","-16","experiment","HHHHH","0","even","35470","NA","NA","NA","NA","1794","NA","NA","35538","1797","NA","NA","35639","37139","35537","35639","Flanker Task","0","1500","1","yes","1024"
"50","50","1178","1178","black","legacy","legacy","legacy","0","incongruent","uniform","1","undefined","1","h","0","0","0","1","1","0","1","0","1","0","0","0","1","1","1","1","Mon Sep 13 09:45:42 2021","1500","The main experiment item","yes","SR-FlankerTask.osexp","C:/Users/Simon M. Rook/Documents/School/1 Tarleton/Classes/Adv Quant/Lab 2","no","mono","no","18","no","white","no","yes","768","legacy","1","1","C:/Users/Simon M. Rook/Documents/School/1 Tarleton/Classes/Adv Quant/Lab 2/flanker-data/sr-subject-0.csv","legacy","Lentiform Loewenfeld","3.3.9","0","h","NA","","NA","NA","h","856","NA","7175","NA","NA","856","2","legacy","1024","2","48000","-16","experiment","SSHSS","0","even","35470","NA","NA","37646","37145","1794","NA","NA","38699","1797","NA","NA","38800","39656","38698","38800","Flanker Task","1","2356","2","yes","1024"
"66.66666666666667","66.66666666666667","965","965","black","legacy","legacy","legacy","0","congruent","uniform","1","undefined","1","h","0","0","0","2","2","0","2","0","2","0","0","0","2","2","2","2","Mon Sep 13 09:45:42 2021","1500","The main experiment item","yes","SR-FlankerTask.osexp","C:/Users/Simon M. Rook/Documents/School/1 Tarleton/Classes/Adv Quant/Lab 2","no","mono","no","18","no","white","no","yes","768","legacy","2","2","C:/Users/Simon M. Rook/Documents/School/1 Tarleton/Classes/Adv Quant/Lab 2/flanker-data/sr-subject-0.csv","legacy","Lentiform Loewenfeld","3.3.9","0","h","NA","","NA","NA","h","539","NA","7175","NA","NA","539","2","legacy","1024","2","48000","-16","experiment","HHHHH","0","even","35470","NA","NA","39659","37145","1794","NA","NA","40712","1797","NA","NA","40813","41352","40710","40813","Flanker Task","2","2895","3","yes","1024"
"75","75","892.75","892.75","black","legacy","legacy","legacy","0","congruent","uniform","1","undefined","1","h","0","0","0","3","3","0","3","0","3","0","0","0","3","3","3","3","Mon Sep 13 09:45:42 2021","1500","The main experiment item","yes","SR-FlankerTask.osexp","C:/Users/Simon M. Rook/Documents/School/1 Tarleton/Classes/Adv Quant/Lab 2","no","mono","no","18","no","white","no","yes","768","legacy","3","3","C:/Users/Simon M. Rook/Documents/School/1 Tarleton/Classes/Adv Quant/Lab 2/flanker-data/sr-subject-0.csv","legacy","Lentiform Loewenfeld","3.3.9","0","h","NA","","NA","NA","h","676","NA","7175","NA","NA","676","2","legacy","1024","2","48000","-16","experiment","HHHHH","0","even","35470","NA","NA","41356","37145","1794","NA","NA","42407","1797","NA","NA","42508","43185","42406","42508","Flanker Task","3","3571","4","yes","1024"
"80","80","823.6","823.6","black","legacy","legacy","legacy","0","incongruent","uniform","1","undefined","1","h","0","0","0","4","4","0","4","0","4","0","0","0","4","4","4","4","Mon Sep 13 09:45:42 2021","1500","The main experiment item","yes","SR-FlankerTask.osexp","C:/Users/Simon M. Rook/Documents/School/1 Tarleton/Classes/Adv Quant/Lab 2","no","mono","no","18","no","white","no","yes","768","legacy","4","4","C:/Users/Simon M. Rook/Documents/School/1 Tarleton/Classes/Adv Quant/Lab 2/flanker-data/sr-subject-0.csv","legacy","Lentiform Loewenfeld","3.3.9","0","h","NA","","NA","NA","h","547","NA","7175","NA","NA","547","2","legacy","1024","2","48000","-16","experiment","SSHSS","0","even","35470","NA","NA","43188","37145","1794","NA","NA","44240","1797","NA","NA","44341","44889","44239","44341","Flanker Task","4","4118","5","yes","1024"
"83.33333333333333","83.33333333333333","778.6666666666666","778.6666666666666","black","legacy","legacy","legacy","0","incongruent","uniform","1","undefined","1","s","0","0","0","5","5","0","5","0","5","0","0","0","5","5","5","5","Mon Sep 13 09:45:42 2021","1500","The main experiment item","yes","SR-FlankerTask.osexp","C:/Users/Simon M. Rook/Documents/School/1 Tarleton/Classes/Adv Quant/Lab 2","no","mono","no","18","no","white","no","yes","768","legacy","5","5","C:/Users/Simon M. Rook/Documents/School/1 Tarleton/Classes/Adv Quant/Lab 2/flanker-data/sr-subject-0.csv","legacy","Lentiform Loewenfeld","3.3.9","0","s","NA","","NA","NA","s","554","NA","7175","NA","NA","554","2","legacy","1024","2","48000","-16","experiment","HHSHH","0","even","35470","NA","NA","44892","37145","1794","NA","NA","45945","1797","NA","NA","46046","46600","45943","46046","Flanker Task","5","4672","6","yes","1024"
"85.71428571428571","85.71428571428571","735.4285714285714","735.4285714285714","black","legacy","legacy","legacy","0","congruent","uniform","1","undefined","1","s","0","0","0","6","6","0","6","0","6","0","0","0","6","6","6","6","Mon Sep 13 09:45:42 2021","1500","The main experiment item","yes","SR-FlankerTask.osexp","C:/Users/Simon M. Rook/Documents/School/1 Tarleton/Classes/Adv Quant/Lab 2","no","mono","no","18","no","white","no","yes","768","legacy","6","6","C:/Users/Simon M. Rook/Documents/School/1 Tarleton/Classes/Adv Quant/Lab 2/flanker-data/sr-subject-0.csv","legacy","Lentiform Loewenfeld","3.3.9","0","s","NA","","NA","NA","s","476","NA","7175","NA","NA","476","2","legacy","1024","2","48000","-16","experiment","SSSSS","0","even","35470","NA","NA","46603","37145","1794","NA","NA","47656","1797","NA","NA","47757","48233","47654","47757","Flanker Task","6","5148","7","yes","1024"
"87.5","87.5","714","714","black","legacy","legacy","legacy","0","incongruent","uniform","1","undefined","1","h","0","0","0","7","7","0","7","0","7","0","0","0","7","7","7","7","Mon Sep 13 09:45:42 2021","1500","The main experiment item","yes","SR-FlankerTask.osexp","C:/Users/Simon M. Rook/Documents/School/1 Tarleton/Classes/Adv Quant/Lab 2","no","mono","no","18","no","white","no","yes","768","legacy","7","7","C:/Users/Simon M. Rook/Documents/School/1 Tarleton/Classes/Adv Quant/Lab 2/flanker-data/sr-subject-0.csv","legacy","Lentiform Loewenfeld","3.3.9","0","h","NA","","NA","NA","h","564","NA","7175","NA","NA","564","2","legacy","1024","2","48000","-16","experiment","SSHSS","0","even","35470","NA","NA","48236","37145","1794","NA","NA","49288","1797","NA","NA","49389","49953","49287","49389","Flanker Task","7","5712","8","yes","1024"
"88.88888888888889","88.88888888888889","695.5555555555555","695.5555555555555","black","legacy","legacy","legacy","0","incongruent","uniform","1","undefined","1","h","0","0","0","8","8","0","8","0","8","0","0","0","8","8","8","8","Mon Sep 13 09:45:42 2021","1500","The main experiment item","yes","SR-FlankerTask.osexp","C:/Users/Simon M. Rook/Documents/School/1 Tarleton/Classes/Adv Quant/Lab 2","no","mono","no","18","no","white","no","yes","768","legacy","8","8","C:/Users/Simon M. Rook/Documents/School/1 Tarleton/Classes/Adv Quant/Lab 2/flanker-data/sr-subject-0.csv","legacy","Lentiform Loewenfeld","3.3.9","0","h","NA","","NA","NA","h","548","NA","7175","NA","NA","548","2","legacy","1024","2","48000","-16","experiment","SSHSS","0","even","35470","NA","NA","49956","37145","1794","NA","NA","51008","1797","NA","NA","51109","51658","51006","51109","Flanker Task","8","6260","9","yes","1024"
"90","90","676.7","676.7","black","legacy","legacy","legacy","0","congruent","uniform","1","undefined","1","h","0","0","0","9","9","0","9","0","9","0","0","0","9","9","9","9","Mon Sep 13 09:45:42 2021","1500","The main experiment item","yes","SR-FlankerTask.osexp","C:/Users/Simon M. Rook/Documents/School/1 Tarleton/Classes/Adv Quant/Lab 2","no","mono","no","18","no","white","no","yes","768","legacy","9","9","C:/Users/Simon M. Rook/Documents/School/1 Tarleton/Classes/Adv Quant/Lab 2/flanker-data/sr-subject-0.csv","legacy","Lentiform Loewenfeld","3.3.9","0","h","NA","","NA","NA","h","507","NA","7175","NA","NA","507","2","legacy","1024","2","48000","-16","experiment","HHHHH","0","even","35470","NA","NA","51661","37145","1794","NA","NA","52713","1797","NA","NA","52814","53322","52712","52814","Flanker Task","9","6767","10","yes","1024"
"90.9090909090909","90.9090909090909","662.7272727272727","662.7272727272727","black","legacy","legacy","legacy","0","congruent","uniform","1","undefined","1","s","0","0","0","10","10","0","10","0","10","0","0","0","10","10","10","10","Mon Sep 13 09:45:42 2021","1500","The main experiment item","yes","SR-FlankerTask.osexp","C:/Users/Simon M. Rook/Documents/School/1 Tarleton/Classes/Adv Quant/Lab 2","no","mono","no","18","no","white","no","yes","768","legacy","10","10","C:/Users/Simon M. Rook/Documents/School/1 Tarleton/Classes/Adv Quant/Lab 2/flanker-data/sr-subject-0.csv","legacy","Lentiform Loewenfeld","3.3.9","0","s","NA","","NA","NA","s","523","NA","7175","NA","NA","523","2","legacy","1024","2","48000","-16","experiment","SSSSS","0","even","35470","NA","NA","53325","37145","1794","NA","NA","54377","1797","NA","NA","54478","55001","54376","54478","Flanker Task","10","7290","11","yes","1024"
"91.66666666666667","91.66666666666667","643.75","643.75","black","legacy","legacy","legacy","0","incongruent","uniform","1","undefined","1","s","0","0","0","11","11","0","11","0","11","0","0","0","11","11","11","11","Mon Sep 13 09:45:42 2021","1500","The main experiment item","yes","SR-FlankerTask.osexp","C:/Users/Simon M. Rook/Documents/School/1 Tarleton/Classes/Adv Quant/Lab 2","no","mono","no","18","no","white","no","yes","768","legacy","11","11","C:/Users/Simon M. Rook/Documents/School/1 Tarleton/Classes/Adv Quant/Lab 2/flanker-data/sr-subject-0.csv","legacy","Lentiform Loewenfeld","3.3.9","0","s","NA","","NA","NA","s","435","NA","7175","NA","NA","435","2","legacy","1024","2","48000","-16","experiment","HHSHH","0","even","35470","NA","NA","55005","37145","1794","NA","NA","56057","1797","NA","NA","56159","56594","56055","56159","Flanker Task","11","7725","12","yes","1024"
"92.3076923076923","92.3076923076923","626","626","black","legacy","legacy","legacy","0","congruent","uniform","1","undefined","1","s","0","0","0","12","12","0","12","0","12","0","0","0","12","12","12","12","Mon Sep 13 09:45:42 2021","1500","The main experiment item","yes","SR-FlankerTask.osexp","C:/Users/Simon M. Rook/Documents/School/1 Tarleton/Classes/Adv Quant/Lab 2","no","mono","no","18","no","white","no","yes","768","legacy","12","12","C:/Users/Simon M. Rook/Documents/School/1 Tarleton/Classes/Adv Quant/Lab 2/flanker-data/sr-subject-0.csv","legacy","Lentiform Loewenfeld","3.3.9","0","s","NA","","NA","NA","s","413","NA","7175","NA","NA","413","2","legacy","1024","2","48000","-16","experiment","SSSSS","0","even","35470","NA","NA","56597","37145","1794","NA","NA","57656","1797","NA","NA","57757","58170","57655","57757","Flanker Task","12","8138","13","yes","1024"
"92.85714285714286","92.85714285714286","615.2142857142857","615.2142857142857","black","legacy","legacy","legacy","0","congruent","uniform","1","undefined","1","s","0","0","0","13","13","0","13","0","13","0","0","0","13","13","13","13","Mon Sep 13 09:45:42 2021","1500","The main experiment item","yes","SR-FlankerTask.osexp","C:/Users/Simon M. Rook/Documents/School/1 Tarleton/Classes/Adv Quant/Lab 2","no","mono","no","18","no","white","no","yes","768","legacy","13","13","C:/Users/Simon M. Rook/Documents/School/1 Tarleton/Classes/Adv Quant/Lab 2/flanker-data/sr-subject-0.csv","legacy","Lentiform Loewenfeld","3.3.9","0","s","NA","","NA","NA","s","475","NA","7175","NA","NA","475","2","legacy","1024","2","48000","-16","experiment","SSSSS","0","even","35470","NA","NA","58173","37145","1794","NA","NA","59226","1797","NA","NA","59327","59802","59224","59327","Flanker Task","13","8613","14","yes","1024"
"93.33333333333333","93.33333333333333","608.6","608.6","black","legacy","legacy","legacy","0","congruent","uniform","1","undefined","1","h","0","0","0","14","14","0","14","0","14","0","0","0","14","14","14","14","Mon Sep 13 09:45:42 2021","1500","The main experiment item","yes","SR-FlankerTask.osexp","C:/Users/Simon M. Rook/Documents/School/1 Tarleton/Classes/Adv Quant/Lab 2","no","mono","no","18","no","white","no","yes","768","legacy","14","14","C:/Users/Simon M. Rook/Documents/School/1 Tarleton/Classes/Adv Quant/Lab 2/flanker-data/sr-subject-0.csv","legacy","Lentiform Loewenfeld","3.3.9","0","h","NA","","NA","NA","h","516","NA","7175","NA","NA","516","2","legacy","1024","2","48000","-16","experiment","HHHHH","0","even","35470","NA","NA","59805","37145","1794","NA","NA","60857","1797","NA","NA","60958","61475","60856","60958","Flanker Task","14","9129","15","yes","1024"
"93.75","93.75","604.125","604.125","black","legacy","legacy","legacy","0","incongruent","uniform","1","undefined","1","h","0","0","0","15","15","0","15","0","15","0","0","0","15","15","15","15","Mon Sep 13 09:45:42 2021","1500","The main experiment item","yes","SR-FlankerTask.osexp","C:/Users/Simon M. Rook/Documents/School/1 Tarleton/Classes/Adv Quant/Lab 2","no","mono","no","18","no","white","no","yes","768","legacy","15","15","C:/Users/Simon M. Rook/Documents/School/1 Tarleton/Classes/Adv Quant/Lab 2/flanker-data/sr-subject-0.csv","legacy","Lentiform Loewenfeld","3.3.9","0","h","NA","","NA","NA","h","537","NA","7175","NA","NA","537","2","legacy","1024","2","48000","-16","experiment","SSHSS","0","even","35470","NA","NA","61478","37145","1794","NA","NA","62532","1797","NA","NA","62633","63171","62530","62633","Flanker Task","15","9666","16","yes","1024"
"88.23529411764706","88.23529411764706","598.9411764705883","598.9411764705883","black","legacy","legacy","legacy","0","incongruent","uniform","0","undefined","0","s","0","0","0","16","16","0","16","0","16","0","0","0","16","16","16","16","Mon Sep 13 09:45:42 2021","1500","The main experiment item","yes","SR-FlankerTask.osexp","C:/Users/Simon M. Rook/Documents/School/1 Tarleton/Classes/Adv Quant/Lab 2","no","mono","no","18","no","white","no","yes","768","legacy","16","16","C:/Users/Simon M. Rook/Documents/School/1 Tarleton/Classes/Adv Quant/Lab 2/flanker-data/sr-subject-0.csv","legacy","Lentiform Loewenfeld","3.3.9","0","h","NA","","NA","NA","h","516","NA","7175","NA","NA","516","2","legacy","1024","2","48000","-16","experiment","HHSHH","0","even","35470","NA","NA","63174","37145","1794","NA","NA","64226","1797","NA","NA","64327","64843","64225","64327","Flanker Task","15","10182","17","yes","1024"
"88.88888888888889","88.88888888888889","594.3333333333334","594.3333333333334","black","legacy","legacy","legacy","0","incongruent","uniform","1","undefined","1","s","0","0","0","17","17","0","17","0","17","0","0","0","17","17","17","17","Mon Sep 13 09:45:42 2021","1500","The main experiment item","yes","SR-FlankerTask.osexp","C:/Users/Simon M. Rook/Documents/School/1 Tarleton/Classes/Adv Quant/Lab 2","no","mono","no","18","no","white","no","yes","768","legacy","17","17","C:/Users/Simon M. Rook/Documents/School/1 Tarleton/Classes/Adv Quant/Lab 2/flanker-data/sr-subject-0.csv","legacy","Lentiform Loewenfeld","3.3.9","0","s","NA","","NA","NA","s","516","NA","7175","NA","NA","516","2","legacy","1024","2","48000","-16","experiment","HHSHH","0","even","35470","NA","NA","65348","64847","1794","NA","NA","66402","1797","NA","NA","66503","67019","66401","66503","Flanker Task","16","10698","18","yes","1024"
"89.47368421052632","89.47368421052632","587.6842105263158","587.6842105263158","black","legacy","legacy","legacy","0","congruent","uniform","1","undefined","1","s","0","0","0","18","18","0","18","0","18","0","0","0","18","18","18","18","Mon Sep 13 09:45:42 2021","1500","The main experiment item","yes","SR-FlankerTask.osexp","C:/Users/Simon M. Rook/Documents/School/1 Tarleton/Classes/Adv Quant/Lab 2","no","mono","no","18","no","white","no","yes","768","legacy","18","18","C:/Users/Simon M. Rook/Documents/School/1 Tarleton/Classes/Adv Quant/Lab 2/flanker-data/sr-subject-0.csv","legacy","Lentiform Loewenfeld","3.3.9","0","s","NA","","NA","NA","s","468","NA","7175","NA","NA","468","2","legacy","1024","2","48000","-16","experiment","SSSSS","0","even","35470","NA","NA","67022","64847","1794","NA","NA","68082","1797","NA","NA","68183","68651","68080","68183","Flanker Task","17","11166","19","yes","1024"
"90","90","579.7","579.7","black","legacy","legacy","legacy","0","congruent","uniform","1","undefined","1","s","0","0","0","19","19","0","19","0","19","0","0","0","19","19","19","19","Mon Sep 13 09:45:42 2021","1500","The main experiment item","yes","SR-FlankerTask.osexp","C:/Users/Simon M. Rook/Documents/School/1 Tarleton/Classes/Adv Quant/Lab 2","no","mono","no","18","no","white","no","yes","768","legacy","19","19","C:/Users/Simon M. Rook/Documents/School/1 Tarleton/Classes/Adv Quant/Lab 2/flanker-data/sr-subject-0.csv","legacy","Lentiform Loewenfeld","3.3.9","0","s","NA","","NA","NA","s","428","NA","7175","NA","NA","428","2","legacy","1024","2","48000","-16","experiment","SSSSS","0","even","35470","NA","NA","68654","64847","1794","NA","NA","69706","1797","NA","NA","69807","70236","69704","69807","Flanker Task","18","11594","20","yes","1024"
"90.47619047619048","90.47619047619048","575.4761904761905","575.4761904761905","black","legacy","legacy","legacy","0","incongruent","uniform","1","undefined","1","h","0","0","0","20","20","0","20","0","20","0","0","0","20","20","20","20","Mon Sep 13 09:45:42 2021","1500","The main experiment item","yes","SR-FlankerTask.osexp","C:/Users/Simon M. Rook/Documents/School/1 Tarleton/Classes/Adv Quant/Lab 2","no","mono","no","18","no","white","no","yes","768","legacy","20","20","C:/Users/Simon M. Rook/Documents/School/1 Tarleton/Classes/Adv Quant/Lab 2/flanker-data/sr-subject-0.csv","legacy","Lentiform Loewenfeld","3.3.9","0","h","NA","","NA","NA","h","491","NA","7175","NA","NA","491","2","legacy","1024","2","48000","-16","experiment","SSHSS","0","even","35470","NA","NA","70239","64847","1794","NA","NA","71291","1797","NA","NA","71392","71884","71290","71392","Flanker Task","19","12085","21","yes","1024"
"90.9090909090909","90.9090909090909","574.9090909090909","574.9090909090909","black","legacy","legacy","legacy","0","congruent","uniform","1","undefined","1","h","0","0","0","21","21","0","21","0","21","0","0","0","21","21","21","21","Mon Sep 13 09:45:42 2021","1500","The main experiment item","yes","SR-FlankerTask.osexp","C:/Users/Simon M. Rook/Documents/School/1 Tarleton/Classes/Adv Quant/Lab 2","no","mono","no","18","no","white","no","yes","768","legacy","21","21","C:/Users/Simon M. Rook/Documents/School/1 Tarleton/Classes/Adv Quant/Lab 2/flanker-data/sr-subject-0.csv","legacy","Lentiform Loewenfeld","3.3.9","0","h","NA","","NA","NA","h","563","NA","7175","NA","NA","563","2","legacy","1024","2","48000","-16","experiment","HHHHH","0","even","35470","NA","NA","71887","64847","1794","NA","NA","72940","1797","NA","NA","73041","73604","72938","73041","Flanker Task","20","12648","22","yes","1024"
"91.30434782608695","91.30434782608695","572.3478260869565","572.3478260869565","black","legacy","legacy","legacy","0","incongruent","uniform","1","undefined","1","s","0","0","0","22","22","0","22","0","22","0","0","0","22","22","22","22","Mon Sep 13 09:45:42 2021","1500","The main experiment item","yes","SR-FlankerTask.osexp","C:/Users/Simon M. Rook/Documents/School/1 Tarleton/Classes/Adv Quant/Lab 2","no","mono","no","18","no","white","no","yes","768","legacy","22","22","C:/Users/Simon M. Rook/Documents/School/1 Tarleton/Classes/Adv Quant/Lab 2/flanker-data/sr-subject-0.csv","legacy","Lentiform Loewenfeld","3.3.9","0","s","NA","","NA","NA","s","516","NA","7175","NA","NA","516","2","legacy","1024","2","48000","-16","experiment","HHSHH","0","even","35470","NA","NA","73607","64847","1794","NA","NA","74659","1797","NA","NA","74760","75276","74658","74760","Flanker Task","21","13164","23","yes","1024"
"91.66666666666667","91.66666666666667","568.9583333333334","568.9583333333334","black","legacy","legacy","legacy","0","incongruent","uniform","1","undefined","1","s","0","0","0","23","23","0","23","0","23","0","0","0","23","23","23","23","Mon Sep 13 09:45:42 2021","1500","The main experiment item","yes","SR-FlankerTask.osexp","C:/Users/Simon M. Rook/Documents/School/1 Tarleton/Classes/Adv Quant/Lab 2","no","mono","no","18","no","white","no","yes","768","legacy","23","23","C:/Users/Simon M. Rook/Documents/School/1 Tarleton/Classes/Adv Quant/Lab 2/flanker-data/sr-subject-0.csv","legacy","Lentiform Loewenfeld","3.3.9","0","s","NA","","NA","NA","s","491","NA","7175","NA","NA","491","2","legacy","1024","2","48000","-16","experiment","HHSHH","0","even","35470","NA","NA","75279","64847","1794","NA","NA","76332","1797","NA","NA","76433","76924","76331","76433","Flanker Task","22","13655","24","yes","1024"
"92","92","571.96","571.96","black","legacy","legacy","legacy","0","congruent","uniform","1","undefined","1","s","0","0","0","24","24","0","24","0","24","0","0","0","24","24","24","24","Mon Sep 13 09:45:42 2021","1500","The main experiment item","yes","SR-FlankerTask.osexp","C:/Users/Simon M. Rook/Documents/School/1 Tarleton/Classes/Adv Quant/Lab 2","no","mono","no","18","no","white","no","yes","768","legacy","24","24","C:/Users/Simon M. Rook/Documents/School/1 Tarleton/Classes/Adv Quant/Lab 2/flanker-data/sr-subject-0.csv","legacy","Lentiform Loewenfeld","3.3.9","0","s","NA","","NA","NA","s","644","NA","7175","NA","NA","644","2","legacy","1024","2","48000","-16","experiment","SSSSS","0","even","35470","NA","NA","76927","64847","1794","NA","NA","77979","1797","NA","NA","78080","78725","77977","78080","Flanker Task","23","14299","25","yes","1024"
"92.3076923076923","92.3076923076923","568.8846153846154","568.8846153846154","black","legacy","legacy","legacy","0","congruent","uniform","1","undefined","1","s","0","0","0","25","25","0","25","0","25","0","0","0","25","25","25","25","Mon Sep 13 09:45:42 2021","1500","The main experiment item","yes","SR-FlankerTask.osexp","C:/Users/Simon M. Rook/Documents/School/1 Tarleton/Classes/Adv Quant/Lab 2","no","mono","no","18","no","white","no","yes","768","legacy","25","25","C:/Users/Simon M. Rook/Documents/School/1 Tarleton/Classes/Adv Quant/Lab 2/flanker-data/sr-subject-0.csv","legacy","Lentiform Loewenfeld","3.3.9","0","s","NA","","NA","NA","s","492","NA","7175","NA","NA","492","2","legacy","1024","2","48000","-16","experiment","SSSSS","0","even","35470","NA","NA","78728","64847","1794","NA","NA","79780","1797","NA","NA","79881","80373","79778","79881","Flanker Task","24","14791","26","yes","1024"
"92.5925925925926","92.5925925925926","567.4814814814815","567.4814814814815","black","legacy","legacy","legacy","0","incongruent","uniform","1","undefined","1","h","0","0","0","26","26","0","26","0","26","0","0","0","26","26","26","26","Mon Sep 13 09:45:42 2021","1500","The main experiment item","yes","SR-FlankerTask.osexp","C:/Users/Simon M. Rook/Documents/School/1 Tarleton/Classes/Adv Quant/Lab 2","no","mono","no","18","no","white","no","yes","768","legacy","26","26","C:/Users/Simon M. Rook/Documents/School/1 Tarleton/Classes/Adv Quant/Lab 2/flanker-data/sr-subject-0.csv","legacy","Lentiform Loewenfeld","3.3.9","0","h","NA","","NA","NA","h","531","NA","7175","NA","NA","531","2","legacy","1024","2","48000","-16","experiment","SSHSS","0","even","35470","NA","NA","80376","64847","1794","NA","NA","81429","1797","NA","NA","81530","82061","81427","81530","Flanker Task","25","15322","27","yes","1024"
"92.85714285714286","92.85714285714286","563.8928571428571","563.8928571428571","black","legacy","legacy","legacy","0","congruent","uniform","1","undefined","1","s","0","0","0","27","27","0","27","0","27","0","0","0","27","27","27","27","Mon Sep 13 09:45:42 2021","1500","The main experiment item","yes","SR-FlankerTask.osexp","C:/Users/Simon M. Rook/Documents/School/1 Tarleton/Classes/Adv Quant/Lab 2","no","mono","no","18","no","white","no","yes","768","legacy","27","27","C:/Users/Simon M. Rook/Documents/School/1 Tarleton/Classes/Adv Quant/Lab 2/flanker-data/sr-subject-0.csv","legacy","Lentiform Loewenfeld","3.3.9","0","s","NA","","NA","NA","s","467","NA","7175","NA","NA","467","2","legacy","1024","2","48000","-16","experiment","SSSSS","0","even","35470","NA","NA","82064","64847","1794","NA","NA","83116","1797","NA","NA","83217","83685","83115","83217","Flanker Task","26","15789","28","yes","1024"
"89.65517241379311","89.65517241379311","563.8965517241379","563.8965517241379","black","legacy","legacy","legacy","0","incongruent","uniform","0","undefined","0","s","0","0","0","28","28","0","28","0","28","0","0","0","28","28","28","28","Mon Sep 13 09:45:42 2021","1500","The main experiment item","yes","SR-FlankerTask.osexp","C:/Users/Simon M. Rook/Documents/School/1 Tarleton/Classes/Adv Quant/Lab 2","no","mono","no","18","no","white","no","yes","768","legacy","28","28","C:/Users/Simon M. Rook/Documents/School/1 Tarleton/Classes/Adv Quant/Lab 2/flanker-data/sr-subject-0.csv","legacy","Lentiform Loewenfeld","3.3.9","0","h","NA","","NA","NA","h","564","NA","7175","NA","NA","564","2","legacy","1024","2","48000","-16","experiment","HHSHH","0","even","35470","NA","NA","83688","64847","1794","NA","NA","84740","1797","NA","NA","84841","85406","84738","84841","Flanker Task","26","16353","29","yes","1024"
"90","90","559.6","559.6","black","legacy","legacy","legacy","0","congruent","uniform","1","undefined","1","s","0","0","0","29","29","0","29","0","29","0","0","0","29","29","29","29","Mon Sep 13 09:45:42 2021","1500","The main experiment item","yes","SR-FlankerTask.osexp","C:/Users/Simon M. Rook/Documents/School/1 Tarleton/Classes/Adv Quant/Lab 2","no","mono","no","18","no","white","no","yes","768","legacy","29","29","C:/Users/Simon M. Rook/Documents/School/1 Tarleton/Classes/Adv Quant/Lab 2/flanker-data/sr-subject-0.csv","legacy","Lentiform Loewenfeld","3.3.9","0","s","NA","","NA","NA","s","435","NA","7175","NA","NA","435","2","legacy","1024","2","48000","-16","experiment","SSSSS","0","even","35470","NA","NA","85910","85409","1794","NA","NA","86965","1797","NA","NA","87066","87502","86964","87066","Flanker Task","27","16788","30","yes","1024"
"90.3225806451613","90.3225806451613","555.8709677419355","555.8709677419355","black","legacy","legacy","legacy","0","incongruent","uniform","1","undefined","1","s","0","0","0","30","30","0","30","0","30","0","0","0","30","30","30","30","Mon Sep 13 09:45:42 2021","1500","The main experiment item","yes","SR-FlankerTask.osexp","C:/Users/Simon M. Rook/Documents/School/1 Tarleton/Classes/Adv Quant/Lab 2","no","mono","no","18","no","white","no","yes","768","legacy","30","30","C:/Users/Simon M. Rook/Documents/School/1 Tarleton/Classes/Adv Quant/Lab 2/flanker-data/sr-subject-0.csv","legacy","Lentiform Loewenfeld","3.3.9","0","s","NA","","NA","NA","s","444","NA","7175","NA","NA","444","2","legacy","1024","2","48000","-16","experiment","HHSHH","0","even","35470","NA","NA","87505","85409","1794","NA","NA","88557","1797","NA","NA","88658","89102","88556","88658","Flanker Task","28","17232","31","yes","1024"
"90.625","90.625","559","559","black","legacy","legacy","legacy","0","incongruent","uniform","1","undefined","1","h","0","0","0","31","31","0","31","0","31","0","0","0","31","31","31","31","Mon Sep 13 09:45:42 2021","1500","The main experiment item","yes","SR-FlankerTask.osexp","C:/Users/Simon M. Rook/Documents/School/1 Tarleton/Classes/Adv Quant/Lab 2","no","mono","no","18","no","white","no","yes","768","legacy","31","31","C:/Users/Simon M. Rook/Documents/School/1 Tarleton/Classes/Adv Quant/Lab 2/flanker-data/sr-subject-0.csv","legacy","Lentiform Loewenfeld","3.3.9","0","h","NA","","NA","NA","h","656","NA","7175","NA","NA","656","2","legacy","1024","2","48000","-16","experiment","SSHSS","0","even","35470","NA","NA","89106","85409","1794","NA","NA","90161","1797","NA","NA","90262","90918","90159","90262","Flanker Task","29","17888","32","yes","1024"
"90.9090909090909","90.9090909090909","565.8787878787879","565.8787878787879","black","legacy","legacy","legacy","0","incongruent","uniform","1","undefined","1","h","0","0","0","32","32","0","32","0","32","0","0","0","32","32","32","32","Mon Sep 13 09:45:42 2021","1500","The main experiment item","yes","SR-FlankerTask.osexp","C:/Users/Simon M. Rook/Documents/School/1 Tarleton/Classes/Adv Quant/Lab 2","no","mono","no","18","no","white","no","yes","768","legacy","32","32","C:/Users/Simon M. Rook/Documents/School/1 Tarleton/Classes/Adv Quant/Lab 2/flanker-data/sr-subject-0.csv","legacy","Lentiform Loewenfeld","3.3.9","0","h","NA","","NA","NA","h","786","NA","7175","NA","NA","786","2","legacy","1024","2","48000","-16","experiment","SSHSS","0","even","35470","NA","NA","90921","85409","1794","NA","NA","91974","1797","NA","NA","92075","92862","91972","92075","Flanker Task","30","18674","33","yes","1024"
"91.17647058823529","91.17647058823529","563.9117647058823","563.9117647058823","black","legacy","legacy","legacy","0","congruent","uniform","1","undefined","1","s","0","0","0","33","33","0","33","0","33","0","0","0","33","33","33","33","Mon Sep 13 09:45:42 2021","1500","The main experiment item","yes","SR-FlankerTask.osexp","C:/Users/Simon M. Rook/Documents/School/1 Tarleton/Classes/Adv Quant/Lab 2","no","mono","no","18","no","white","no","yes","768","legacy","33","33","C:/Users/Simon M. Rook/Documents/School/1 Tarleton/Classes/Adv Quant/Lab 2/flanker-data/sr-subject-0.csv","legacy","Lentiform Loewenfeld","3.3.9","0","s","NA","","NA","NA","s","499","NA","7175","NA","NA","499","2","legacy","1024","2","48000","-16","experiment","SSSSS","0","even","35470","NA","NA","92865","85409","1794","NA","NA","93918","1797","NA","NA","94019","94519","93916","94019","Flanker Task","31","19173","34","yes","1024"
"91.42857142857143","91.42857142857143","565.9428571428572","565.9428571428572","black","legacy","legacy","legacy","0","congruent","uniform","1","undefined","1","h","0","0","0","34","34","0","34","0","34","0","0","0","34","34","34","34","Mon Sep 13 09:45:42 2021","1500","The main experiment item","yes","SR-FlankerTask.osexp","C:/Users/Simon M. Rook/Documents/School/1 Tarleton/Classes/Adv Quant/Lab 2","no","mono","no","18","no","white","no","yes","768","legacy","34","34","C:/Users/Simon M. Rook/Documents/School/1 Tarleton/Classes/Adv Quant/Lab 2/flanker-data/sr-subject-0.csv","legacy","Lentiform Loewenfeld","3.3.9","0","h","NA","","NA","NA","h","635","NA","7175","NA","NA","635","2","legacy","1024","2","48000","-16","experiment","HHHHH","0","even","35470","NA","NA","94522","85409","1794","NA","NA","95574","1797","NA","NA","95675","96311","95573","95675","Flanker Task","32","19808","35","yes","1024"
"91.66666666666667","91.66666666666667","561.8888888888889","561.8888888888889","black","legacy","legacy","legacy","0","congruent","uniform","1","undefined","1","s","0","0","0","35","35","0","35","0","35","0","0","0","35","35","35","35","Mon Sep 13 09:45:42 2021","1500","The main experiment item","yes","SR-FlankerTask.osexp","C:/Users/Simon M. Rook/Documents/School/1 Tarleton/Classes/Adv Quant/Lab 2","no","mono","no","18","no","white","no","yes","768","legacy","35","35","C:/Users/Simon M. Rook/Documents/School/1 Tarleton/Classes/Adv Quant/Lab 2/flanker-data/sr-subject-0.csv","legacy","Lentiform Loewenfeld","3.3.9","0","s","NA","","NA","NA","s","420","NA","7175","NA","NA","420","2","legacy","1024","2","48000","-16","experiment","SSSSS","0","even","35470","NA","NA","96314","85409","1794","NA","NA","97366","1797","NA","NA","97467","97887","97364","97467","Flanker Task","33","20228","36","yes","1024"
"91.89189189189189","91.89189189189189","559.972972972973","559.972972972973","black","legacy","legacy","legacy","0","congruent","uniform","1","undefined","1","h","0","0","0","36","36","0","36","0","36","0","0","0","36","36","36","36","Mon Sep 13 09:45:42 2021","1500","The main experiment item","yes","SR-FlankerTask.osexp","C:/Users/Simon M. Rook/Documents/School/1 Tarleton/Classes/Adv Quant/Lab 2","no","mono","no","18","no","white","no","yes","768","legacy","36","36","C:/Users/Simon M. Rook/Documents/School/1 Tarleton/Classes/Adv Quant/Lab 2/flanker-data/sr-subject-0.csv","legacy","Lentiform Loewenfeld","3.3.9","0","h","NA","","NA","NA","h","491","NA","7175","NA","NA","491","2","legacy","1024","2","48000","-16","experiment","HHHHH","0","even","35470","NA","NA","97891","85409","1794","NA","NA","98943","1797","NA","NA","99044","99535","98942","99044","Flanker Task","34","20719","37","yes","1024"
"89.47368421052632","89.47368421052632","559","559","black","legacy","legacy","legacy","0","incongruent","uniform","0","undefined","0","h","0","0","0","37","37","0","37","0","37","0","0","0","37","37","37","37","Mon Sep 13 09:45:42 2021","1500","The main experiment item","yes","SR-FlankerTask.osexp","C:/Users/Simon M. Rook/Documents/School/1 Tarleton/Classes/Adv Quant/Lab 2","no","mono","no","18","no","white","no","yes","768","legacy","37","37","C:/Users/Simon M. Rook/Documents/School/1 Tarleton/Classes/Adv Quant/Lab 2/flanker-data/sr-subject-0.csv","legacy","Lentiform Loewenfeld","3.3.9","0","s","NA","","NA","NA","s","523","NA","7175","NA","NA","523","2","legacy","1024","2","48000","-16","experiment","SSHSS","0","even","35470","NA","NA","99538","85409","1794","NA","NA","100590","1797","NA","NA","100691","101215","100589","100691","Flanker Task","34","21242","38","yes","1024"
"89.74358974358974","89.74358974358974","558.5641025641025","558.5641025641025","black","legacy","legacy","legacy","0","incongruent","uniform","1","undefined","1","s","0","0","0","38","38","0","38","0","38","0","0","0","38","38","38","38","Mon Sep 13 09:45:42 2021","1500","The main experiment item","yes","SR-FlankerTask.osexp","C:/Users/Simon M. Rook/Documents/School/1 Tarleton/Classes/Adv Quant/Lab 2","no","mono","no","18","no","white","no","yes","768","legacy","38","38","C:/Users/Simon M. Rook/Documents/School/1 Tarleton/Classes/Adv Quant/Lab 2/flanker-data/sr-subject-0.csv","legacy","Lentiform Loewenfeld","3.3.9","0","s","NA","","NA","NA","s","542","NA","7175","NA","NA","542","2","legacy","1024","2","48000","-16","experiment","HHSHH","0","even","35470","NA","NA","101720","101219","1794","NA","NA","102772","1797","NA","NA","102873","103416","102770","102873","Flanker Task","35","21784","39","yes","1024"
"90","90","567.05","567.05","black","legacy","legacy","legacy","0","congruent","uniform","1","undefined","1","h","0","0","0","39","39","0","39","0","39","0","0","0","39","39","39","39","Mon Sep 13 09:45:42 2021","1500","The main experiment item","yes","SR-FlankerTask.osexp","C:/Users/Simon M. Rook/Documents/School/1 Tarleton/Classes/Adv Quant/Lab 2","no","mono","no","18","no","white","no","yes","768","legacy","39","39","C:/Users/Simon M. Rook/Documents/School/1 Tarleton/Classes/Adv Quant/Lab 2/flanker-data/sr-subject-0.csv","legacy","Lentiform Loewenfeld","3.3.9","0","h","NA","","NA","NA","h","898","NA","7175","NA","NA","898","2","legacy","1024","2","48000","-16","experiment","HHHHH","0","even","35470","NA","NA","103419","101219","1794","NA","NA","104472","1797","NA","NA","104573","105472","104470","104573","Flanker Task","36","22682","40","yes","1024"
"90.2439024390244","90.2439024390244","564.6341463414634","564.6341463414634","black","legacy","legacy","legacy","0","congruent","uniform","1","undefined","1","h","0","0","0","40","40","0","40","0","40","0","0","0","40","40","40","40","Mon Sep 13 09:45:42 2021","1500","The main experiment item","yes","SR-FlankerTask.osexp","C:/Users/Simon M. Rook/Documents/School/1 Tarleton/Classes/Adv Quant/Lab 2","no","mono","no","18","no","white","no","yes","768","legacy","40","40","C:/Users/Simon M. Rook/Documents/School/1 Tarleton/Classes/Adv Quant/Lab 2/flanker-data/sr-subject-0.csv","legacy","Lentiform Loewenfeld","3.3.9","0","h","NA","","NA","NA","h","468","NA","7175","NA","NA","468","2","legacy","1024","2","48000","-16","experiment","HHHHH","0","even","35470","NA","NA","105475","101219","1794","NA","NA","106527","1797","NA","NA","106628","107096","106525","106628","Flanker Task","37","23150","41","yes","1024"
"90.47619047619048","90.47619047619048","565.7380952380952","565.7380952380952","black","legacy","legacy","legacy","0","congruent","uniform","1","undefined","1","h","0","0","0","41","41","0","41","0","41","0","0","0","41","41","41","41","Mon Sep 13 09:45:42 2021","1500","The main experiment item","yes","SR-FlankerTask.osexp","C:/Users/Simon M. Rook/Documents/School/1 Tarleton/Classes/Adv Quant/Lab 2","no","mono","no","18","no","white","no","yes","768","legacy","41","41","C:/Users/Simon M. Rook/Documents/School/1 Tarleton/Classes/Adv Quant/Lab 2/flanker-data/sr-subject-0.csv","legacy","Lentiform Loewenfeld","3.3.9","0","h","NA","","NA","NA","h","611","NA","7175","NA","NA","611","2","legacy","1024","2","48000","-16","experiment","HHHHH","0","even","35470","NA","NA","107100","101219","1794","NA","NA","108152","1797","NA","NA","108253","108864","108151","108253","Flanker Task","38","23761","42","yes","1024"
"90.69767441860465","90.69767441860465","563.4418604651163","563.4418604651163","black","legacy","legacy","legacy","0","incongruent","uniform","1","undefined","1","s","0","0","0","42","42","0","42","0","42","0","0","0","42","42","42","42","Mon Sep 13 09:45:42 2021","1500","The main experiment item","yes","SR-FlankerTask.osexp","C:/Users/Simon M. Rook/Documents/School/1 Tarleton/Classes/Adv Quant/Lab 2","no","mono","no","18","no","white","no","yes","768","legacy","42","42","C:/Users/Simon M. Rook/Documents/School/1 Tarleton/Classes/Adv Quant/Lab 2/flanker-data/sr-subject-0.csv","legacy","Lentiform Loewenfeld","3.3.9","0","s","NA","","NA","NA","s","467","NA","7175","NA","NA","467","2","legacy","1024","2","48000","-16","experiment","HHSHH","0","even","35470","NA","NA","108868","101219","1794","NA","NA","109920","1797","NA","NA","110021","110489","109918","110021","Flanker Task","39","24228","43","yes","1024"
"90.9090909090909","90.9090909090909","564.6818181818181","564.6818181818181","black","legacy","legacy","legacy","0","incongruent","uniform","1","undefined","1","h","0","0","0","43","43","0","43","0","43","0","0","0","43","43","43","43","Mon Sep 13 09:45:42 2021","1500","The main experiment item","yes","SR-FlankerTask.osexp","C:/Users/Simon M. Rook/Documents/School/1 Tarleton/Classes/Adv Quant/Lab 2","no","mono","no","18","no","white","no","yes","768","legacy","43","43","C:/Users/Simon M. Rook/Documents/School/1 Tarleton/Classes/Adv Quant/Lab 2/flanker-data/sr-subject-0.csv","legacy","Lentiform Loewenfeld","3.3.9","0","h","NA","","NA","NA","h","618","NA","7175","NA","NA","618","2","legacy","1024","2","48000","-16","experiment","SSHSS","0","even","35470","NA","NA","110492","101219","1794","NA","NA","111545","1797","NA","NA","111646","112265","111543","111646","Flanker Task","40","24846","44","yes","1024"
"91.11111111111111","91.11111111111111","561.8","561.8","black","legacy","legacy","legacy","0","incongruent","uniform","1","undefined","1","s","0","0","0","44","44","0","44","0","44","0","0","0","44","44","44","44","Mon Sep 13 09:45:42 2021","1500","The main experiment item","yes","SR-FlankerTask.osexp","C:/Users/Simon M. Rook/Documents/School/1 Tarleton/Classes/Adv Quant/Lab 2","no","mono","no","18","no","white","no","yes","768","legacy","44","44","C:/Users/Simon M. Rook/Documents/School/1 Tarleton/Classes/Adv Quant/Lab 2/flanker-data/sr-subject-0.csv","legacy","Lentiform Loewenfeld","3.3.9","0","s","NA","","NA","NA","s","435","NA","7175","NA","NA","435","2","legacy","1024","2","48000","-16","experiment","HHSHH","0","even","35470","NA","NA","112268","101219","1794","NA","NA","113320","1797","NA","NA","113421","113857","113319","113421","Flanker Task","41","25281","45","yes","1024"
"91.30434782608695","91.30434782608695","562","562","black","legacy","legacy","legacy","0","congruent","uniform","1","undefined","1","h","0","0","0","45","45","0","45","0","45","0","0","0","45","45","45","45","Mon Sep 13 09:45:42 2021","1500","The main experiment item","yes","SR-FlankerTask.osexp","C:/Users/Simon M. Rook/Documents/School/1 Tarleton/Classes/Adv Quant/Lab 2","no","mono","no","18","no","white","no","yes","768","legacy","45","45","C:/Users/Simon M. Rook/Documents/School/1 Tarleton/Classes/Adv Quant/Lab 2/flanker-data/sr-subject-0.csv","legacy","Lentiform Loewenfeld","3.3.9","0","h","NA","","NA","NA","h","571","NA","7175","NA","NA","571","2","legacy","1024","2","48000","-16","experiment","HHHHH","0","even","35470","NA","NA","113861","101219","1794","NA","NA","114913","1797","NA","NA","115014","115585","114911","115014","Flanker Task","42","25852","46","yes","1024"
"91.48936170212765","91.48936170212765","560.5744680851063","560.5744680851063","black","legacy","legacy","legacy","0","congruent","uniform","1","undefined","1","h","0","0","0","46","46","0","46","0","46","0","0","0","46","46","46","46","Mon Sep 13 09:45:42 2021","1500","The main experiment item","yes","SR-FlankerTask.osexp","C:/Users/Simon M. Rook/Documents/School/1 Tarleton/Classes/Adv Quant/Lab 2","no","mono","no","18","no","white","no","yes","768","legacy","46","46","C:/Users/Simon M. Rook/Documents/School/1 Tarleton/Classes/Adv Quant/Lab 2/flanker-data/sr-subject-0.csv","legacy","Lentiform Loewenfeld","3.3.9","0","h","NA","","NA","NA","h","495","NA","7175","NA","NA","495","2","legacy","1024","2","48000","-16","experiment","HHHHH","0","even","35470","NA","NA","115589","101219","1794","NA","NA","116645","1797","NA","NA","116746","117241","116643","116746","Flanker Task","43","26347","47","yes","1024"
"91.66666666666667","91.66666666666667","558.625","558.625","black","legacy","legacy","legacy","0","congruent","uniform","1","undefined","1","h","0","0","0","47","47","0","47","0","47","0","0","0","47","47","47","47","Mon Sep 13 09:45:42 2021","1500","The main experiment item","yes","SR-FlankerTask.osexp","C:/Users/Simon M. Rook/Documents/School/1 Tarleton/Classes/Adv Quant/Lab 2","no","mono","no","18","no","white","no","yes","768","legacy","47","47","C:/Users/Simon M. Rook/Documents/School/1 Tarleton/Classes/Adv Quant/Lab 2/flanker-data/sr-subject-0.csv","legacy","Lentiform Loewenfeld","3.3.9","0","h","NA","","NA","NA","h","467","NA","7175","NA","NA","467","2","legacy","1024","2","48000","-16","experiment","HHHHH","0","even","35470","NA","NA","117244","101219","1794","NA","NA","118297","1797","NA","NA","118398","118866","118295","118398","Flanker Task","44","26814","48","yes","1024"
"91.83673469387755","91.83673469387755","557.0612244897959","557.0612244897959","black","legacy","legacy","legacy","0","congruent","uniform","1","undefined","1","s","0","0","0","48","48","0","48","0","48","0","0","0","48","48","48","48","Mon Sep 13 09:45:42 2021","1500","The main experiment item","yes","SR-FlankerTask.osexp","C:/Users/Simon M. Rook/Documents/School/1 Tarleton/Classes/Adv Quant/Lab 2","no","mono","no","18","no","white","no","yes","768","legacy","48","48","C:/Users/Simon M. Rook/Documents/School/1 Tarleton/Classes/Adv Quant/Lab 2/flanker-data/sr-subject-0.csv","legacy","Lentiform Loewenfeld","3.3.9","0","s","NA","","NA","NA","s","482","NA","7175","NA","NA","482","2","legacy","1024","2","48000","-16","experiment","SSSSS","0","even","35470","NA","NA","118870","101219","1794","NA","NA","119922","1797","NA","NA","120023","120506","119921","120023","Flanker Task","45","27296","49","yes","1024"
"92","92","556.02","556.02","black","legacy","legacy","legacy","0","congruent","uniform","1","undefined","1","h","0","0","0","49","49","0","49","0","49","0","0","0","49","49","49","49","Mon Sep 13 09:45:42 2021","1500","The main experiment item","yes","SR-FlankerTask.osexp","C:/Users/Simon M. Rook/Documents/School/1 Tarleton/Classes/Adv Quant/Lab 2","no","mono","no","18","no","white","no","yes","768","legacy","49","49","C:/Users/Simon M. Rook/Documents/School/1 Tarleton/Classes/Adv Quant/Lab 2/flanker-data/sr-subject-0.csv","legacy","Lentiform Loewenfeld","3.3.9","0","h","NA","","NA","NA","h","505","NA","7175","NA","NA","505","2","legacy","1024","2","48000","-16","experiment","HHHHH","0","even","35470","NA","NA","120509","101219","1794","NA","NA","121563","1797","NA","NA","121664","122169","121561","121664","Flanker Task","46","27801","50","yes","1024"
"90.19607843137256","90.19607843137256","555.5490196078431","555.5490196078431","black","legacy","legacy","legacy","0","incongruent","uniform","0","undefined","0","h","0","0","0","50","50","0","50","0","50","0","0","0","50","50","50","50","Mon Sep 13 09:45:42 2021","1500","The main experiment item","yes","SR-FlankerTask.osexp","C:/Users/Simon M. Rook/Documents/School/1 Tarleton/Classes/Adv Quant/Lab 2","no","mono","no","18","no","white","no","yes","768","legacy","50","50","C:/Users/Simon M. Rook/Documents/School/1 Tarleton/Classes/Adv Quant/Lab 2/flanker-data/sr-subject-0.csv","legacy","Lentiform Loewenfeld","3.3.9","0","s","NA","","NA","NA","s","532","NA","7175","NA","NA","532","2","legacy","1024","2","48000","-16","experiment","SSHSS","0","even","35470","NA","NA","122173","101219","1794","NA","NA","123225","1797","NA","NA","123326","123858","123224","123326","Flanker Task","46","28333","51","yes","1024"
"90.38461538461539","90.38461538461539","555.7307692307693","555.7307692307693","black","legacy","legacy","legacy","0","incongruent","uniform","1","undefined","1","h","0","0","0","51","51","0","51","0","51","0","0","0","51","51","51","51","Mon Sep 13 09:45:42 2021","1500","The main experiment item","yes","SR-FlankerTask.osexp","C:/Users/Simon M. Rook/Documents/School/1 Tarleton/Classes/Adv Quant/Lab 2","no","mono","no","18","no","white","no","yes","768","legacy","51","51","C:/Users/Simon M. Rook/Documents/School/1 Tarleton/Classes/Adv Quant/Lab 2/flanker-data/sr-subject-0.csv","legacy","Lentiform Loewenfeld","3.3.9","0","h","NA","","NA","NA","h","565","NA","7175","NA","NA","565","2","legacy","1024","2","48000","-16","experiment","SSHSS","0","even","35470","NA","NA","124363","123862","1794","NA","NA","125415","1797","NA","NA","125516","126082","125413","125516","Flanker Task","47","28898","52","yes","1024"
"90.56603773584905","90.56603773584905","556.7735849056604","556.7735849056604","black","legacy","legacy","legacy","0","congruent","uniform","1","undefined","1","s","0","0","0","52","52","0","52","0","52","0","0","0","52","52","52","52","Mon Sep 13 09:45:42 2021","1500","The main experiment item","yes","SR-FlankerTask.osexp","C:/Users/Simon M. Rook/Documents/School/1 Tarleton/Classes/Adv Quant/Lab 2","no","mono","no","18","no","white","no","yes","768","legacy","52","52","C:/Users/Simon M. Rook/Documents/School/1 Tarleton/Classes/Adv Quant/Lab 2/flanker-data/sr-subject-0.csv","legacy","Lentiform Loewenfeld","3.3.9","0","s","NA","","NA","NA","s","611","NA","7175","NA","NA","611","2","legacy","1024","2","48000","-16","experiment","SSSSS","0","even","35470","NA","NA","126085","123862","1794","NA","NA","127138","1797","NA","NA","127239","127851","127137","127239","Flanker Task","48","29509","53","yes","1024"
"90.74074074074075","90.74074074074075","556","556","black","legacy","legacy","legacy","0","incongruent","uniform","1","undefined","1","h","0","0","0","53","53","0","53","0","53","0","0","0","53","53","53","53","Mon Sep 13 09:45:42 2021","1500","The main experiment item","yes","SR-FlankerTask.osexp","C:/Users/Simon M. Rook/Documents/School/1 Tarleton/Classes/Adv Quant/Lab 2","no","mono","no","18","no","white","no","yes","768","legacy","53","53","C:/Users/Simon M. Rook/Documents/School/1 Tarleton/Classes/Adv Quant/Lab 2/flanker-data/sr-subject-0.csv","legacy","Lentiform Loewenfeld","3.3.9","0","h","NA","","NA","NA","h","515","NA","7175","NA","NA","515","2","legacy","1024","2","48000","-16","experiment","SSHSS","0","even","35470","NA","NA","127854","123862","1794","NA","NA","128906","1797","NA","NA","129007","129523","128904","129007","Flanker Task","49","30024","54","yes","1024"
"90.9090909090909","90.9090909090909","559.4909090909091","559.4909090909091","black","legacy","legacy","legacy","0","congruent","uniform","1","undefined","1","s","0","0","0","54","54","0","54","0","54","0","0","0","54","54","54","54","Mon Sep 13 09:45:42 2021","1500","The main experiment item","yes","SR-FlankerTask.osexp","C:/Users/Simon M. Rook/Documents/School/1 Tarleton/Classes/Adv Quant/Lab 2","no","mono","no","18","no","white","no","yes","768","legacy","54","54","C:/Users/Simon M. Rook/Documents/School/1 Tarleton/Classes/Adv Quant/Lab 2/flanker-data/sr-subject-0.csv","legacy","Lentiform Loewenfeld","3.3.9","0","s","NA","","NA","NA","s","748","NA","7175","NA","NA","748","2","legacy","1024","2","48000","-16","experiment","SSSSS","0","even","35470","NA","NA","129526","123862","1794","NA","NA","130578","1797","NA","NA","130679","131427","130576","130679","Flanker Task","50","30772","55","yes","1024"
"91.07142857142857","91.07142857142857","558.6964285714286","558.6964285714286","black","legacy","legacy","legacy","0","incongruent","uniform","1","undefined","1","s","0","0","0","55","55","0","55","0","55","0","0","0","55","55","55","55","Mon Sep 13 09:45:42 2021","1500","The main experiment item","yes","SR-FlankerTask.osexp","C:/Users/Simon M. Rook/Documents/School/1 Tarleton/Classes/Adv Quant/Lab 2","no","mono","no","18","no","white","no","yes","768","legacy","55","55","C:/Users/Simon M. Rook/Documents/School/1 Tarleton/Classes/Adv Quant/Lab 2/flanker-data/sr-subject-0.csv","legacy","Lentiform Loewenfeld","3.3.9","0","s","NA","","NA","NA","s","515","NA","7175","NA","NA","515","2","legacy","1024","2","48000","-16","experiment","HHSHH","0","even","35470","NA","NA","131430","123862","1794","NA","NA","132483","1797","NA","NA","132584","133099","132481","132584","Flanker Task","51","31287","56","yes","1024"
"91.2280701754386","91.2280701754386","559.0526315789474","559.0526315789474","black","legacy","legacy","legacy","0","incongruent","uniform","1","undefined","1","h","0","0","0","56","56","0","56","0","56","0","0","0","56","56","56","56","Mon Sep 13 09:45:42 2021","1500","The main experiment item","yes","SR-FlankerTask.osexp","C:/Users/Simon M. Rook/Documents/School/1 Tarleton/Classes/Adv Quant/Lab 2","no","mono","no","18","no","white","no","yes","768","legacy","56","56","C:/Users/Simon M. Rook/Documents/School/1 Tarleton/Classes/Adv Quant/Lab 2/flanker-data/sr-subject-0.csv","legacy","Lentiform Loewenfeld","3.3.9","0","h","NA","","NA","NA","h","579","NA","7175","NA","NA","579","2","legacy","1024","2","48000","-16","experiment","SSHSS","0","even","35470","NA","NA","133102","123862","1794","NA","NA","134154","1797","NA","NA","134255","134835","134153","134255","Flanker Task","52","31866","57","yes","1024"
"91.37931034482759","91.37931034482759","558.448275862069","558.448275862069","black","legacy","legacy","legacy","0","incongruent","uniform","1","undefined","1","s","0","0","0","57","57","0","57","0","57","0","0","0","57","57","57","57","Mon Sep 13 09:45:42 2021","1500","The main experiment item","yes","SR-FlankerTask.osexp","C:/Users/Simon M. Rook/Documents/School/1 Tarleton/Classes/Adv Quant/Lab 2","no","mono","no","18","no","white","no","yes","768","legacy","57","57","C:/Users/Simon M. Rook/Documents/School/1 Tarleton/Classes/Adv Quant/Lab 2/flanker-data/sr-subject-0.csv","legacy","Lentiform Loewenfeld","3.3.9","0","s","NA","","NA","NA","s","524","NA","7175","NA","NA","524","2","legacy","1024","2","48000","-16","experiment","HHSHH","0","even","35470","NA","NA","134838","123862","1794","NA","NA","135890","1797","NA","NA","135991","136516","135889","135991","Flanker Task","53","32390","58","yes","1024"
"91.52542372881356","91.52542372881356","558.6610169491526","558.6610169491526","black","legacy","legacy","legacy","0","incongruent","uniform","1","undefined","1","h","0","0","0","58","58","0","58","0","58","0","0","0","58","58","58","58","Mon Sep 13 09:45:42 2021","1500","The main experiment item","yes","SR-FlankerTask.osexp","C:/Users/Simon M. Rook/Documents/School/1 Tarleton/Classes/Adv Quant/Lab 2","no","mono","no","18","no","white","no","yes","768","legacy","58","58","C:/Users/Simon M. Rook/Documents/School/1 Tarleton/Classes/Adv Quant/Lab 2/flanker-data/sr-subject-0.csv","legacy","Lentiform Loewenfeld","3.3.9","0","h","NA","","NA","NA","h","571","NA","7175","NA","NA","571","2","legacy","1024","2","48000","-16","experiment","SSHSS","0","even","35470","NA","NA","136519","123862","1794","NA","NA","137571","1797","NA","NA","137672","138244","137570","137672","Flanker Task","54","32961","59","yes","1024"
"91.66666666666667","91.66666666666667","559.5166666666667","559.5166666666667","black","legacy","legacy","legacy","0","incongruent","uniform","1","undefined","1","s","0","0","0","59","59","0","59","0","59","0","0","0","59","59","59","59","Mon Sep 13 09:45:42 2021","1500","The main experiment item","yes","SR-FlankerTask.osexp","C:/Users/Simon M. Rook/Documents/School/1 Tarleton/Classes/Adv Quant/Lab 2","no","mono","no","18","no","white","no","yes","768","legacy","59","59","C:/Users/Simon M. Rook/Documents/School/1 Tarleton/Classes/Adv Quant/Lab 2/flanker-data/sr-subject-0.csv","legacy","Lentiform Loewenfeld","3.3.9","0","s","NA","","NA","NA","s","610","NA","7175","NA","NA","610","2","legacy","1024","2","48000","-16","experiment","HHSHH","0","even","35470","NA","NA","138247","123862","1794","NA","NA","139300","1797","NA","NA","139401","140012","139298","139401","Flanker Task","55","33571","60","yes","1024"
"91.80327868852459","91.80327868852459","558.3934426229508","558.3934426229508","black","legacy","legacy","legacy","0","congruent","uniform","1","undefined","1","s","0","0","0","60","60","0","60","0","60","0","0","0","60","60","60","60","Mon Sep 13 09:45:42 2021","1500","The main experiment item","yes","SR-FlankerTask.osexp","C:/Users/Simon M. Rook/Documents/School/1 Tarleton/Classes/Adv Quant/Lab 2","no","mono","no","18","no","white","no","yes","768","legacy","60","60","C:/Users/Simon M. Rook/Documents/School/1 Tarleton/Classes/Adv Quant/Lab 2/flanker-data/sr-subject-0.csv","legacy","Lentiform Loewenfeld","3.3.9","0","s","NA","","NA","NA","s","491","NA","7175","NA","NA","491","2","legacy","1024","2","48000","-16","experiment","SSSSS","0","even","35470","NA","NA","140015","123862","1794","NA","NA","141068","1797","NA","NA","141169","141660","141066","141169","Flanker Task","56","34062","61","yes","1024"
"91.93548387096774","91.93548387096774","557.6774193548387","557.6774193548387","black","legacy","legacy","legacy","0","congruent","uniform","1","undefined","1","s","0","0","0","61","61","0","61","0","61","0","0","0","61","61","61","61","Mon Sep 13 09:45:42 2021","1500","The main experiment item","yes","SR-FlankerTask.osexp","C:/Users/Simon M. Rook/Documents/School/1 Tarleton/Classes/Adv Quant/Lab 2","no","mono","no","18","no","white","no","yes","768","legacy","61","61","C:/Users/Simon M. Rook/Documents/School/1 Tarleton/Classes/Adv Quant/Lab 2/flanker-data/sr-subject-0.csv","legacy","Lentiform Loewenfeld","3.3.9","0","s","NA","","NA","NA","s","514","NA","7175","NA","NA","514","2","legacy","1024","2","48000","-16","experiment","SSSSS","0","even","35470","NA","NA","141664","123862","1794","NA","NA","142716","1797","NA","NA","142817","143332","142715","142817","Flanker Task","57","34576","62","yes","1024"
"92.06349206349206","92.06349206349206","558.1587301587301","558.1587301587301","black","legacy","legacy","legacy","0","congruent","uniform","1","undefined","1","h","0","0","0","62","62","0","62","0","62","0","0","0","62","62","62","62","Mon Sep 13 09:45:42 2021","1500","The main experiment item","yes","SR-FlankerTask.osexp","C:/Users/Simon M. Rook/Documents/School/1 Tarleton/Classes/Adv Quant/Lab 2","no","mono","no","18","no","white","no","yes","768","legacy","62","62","C:/Users/Simon M. Rook/Documents/School/1 Tarleton/Classes/Adv Quant/Lab 2/flanker-data/sr-subject-0.csv","legacy","Lentiform Loewenfeld","3.3.9","0","h","NA","","NA","NA","h","588","NA","7175","NA","NA","588","2","legacy","1024","2","48000","-16","experiment","HHHHH","0","even","35470","NA","NA","143335","123862","1794","NA","NA","144387","1797","NA","NA","144488","145076","144386","144488","Flanker Task","58","35164","63","yes","1024"
"92.1875","92.1875","559.390625","559.390625","black","legacy","legacy","legacy","0","incongruent","uniform","1","undefined","1","s","0","0","0","63","63","0","63","0","63","0","0","0","63","63","63","63","Mon Sep 13 09:45:42 2021","1500","The main experiment item","yes","SR-FlankerTask.osexp","C:/Users/Simon M. Rook/Documents/School/1 Tarleton/Classes/Adv Quant/Lab 2","no","mono","no","18","no","white","no","yes","768","legacy","63","63","C:/Users/Simon M. Rook/Documents/School/1 Tarleton/Classes/Adv Quant/Lab 2/flanker-data/sr-subject-0.csv","legacy","Lentiform Loewenfeld","3.3.9","0","s","NA","","NA","NA","s","637","NA","7175","NA","NA","637","2","legacy","1024","2","48000","-16","experiment","HHSHH","0","even","35470","NA","NA","145079","123862","1794","NA","NA","146138","1797","NA","NA","146239","146877","146136","146239","Flanker Task","59","35801","64","yes","1024"
"92.3076923076923","92.3076923076923","558.9538461538461","558.9538461538461","black","legacy","legacy","legacy","0","congruent","uniform","1","undefined","1","h","0","0","0","64","64","0","64","0","64","0","0","0","64","64","64","64","Mon Sep 13 09:45:42 2021","1500","The main experiment item","yes","SR-FlankerTask.osexp","C:/Users/Simon M. Rook/Documents/School/1 Tarleton/Classes/Adv Quant/Lab 2","no","mono","no","18","no","white","no","yes","768","legacy","64","64","C:/Users/Simon M. Rook/Documents/School/1 Tarleton/Classes/Adv Quant/Lab 2/flanker-data/sr-subject-0.csv","legacy","Lentiform Loewenfeld","3.3.9","0","h","NA","","NA","NA","h","531","NA","7175","NA","NA","531","2","legacy","1024","2","48000","-16","experiment","HHHHH","0","even","35470","NA","NA","146880","123862","1794","NA","NA","147932","1797","NA","NA","148033","148565","147931","148033","Flanker Task","60","36332","65","yes","1024"
"92.42424242424242","92.42424242424242","568.6212121212121","568.6212121212121","black","legacy","legacy","legacy","0","congruent","uniform","1","undefined","1","s","0","0","0","65","65","0","65","0","65","0","0","0","65","65","65","65","Mon Sep 13 09:45:42 2021","1500","The main experiment item","yes","SR-FlankerTask.osexp","C:/Users/Simon M. Rook/Documents/School/1 Tarleton/Classes/Adv Quant/Lab 2","no","mono","no","18","no","white","no","yes","768","legacy","65","65","C:/Users/Simon M. Rook/Documents/School/1 Tarleton/Classes/Adv Quant/Lab 2/flanker-data/sr-subject-0.csv","legacy","Lentiform Loewenfeld","3.3.9","0","s","NA","","NA","NA","s","1197","NA","7175","NA","NA","1197","2","legacy","1024","2","48000","-16","experiment","SSSSS","0","even","35470","NA","NA","148567","123862","1794","NA","NA","149619","1797","NA","NA","149720","150917","149618","149720","Flanker Task","61","37529","66","yes","1024"
"92.53731343283582","92.53731343283582","569.7014925373135","569.7014925373135","black","legacy","legacy","legacy","0","incongruent","uniform","1","undefined","1","h","0","0","0","66","66","0","66","0","66","0","0","0","66","66","66","66","Mon Sep 13 09:45:42 2021","1500","The main experiment item","yes","SR-FlankerTask.osexp","C:/Users/Simon M. Rook/Documents/School/1 Tarleton/Classes/Adv Quant/Lab 2","no","mono","no","18","no","white","no","yes","768","legacy","66","66","C:/Users/Simon M. Rook/Documents/School/1 Tarleton/Classes/Adv Quant/Lab 2/flanker-data/sr-subject-0.csv","legacy","Lentiform Loewenfeld","3.3.9","0","h","NA","","NA","NA","h","641","NA","7175","NA","NA","641","2","legacy","1024","2","48000","-16","experiment","SSHSS","0","even","35470","NA","NA","150921","123862","1794","NA","NA","151974","1797","NA","NA","152075","152717","151972","152075","Flanker Task","62","38170","67","yes","1024"
"92.6470588235294","92.6470588235294","568.5441176470588","568.5441176470588","black","legacy","legacy","legacy","0","incongruent","uniform","1","undefined","1","s","0","0","0","67","67","0","67","0","67","0","0","0","67","67","67","67","Mon Sep 13 09:45:42 2021","1500","The main experiment item","yes","SR-FlankerTask.osexp","C:/Users/Simon M. Rook/Documents/School/1 Tarleton/Classes/Adv Quant/Lab 2","no","mono","no","18","no","white","no","yes","768","legacy","67","67","C:/Users/Simon M. Rook/Documents/School/1 Tarleton/Classes/Adv Quant/Lab 2/flanker-data/sr-subject-0.csv","legacy","Lentiform Loewenfeld","3.3.9","0","s","NA","","NA","NA","s","491","NA","7175","NA","NA","491","2","legacy","1024","2","48000","-16","experiment","HHSHH","0","even","35470","NA","NA","152720","123862","1794","NA","NA","153773","1797","NA","NA","153874","154366","153771","153874","Flanker Task","63","38661","68","yes","1024"
"92.7536231884058","92.7536231884058","568.8115942028985","568.8115942028985","black","legacy","legacy","legacy","0","congruent","uniform","1","undefined","1","h","0","0","0","68","68","0","68","0","68","0","0","0","68","68","68","68","Mon Sep 13 09:45:42 2021","1500","The main experiment item","yes","SR-FlankerTask.osexp","C:/Users/Simon M. Rook/Documents/School/1 Tarleton/Classes/Adv Quant/Lab 2","no","mono","no","18","no","white","no","yes","768","legacy","68","68","C:/Users/Simon M. Rook/Documents/School/1 Tarleton/Classes/Adv Quant/Lab 2/flanker-data/sr-subject-0.csv","legacy","Lentiform Loewenfeld","3.3.9","0","h","NA","","NA","NA","h","587","NA","7175","NA","NA","587","2","legacy","1024","2","48000","-16","experiment","HHHHH","0","even","35470","NA","NA","154369","123862","1794","NA","NA","155421","1797","NA","NA","155522","156110","155420","155522","Flanker Task","64","39248","69","yes","1024"
"92.85714285714286","92.85714285714286","568.5285714285715","568.5285714285715","black","legacy","legacy","legacy","0","congruent","uniform","1","undefined","1","h","0","0","0","69","69","0","69","0","69","0","0","0","69","69","69","69","Mon Sep 13 09:45:42 2021","1500","The main experiment item","yes","SR-FlankerTask.osexp","C:/Users/Simon M. Rook/Documents/School/1 Tarleton/Classes/Adv Quant/Lab 2","no","mono","no","18","no","white","no","yes","768","legacy","69","69","C:/Users/Simon M. Rook/Documents/School/1 Tarleton/Classes/Adv Quant/Lab 2/flanker-data/sr-subject-0.csv","legacy","Lentiform Loewenfeld","3.3.9","0","h","NA","","NA","NA","h","549","NA","7175","NA","NA","549","2","legacy","1024","2","48000","-16","experiment","HHHHH","0","even","35470","NA","NA","156113","123862","1794","NA","NA","157172","1797","NA","NA","157273","157823","157170","157273","Flanker Task","65","39797","70","yes","1024"
"91.54929577464789","91.54929577464789","567.6619718309859","567.6619718309859","black","legacy","legacy","legacy","0","incongruent","uniform","0","undefined","0","h","0","0","0","70","70","0","70","0","70","0","0","0","70","70","70","70","Mon Sep 13 09:45:42 2021","1500","The main experiment item","yes","SR-FlankerTask.osexp","C:/Users/Simon M. Rook/Documents/School/1 Tarleton/Classes/Adv Quant/Lab 2","no","mono","no","18","no","white","no","yes","768","legacy","70","70","C:/Users/Simon M. Rook/Documents/School/1 Tarleton/Classes/Adv Quant/Lab 2/flanker-data/sr-subject-0.csv","legacy","Lentiform Loewenfeld","3.3.9","0","s","NA","","NA","NA","s","507","NA","7175","NA","NA","507","2","legacy","1024","2","48000","-16","experiment","SSHSS","0","even","35470","NA","NA","157826","123862","1794","NA","NA","158878","1797","NA","NA","158979","159486","158876","158979","Flanker Task","65","40304","71","yes","1024"
"91.66666666666667","91.66666666666667","566.8472222222222","566.8472222222222","black","legacy","legacy","legacy","0","congruent","uniform","1","undefined","1","h","0","0","0","71","71","0","71","0","71","0","0","0","71","71","71","71","Mon Sep 13 09:45:42 2021","1500","The main experiment item","yes","SR-FlankerTask.osexp","C:/Users/Simon M. Rook/Documents/School/1 Tarleton/Classes/Adv Quant/Lab 2","no","mono","no","18","no","white","no","yes","768","legacy","71","71","C:/Users/Simon M. Rook/Documents/School/1 Tarleton/Classes/Adv Quant/Lab 2/flanker-data/sr-subject-0.csv","legacy","Lentiform Loewenfeld","3.3.9","0","h","NA","","NA","NA","h","509","NA","7175","NA","NA","509","2","legacy","1024","2","48000","-16","experiment","HHHHH","0","even","35470","NA","NA","159991","159490","1794","NA","NA","161043","1797","NA","NA","161144","161654","161042","161144","Flanker Task","66","40813","72","yes","1024"
"91.78082191780823","91.78082191780823","565.931506849315","565.931506849315","black","legacy","legacy","legacy","0","incongruent","uniform","1","undefined","1","h","0","0","0","72","72","0","72","0","72","0","0","0","72","72","72","72","Mon Sep 13 09:45:42 2021","1500","The main experiment item","yes","SR-FlankerTask.osexp","C:/Users/Simon M. Rook/Documents/School/1 Tarleton/Classes/Adv Quant/Lab 2","no","mono","no","18","no","white","no","yes","768","legacy","72","72","C:/Users/Simon M. Rook/Documents/School/1 Tarleton/Classes/Adv Quant/Lab 2/flanker-data/sr-subject-0.csv","legacy","Lentiform Loewenfeld","3.3.9","0","h","NA","","NA","NA","h","500","NA","7175","NA","NA","500","2","legacy","1024","2","48000","-16","experiment","SSHSS","0","even","35470","NA","NA","161657","159490","1794","NA","NA","162709","1797","NA","NA","162810","163311","162708","162810","Flanker Task","67","41313","73","yes","1024"
"91.89189189189189","91.89189189189189","564.472972972973","564.472972972973","black","legacy","legacy","legacy","0","incongruent","uniform","1","undefined","1","s","0","0","0","73","73","0","73","0","73","0","0","0","73","73","73","73","Mon Sep 13 09:45:42 2021","1500","The main experiment item","yes","SR-FlankerTask.osexp","C:/Users/Simon M. Rook/Documents/School/1 Tarleton/Classes/Adv Quant/Lab 2","no","mono","no","18","no","white","no","yes","768","legacy","73","73","C:/Users/Simon M. Rook/Documents/School/1 Tarleton/Classes/Adv Quant/Lab 2/flanker-data/sr-subject-0.csv","legacy","Lentiform Loewenfeld","3.3.9","0","s","NA","","NA","NA","s","458","NA","7175","NA","NA","458","2","legacy","1024","2","48000","-16","experiment","HHSHH","0","even","35470","NA","NA","163314","159490","1794","NA","NA","164367","1797","NA","NA","164468","164927","164365","164468","Flanker Task","68","41771","74","yes","1024"
"92","92","563.28","563.28","black","legacy","legacy","legacy","0","incongruent","uniform","1","undefined","1","s","0","0","0","74","74","0","74","0","74","0","0","0","74","74","74","74","Mon Sep 13 09:45:42 2021","1500","The main experiment item","yes","SR-FlankerTask.osexp","C:/Users/Simon M. Rook/Documents/School/1 Tarleton/Classes/Adv Quant/Lab 2","no","mono","no","18","no","white","no","yes","768","legacy","74","74","C:/Users/Simon M. Rook/Documents/School/1 Tarleton/Classes/Adv Quant/Lab 2/flanker-data/sr-subject-0.csv","legacy","Lentiform Loewenfeld","3.3.9","0","s","NA","","NA","NA","s","475","NA","7175","NA","NA","475","2","legacy","1024","2","48000","-16","experiment","HHSHH","0","even","35470","NA","NA","164930","159490","1794","NA","NA","165983","1797","NA","NA","166084","166560","165982","166084","Flanker Task","69","42246","75","yes","1024"
"92.10526315789474","92.10526315789474","567.2763157894736","567.2763157894736","black","legacy","legacy","legacy","0","incongruent","uniform","1","undefined","1","h","0","0","0","75","75","0","75","0","75","0","0","0","75","75","75","75","Mon Sep 13 09:45:42 2021","1500","The main experiment item","yes","SR-FlankerTask.osexp","C:/Users/Simon M. Rook/Documents/School/1 Tarleton/Classes/Adv Quant/Lab 2","no","mono","no","18","no","white","no","yes","768","legacy","75","75","C:/Users/Simon M. Rook/Documents/School/1 Tarleton/Classes/Adv Quant/Lab 2/flanker-data/sr-subject-0.csv","legacy","Lentiform Loewenfeld","3.3.9","0","h","NA","","NA","NA","h","867","NA","7175","NA","NA","867","2","legacy","1024","2","48000","-16","experiment","SSHSS","0","even","35470","NA","NA","166563","159490","1794","NA","NA","167615","1797","NA","NA","167716","168583","167614","167716","Flanker Task","70","43113","76","yes","1024"
"92.20779220779221","92.20779220779221","567.1168831168832","567.1168831168832","black","legacy","legacy","legacy","0","congruent","uniform","1","undefined","1","s","0","0","0","76","76","0","76","0","76","0","0","0","76","76","76","76","Mon Sep 13 09:45:42 2021","1500","The main experiment item","yes","SR-FlankerTask.osexp","C:/Users/Simon M. Rook/Documents/School/1 Tarleton/Classes/Adv Quant/Lab 2","no","mono","no","18","no","white","no","yes","768","legacy","76","76","C:/Users/Simon M. Rook/Documents/School/1 Tarleton/Classes/Adv Quant/Lab 2/flanker-data/sr-subject-0.csv","legacy","Lentiform Loewenfeld","3.3.9","0","s","NA","","NA","NA","s","555","NA","7175","NA","NA","555","2","legacy","1024","2","48000","-16","experiment","SSSSS","0","even","35470","NA","NA","168586","159490","1794","NA","NA","169638","1797","NA","NA","169739","170295","169637","169739","Flanker Task","71","43668","77","yes","1024"
"92.3076923076923","92.3076923076923","569.4487179487179","569.4487179487179","black","legacy","legacy","legacy","0","incongruent","uniform","1","undefined","1","s","0","0","0","77","77","0","77","0","77","0","0","0","77","77","77","77","Mon Sep 13 09:45:42 2021","1500","The main experiment item","yes","SR-FlankerTask.osexp","C:/Users/Simon M. Rook/Documents/School/1 Tarleton/Classes/Adv Quant/Lab 2","no","mono","no","18","no","white","no","yes","768","legacy","77","77","C:/Users/Simon M. Rook/Documents/School/1 Tarleton/Classes/Adv Quant/Lab 2/flanker-data/sr-subject-0.csv","legacy","Lentiform Loewenfeld","3.3.9","0","s","NA","","NA","NA","s","749","NA","7175","NA","NA","749","2","legacy","1024","2","48000","-16","experiment","HHSHH","0","even","35470","NA","NA","170298","159490","1794","NA","NA","171357","1797","NA","NA","171458","172208","171355","171458","Flanker Task","72","44417","78","yes","1024"
"92.40506329113924","92.40506329113924","569.8354430379746","569.8354430379746","black","legacy","legacy","legacy","0","incongruent","uniform","1","undefined","1","s","0","0","0","78","78","0","78","0","78","0","0","0","78","78","78","78","Mon Sep 13 09:45:42 2021","1500","The main experiment item","yes","SR-FlankerTask.osexp","C:/Users/Simon M. Rook/Documents/School/1 Tarleton/Classes/Adv Quant/Lab 2","no","mono","no","18","no","white","no","yes","768","legacy","78","78","C:/Users/Simon M. Rook/Documents/School/1 Tarleton/Classes/Adv Quant/Lab 2/flanker-data/sr-subject-0.csv","legacy","Lentiform Loewenfeld","3.3.9","0","s","NA","","NA","NA","s","600","NA","7175","NA","NA","600","2","legacy","1024","2","48000","-16","experiment","HHSHH","0","even","35470","NA","NA","172211","159490","1794","NA","NA","173266","1797","NA","NA","173367","173968","173264","173367","Flanker Task","73","45017","79","yes","1024"
"92.5","92.5","571.85","571.85","black","legacy","legacy","legacy","0","congruent","uniform","1","undefined","1","s","0","0","0","79","79","0","79","0","79","0","0","0","79","79","79","79","Mon Sep 13 09:45:42 2021","1500","The main experiment item","yes","SR-FlankerTask.osexp","C:/Users/Simon M. Rook/Documents/School/1 Tarleton/Classes/Adv Quant/Lab 2","no","mono","no","18","no","white","no","yes","768","legacy","79","79","C:/Users/Simon M. Rook/Documents/School/1 Tarleton/Classes/Adv Quant/Lab 2/flanker-data/sr-subject-0.csv","legacy","Lentiform Loewenfeld","3.3.9","0","s","NA","","NA","NA","s","731","NA","7175","NA","NA","731","2","legacy","1024","2","48000","-16","experiment","SSSSS","0","even","35470","NA","NA","173971","159490","1794","NA","NA","175023","1797","NA","NA","175125","175857","175022","175125","Flanker Task","74","45748","80","yes","1024"
"92.5925925925926","92.5925925925926","575.5432098765432","575.5432098765432","black","legacy","legacy","legacy","0","incongruent","uniform","1","undefined","1","h","0","0","0","80","80","0","80","0","80","0","0","0","80","80","80","80","Mon Sep 13 09:45:42 2021","600","The main experiment item","yes","SR-FlankerTask.osexp","C:/Users/Simon M. Rook/Documents/School/1 Tarleton/Classes/Adv Quant/Lab 2","no","mono","no","18","no","white","no","yes","768","legacy","0","79","C:/Users/Simon M. Rook/Documents/School/1 Tarleton/Classes/Adv Quant/Lab 2/flanker-data/sr-subject-0.csv","legacy","Lentiform Loewenfeld","3.3.9","0","h","NA","","h","NA","h","871","NA","7175","17368","NA","871","2","legacy","1024","2","48000","-16","experiment","SSHSS","0","even","35470","194251","NA","175860","159490","1794","NA","NA","194294","1797","176882","NA","194395","195267","194293","194395","Flanker Task","75","46619","81","yes","1024"
"92.6829268292683","92.6829268292683","574.3414634146342","574.3414634146342","black","legacy","legacy","legacy","0","congruent","uniform","1","undefined","1","h","0","0","0","81","81","0","81","0","81","0","0","0","81","81","81","81","Mon Sep 13 09:45:42 2021","600","The main experiment item","yes","SR-FlankerTask.osexp","C:/Users/Simon M. Rook/Documents/School/1 Tarleton/Classes/Adv Quant/Lab 2","no","mono","no","18","no","white","no","yes","768","legacy","1","79","C:/Users/Simon M. Rook/Documents/School/1 Tarleton/Classes/Adv Quant/Lab 2/flanker-data/sr-subject-0.csv","legacy","Lentiform Loewenfeld","3.3.9","0","h","NA","","h","NA","h","477","NA","7175","17368","NA","477","2","legacy","1024","2","48000","-16","experiment","HHHHH","0","even","35470","194251","NA","195771","159490","1794","195270","NA","196824","1797","176882","NA","196925","197403","196822","196925","Flanker Task","76","47096","82","yes","1024"
"92.7710843373494","92.7710843373494","572.9156626506024","572.9156626506024","black","legacy","legacy","legacy","0","congruent","uniform","1","undefined","1","s","0","0","0","82","82","0","82","0","82","0","0","0","82","82","82","82","Mon Sep 13 09:45:42 2021","600","The main experiment item","yes","SR-FlankerTask.osexp","C:/Users/Simon M. Rook/Documents/School/1 Tarleton/Classes/Adv Quant/Lab 2","no","mono","no","18","no","white","no","yes","768","legacy","2","79","C:/Users/Simon M. Rook/Documents/School/1 Tarleton/Classes/Adv Quant/Lab 2/flanker-data/sr-subject-0.csv","legacy","Lentiform Loewenfeld","3.3.9","0","s","NA","","h","NA","s","456","NA","7175","17368","NA","456","2","legacy","1024","2","48000","-16","experiment","SSSSS","0","even","35470","194251","NA","197408","159490","1794","195270","NA","198461","1797","176882","NA","198562","199019","198459","198562","Flanker Task","77","47552","83","yes","1024"
"92.85714285714286","92.85714285714286","572.0952380952381","572.0952380952381","black","legacy","legacy","legacy","0","congruent","uniform","1","undefined","1","s","0","0","0","83","83","0","83","0","83","0","0","0","83","83","83","83","Mon Sep 13 09:45:42 2021","600","The main experiment item","yes","SR-FlankerTask.osexp","C:/Users/Simon M. Rook/Documents/School/1 Tarleton/Classes/Adv Quant/Lab 2","no","mono","no","18","no","white","no","yes","768","legacy","3","79","C:/Users/Simon M. Rook/Documents/School/1 Tarleton/Classes/Adv Quant/Lab 2/flanker-data/sr-subject-0.csv","legacy","Lentiform Loewenfeld","3.3.9","0","s","NA","","h","NA","s","504","NA","7175","17368","NA","504","2","legacy","1024","2","48000","-16","experiment","SSSSS","0","even","35470","194251","NA","199024","159490","1794","195270","NA","200077","1797","176882","NA","200178","200683","200075","200178","Flanker Task","78","48056","84","yes","1024"
"92.94117647058823","92.94117647058823","570.7647058823529","570.7647058823529","black","legacy","legacy","legacy","0","congruent","uniform","1","undefined","1","h","0","0","0","84","84","0","84","0","84","0","0","0","84","84","84","84","Mon Sep 13 09:45:42 2021","600","The main experiment item","yes","SR-FlankerTask.osexp","C:/Users/Simon M. Rook/Documents/School/1 Tarleton/Classes/Adv Quant/Lab 2","no","mono","no","18","no","white","no","yes","768","legacy","4","79","C:/Users/Simon M. Rook/Documents/School/1 Tarleton/Classes/Adv Quant/Lab 2/flanker-data/sr-subject-0.csv","legacy","Lentiform Loewenfeld","3.3.9","0","h","NA","","h","NA","h","459","NA","7175","17368","NA","459","2","legacy","1024","2","48000","-16","experiment","HHHHH","0","even","35470","194251","NA","200686","159490","1794","195270","NA","201738","1797","176882","NA","201839","202299","201737","201839","Flanker Task","79","48515","85","yes","1024"
"93.02325581395348","93.02325581395348","569.2906976744187","569.2906976744187","black","legacy","legacy","legacy","0","congruent","uniform","1","undefined","1","s","0","0","0","85","85","0","85","0","85","0","0","0","85","85","85","85","Mon Sep 13 09:45:42 2021","600","The main experiment item","yes","SR-FlankerTask.osexp","C:/Users/Simon M. Rook/Documents/School/1 Tarleton/Classes/Adv Quant/Lab 2","no","mono","no","18","no","white","no","yes","768","legacy","5","79","C:/Users/Simon M. Rook/Documents/School/1 Tarleton/Classes/Adv Quant/Lab 2/flanker-data/sr-subject-0.csv","legacy","Lentiform Loewenfeld","3.3.9","0","s","NA","","h","NA","s","444","NA","7175","17368","NA","444","2","legacy","1024","2","48000","-16","experiment","SSSSS","0","even","35470","194251","NA","202302","159490","1794","195270","NA","203354","1797","176882","NA","203455","203900","203352","203455","Flanker Task","80","48959","86","yes","1024"
"93.10344827586206","93.10344827586206","568.1034482758621","568.1034482758621","black","legacy","legacy","legacy","0","incongruent","uniform","1","undefined","1","s","0","0","0","86","86","0","86","0","86","0","0","0","86","86","86","86","Mon Sep 13 09:45:42 2021","600","The main experiment item","yes","SR-FlankerTask.osexp","C:/Users/Simon M. Rook/Documents/School/1 Tarleton/Classes/Adv Quant/Lab 2","no","mono","no","18","no","white","no","yes","768","legacy","6","79","C:/Users/Simon M. Rook/Documents/School/1 Tarleton/Classes/Adv Quant/Lab 2/flanker-data/sr-subject-0.csv","legacy","Lentiform Loewenfeld","3.3.9","0","s","NA","","h","NA","s","466","NA","7175","17368","NA","466","2","legacy","1024","2","48000","-16","experiment","HHSHH","0","even","35470","194251","NA","203903","159490","1794","195270","NA","204955","1797","176882","NA","205057","205524","204954","205057","Flanker Task","81","49425","87","yes","1024"
"93.18181818181819","93.18181818181819","567.6818181818181","567.6818181818181","black","legacy","legacy","legacy","0","incongruent","uniform","1","undefined","1","h","0","0","0","87","87","0","87","0","87","0","0","0","87","87","87","87","Mon Sep 13 09:45:42 2021","600","The main experiment item","yes","SR-FlankerTask.osexp","C:/Users/Simon M. Rook/Documents/School/1 Tarleton/Classes/Adv Quant/Lab 2","no","mono","no","18","no","white","no","yes","768","legacy","7","79","C:/Users/Simon M. Rook/Documents/School/1 Tarleton/Classes/Adv Quant/Lab 2/flanker-data/sr-subject-0.csv","legacy","Lentiform Loewenfeld","3.3.9","0","h","NA","","h","NA","h","531","NA","7175","17368","NA","531","2","legacy","1024","2","48000","-16","experiment","SSHSS","0","even","35470","194251","NA","205527","159490","1794","195270","NA","206579","1797","176882","NA","206680","207211","206577","206680","Flanker Task","82","49956","88","yes","1024"
"93.25842696629213","93.25842696629213","566.8202247191011","566.8202247191011","black","legacy","legacy","legacy","0","congruent","uniform","1","undefined","1","h","0","0","0","88","88","0","88","0","88","0","0","0","88","88","88","88","Mon Sep 13 09:45:42 2021","600","The main experiment item","yes","SR-FlankerTask.osexp","C:/Users/Simon M. Rook/Documents/School/1 Tarleton/Classes/Adv Quant/Lab 2","no","mono","no","18","no","white","no","yes","768","legacy","8","79","C:/Users/Simon M. Rook/Documents/School/1 Tarleton/Classes/Adv Quant/Lab 2/flanker-data/sr-subject-0.csv","legacy","Lentiform Loewenfeld","3.3.9","0","h","NA","","h","NA","h","491","NA","7175","17368","NA","491","2","legacy","1024","2","48000","-16","experiment","HHHHH","0","even","35470","194251","NA","207215","159490","1794","195270","NA","208267","1797","176882","NA","208368","208860","208266","208368","Flanker Task","83","50447","89","yes","1024"
"93.33333333333333","93.33333333333333","565.9777777777778","565.9777777777778","black","legacy","legacy","legacy","0","congruent","uniform","1","undefined","1","s","0","0","0","89","89","0","89","0","89","0","0","0","89","89","89","89","Mon Sep 13 09:45:42 2021","600","The main experiment item","yes","SR-FlankerTask.osexp","C:/Users/Simon M. Rook/Documents/School/1 Tarleton/Classes/Adv Quant/Lab 2","no","mono","no","18","no","white","no","yes","768","legacy","9","79","C:/Users/Simon M. Rook/Documents/School/1 Tarleton/Classes/Adv Quant/Lab 2/flanker-data/sr-subject-0.csv","legacy","Lentiform Loewenfeld","3.3.9","0","s","NA","","h","NA","s","491","NA","7175","17368","NA","491","2","legacy","1024","2","48000","-16","experiment","SSSSS","0","even","35470","194251","NA","208863","159490","1794","195270","NA","209915","1797","176882","NA","210016","210508","209913","210016","Flanker Task","84","50938","90","yes","1024"
"93.4065934065934","93.4065934065934","564.8131868131868","564.8131868131868","black","legacy","legacy","legacy","0","incongruent","uniform","1","undefined","1","s","0","0","0","90","90","0","90","0","90","0","0","0","90","90","90","90","Mon Sep 13 09:45:42 2021","600","The main experiment item","yes","SR-FlankerTask.osexp","C:/Users/Simon M. Rook/Documents/School/1 Tarleton/Classes/Adv Quant/Lab 2","no","mono","no","18","no","white","no","yes","768","legacy","10","79","C:/Users/Simon M. Rook/Documents/School/1 Tarleton/Classes/Adv Quant/Lab 2/flanker-data/sr-subject-0.csv","legacy","Lentiform Loewenfeld","3.3.9","0","s","NA","","h","NA","s","460","NA","7175","17368","NA","460","2","legacy","1024","2","48000","-16","experiment","HHSHH","0","even","35470","194251","NA","210511","159490","1794","195270","NA","211563","1797","176882","NA","211664","212125","211562","211664","Flanker Task","85","51398","91","yes","1024"
"93.47826086956522","93.47826086956522","563.8260869565217","563.8260869565217","black","legacy","legacy","legacy","0","congruent","uniform","1","undefined","1","h","0","0","0","91","91","0","91","0","91","0","0","0","91","91","91","91","Mon Sep 13 09:45:42 2021","600","The main experiment item","yes","SR-FlankerTask.osexp","C:/Users/Simon M. Rook/Documents/School/1 Tarleton/Classes/Adv Quant/Lab 2","no","mono","no","18","no","white","no","yes","768","legacy","11","79","C:/Users/Simon M. Rook/Documents/School/1 Tarleton/Classes/Adv Quant/Lab 2/flanker-data/sr-subject-0.csv","legacy","Lentiform Loewenfeld","3.3.9","0","h","NA","","h","NA","h","474","NA","7175","17368","NA","474","2","legacy","1024","2","48000","-16","experiment","HHHHH","0","even","35470","194251","NA","212128","159490","1794","195270","NA","213181","1797","176882","NA","213282","213757","213179","213282","Flanker Task","86","51872","92","yes","1024"
"93.54838709677419","93.54838709677419","563.2795698924731","563.2795698924731","black","legacy","legacy","legacy","0","incongruent","uniform","1","undefined","1","s","0","0","0","92","92","0","92","0","92","0","0","0","92","92","92","92","Mon Sep 13 09:45:42 2021","600","The main experiment item","yes","SR-FlankerTask.osexp","C:/Users/Simon M. Rook/Documents/School/1 Tarleton/Classes/Adv Quant/Lab 2","no","mono","no","18","no","white","no","yes","768","legacy","12","79","C:/Users/Simon M. Rook/Documents/School/1 Tarleton/Classes/Adv Quant/Lab 2/flanker-data/sr-subject-0.csv","legacy","Lentiform Loewenfeld","3.3.9","0","s","NA","","h","NA","s","513","NA","7175","17368","NA","513","2","legacy","1024","2","48000","-16","experiment","HHSHH","0","even","35470","194251","NA","213760","159490","1794","195270","NA","214814","1797","176882","NA","214915","215429","214812","214915","Flanker Task","87","52385","93","yes","1024"
"93.61702127659575","93.61702127659575","562.5","562.5","black","legacy","legacy","legacy","0","incongruent","uniform","1","undefined","1","h","0","0","0","93","93","0","93","0","93","0","0","0","93","93","93","93","Mon Sep 13 09:45:42 2021","600","The main experiment item","yes","SR-FlankerTask.osexp","C:/Users/Simon M. Rook/Documents/School/1 Tarleton/Classes/Adv Quant/Lab 2","no","mono","no","18","no","white","no","yes","768","legacy","13","79","C:/Users/Simon M. Rook/Documents/School/1 Tarleton/Classes/Adv Quant/Lab 2/flanker-data/sr-subject-0.csv","legacy","Lentiform Loewenfeld","3.3.9","0","h","NA","","h","NA","h","490","NA","7175","17368","NA","490","2","legacy","1024","2","48000","-16","experiment","SSHSS","0","even","35470","194251","NA","215433","159490","1794","195270","NA","216485","1797","176882","NA","216586","217077","216484","216586","Flanker Task","88","52875","94","yes","1024"
"93.6842105263158","93.6842105263158","562.2210526315789","562.2210526315789","black","legacy","legacy","legacy","0","congruent","uniform","1","undefined","1","h","0","0","0","94","94","0","94","0","94","0","0","0","94","94","94","94","Mon Sep 13 09:45:42 2021","600","The main experiment item","yes","SR-FlankerTask.osexp","C:/Users/Simon M. Rook/Documents/School/1 Tarleton/Classes/Adv Quant/Lab 2","no","mono","no","18","no","white","no","yes","768","legacy","14","79","C:/Users/Simon M. Rook/Documents/School/1 Tarleton/Classes/Adv Quant/Lab 2/flanker-data/sr-subject-0.csv","legacy","Lentiform Loewenfeld","3.3.9","0","h","NA","","h","NA","h","536","NA","7175","17368","NA","536","2","legacy","1024","2","48000","-16","experiment","HHHHH","0","even","35470","194251","NA","217080","159490","1794","195270","NA","218135","1797","176882","NA","218236","218773","218134","218236","Flanker Task","89","53411","95","yes","1024"
"93.75","93.75","561.5520833333334","561.5520833333334","black","legacy","legacy","legacy","0","congruent","uniform","1","undefined","1","s","0","0","0","95","95","0","95","0","95","0","0","0","95","95","95","95","Mon Sep 13 09:45:42 2021","600","The main experiment item","yes","SR-FlankerTask.osexp","C:/Users/Simon M. Rook/Documents/School/1 Tarleton/Classes/Adv Quant/Lab 2","no","mono","no","18","no","white","no","yes","768","legacy","15","79","C:/Users/Simon M. Rook/Documents/School/1 Tarleton/Classes/Adv Quant/Lab 2/flanker-data/sr-subject-0.csv","legacy","Lentiform Loewenfeld","3.3.9","0","s","NA","","h","NA","s","498","NA","7175","17368","NA","498","2","legacy","1024","2","48000","-16","experiment","SSSSS","0","even","35470","194251","NA","218776","159490","1794","195270","NA","219829","1797","176882","NA","219930","220429","219827","219930","Flanker Task","90","53909","96","yes","1024"
"93.81443298969072","93.81443298969072","561.4948453608248","561.4948453608248","black","legacy","legacy","legacy","0","congruent","uniform","1","undefined","1","s","0","0","0","96","96","0","96","0","96","0","0","0","96","96","96","96","Mon Sep 13 09:45:42 2021","600","The main experiment item","yes","SR-FlankerTask.osexp","C:/Users/Simon M. Rook/Documents/School/1 Tarleton/Classes/Adv Quant/Lab 2","no","mono","no","18","no","white","no","yes","768","legacy","16","79","C:/Users/Simon M. Rook/Documents/School/1 Tarleton/Classes/Adv Quant/Lab 2/flanker-data/sr-subject-0.csv","legacy","Lentiform Loewenfeld","3.3.9","0","s","NA","","h","NA","s","556","NA","7175","17368","NA","556","2","legacy","1024","2","48000","-16","experiment","SSSSS","0","even","35470","194251","NA","220432","159490","1794","195270","NA","221484","1797","176882","NA","221585","222142","221483","221585","Flanker Task","91","54465","97","yes","1024"
"93.87755102040816","93.87755102040816","563.7142857142857","563.7142857142857","black","legacy","legacy","legacy","0","incongruent","uniform","1","undefined","1","h","0","0","0","97","97","0","97","0","97","0","0","0","97","97","97","97","Mon Sep 13 09:45:42 2021","600","The main experiment item","yes","SR-FlankerTask.osexp","C:/Users/Simon M. Rook/Documents/School/1 Tarleton/Classes/Adv Quant/Lab 2","no","mono","no","18","no","white","no","yes","768","legacy","17","79","C:/Users/Simon M. Rook/Documents/School/1 Tarleton/Classes/Adv Quant/Lab 2/flanker-data/sr-subject-0.csv","legacy","Lentiform Loewenfeld","3.3.9","0","h","NA","","h","NA","h","779","NA","7175","17368","NA","779","2","legacy","1024","2","48000","-16","experiment","SSHSS","0","even","35470","194251","NA","222145","159490","1794","195270","NA","223197","1797","176882","NA","223298","224078","223196","223298","Flanker Task","92","55244","98","yes","1024"
"93.93939393939394","93.93939393939394","563.8080808080808","563.8080808080808","black","legacy","legacy","legacy","0","incongruent","uniform","1","undefined","1","s","0","0","0","98","98","0","98","0","98","0","0","0","98","98","98","98","Mon Sep 13 09:45:42 2021","600","The main experiment item","yes","SR-FlankerTask.osexp","C:/Users/Simon M. Rook/Documents/School/1 Tarleton/Classes/Adv Quant/Lab 2","no","mono","no","18","no","white","no","yes","768","legacy","18","79","C:/Users/Simon M. Rook/Documents/School/1 Tarleton/Classes/Adv Quant/Lab 2/flanker-data/sr-subject-0.csv","legacy","Lentiform Loewenfeld","3.3.9","0","s","NA","","h","NA","s","573","NA","7175","17368","NA","573","2","legacy","1024","2","48000","-16","experiment","HHSHH","0","even","35470","194251","NA","224582","159490","1794","224081","NA","225635","1797","176882","NA","225736","226310","225633","225736","Flanker Task","93","55817","99","yes","1024"
"94","94","562.03","562.03","black","legacy","legacy","legacy","0","congruent","uniform","1","undefined","1","h","0","0","0","99","99","0","99","0","99","0","0","0","99","99","99","99","Mon Sep 13 09:45:42 2021","600","The main experiment item","yes","SR-FlankerTask.osexp","C:/Users/Simon M. Rook/Documents/School/1 Tarleton/Classes/Adv Quant/Lab 2","no","mono","no","18","no","white","no","yes","768","legacy","19","79","C:/Users/Simon M. Rook/Documents/School/1 Tarleton/Classes/Adv Quant/Lab 2/flanker-data/sr-subject-0.csv","legacy","Lentiform Loewenfeld","3.3.9","0","h","NA","","h","NA","h","386","NA","7175","17368","NA","386","2","legacy","1024","2","48000","-16","experiment","HHHHH","0","even","35470","194251","NA","226314","159490","1794","224081","NA","227366","1797","176882","NA","227467","227854","227365","227467","Flanker Task","94","56203","100","yes","1024"
"94.05940594059406","94.05940594059406","560.6930693069307","560.6930693069307","black","legacy","legacy","legacy","0","congruent","uniform","1","undefined","1","h","0","0","0","100","100","0","100","0","100","0","0","0","100","100","100","100","Mon Sep 13 09:45:42 2021","600","The main experiment item","yes","SR-FlankerTask.osexp","C:/Users/Simon M. Rook/Documents/School/1 Tarleton/Classes/Adv Quant/Lab 2","no","mono","no","18","no","white","no","yes","768","legacy","20","79","C:/Users/Simon M. Rook/Documents/School/1 Tarleton/Classes/Adv Quant/Lab 2/flanker-data/sr-subject-0.csv","legacy","Lentiform Loewenfeld","3.3.9","0","h","NA","","h","NA","h","427","NA","7175","17368","NA","427","2","legacy","1024","2","48000","-16","experiment","HHHHH","0","even","35470","194251","NA","227857","159490","1794","224081","NA","228910","1797","176882","NA","229011","229439","228908","229011","Flanker Task","95","56630","101","yes","1024"
"94.11764705882354","94.11764705882354","559.2941176470588","559.2941176470588","black","legacy","legacy","legacy","0","congruent","uniform","1","undefined","1","s","0","0","0","101","101","0","101","0","101","0","0","0","101","101","101","101","Mon Sep 13 09:45:42 2021","600","The main experiment item","yes","SR-FlankerTask.osexp","C:/Users/Simon M. Rook/Documents/School/1 Tarleton/Classes/Adv Quant/Lab 2","no","mono","no","18","no","white","no","yes","768","legacy","21","79","C:/Users/Simon M. Rook/Documents/School/1 Tarleton/Classes/Adv Quant/Lab 2/flanker-data/sr-subject-0.csv","legacy","Lentiform Loewenfeld","3.3.9","0","s","NA","","h","NA","s","418","NA","7175","17368","NA","418","2","legacy","1024","2","48000","-16","experiment","SSSSS","0","even","35470","194251","NA","229442","159490","1794","224081","NA","230494","1797","176882","NA","230596","231015","230492","230596","Flanker Task","96","57048","102","yes","1024"
"94.1747572815534","94.1747572815534","558","558","black","legacy","legacy","legacy","0","congruent","uniform","1","undefined","1","s","0","0","0","102","102","0","102","0","102","0","0","0","102","102","102","102","Mon Sep 13 09:45:42 2021","600","The main experiment item","yes","SR-FlankerTask.osexp","C:/Users/Simon M. Rook/Documents/School/1 Tarleton/Classes/Adv Quant/Lab 2","no","mono","no","18","no","white","no","yes","768","legacy","22","79","C:/Users/Simon M. Rook/Documents/School/1 Tarleton/Classes/Adv Quant/Lab 2/flanker-data/sr-subject-0.csv","legacy","Lentiform Loewenfeld","3.3.9","0","s","NA","","h","NA","s","426","NA","7175","17368","NA","426","2","legacy","1024","2","48000","-16","experiment","SSSSS","0","even","35470","194251","NA","231018","159490","1794","224081","NA","232071","1797","176882","NA","232172","232599","232069","232172","Flanker Task","97","57474","103","yes","1024"
"93.26923076923077","93.26923076923077","556.2115384615385","556.2115384615385","black","legacy","legacy","legacy","0","incongruent","uniform","0","undefined","0","h","0","0","0","103","103","0","103","0","103","0","0","0","103","103","103","103","Mon Sep 13 09:45:42 2021","600","The main experiment item","yes","SR-FlankerTask.osexp","C:/Users/Simon M. Rook/Documents/School/1 Tarleton/Classes/Adv Quant/Lab 2","no","mono","no","18","no","white","no","yes","768","legacy","23","79","C:/Users/Simon M. Rook/Documents/School/1 Tarleton/Classes/Adv Quant/Lab 2/flanker-data/sr-subject-0.csv","legacy","Lentiform Loewenfeld","3.3.9","0","s","NA","","h","NA","s","372","NA","7175","17368","NA","372","2","legacy","1024","2","48000","-16","experiment","SSHSS","0","even","35470","194251","NA","232602","159490","1794","224081","NA","233654","1797","176882","NA","233755","234128","233653","233755","Flanker Task","97","57846","104","yes","1024"
"93.33333333333333","93.33333333333333","555.8857142857142","555.8857142857142","black","legacy","legacy","legacy","0","incongruent","uniform","1","undefined","1","s","0","0","0","104","104","0","104","0","104","0","0","0","104","104","104","104","Mon Sep 13 09:45:42 2021","600","The main experiment item","yes","SR-FlankerTask.osexp","C:/Users/Simon M. Rook/Documents/School/1 Tarleton/Classes/Adv Quant/Lab 2","no","mono","no","18","no","white","no","yes","768","legacy","24","79","C:/Users/Simon M. Rook/Documents/School/1 Tarleton/Classes/Adv Quant/Lab 2/flanker-data/sr-subject-0.csv","legacy","Lentiform Loewenfeld","3.3.9","0","s","NA","","h","NA","s","522","NA","7175","17368","NA","522","2","legacy","1024","2","48000","-16","experiment","HHSHH","0","even","35470","194251","NA","234632","234131","1794","224081","NA","235687","1797","176882","NA","235788","236311","235685","235788","Flanker Task","98","58368","105","yes","1024"
"93.39622641509433","93.39622641509433","555.0377358490566","555.0377358490566","black","legacy","legacy","legacy","0","incongruent","uniform","1","undefined","1","s","0","0","0","105","105","0","105","0","105","0","0","0","105","105","105","105","Mon Sep 13 09:45:42 2021","600","The main experiment item","yes","SR-FlankerTask.osexp","C:/Users/Simon M. Rook/Documents/School/1 Tarleton/Classes/Adv Quant/Lab 2","no","mono","no","18","no","white","no","yes","768","legacy","25","79","C:/Users/Simon M. Rook/Documents/School/1 Tarleton/Classes/Adv Quant/Lab 2/flanker-data/sr-subject-0.csv","legacy","Lentiform Loewenfeld","3.3.9","0","s","NA","","h","NA","s","466","NA","7175","17368","NA","466","2","legacy","1024","2","48000","-16","experiment","HHSHH","0","even","35470","194251","NA","236314","234131","1794","224081","NA","237367","1797","176882","NA","237468","237935","237365","237468","Flanker Task","99","58834","106","yes","1024"
"93.45794392523365","93.45794392523365","554.4392523364486","554.4392523364486","black","legacy","legacy","legacy","0","incongruent","uniform","1","undefined","1","h","0","0","0","106","106","0","106","0","106","0","0","0","106","106","106","106","Mon Sep 13 09:45:42 2021","600","The main experiment item","yes","SR-FlankerTask.osexp","C:/Users/Simon M. Rook/Documents/School/1 Tarleton/Classes/Adv Quant/Lab 2","no","mono","no","18","no","white","no","yes","768","legacy","26","79","C:/Users/Simon M. Rook/Documents/School/1 Tarleton/Classes/Adv Quant/Lab 2/flanker-data/sr-subject-0.csv","legacy","Lentiform Loewenfeld","3.3.9","0","h","NA","","h","NA","h","491","NA","7175","17368","NA","491","2","legacy","1024","2","48000","-16","experiment","SSHSS","0","even","35470","194251","NA","237938","234131","1794","224081","NA","238991","1797","176882","NA","239092","239584","238989","239092","Flanker Task","100","59325","107","yes","1024"
"93.51851851851852","93.51851851851852","553.324074074074","553.324074074074","black","legacy","legacy","legacy","0","congruent","uniform","1","undefined","1","h","0","0","0","107","107","0","107","0","107","0","0","0","107","107","107","107","Mon Sep 13 09:45:42 2021","600","The main experiment item","yes","SR-FlankerTask.osexp","C:/Users/Simon M. Rook/Documents/School/1 Tarleton/Classes/Adv Quant/Lab 2","no","mono","no","18","no","white","no","yes","768","legacy","27","79","C:/Users/Simon M. Rook/Documents/School/1 Tarleton/Classes/Adv Quant/Lab 2/flanker-data/sr-subject-0.csv","legacy","Lentiform Loewenfeld","3.3.9","0","h","NA","","h","NA","h","434","NA","7175","17368","NA","434","2","legacy","1024","2","48000","-16","experiment","HHHHH","0","even","35470","194251","NA","239587","234131","1794","224081","NA","240640","1797","176882","NA","240741","241176","240638","240741","Flanker Task","101","59759","108","yes","1024"
