"acc","accuracy","average_response_time","avg_rt","background","canvas_backend","clock_backend","color_backend","compensation","condition","coordinates","correct","correct_Instructions1","correct_keyboard_response","correct_response","count_Block1","count_Block2","count_Block3","count_Closing","count_ISI","count_Instructions1","count_Instructions2","count_Instructions3","count_error_feedback","count_experiment","count_faster","count_fixation","count_keyboard_response","count_logger","count_sequence","count_stimulus","datetime","deadline","description","disable_garbage_collection","experiment_file","experiment_path","font_bold","font_family","font_italic","font_size","font_underline","foreground","form_clicks","fullscreen","height","keyboard_backend","live_row","live_row_Block1","logfile","mouse_backend","opensesame_codename","opensesame_version","repeat_cycle","response","response_Closing","response_Instructions1","response_Instructions2","response_Instructions3","response_keyboard_response","response_time","response_time_Closing","response_time_Instructions1","response_time_Instructions2","response_time_Instructions3","response_time_keyboard_response","round_decimals","sampler_backend","sound_buf_size","sound_channels","sound_freq","sound_sample_size","start","stimulus","subject_nr","subject_parity","time_Block1","time_Block2","time_Block3","time_Closing","time_ISI","time_Instructions1","time_Instructions2","time_Instructions3","time_error_feedback","time_experiment","time_faster","time_fixation","time_keyboard_response","time_logger","time_sequence","time_stimulus","title","total_correct","total_response_time","total_responses","uniform_coordinates","width"
"100","100","917","917","black","legacy","legacy","legacy","0","congruent","uniform","1","undefined","1","h","0","0","0","0","0","0","0","0","0","0","0","0","0","0","0","0","Sun Sep 19 13:03:48 2021","1500","The main experiment item","yes","FlankerTask.osexp","C:/Users/warne/OneDrive/Documents/Tarleton - MS Applied Psychology/Adv Quantitative Methods and Experimental Design/Labs","no","mono","no","18","no","white","no","yes","768","legacy","0","0","C:/Users/warne/OneDrive/Documents/Tarleton - MS Applied Psychology/Adv Quantitative Methods and Experimental Design/Labs/AH-subject-3.csv","legacy","Lentiform Loewenfeld","3.3.9","0","h","NA","h","NA","NA","h","917","NA","37481","NA","NA","917","2","legacy","1024","2","48000","-16","experiment","HHHHH","3","odd","39787","NA","NA","NA","NA","2305","NA","NA","NA","2294","NA","39852","39957","40874","39850","39956","Flanker Task","1","917","1","yes","1024"
"100","100","711.5","711.5","black","legacy","legacy","legacy","0","congruent","uniform","1","undefined","1","h","0","0","0","0","1","0","0","0","1","0","1","1","1","1","1","1","Sun Sep 19 13:03:48 2021","1500","The main experiment item","yes","FlankerTask.osexp","C:/Users/warne/OneDrive/Documents/Tarleton - MS Applied Psychology/Adv Quantitative Methods and Experimental Design/Labs","no","mono","no","18","no","white","no","yes","768","legacy","1","1","C:/Users/warne/OneDrive/Documents/Tarleton - MS Applied Psychology/Adv Quantitative Methods and Experimental Design/Labs/AH-subject-3.csv","legacy","Lentiform Loewenfeld","3.3.9","0","h","NA","h","NA","NA","h","506","NA","37481","NA","NA","506","2","legacy","1024","2","48000","-16","experiment","HHHHH","3","odd","39787","NA","NA","NA","40884","2305","NA","NA","NA","2294","NA","41944","42048","42555","41942","42048","Flanker Task","2","1423","2","yes","1024"
"100","100","646.3333333333334","646.3333333333334","black","legacy","legacy","legacy","0","congruent","uniform","1","undefined","1","h","0","0","0","0","2","0","0","0","2","0","2","2","2","2","2","2","Sun Sep 19 13:03:48 2021","1500","The main experiment item","yes","FlankerTask.osexp","C:/Users/warne/OneDrive/Documents/Tarleton - MS Applied Psychology/Adv Quantitative Methods and Experimental Design/Labs","no","mono","no","18","no","white","no","yes","768","legacy","2","2","C:/Users/warne/OneDrive/Documents/Tarleton - MS Applied Psychology/Adv Quantitative Methods and Experimental Design/Labs/AH-subject-3.csv","legacy","Lentiform Loewenfeld","3.3.9","0","h","NA","h","NA","NA","h","516","NA","37481","NA","NA","516","2","legacy","1024","2","48000","-16","experiment","HHHHH","3","odd","39787","NA","NA","NA","42560","2305","NA","NA","NA","2294","NA","43618","43719","44236","43616","43719","Flanker Task","3","1939","3","yes","1024"
"100","100","600.5","600.5","black","legacy","legacy","legacy","0","congruent","uniform","1","undefined","1","s","0","0","0","0","3","0","0","0","3","0","3","3","3","3","3","3","Sun Sep 19 13:03:48 2021","1500","The main experiment item","yes","FlankerTask.osexp","C:/Users/warne/OneDrive/Documents/Tarleton - MS Applied Psychology/Adv Quantitative Methods and Experimental Design/Labs","no","mono","no","18","no","white","no","yes","768","legacy","3","3","C:/Users/warne/OneDrive/Documents/Tarleton - MS Applied Psychology/Adv Quantitative Methods and Experimental Design/Labs/AH-subject-3.csv","legacy","Lentiform Loewenfeld","3.3.9","0","s","NA","h","NA","NA","s","463","NA","37481","NA","NA","463","2","legacy","1024","2","48000","-16","experiment","SSSSS","3","odd","39787","NA","NA","NA","44241","2305","NA","NA","NA","2294","NA","45307","45408","45871","45305","45408","Flanker Task","4","2402","4","yes","1024"
"100","100","568.2","568.2","black","legacy","legacy","legacy","0","congruent","uniform","1","undefined","1","s","0","0","0","0","4","0","0","0","4","0","4","4","4","4","4","4","Sun Sep 19 13:03:48 2021","1500","The main experiment item","yes","FlankerTask.osexp","C:/Users/warne/OneDrive/Documents/Tarleton - MS Applied Psychology/Adv Quantitative Methods and Experimental Design/Labs","no","mono","no","18","no","white","no","yes","768","legacy","4","4","C:/Users/warne/OneDrive/Documents/Tarleton - MS Applied Psychology/Adv Quantitative Methods and Experimental Design/Labs/AH-subject-3.csv","legacy","Lentiform Loewenfeld","3.3.9","0","s","NA","h","NA","NA","s","439","NA","37481","NA","NA","439","2","legacy","1024","2","48000","-16","experiment","SSSSS","3","odd","39787","NA","NA","NA","45875","2305","NA","NA","NA","2294","NA","46935","47036","47476","46932","47036","Flanker Task","5","2841","5","yes","1024"
"100","100","591.3333333333334","591.3333333333334","black","legacy","legacy","legacy","0","incongruent","uniform","1","undefined","1","s","0","0","0","0","5","0","0","0","5","0","5","5","5","5","5","5","Sun Sep 19 13:03:48 2021","1500","The main experiment item","yes","FlankerTask.osexp","C:/Users/warne/OneDrive/Documents/Tarleton - MS Applied Psychology/Adv Quantitative Methods and Experimental Design/Labs","no","mono","no","18","no","white","no","yes","768","legacy","5","5","C:/Users/warne/OneDrive/Documents/Tarleton - MS Applied Psychology/Adv Quantitative Methods and Experimental Design/Labs/AH-subject-3.csv","legacy","Lentiform Loewenfeld","3.3.9","0","s","NA","h","NA","NA","s","707","NA","37481","NA","NA","707","2","legacy","1024","2","48000","-16","experiment","HHSHH","3","odd","39787","NA","NA","NA","47481","2305","NA","NA","NA","2294","NA","48540","48644","49351","48538","48644","Flanker Task","6","3548","6","yes","1024"
"100","100","591","591","black","legacy","legacy","legacy","0","incongruent","uniform","1","undefined","1","h","0","0","0","0","6","0","0","0","6","0","6","6","6","6","6","6","Sun Sep 19 13:03:48 2021","1500","The main experiment item","yes","FlankerTask.osexp","C:/Users/warne/OneDrive/Documents/Tarleton - MS Applied Psychology/Adv Quantitative Methods and Experimental Design/Labs","no","mono","no","18","no","white","no","yes","768","legacy","6","6","C:/Users/warne/OneDrive/Documents/Tarleton - MS Applied Psychology/Adv Quantitative Methods and Experimental Design/Labs/AH-subject-3.csv","legacy","Lentiform Loewenfeld","3.3.9","0","h","NA","h","NA","NA","h","589","NA","37481","NA","NA","589","2","legacy","1024","2","48000","-16","experiment","SSHSS","3","odd","39787","NA","NA","NA","49356","2305","NA","NA","NA","2294","NA","50416","50517","51106","50414","50517","Flanker Task","7","4137","7","yes","1024"
"100","100","588.5","588.5","black","legacy","legacy","legacy","0","incongruent","uniform","1","undefined","1","h","0","0","0","0","7","0","0","0","7","0","7","7","7","7","7","7","Sun Sep 19 13:03:48 2021","1500","The main experiment item","yes","FlankerTask.osexp","C:/Users/warne/OneDrive/Documents/Tarleton - MS Applied Psychology/Adv Quantitative Methods and Experimental Design/Labs","no","mono","no","18","no","white","no","yes","768","legacy","7","7","C:/Users/warne/OneDrive/Documents/Tarleton - MS Applied Psychology/Adv Quantitative Methods and Experimental Design/Labs/AH-subject-3.csv","legacy","Lentiform Loewenfeld","3.3.9","0","h","NA","h","NA","NA","h","571","NA","37481","NA","NA","571","2","legacy","1024","2","48000","-16","experiment","SSHSS","3","odd","39787","NA","NA","NA","51112","2305","NA","NA","NA","2294","NA","52171","52275","52847","52169","52275","Flanker Task","8","4708","8","yes","1024"
"100","100","583","583","black","legacy","legacy","legacy","0","congruent","uniform","1","undefined","1","s","0","0","0","0","8","0","0","0","8","0","8","8","8","8","8","8","Sun Sep 19 13:03:48 2021","1500","The main experiment item","yes","FlankerTask.osexp","C:/Users/warne/OneDrive/Documents/Tarleton - MS Applied Psychology/Adv Quantitative Methods and Experimental Design/Labs","no","mono","no","18","no","white","no","yes","768","legacy","8","8","C:/Users/warne/OneDrive/Documents/Tarleton - MS Applied Psychology/Adv Quantitative Methods and Experimental Design/Labs/AH-subject-3.csv","legacy","Lentiform Loewenfeld","3.3.9","0","s","NA","h","NA","NA","s","539","NA","37481","NA","NA","539","2","legacy","1024","2","48000","-16","experiment","SSSSS","3","odd","39787","NA","NA","NA","52852","2305","NA","NA","NA","2294","NA","53917","54018","54557","53915","54018","Flanker Task","9","5247","9","yes","1024"
"100","100","581.7","581.7","black","legacy","legacy","legacy","0","incongruent","uniform","1","undefined","1","h","0","0","0","0","9","0","0","0","9","0","9","9","9","9","9","9","Sun Sep 19 13:03:48 2021","1500","The main experiment item","yes","FlankerTask.osexp","C:/Users/warne/OneDrive/Documents/Tarleton - MS Applied Psychology/Adv Quantitative Methods and Experimental Design/Labs","no","mono","no","18","no","white","no","yes","768","legacy","9","9","C:/Users/warne/OneDrive/Documents/Tarleton - MS Applied Psychology/Adv Quantitative Methods and Experimental Design/Labs/AH-subject-3.csv","legacy","Lentiform Loewenfeld","3.3.9","0","h","NA","h","NA","NA","h","570","NA","37481","NA","NA","570","2","legacy","1024","2","48000","-16","experiment","SSHSS","3","odd","39787","NA","NA","NA","54562","2305","NA","NA","NA","2294","NA","55626","55727","56297","55623","55727","Flanker Task","10","5817","10","yes","1024"
"90.9090909090909","90.9090909090909","584","584","black","legacy","legacy","legacy","0","incongruent","uniform","0","undefined","0","s","0","0","0","0","10","0","0","0","10","0","10","10","10","10","10","10","Sun Sep 19 13:03:48 2021","1500","The main experiment item","yes","FlankerTask.osexp","C:/Users/warne/OneDrive/Documents/Tarleton - MS Applied Psychology/Adv Quantitative Methods and Experimental Design/Labs","no","mono","no","18","no","white","no","yes","768","legacy","10","10","C:/Users/warne/OneDrive/Documents/Tarleton - MS Applied Psychology/Adv Quantitative Methods and Experimental Design/Labs/AH-subject-3.csv","legacy","Lentiform Loewenfeld","3.3.9","0","h","NA","h","NA","NA","h","607","NA","37481","NA","NA","607","2","legacy","1024","2","48000","-16","experiment","HHSHH","3","odd","39787","NA","NA","NA","56300","2305","NA","NA","NA","2294","NA","57359","57460","58067","57357","57460","Flanker Task","10","6424","11","yes","1024"
"91.66666666666667","91.66666666666667","614.1666666666666","614.1666666666666","black","legacy","legacy","legacy","0","incongruent","uniform","1","undefined","1","s","0","0","0","0","11","0","0","0","11","0","11","11","11","11","11","11","Sun Sep 19 13:03:48 2021","1500","The main experiment item","yes","FlankerTask.osexp","C:/Users/warne/OneDrive/Documents/Tarleton - MS Applied Psychology/Adv Quantitative Methods and Experimental Design/Labs","no","mono","no","18","no","white","no","yes","768","legacy","11","11","C:/Users/warne/OneDrive/Documents/Tarleton - MS Applied Psychology/Adv Quantitative Methods and Experimental Design/Labs/AH-subject-3.csv","legacy","Lentiform Loewenfeld","3.3.9","0","s","NA","h","NA","NA","s","946","NA","37481","NA","NA","946","2","legacy","1024","2","48000","-16","experiment","HHSHH","3","odd","39787","NA","NA","NA","58576","2305","NA","NA","58072","2294","NA","59634","59735","60681","59631","59735","Flanker Task","11","7370","12","yes","1024"
"92.3076923076923","92.3076923076923","610.6923076923077","610.6923076923077","black","legacy","legacy","legacy","0","congruent","uniform","1","undefined","1","h","0","0","0","0","12","0","0","0","12","0","12","12","12","12","12","12","Sun Sep 19 13:03:48 2021","1500","The main experiment item","yes","FlankerTask.osexp","C:/Users/warne/OneDrive/Documents/Tarleton - MS Applied Psychology/Adv Quantitative Methods and Experimental Design/Labs","no","mono","no","18","no","white","no","yes","768","legacy","12","12","C:/Users/warne/OneDrive/Documents/Tarleton - MS Applied Psychology/Adv Quantitative Methods and Experimental Design/Labs/AH-subject-3.csv","legacy","Lentiform Loewenfeld","3.3.9","0","h","NA","h","NA","NA","h","569","NA","37481","NA","NA","569","2","legacy","1024","2","48000","-16","experiment","HHHHH","3","odd","39787","NA","NA","NA","60688","2305","NA","NA","58072","2294","NA","61748","61849","62418","61746","61849","Flanker Task","12","7939","13","yes","1024"
"92.85714285714286","92.85714285714286","608.7857142857143","608.7857142857143","black","legacy","legacy","legacy","0","congruent","uniform","1","undefined","1","h","0","0","0","0","13","0","0","0","13","0","13","13","13","13","13","13","Sun Sep 19 13:03:48 2021","1500","The main experiment item","yes","FlankerTask.osexp","C:/Users/warne/OneDrive/Documents/Tarleton - MS Applied Psychology/Adv Quantitative Methods and Experimental Design/Labs","no","mono","no","18","no","white","no","yes","768","legacy","13","13","C:/Users/warne/OneDrive/Documents/Tarleton - MS Applied Psychology/Adv Quantitative Methods and Experimental Design/Labs/AH-subject-3.csv","legacy","Lentiform Loewenfeld","3.3.9","0","h","NA","h","NA","NA","h","584","NA","37481","NA","NA","584","2","legacy","1024","2","48000","-16","experiment","HHHHH","3","odd","39787","NA","NA","NA","62424","2305","NA","NA","58072","2294","NA","63484","63589","64173","63481","63589","Flanker Task","13","8523","14","yes","1024"
"93.33333333333333","93.33333333333333","618.2666666666667","618.2666666666667","black","legacy","legacy","legacy","0","congruent","uniform","1","undefined","1","s","0","0","0","0","14","0","0","0","14","0","14","14","14","14","14","14","Sun Sep 19 13:03:48 2021","1500","The main experiment item","yes","FlankerTask.osexp","C:/Users/warne/OneDrive/Documents/Tarleton - MS Applied Psychology/Adv Quantitative Methods and Experimental Design/Labs","no","mono","no","18","no","white","no","yes","768","legacy","14","14","C:/Users/warne/OneDrive/Documents/Tarleton - MS Applied Psychology/Adv Quantitative Methods and Experimental Design/Labs/AH-subject-3.csv","legacy","Lentiform Loewenfeld","3.3.9","0","s","NA","h","NA","NA","s","751","NA","37481","NA","NA","751","2","legacy","1024","2","48000","-16","experiment","SSSSS","3","odd","39787","NA","NA","NA","64178","2305","NA","NA","58072","2294","NA","65237","65342","66094","65234","65342","Flanker Task","14","9274","15","yes","1024"
"93.75","93.75","611.625","611.625","black","legacy","legacy","legacy","0","congruent","uniform","1","undefined","1","h","0","0","0","0","15","0","0","0","15","0","15","15","15","15","15","15","Sun Sep 19 13:03:48 2021","1500","The main experiment item","yes","FlankerTask.osexp","C:/Users/warne/OneDrive/Documents/Tarleton - MS Applied Psychology/Adv Quantitative Methods and Experimental Design/Labs","no","mono","no","18","no","white","no","yes","768","legacy","15","15","C:/Users/warne/OneDrive/Documents/Tarleton - MS Applied Psychology/Adv Quantitative Methods and Experimental Design/Labs/AH-subject-3.csv","legacy","Lentiform Loewenfeld","3.3.9","0","h","NA","h","NA","NA","h","512","NA","37481","NA","NA","512","2","legacy","1024","2","48000","-16","experiment","HHHHH","3","odd","39787","NA","NA","NA","66101","2305","NA","NA","58072","2294","NA","67160","67261","67774","67158","67261","Flanker Task","15","9786","16","yes","1024"
"94.11764705882354","94.11764705882354","619","619","black","legacy","legacy","legacy","0","incongruent","uniform","1","undefined","1","h","0","0","0","0","16","0","0","0","16","0","16","16","16","16","16","16","Sun Sep 19 13:03:48 2021","1500","The main experiment item","yes","FlankerTask.osexp","C:/Users/warne/OneDrive/Documents/Tarleton - MS Applied Psychology/Adv Quantitative Methods and Experimental Design/Labs","no","mono","no","18","no","white","no","yes","768","legacy","16","16","C:/Users/warne/OneDrive/Documents/Tarleton - MS Applied Psychology/Adv Quantitative Methods and Experimental Design/Labs/AH-subject-3.csv","legacy","Lentiform Loewenfeld","3.3.9","0","h","NA","h","NA","NA","h","737","NA","37481","NA","NA","737","2","legacy","1024","2","48000","-16","experiment","SSHSS","3","odd","39787","NA","NA","NA","67779","2305","NA","NA","58072","2294","NA","68837","68941","69679","68835","68941","Flanker Task","16","10523","17","yes","1024"
"94.44444444444444","94.44444444444444","616.1111111111111","616.1111111111111","black","legacy","legacy","legacy","0","incongruent","uniform","1","undefined","1","h","0","0","0","0","17","0","0","0","17","0","17","17","17","17","17","17","Sun Sep 19 13:03:48 2021","1500","The main experiment item","yes","FlankerTask.osexp","C:/Users/warne/OneDrive/Documents/Tarleton - MS Applied Psychology/Adv Quantitative Methods and Experimental Design/Labs","no","mono","no","18","no","white","no","yes","768","legacy","17","17","C:/Users/warne/OneDrive/Documents/Tarleton - MS Applied Psychology/Adv Quantitative Methods and Experimental Design/Labs/AH-subject-3.csv","legacy","Lentiform Loewenfeld","3.3.9","0","h","NA","h","NA","NA","h","567","NA","37481","NA","NA","567","2","legacy","1024","2","48000","-16","experiment","SSHSS","3","odd","39787","NA","NA","NA","69686","2305","NA","NA","58072","2294","NA","70747","70852","71420","70745","70852","Flanker Task","17","11090","18","yes","1024"
"94.73684210526316","94.73684210526316","615.3157894736842","615.3157894736842","black","legacy","legacy","legacy","0","incongruent","uniform","1","undefined","1","h","0","0","0","0","18","0","0","0","18","0","18","18","18","18","18","18","Sun Sep 19 13:03:48 2021","1500","The main experiment item","yes","FlankerTask.osexp","C:/Users/warne/OneDrive/Documents/Tarleton - MS Applied Psychology/Adv Quantitative Methods and Experimental Design/Labs","no","mono","no","18","no","white","no","yes","768","legacy","18","18","C:/Users/warne/OneDrive/Documents/Tarleton - MS Applied Psychology/Adv Quantitative Methods and Experimental Design/Labs/AH-subject-3.csv","legacy","Lentiform Loewenfeld","3.3.9","0","h","NA","h","NA","NA","h","601","NA","37481","NA","NA","601","2","legacy","1024","2","48000","-16","experiment","SSHSS","3","odd","39787","NA","NA","NA","71423","2305","NA","NA","58072","2294","NA","72483","72588","73189","72481","72587","Flanker Task","18","11691","19","yes","1024"
"95","95","614.7","614.7","black","legacy","legacy","legacy","0","congruent","uniform","1","undefined","1","h","0","0","0","0","19","0","0","0","19","0","19","19","19","19","19","19","Sun Sep 19 13:03:48 2021","1500","The main experiment item","yes","FlankerTask.osexp","C:/Users/warne/OneDrive/Documents/Tarleton - MS Applied Psychology/Adv Quantitative Methods and Experimental Design/Labs","no","mono","no","18","no","white","no","yes","768","legacy","19","19","C:/Users/warne/OneDrive/Documents/Tarleton - MS Applied Psychology/Adv Quantitative Methods and Experimental Design/Labs/AH-subject-3.csv","legacy","Lentiform Loewenfeld","3.3.9","0","h","NA","h","NA","NA","h","603","NA","37481","NA","NA","603","2","legacy","1024","2","48000","-16","experiment","HHHHH","3","odd","39787","NA","NA","NA","73194","2305","NA","NA","58072","2294","NA","74252","74357","74960","74250","74357","Flanker Task","19","12294","20","yes","1024"
"95.23809523809524","95.23809523809524","618.3809523809524","618.3809523809524","black","legacy","legacy","legacy","0","congruent","uniform","1","undefined","1","h","0","0","0","0","20","0","0","0","20","0","20","20","20","20","20","20","Sun Sep 19 13:03:48 2021","1500","The main experiment item","yes","FlankerTask.osexp","C:/Users/warne/OneDrive/Documents/Tarleton - MS Applied Psychology/Adv Quantitative Methods and Experimental Design/Labs","no","mono","no","18","no","white","no","yes","768","legacy","20","20","C:/Users/warne/OneDrive/Documents/Tarleton - MS Applied Psychology/Adv Quantitative Methods and Experimental Design/Labs/AH-subject-3.csv","legacy","Lentiform Loewenfeld","3.3.9","0","h","NA","h","NA","NA","h","692","NA","37481","NA","NA","692","2","legacy","1024","2","48000","-16","experiment","HHHHH","3","odd","39787","NA","NA","NA","74965","2305","NA","NA","58072","2294","NA","76023","76128","76820","76021","76128","Flanker Task","20","12986","21","yes","1024"
"95.45454545454545","95.45454545454545","619.1363636363636","619.1363636363636","black","legacy","legacy","legacy","0","congruent","uniform","1","undefined","1","h","0","0","0","0","21","0","0","0","21","0","21","21","21","21","21","21","Sun Sep 19 13:03:48 2021","1500","The main experiment item","yes","FlankerTask.osexp","C:/Users/warne/OneDrive/Documents/Tarleton - MS Applied Psychology/Adv Quantitative Methods and Experimental Design/Labs","no","mono","no","18","no","white","no","yes","768","legacy","21","21","C:/Users/warne/OneDrive/Documents/Tarleton - MS Applied Psychology/Adv Quantitative Methods and Experimental Design/Labs/AH-subject-3.csv","legacy","Lentiform Loewenfeld","3.3.9","0","h","NA","h","NA","NA","h","635","NA","37481","NA","NA","635","2","legacy","1024","2","48000","-16","experiment","HHHHH","3","odd","39787","NA","NA","NA","76824","2305","NA","NA","58072","2294","NA","77883","77985","78621","77881","77985","Flanker Task","21","13621","22","yes","1024"
"95.65217391304348","95.65217391304348","618.3478260869565","618.3478260869565","black","legacy","legacy","legacy","0","incongruent","uniform","1","undefined","1","s","0","0","0","0","22","0","0","0","22","0","22","22","22","22","22","22","Sun Sep 19 13:03:48 2021","1500","The main experiment item","yes","FlankerTask.osexp","C:/Users/warne/OneDrive/Documents/Tarleton - MS Applied Psychology/Adv Quantitative Methods and Experimental Design/Labs","no","mono","no","18","no","white","no","yes","768","legacy","22","22","C:/Users/warne/OneDrive/Documents/Tarleton - MS Applied Psychology/Adv Quantitative Methods and Experimental Design/Labs/AH-subject-3.csv","legacy","Lentiform Loewenfeld","3.3.9","0","s","NA","h","NA","NA","s","601","NA","37481","NA","NA","601","2","legacy","1024","2","48000","-16","experiment","HHSHH","3","odd","39787","NA","NA","NA","78625","2305","NA","NA","58072","2294","NA","79684","79789","80391","79682","79789","Flanker Task","22","14222","23","yes","1024"
"95.83333333333333","95.83333333333333","615.25","615.25","black","legacy","legacy","legacy","0","congruent","uniform","1","undefined","1","s","0","0","0","0","23","0","0","0","23","0","23","23","23","23","23","23","Sun Sep 19 13:03:48 2021","1500","The main experiment item","yes","FlankerTask.osexp","C:/Users/warne/OneDrive/Documents/Tarleton - MS Applied Psychology/Adv Quantitative Methods and Experimental Design/Labs","no","mono","no","18","no","white","no","yes","768","legacy","23","23","C:/Users/warne/OneDrive/Documents/Tarleton - MS Applied Psychology/Adv Quantitative Methods and Experimental Design/Labs/AH-subject-3.csv","legacy","Lentiform Loewenfeld","3.3.9","0","s","NA","h","NA","NA","s","544","NA","37481","NA","NA","544","2","legacy","1024","2","48000","-16","experiment","SSSSS","3","odd","39787","NA","NA","NA","80396","2305","NA","NA","58072","2294","NA","81455","81556","82101","81453","81556","Flanker Task","23","14766","24","yes","1024"
"96","96","613.48","613.48","black","legacy","legacy","legacy","0","congruent","uniform","1","undefined","1","h","0","0","0","0","24","0","0","0","24","0","24","24","24","24","24","24","Sun Sep 19 13:03:48 2021","1500","The main experiment item","yes","FlankerTask.osexp","C:/Users/warne/OneDrive/Documents/Tarleton - MS Applied Psychology/Adv Quantitative Methods and Experimental Design/Labs","no","mono","no","18","no","white","no","yes","768","legacy","24","24","C:/Users/warne/OneDrive/Documents/Tarleton - MS Applied Psychology/Adv Quantitative Methods and Experimental Design/Labs/AH-subject-3.csv","legacy","Lentiform Loewenfeld","3.3.9","0","h","NA","h","NA","NA","h","571","NA","37481","NA","NA","571","2","legacy","1024","2","48000","-16","experiment","HHHHH","3","odd","39787","NA","NA","NA","82107","2305","NA","NA","58072","2294","NA","83165","83270","83841","83163","83270","Flanker Task","24","15337","25","yes","1024"
"96.15384615384616","96.15384615384616","611.9230769230769","611.9230769230769","black","legacy","legacy","legacy","0","congruent","uniform","1","undefined","1","s","0","0","0","0","25","0","0","0","25","0","25","25","25","25","25","25","Sun Sep 19 13:03:48 2021","1500","The main experiment item","yes","FlankerTask.osexp","C:/Users/warne/OneDrive/Documents/Tarleton - MS Applied Psychology/Adv Quantitative Methods and Experimental Design/Labs","no","mono","no","18","no","white","no","yes","768","legacy","25","25","C:/Users/warne/OneDrive/Documents/Tarleton - MS Applied Psychology/Adv Quantitative Methods and Experimental Design/Labs/AH-subject-3.csv","legacy","Lentiform Loewenfeld","3.3.9","0","s","NA","h","NA","NA","s","573","NA","37481","NA","NA","573","2","legacy","1024","2","48000","-16","experiment","SSSSS","3","odd","39787","NA","NA","NA","83845","2305","NA","NA","58072","2294","NA","84903","85008","85581","84901","85008","Flanker Task","25","15910","26","yes","1024"
"96.29629629629629","96.29629629629629","612.6666666666666","612.6666666666666","black","legacy","legacy","legacy","0","incongruent","uniform","1","undefined","1","h","0","0","0","0","26","0","0","0","26","0","26","26","26","26","26","26","Sun Sep 19 13:03:48 2021","1500","The main experiment item","yes","FlankerTask.osexp","C:/Users/warne/OneDrive/Documents/Tarleton - MS Applied Psychology/Adv Quantitative Methods and Experimental Design/Labs","no","mono","no","18","no","white","no","yes","768","legacy","26","26","C:/Users/warne/OneDrive/Documents/Tarleton - MS Applied Psychology/Adv Quantitative Methods and Experimental Design/Labs/AH-subject-3.csv","legacy","Lentiform Loewenfeld","3.3.9","0","h","NA","h","NA","NA","h","632","NA","37481","NA","NA","632","2","legacy","1024","2","48000","-16","experiment","SSHSS","3","odd","39787","NA","NA","NA","85586","2305","NA","NA","58072","2294","NA","86644","86749","87381","86642","86749","Flanker Task","26","16542","27","yes","1024"
"96.42857142857143","96.42857142857143","605.2857142857143","605.2857142857143","black","legacy","legacy","legacy","0","congruent","uniform","1","undefined","1","s","0","0","0","0","27","0","0","0","27","0","27","27","27","27","27","27","Sun Sep 19 13:03:48 2021","1500","The main experiment item","yes","FlankerTask.osexp","C:/Users/warne/OneDrive/Documents/Tarleton - MS Applied Psychology/Adv Quantitative Methods and Experimental Design/Labs","no","mono","no","18","no","white","no","yes","768","legacy","27","27","C:/Users/warne/OneDrive/Documents/Tarleton - MS Applied Psychology/Adv Quantitative Methods and Experimental Design/Labs/AH-subject-3.csv","legacy","Lentiform Loewenfeld","3.3.9","0","s","NA","h","NA","NA","s","406","NA","37481","NA","NA","406","2","legacy","1024","2","48000","-16","experiment","SSSSS","3","odd","39787","NA","NA","NA","87386","2305","NA","NA","58072","2294","NA","88460","88565","88972","88458","88565","Flanker Task","27","16948","28","yes","1024"
"96.55172413793103","96.55172413793103","605.5862068965517","605.5862068965517","black","legacy","legacy","legacy","0","congruent","uniform","1","undefined","1","s","0","0","0","0","28","0","0","0","28","0","28","28","28","28","28","28","Sun Sep 19 13:03:48 2021","1500","The main experiment item","yes","FlankerTask.osexp","C:/Users/warne/OneDrive/Documents/Tarleton - MS Applied Psychology/Adv Quantitative Methods and Experimental Design/Labs","no","mono","no","18","no","white","no","yes","768","legacy","28","28","C:/Users/warne/OneDrive/Documents/Tarleton - MS Applied Psychology/Adv Quantitative Methods and Experimental Design/Labs/AH-subject-3.csv","legacy","Lentiform Loewenfeld","3.3.9","0","s","NA","h","NA","NA","s","614","NA","37481","NA","NA","614","2","legacy","1024","2","48000","-16","experiment","SSSSS","3","odd","39787","NA","NA","NA","88978","2305","NA","NA","58072","2294","NA","90037","90142","90757","90035","90141","Flanker Task","28","17562","29","yes","1024"
"96.66666666666667","96.66666666666667","603.9333333333333","603.9333333333333","black","legacy","legacy","legacy","0","congruent","uniform","1","undefined","1","h","0","0","0","0","29","0","0","0","29","0","29","29","29","29","29","29","Sun Sep 19 13:03:48 2021","1500","The main experiment item","yes","FlankerTask.osexp","C:/Users/warne/OneDrive/Documents/Tarleton - MS Applied Psychology/Adv Quantitative Methods and Experimental Design/Labs","no","mono","no","18","no","white","no","yes","768","legacy","29","29","C:/Users/warne/OneDrive/Documents/Tarleton - MS Applied Psychology/Adv Quantitative Methods and Experimental Design/Labs/AH-subject-3.csv","legacy","Lentiform Loewenfeld","3.3.9","0","h","NA","h","NA","NA","h","556","NA","37481","NA","NA","556","2","legacy","1024","2","48000","-16","experiment","HHHHH","3","odd","39787","NA","NA","NA","90762","2305","NA","NA","58072","2294","NA","91821","91926","92483","91819","91926","Flanker Task","29","18118","30","yes","1024"
"96.7741935483871","96.7741935483871","603.3225806451613","603.3225806451613","black","legacy","legacy","legacy","0","incongruent","uniform","1","undefined","1","s","0","0","0","0","30","0","0","0","30","0","30","30","30","30","30","30","Sun Sep 19 13:03:48 2021","1500","The main experiment item","yes","FlankerTask.osexp","C:/Users/warne/OneDrive/Documents/Tarleton - MS Applied Psychology/Adv Quantitative Methods and Experimental Design/Labs","no","mono","no","18","no","white","no","yes","768","legacy","30","30","C:/Users/warne/OneDrive/Documents/Tarleton - MS Applied Psychology/Adv Quantitative Methods and Experimental Design/Labs/AH-subject-3.csv","legacy","Lentiform Loewenfeld","3.3.9","0","s","NA","h","NA","NA","s","585","NA","37481","NA","NA","585","2","legacy","1024","2","48000","-16","experiment","HHSHH","3","odd","39787","NA","NA","NA","92488","2305","NA","NA","58072","2294","NA","93547","93652","94238","93545","93652","Flanker Task","30","18703","31","yes","1024"
"96.875","96.875","607.46875","607.46875","black","legacy","legacy","legacy","0","incongruent","uniform","1","undefined","1","h","0","0","0","0","31","0","0","0","31","0","31","31","31","31","31","31","Sun Sep 19 13:03:48 2021","1500","The main experiment item","yes","FlankerTask.osexp","C:/Users/warne/OneDrive/Documents/Tarleton - MS Applied Psychology/Adv Quantitative Methods and Experimental Design/Labs","no","mono","no","18","no","white","no","yes","768","legacy","31","31","C:/Users/warne/OneDrive/Documents/Tarleton - MS Applied Psychology/Adv Quantitative Methods and Experimental Design/Labs/AH-subject-3.csv","legacy","Lentiform Loewenfeld","3.3.9","0","h","NA","h","NA","NA","h","736","NA","37481","NA","NA","736","2","legacy","1024","2","48000","-16","experiment","SSHSS","3","odd","39787","NA","NA","NA","94243","2305","NA","NA","58072","2294","NA","95301","95406","96143","95299","95406","Flanker Task","31","19439","32","yes","1024"
"96.96969696969697","96.96969696969697","612.3333333333334","612.3333333333334","black","legacy","legacy","legacy","0","incongruent","uniform","1","undefined","1","h","0","0","0","0","32","0","0","0","32","0","32","32","32","32","32","32","Sun Sep 19 13:03:48 2021","1500","The main experiment item","yes","FlankerTask.osexp","C:/Users/warne/OneDrive/Documents/Tarleton - MS Applied Psychology/Adv Quantitative Methods and Experimental Design/Labs","no","mono","no","18","no","white","no","yes","768","legacy","32","32","C:/Users/warne/OneDrive/Documents/Tarleton - MS Applied Psychology/Adv Quantitative Methods and Experimental Design/Labs/AH-subject-3.csv","legacy","Lentiform Loewenfeld","3.3.9","0","h","NA","h","NA","NA","h","768","NA","37481","NA","NA","768","2","legacy","1024","2","48000","-16","experiment","SSHSS","3","odd","39787","NA","NA","NA","96150","2305","NA","NA","58072","2294","NA","97208","97310","98078","97207","97310","Flanker Task","32","20207","33","yes","1024"
"97.05882352941177","97.05882352941177","612.5","612.5","black","legacy","legacy","legacy","0","incongruent","uniform","1","undefined","1","h","0","0","0","0","33","0","0","0","33","0","33","33","33","33","33","33","Sun Sep 19 13:03:48 2021","1500","The main experiment item","yes","FlankerTask.osexp","C:/Users/warne/OneDrive/Documents/Tarleton - MS Applied Psychology/Adv Quantitative Methods and Experimental Design/Labs","no","mono","no","18","no","white","no","yes","768","legacy","33","33","C:/Users/warne/OneDrive/Documents/Tarleton - MS Applied Psychology/Adv Quantitative Methods and Experimental Design/Labs/AH-subject-3.csv","legacy","Lentiform Loewenfeld","3.3.9","0","h","NA","h","NA","NA","h","618","NA","37481","NA","NA","618","2","legacy","1024","2","48000","-16","experiment","SSHSS","3","odd","39787","NA","NA","NA","98083","2305","NA","NA","58072","2294","NA","99141","99245","99864","99139","99245","Flanker Task","33","20825","34","yes","1024"
"97.14285714285714","97.14285714285714","610","610","black","legacy","legacy","legacy","0","congruent","uniform","1","undefined","1","h","0","0","0","0","34","0","0","0","34","0","34","34","34","34","34","34","Sun Sep 19 13:03:48 2021","1500","The main experiment item","yes","FlankerTask.osexp","C:/Users/warne/OneDrive/Documents/Tarleton - MS Applied Psychology/Adv Quantitative Methods and Experimental Design/Labs","no","mono","no","18","no","white","no","yes","768","legacy","34","34","C:/Users/warne/OneDrive/Documents/Tarleton - MS Applied Psychology/Adv Quantitative Methods and Experimental Design/Labs/AH-subject-3.csv","legacy","Lentiform Loewenfeld","3.3.9","0","h","NA","h","NA","NA","h","525","NA","37481","NA","NA","525","2","legacy","1024","2","48000","-16","experiment","HHHHH","3","odd","39787","NA","NA","NA","99871","2305","NA","NA","58072","2294","NA","100930","101034","101559","100927","101034","Flanker Task","34","21350","35","yes","1024"
"97.22222222222223","97.22222222222223","607.2222222222222","607.2222222222222","black","legacy","legacy","legacy","0","incongruent","uniform","1","undefined","1","h","0","0","0","0","35","0","0","0","35","0","35","35","35","35","35","35","Sun Sep 19 13:03:48 2021","1500","The main experiment item","yes","FlankerTask.osexp","C:/Users/warne/OneDrive/Documents/Tarleton - MS Applied Psychology/Adv Quantitative Methods and Experimental Design/Labs","no","mono","no","18","no","white","no","yes","768","legacy","35","35","C:/Users/warne/OneDrive/Documents/Tarleton - MS Applied Psychology/Adv Quantitative Methods and Experimental Design/Labs/AH-subject-3.csv","legacy","Lentiform Loewenfeld","3.3.9","0","h","NA","h","NA","NA","h","510","NA","37481","NA","NA","510","2","legacy","1024","2","48000","-16","experiment","SSHSS","3","odd","39787","NA","NA","NA","101564","2305","NA","NA","58072","2294","NA","102623","102728","103239","102621","102728","Flanker Task","35","21860","36","yes","1024"
"97.29729729729729","97.29729729729729","604.6216216216217","604.6216216216217","black","legacy","legacy","legacy","0","incongruent","uniform","1","undefined","1","h","0","0","0","0","36","0","0","0","36","0","36","36","36","36","36","36","Sun Sep 19 13:03:48 2021","1500","The main experiment item","yes","FlankerTask.osexp","C:/Users/warne/OneDrive/Documents/Tarleton - MS Applied Psychology/Adv Quantitative Methods and Experimental Design/Labs","no","mono","no","18","no","white","no","yes","768","legacy","36","36","C:/Users/warne/OneDrive/Documents/Tarleton - MS Applied Psychology/Adv Quantitative Methods and Experimental Design/Labs/AH-subject-3.csv","legacy","Lentiform Loewenfeld","3.3.9","0","h","NA","h","NA","NA","h","511","NA","37481","NA","NA","511","2","legacy","1024","2","48000","-16","experiment","SSHSS","3","odd","39787","NA","NA","NA","103245","2305","NA","NA","58072","2294","NA","104304","104408","104920","104302","104408","Flanker Task","36","22371","37","yes","1024"
"97.36842105263158","97.36842105263158","601.7631578947369","601.7631578947369","black","legacy","legacy","legacy","0","congruent","uniform","1","undefined","1","h","0","0","0","0","37","0","0","0","37","0","37","37","37","37","37","37","Sun Sep 19 13:03:48 2021","1500","The main experiment item","yes","FlankerTask.osexp","C:/Users/warne/OneDrive/Documents/Tarleton - MS Applied Psychology/Adv Quantitative Methods and Experimental Design/Labs","no","mono","no","18","no","white","no","yes","768","legacy","37","37","C:/Users/warne/OneDrive/Documents/Tarleton - MS Applied Psychology/Adv Quantitative Methods and Experimental Design/Labs/AH-subject-3.csv","legacy","Lentiform Loewenfeld","3.3.9","0","h","NA","h","NA","NA","h","496","NA","37481","NA","NA","496","2","legacy","1024","2","48000","-16","experiment","HHHHH","3","odd","39787","NA","NA","NA","104925","2305","NA","NA","58072","2294","NA","105984","106089","106585","105983","106089","Flanker Task","37","22867","38","yes","1024"
"97.43589743589743","97.43589743589743","600.974358974359","600.974358974359","black","legacy","legacy","legacy","0","incongruent","uniform","1","undefined","1","h","0","0","0","0","38","0","0","0","38","0","38","38","38","38","38","38","Sun Sep 19 13:03:48 2021","1500","The main experiment item","yes","FlankerTask.osexp","C:/Users/warne/OneDrive/Documents/Tarleton - MS Applied Psychology/Adv Quantitative Methods and Experimental Design/Labs","no","mono","no","18","no","white","no","yes","768","legacy","38","38","C:/Users/warne/OneDrive/Documents/Tarleton - MS Applied Psychology/Adv Quantitative Methods and Experimental Design/Labs/AH-subject-3.csv","legacy","Lentiform Loewenfeld","3.3.9","0","h","NA","h","NA","NA","h","571","NA","37481","NA","NA","571","2","legacy","1024","2","48000","-16","experiment","SSHSS","3","odd","39787","NA","NA","NA","106590","2305","NA","NA","58072","2294","NA","107648","107753","108325","107646","107753","Flanker Task","38","23438","39","yes","1024"
"97.5","97.5","601.7","601.7","black","legacy","legacy","legacy","0","incongruent","uniform","1","undefined","1","s","0","0","0","0","39","0","0","0","39","0","39","39","39","39","39","39","Sun Sep 19 13:03:48 2021","1500","The main experiment item","yes","FlankerTask.osexp","C:/Users/warne/OneDrive/Documents/Tarleton - MS Applied Psychology/Adv Quantitative Methods and Experimental Design/Labs","no","mono","no","18","no","white","no","yes","768","legacy","39","39","C:/Users/warne/OneDrive/Documents/Tarleton - MS Applied Psychology/Adv Quantitative Methods and Experimental Design/Labs/AH-subject-3.csv","legacy","Lentiform Loewenfeld","3.3.9","0","s","NA","h","NA","NA","s","630","NA","37481","NA","NA","630","2","legacy","1024","2","48000","-16","experiment","HHSHH","3","odd","39787","NA","NA","NA","108330","2305","NA","NA","58072","2294","NA","109390","109495","110126","109387","109495","Flanker Task","39","24068","40","yes","1024"
"97.5609756097561","97.5609756097561","602.439024390244","602.439024390244","black","legacy","legacy","legacy","0","incongruent","uniform","1","undefined","1","h","0","0","0","0","40","0","0","0","40","0","40","40","40","40","40","40","Sun Sep 19 13:03:48 2021","1500","The main experiment item","yes","FlankerTask.osexp","C:/Users/warne/OneDrive/Documents/Tarleton - MS Applied Psychology/Adv Quantitative Methods and Experimental Design/Labs","no","mono","no","18","no","white","no","yes","768","legacy","40","40","C:/Users/warne/OneDrive/Documents/Tarleton - MS Applied Psychology/Adv Quantitative Methods and Experimental Design/Labs/AH-subject-3.csv","legacy","Lentiform Loewenfeld","3.3.9","0","h","NA","h","NA","NA","h","632","NA","37481","NA","NA","632","2","legacy","1024","2","48000","-16","experiment","SSHSS","3","odd","39787","NA","NA","NA","110130","2305","NA","NA","58072","2294","NA","111188","111293","111925","111186","111292","Flanker Task","40","24700","41","yes","1024"
"97.61904761904762","97.61904761904762","600.9047619047619","600.9047619047619","black","legacy","legacy","legacy","0","incongruent","uniform","1","undefined","1","h","0","0","0","0","41","0","0","0","41","0","41","41","41","41","41","41","Sun Sep 19 13:03:48 2021","1500","The main experiment item","yes","FlankerTask.osexp","C:/Users/warne/OneDrive/Documents/Tarleton - MS Applied Psychology/Adv Quantitative Methods and Experimental Design/Labs","no","mono","no","18","no","white","no","yes","768","legacy","41","41","C:/Users/warne/OneDrive/Documents/Tarleton - MS Applied Psychology/Adv Quantitative Methods and Experimental Design/Labs/AH-subject-3.csv","legacy","Lentiform Loewenfeld","3.3.9","0","h","NA","h","NA","NA","h","538","NA","37481","NA","NA","538","2","legacy","1024","2","48000","-16","experiment","SSHSS","3","odd","39787","NA","NA","NA","111932","2305","NA","NA","58072","2294","NA","112992","113097","113636","112990","113097","Flanker Task","41","25238","42","yes","1024"
"97.67441860465117","97.67441860465117","598.1162790697674","598.1162790697674","black","legacy","legacy","legacy","0","congruent","uniform","1","undefined","1","h","0","0","0","0","42","0","0","0","42","0","42","42","42","42","42","42","Sun Sep 19 13:03:48 2021","1500","The main experiment item","yes","FlankerTask.osexp","C:/Users/warne/OneDrive/Documents/Tarleton - MS Applied Psychology/Adv Quantitative Methods and Experimental Design/Labs","no","mono","no","18","no","white","no","yes","768","legacy","42","42","C:/Users/warne/OneDrive/Documents/Tarleton - MS Applied Psychology/Adv Quantitative Methods and Experimental Design/Labs/AH-subject-3.csv","legacy","Lentiform Loewenfeld","3.3.9","0","h","NA","h","NA","NA","h","481","NA","37481","NA","NA","481","2","legacy","1024","2","48000","-16","experiment","HHHHH","3","odd","39787","NA","NA","NA","113639","2305","NA","NA","58072","2294","NA","114699","114804","115286","114696","114804","Flanker Task","42","25719","43","yes","1024"
"97.72727272727273","97.72727272727273","597.9318181818181","597.9318181818181","black","legacy","legacy","legacy","0","congruent","uniform","1","undefined","1","s","0","0","0","0","43","0","0","0","43","0","43","43","43","43","43","43","Sun Sep 19 13:03:48 2021","1500","The main experiment item","yes","FlankerTask.osexp","C:/Users/warne/OneDrive/Documents/Tarleton - MS Applied Psychology/Adv Quantitative Methods and Experimental Design/Labs","no","mono","no","18","no","white","no","yes","768","legacy","43","43","C:/Users/warne/OneDrive/Documents/Tarleton - MS Applied Psychology/Adv Quantitative Methods and Experimental Design/Labs/AH-subject-3.csv","legacy","Lentiform Loewenfeld","3.3.9","0","s","NA","h","NA","NA","s","590","NA","37481","NA","NA","590","2","legacy","1024","2","48000","-16","experiment","SSSSS","3","odd","39787","NA","NA","NA","115291","2305","NA","NA","58072","2294","NA","116349","116450","117041","116347","116450","Flanker Task","43","26309","44","yes","1024"
"97.77777777777777","97.77777777777777","599.6666666666666","599.6666666666666","black","legacy","legacy","legacy","0","incongruent","uniform","1","undefined","1","h","0","0","0","0","44","0","0","0","44","0","44","44","44","44","44","44","Sun Sep 19 13:03:48 2021","1500","The main experiment item","yes","FlankerTask.osexp","C:/Users/warne/OneDrive/Documents/Tarleton - MS Applied Psychology/Adv Quantitative Methods and Experimental Design/Labs","no","mono","no","18","no","white","no","yes","768","legacy","44","44","C:/Users/warne/OneDrive/Documents/Tarleton - MS Applied Psychology/Adv Quantitative Methods and Experimental Design/Labs/AH-subject-3.csv","legacy","Lentiform Loewenfeld","3.3.9","0","h","NA","h","NA","NA","h","676","NA","37481","NA","NA","676","2","legacy","1024","2","48000","-16","experiment","SSHSS","3","odd","39787","NA","NA","NA","117046","2305","NA","NA","58072","2294","NA","118104","118209","118886","118102","118209","Flanker Task","44","26985","45","yes","1024"
"97.82608695652173","97.82608695652173","599.7173913043479","599.7173913043479","black","legacy","legacy","legacy","0","congruent","uniform","1","undefined","1","s","0","0","0","0","45","0","0","0","45","0","45","45","45","45","45","45","Sun Sep 19 13:03:48 2021","1500","The main experiment item","yes","FlankerTask.osexp","C:/Users/warne/OneDrive/Documents/Tarleton - MS Applied Psychology/Adv Quantitative Methods and Experimental Design/Labs","no","mono","no","18","no","white","no","yes","768","legacy","45","45","C:/Users/warne/OneDrive/Documents/Tarleton - MS Applied Psychology/Adv Quantitative Methods and Experimental Design/Labs/AH-subject-3.csv","legacy","Lentiform Loewenfeld","3.3.9","0","s","NA","h","NA","NA","s","602","NA","37481","NA","NA","602","2","legacy","1024","2","48000","-16","experiment","SSSSS","3","odd","39787","NA","NA","NA","118889","2305","NA","NA","58072","2294","NA","119949","120054","120657","119947","120054","Flanker Task","45","27587","46","yes","1024"
"97.87234042553192","97.87234042553192","599.1063829787234","599.1063829787234","black","legacy","legacy","legacy","0","incongruent","uniform","1","undefined","1","s","0","0","0","0","46","0","0","0","46","0","46","46","46","46","46","46","Sun Sep 19 13:03:48 2021","1500","The main experiment item","yes","FlankerTask.osexp","C:/Users/warne/OneDrive/Documents/Tarleton - MS Applied Psychology/Adv Quantitative Methods and Experimental Design/Labs","no","mono","no","18","no","white","no","yes","768","legacy","46","46","C:/Users/warne/OneDrive/Documents/Tarleton - MS Applied Psychology/Adv Quantitative Methods and Experimental Design/Labs/AH-subject-3.csv","legacy","Lentiform Loewenfeld","3.3.9","0","s","NA","h","NA","NA","s","571","NA","37481","NA","NA","571","2","legacy","1024","2","48000","-16","experiment","HHSHH","3","odd","39787","NA","NA","NA","120662","2305","NA","NA","58072","2294","NA","121721","121825","122397","121719","121825","Flanker Task","46","28158","47","yes","1024"
"97.91666666666667","97.91666666666667","597.9791666666666","597.9791666666666","black","legacy","legacy","legacy","0","incongruent","uniform","1","undefined","1","s","0","0","0","0","47","0","0","0","47","0","47","47","47","47","47","47","Sun Sep 19 13:03:48 2021","1500","The main experiment item","yes","FlankerTask.osexp","C:/Users/warne/OneDrive/Documents/Tarleton - MS Applied Psychology/Adv Quantitative Methods and Experimental Design/Labs","no","mono","no","18","no","white","no","yes","768","legacy","47","47","C:/Users/warne/OneDrive/Documents/Tarleton - MS Applied Psychology/Adv Quantitative Methods and Experimental Design/Labs/AH-subject-3.csv","legacy","Lentiform Loewenfeld","3.3.9","0","s","NA","h","NA","NA","s","545","NA","37481","NA","NA","545","2","legacy","1024","2","48000","-16","experiment","HHSHH","3","odd","39787","NA","NA","NA","122401","2305","NA","NA","58072","2294","NA","123458","123562","124107","123456","123562","Flanker Task","47","28703","48","yes","1024"
"97.95918367346938","97.95918367346938","595","595","black","legacy","legacy","legacy","0","incongruent","uniform","1","undefined","1","s","0","0","0","0","48","0","0","0","48","0","48","48","48","48","48","48","Sun Sep 19 13:03:48 2021","1500","The main experiment item","yes","FlankerTask.osexp","C:/Users/warne/OneDrive/Documents/Tarleton - MS Applied Psychology/Adv Quantitative Methods and Experimental Design/Labs","no","mono","no","18","no","white","no","yes","768","legacy","48","48","C:/Users/warne/OneDrive/Documents/Tarleton - MS Applied Psychology/Adv Quantitative Methods and Experimental Design/Labs/AH-subject-3.csv","legacy","Lentiform Loewenfeld","3.3.9","0","s","NA","h","NA","NA","s","452","NA","37481","NA","NA","452","2","legacy","1024","2","48000","-16","experiment","HHSHH","3","odd","39787","NA","NA","NA","124110","2305","NA","NA","58072","2294","NA","125170","125275","125727","125168","125275","Flanker Task","48","29155","49","yes","1024"
"98","98","592.76","592.76","black","legacy","legacy","legacy","0","incongruent","uniform","1","undefined","1","s","0","0","0","0","49","0","0","0","49","0","49","49","49","49","49","49","Sun Sep 19 13:03:48 2021","1500","The main experiment item","yes","FlankerTask.osexp","C:/Users/warne/OneDrive/Documents/Tarleton - MS Applied Psychology/Adv Quantitative Methods and Experimental Design/Labs","no","mono","no","18","no","white","no","yes","768","legacy","49","49","C:/Users/warne/OneDrive/Documents/Tarleton - MS Applied Psychology/Adv Quantitative Methods and Experimental Design/Labs/AH-subject-3.csv","legacy","Lentiform Loewenfeld","3.3.9","0","s","NA","h","NA","NA","s","483","NA","37481","NA","NA","483","2","legacy","1024","2","48000","-16","experiment","HHSHH","3","odd","39787","NA","NA","NA","125733","2305","NA","NA","58072","2294","NA","126793","126894","127377","126791","126894","Flanker Task","49","29638","50","yes","1024"
"98.03921568627452","98.03921568627452","592.9215686274509","592.9215686274509","black","legacy","legacy","legacy","0","congruent","uniform","1","undefined","1","h","0","0","0","0","50","0","0","0","50","0","50","50","50","50","50","50","Sun Sep 19 13:03:48 2021","1500","The main experiment item","yes","FlankerTask.osexp","C:/Users/warne/OneDrive/Documents/Tarleton - MS Applied Psychology/Adv Quantitative Methods and Experimental Design/Labs","no","mono","no","18","no","white","no","yes","768","legacy","50","50","C:/Users/warne/OneDrive/Documents/Tarleton - MS Applied Psychology/Adv Quantitative Methods and Experimental Design/Labs/AH-subject-3.csv","legacy","Lentiform Loewenfeld","3.3.9","0","h","NA","h","NA","NA","h","601","NA","37481","NA","NA","601","2","legacy","1024","2","48000","-16","experiment","HHHHH","3","odd","39787","NA","NA","NA","127383","2305","NA","NA","58072","2294","NA","128442","128546","129148","128441","128546","Flanker Task","50","30239","51","yes","1024"
"98.07692307692308","98.07692307692308","596.5384615384615","596.5384615384615","black","legacy","legacy","legacy","0","incongruent","uniform","1","undefined","1","h","0","0","0","0","51","0","0","0","51","0","51","51","51","51","51","51","Sun Sep 19 13:03:48 2021","1500","The main experiment item","yes","FlankerTask.osexp","C:/Users/warne/OneDrive/Documents/Tarleton - MS Applied Psychology/Adv Quantitative Methods and Experimental Design/Labs","no","mono","no","18","no","white","no","yes","768","legacy","51","51","C:/Users/warne/OneDrive/Documents/Tarleton - MS Applied Psychology/Adv Quantitative Methods and Experimental Design/Labs/AH-subject-3.csv","legacy","Lentiform Loewenfeld","3.3.9","0","h","NA","h","NA","NA","h","781","NA","37481","NA","NA","781","2","legacy","1024","2","48000","-16","experiment","SSHSS","3","odd","39787","NA","NA","NA","129153","2305","NA","NA","58072","2294","NA","130212","130317","131098","130210","130317","Flanker Task","51","31020","52","yes","1024"
"98.11320754716981","98.11320754716981","597.7735849056604","597.7735849056604","black","legacy","legacy","legacy","0","incongruent","uniform","1","undefined","1","s","0","0","0","0","52","0","0","0","52","0","52","52","52","52","52","52","Sun Sep 19 13:03:48 2021","1500","The main experiment item","yes","FlankerTask.osexp","C:/Users/warne/OneDrive/Documents/Tarleton - MS Applied Psychology/Adv Quantitative Methods and Experimental Design/Labs","no","mono","no","18","no","white","no","yes","768","legacy","52","52","C:/Users/warne/OneDrive/Documents/Tarleton - MS Applied Psychology/Adv Quantitative Methods and Experimental Design/Labs/AH-subject-3.csv","legacy","Lentiform Loewenfeld","3.3.9","0","s","NA","h","NA","NA","s","662","NA","37481","NA","NA","662","2","legacy","1024","2","48000","-16","experiment","HHSHH","3","odd","39787","NA","NA","NA","131103","2305","NA","NA","58072","2294","NA","132162","132266","132929","132160","132266","Flanker Task","52","31682","53","yes","1024"
"98.14814814814815","98.14814814814815","600.2962962962963","600.2962962962963","black","legacy","legacy","legacy","0","congruent","uniform","1","undefined","1","s","0","0","0","0","53","0","0","0","53","0","53","53","53","53","53","53","Sun Sep 19 13:03:48 2021","1500","The main experiment item","yes","FlankerTask.osexp","C:/Users/warne/OneDrive/Documents/Tarleton - MS Applied Psychology/Adv Quantitative Methods and Experimental Design/Labs","no","mono","no","18","no","white","no","yes","768","legacy","53","53","C:/Users/warne/OneDrive/Documents/Tarleton - MS Applied Psychology/Adv Quantitative Methods and Experimental Design/Labs/AH-subject-3.csv","legacy","Lentiform Loewenfeld","3.3.9","0","s","NA","h","NA","NA","s","734","NA","37481","NA","NA","734","2","legacy","1024","2","48000","-16","experiment","SSSSS","3","odd","39787","NA","NA","NA","132936","2305","NA","NA","58072","2294","NA","134009","134114","134849","134008","134114","Flanker Task","53","32416","54","yes","1024"
"98.18181818181819","98.18181818181819","599.1636363636363","599.1636363636363","black","legacy","legacy","legacy","0","incongruent","uniform","1","undefined","1","s","0","0","0","0","54","0","0","0","54","0","54","54","54","54","54","54","Sun Sep 19 13:03:48 2021","1500","The main experiment item","yes","FlankerTask.osexp","C:/Users/warne/OneDrive/Documents/Tarleton - MS Applied Psychology/Adv Quantitative Methods and Experimental Design/Labs","no","mono","no","18","no","white","no","yes","768","legacy","54","54","C:/Users/warne/OneDrive/Documents/Tarleton - MS Applied Psychology/Adv Quantitative Methods and Experimental Design/Labs/AH-subject-3.csv","legacy","Lentiform Loewenfeld","3.3.9","0","s","NA","h","NA","NA","s","538","NA","37481","NA","NA","538","2","legacy","1024","2","48000","-16","experiment","HHSHH","3","odd","39787","NA","NA","NA","134856","2305","NA","NA","58072","2294","NA","135915","136020","136559","135913","136020","Flanker Task","54","32954","55","yes","1024"
"98.21428571428571","98.21428571428571","598.0357142857143","598.0357142857143","black","legacy","legacy","legacy","0","incongruent","uniform","1","undefined","1","s","0","0","0","0","55","0","0","0","55","0","55","55","55","55","55","55","Sun Sep 19 13:03:48 2021","1500","The main experiment item","yes","FlankerTask.osexp","C:/Users/warne/OneDrive/Documents/Tarleton - MS Applied Psychology/Adv Quantitative Methods and Experimental Design/Labs","no","mono","no","18","no","white","no","yes","768","legacy","55","55","C:/Users/warne/OneDrive/Documents/Tarleton - MS Applied Psychology/Adv Quantitative Methods and Experimental Design/Labs/AH-subject-3.csv","legacy","Lentiform Loewenfeld","3.3.9","0","s","NA","h","NA","NA","s","536","NA","37481","NA","NA","536","2","legacy","1024","2","48000","-16","experiment","HHSHH","3","odd","39787","NA","NA","NA","136566","2305","NA","NA","58072","2294","NA","137627","137732","138269","137624","137732","Flanker Task","55","33490","56","yes","1024"
"98.24561403508773","98.24561403508773","597.0877192982456","597.0877192982456","black","legacy","legacy","legacy","0","congruent","uniform","1","undefined","1","s","0","0","0","0","56","0","0","0","56","0","56","56","56","56","56","56","Sun Sep 19 13:03:48 2021","1500","The main experiment item","yes","FlankerTask.osexp","C:/Users/warne/OneDrive/Documents/Tarleton - MS Applied Psychology/Adv Quantitative Methods and Experimental Design/Labs","no","mono","no","18","no","white","no","yes","768","legacy","56","56","C:/Users/warne/OneDrive/Documents/Tarleton - MS Applied Psychology/Adv Quantitative Methods and Experimental Design/Labs/AH-subject-3.csv","legacy","Lentiform Loewenfeld","3.3.9","0","s","NA","h","NA","NA","s","544","NA","37481","NA","NA","544","2","legacy","1024","2","48000","-16","experiment","SSSSS","3","odd","39787","NA","NA","NA","138274","2305","NA","NA","58072","2294","NA","139331","139435","139980","139329","139435","Flanker Task","56","34034","57","yes","1024"
"98.27586206896552","98.27586206896552","595.5689655172414","595.5689655172414","black","legacy","legacy","legacy","0","congruent","uniform","1","undefined","1","s","0","0","0","0","57","0","0","0","57","0","57","57","57","57","57","57","Sun Sep 19 13:03:48 2021","1500","The main experiment item","yes","FlankerTask.osexp","C:/Users/warne/OneDrive/Documents/Tarleton - MS Applied Psychology/Adv Quantitative Methods and Experimental Design/Labs","no","mono","no","18","no","white","no","yes","768","legacy","57","57","C:/Users/warne/OneDrive/Documents/Tarleton - MS Applied Psychology/Adv Quantitative Methods and Experimental Design/Labs/AH-subject-3.csv","legacy","Lentiform Loewenfeld","3.3.9","0","s","NA","h","NA","NA","s","509","NA","37481","NA","NA","509","2","legacy","1024","2","48000","-16","experiment","SSSSS","3","odd","39787","NA","NA","NA","139985","2305","NA","NA","58072","2294","NA","141045","141150","141660","141042","141150","Flanker Task","57","34543","58","yes","1024"
"98.30508474576271","98.30508474576271","593.5932203389831","593.5932203389831","black","legacy","legacy","legacy","0","congruent","uniform","1","undefined","1","s","0","0","0","0","58","0","0","0","58","0","58","58","58","58","58","58","Sun Sep 19 13:03:48 2021","1500","The main experiment item","yes","FlankerTask.osexp","C:/Users/warne/OneDrive/Documents/Tarleton - MS Applied Psychology/Adv Quantitative Methods and Experimental Design/Labs","no","mono","no","18","no","white","no","yes","768","legacy","58","58","C:/Users/warne/OneDrive/Documents/Tarleton - MS Applied Psychology/Adv Quantitative Methods and Experimental Design/Labs/AH-subject-3.csv","legacy","Lentiform Loewenfeld","3.3.9","0","s","NA","h","NA","NA","s","479","NA","37481","NA","NA","479","2","legacy","1024","2","48000","-16","experiment","SSSSS","3","odd","39787","NA","NA","NA","141668","2305","NA","NA","58072","2294","NA","142725","142830","143310","142723","142830","Flanker Task","58","35022","59","yes","1024"
"98.33333333333333","98.33333333333333","590.7","590.7","black","legacy","legacy","legacy","0","congruent","uniform","1","undefined","1","s","0","0","0","0","59","0","0","0","59","0","59","59","59","59","59","59","Sun Sep 19 13:03:48 2021","1500","The main experiment item","yes","FlankerTask.osexp","C:/Users/warne/OneDrive/Documents/Tarleton - MS Applied Psychology/Adv Quantitative Methods and Experimental Design/Labs","no","mono","no","18","no","white","no","yes","768","legacy","59","59","C:/Users/warne/OneDrive/Documents/Tarleton - MS Applied Psychology/Adv Quantitative Methods and Experimental Design/Labs/AH-subject-3.csv","legacy","Lentiform Loewenfeld","3.3.9","0","s","NA","h","NA","NA","s","420","NA","37481","NA","NA","420","2","legacy","1024","2","48000","-16","experiment","SSSSS","3","odd","39787","NA","NA","NA","143315","2305","NA","NA","58072","2294","NA","144375","144480","144900","144373","144480","Flanker Task","59","35442","60","yes","1024"
"98.36065573770492","98.36065573770492","590.8688524590164","590.8688524590164","black","legacy","legacy","legacy","0","incongruent","uniform","1","undefined","1","s","0","0","0","0","60","0","0","0","60","0","60","60","60","60","60","60","Sun Sep 19 13:03:48 2021","1500","The main experiment item","yes","FlankerTask.osexp","C:/Users/warne/OneDrive/Documents/Tarleton - MS Applied Psychology/Adv Quantitative Methods and Experimental Design/Labs","no","mono","no","18","no","white","no","yes","768","legacy","60","60","C:/Users/warne/OneDrive/Documents/Tarleton - MS Applied Psychology/Adv Quantitative Methods and Experimental Design/Labs/AH-subject-3.csv","legacy","Lentiform Loewenfeld","3.3.9","0","s","NA","h","NA","NA","s","601","NA","37481","NA","NA","601","2","legacy","1024","2","48000","-16","experiment","HHSHH","3","odd","39787","NA","NA","NA","144904","2305","NA","NA","58072","2294","NA","145963","146069","146671","145961","146069","Flanker Task","60","36043","61","yes","1024"
"98.38709677419355","98.38709677419355","589.5967741935484","589.5967741935484","black","legacy","legacy","legacy","0","congruent","uniform","1","undefined","1","s","0","0","0","0","61","0","0","0","61","0","61","61","61","61","61","61","Sun Sep 19 13:03:48 2021","1500","The main experiment item","yes","FlankerTask.osexp","C:/Users/warne/OneDrive/Documents/Tarleton - MS Applied Psychology/Adv Quantitative Methods and Experimental Design/Labs","no","mono","no","18","no","white","no","yes","768","legacy","61","61","C:/Users/warne/OneDrive/Documents/Tarleton - MS Applied Psychology/Adv Quantitative Methods and Experimental Design/Labs/AH-subject-3.csv","legacy","Lentiform Loewenfeld","3.3.9","0","s","NA","h","NA","NA","s","512","NA","37481","NA","NA","512","2","legacy","1024","2","48000","-16","experiment","SSSSS","3","odd","39787","NA","NA","NA","146676","2305","NA","NA","58072","2294","NA","147734","147839","148351","147732","147839","Flanker Task","61","36555","62","yes","1024"
"98.41269841269842","98.41269841269842","588.8412698412699","588.8412698412699","black","legacy","legacy","legacy","0","congruent","uniform","1","undefined","1","h","0","0","0","0","62","0","0","0","62","0","62","62","62","62","62","62","Sun Sep 19 13:03:48 2021","1500","The main experiment item","yes","FlankerTask.osexp","C:/Users/warne/OneDrive/Documents/Tarleton - MS Applied Psychology/Adv Quantitative Methods and Experimental Design/Labs","no","mono","no","18","no","white","no","yes","768","legacy","62","62","C:/Users/warne/OneDrive/Documents/Tarleton - MS Applied Psychology/Adv Quantitative Methods and Experimental Design/Labs/AH-subject-3.csv","legacy","Lentiform Loewenfeld","3.3.9","0","h","NA","h","NA","NA","h","542","NA","37481","NA","NA","542","2","legacy","1024","2","48000","-16","experiment","HHHHH","3","odd","39787","NA","NA","NA","148356","2305","NA","NA","58072","2294","NA","149415","149520","150062","149413","149520","Flanker Task","62","37097","63","yes","1024"
"98.4375","98.4375","590.375","590.375","black","legacy","legacy","legacy","0","congruent","uniform","1","undefined","1","s","0","0","0","0","63","0","0","0","63","0","63","63","63","63","63","63","Sun Sep 19 13:03:48 2021","1500","The main experiment item","yes","FlankerTask.osexp","C:/Users/warne/OneDrive/Documents/Tarleton - MS Applied Psychology/Adv Quantitative Methods and Experimental Design/Labs","no","mono","no","18","no","white","no","yes","768","legacy","63","63","C:/Users/warne/OneDrive/Documents/Tarleton - MS Applied Psychology/Adv Quantitative Methods and Experimental Design/Labs/AH-subject-3.csv","legacy","Lentiform Loewenfeld","3.3.9","0","s","NA","h","NA","NA","s","687","NA","37481","NA","NA","687","2","legacy","1024","2","48000","-16","experiment","SSSSS","3","odd","39787","NA","NA","NA","150068","2305","NA","NA","58072","2294","NA","151128","151233","151921","151126","151233","Flanker Task","63","37784","64","yes","1024"
"98.46153846153847","98.46153846153847","589.1384615384616","589.1384615384616","black","legacy","legacy","legacy","0","incongruent","uniform","1","undefined","1","s","0","0","0","0","64","0","0","0","64","0","64","64","64","64","64","64","Sun Sep 19 13:03:48 2021","1500","The main experiment item","yes","FlankerTask.osexp","C:/Users/warne/OneDrive/Documents/Tarleton - MS Applied Psychology/Adv Quantitative Methods and Experimental Design/Labs","no","mono","no","18","no","white","no","yes","768","legacy","64","64","C:/Users/warne/OneDrive/Documents/Tarleton - MS Applied Psychology/Adv Quantitative Methods and Experimental Design/Labs/AH-subject-3.csv","legacy","Lentiform Loewenfeld","3.3.9","0","s","NA","h","NA","NA","s","510","NA","37481","NA","NA","510","2","legacy","1024","2","48000","-16","experiment","HHSHH","3","odd","39787","NA","NA","NA","151926","2305","NA","NA","58072","2294","NA","152985","153091","153601","152983","153091","Flanker Task","64","38294","65","yes","1024"
"98.48484848484848","98.48484848484848","588.6363636363636","588.6363636363636","black","legacy","legacy","legacy","0","incongruent","uniform","1","undefined","1","h","0","0","0","0","65","0","0","0","65","0","65","65","65","65","65","65","Sun Sep 19 13:03:48 2021","1500","The main experiment item","yes","FlankerTask.osexp","C:/Users/warne/OneDrive/Documents/Tarleton - MS Applied Psychology/Adv Quantitative Methods and Experimental Design/Labs","no","mono","no","18","no","white","no","yes","768","legacy","65","65","C:/Users/warne/OneDrive/Documents/Tarleton - MS Applied Psychology/Adv Quantitative Methods and Experimental Design/Labs/AH-subject-3.csv","legacy","Lentiform Loewenfeld","3.3.9","0","h","NA","h","NA","NA","h","556","NA","37481","NA","NA","556","2","legacy","1024","2","48000","-16","experiment","SSHSS","3","odd","39787","NA","NA","NA","153606","2305","NA","NA","58072","2294","NA","154666","154770","155327","154664","154770","Flanker Task","65","38850","66","yes","1024"
"98.50746268656717","98.50746268656717","589.0149253731344","589.0149253731344","black","legacy","legacy","legacy","0","incongruent","uniform","1","undefined","1","s","0","0","0","0","66","0","0","0","66","0","66","66","66","66","66","66","Sun Sep 19 13:03:48 2021","1500","The main experiment item","yes","FlankerTask.osexp","C:/Users/warne/OneDrive/Documents/Tarleton - MS Applied Psychology/Adv Quantitative Methods and Experimental Design/Labs","no","mono","no","18","no","white","no","yes","768","legacy","66","66","C:/Users/warne/OneDrive/Documents/Tarleton - MS Applied Psychology/Adv Quantitative Methods and Experimental Design/Labs/AH-subject-3.csv","legacy","Lentiform Loewenfeld","3.3.9","0","s","NA","h","NA","NA","s","614","NA","37481","NA","NA","614","2","legacy","1024","2","48000","-16","experiment","HHSHH","3","odd","39787","NA","NA","NA","155332","2305","NA","NA","58072","2294","NA","156391","156496","157111","156389","156496","Flanker Task","66","39464","67","yes","1024"
"98.52941176470588","98.52941176470588","588.1176470588235","588.1176470588235","black","legacy","legacy","legacy","0","congruent","uniform","1","undefined","1","s","0","0","0","0","67","0","0","0","67","0","67","67","67","67","67","67","Sun Sep 19 13:03:48 2021","1500","The main experiment item","yes","FlankerTask.osexp","C:/Users/warne/OneDrive/Documents/Tarleton - MS Applied Psychology/Adv Quantitative Methods and Experimental Design/Labs","no","mono","no","18","no","white","no","yes","768","legacy","67","67","C:/Users/warne/OneDrive/Documents/Tarleton - MS Applied Psychology/Adv Quantitative Methods and Experimental Design/Labs/AH-subject-3.csv","legacy","Lentiform Loewenfeld","3.3.9","0","s","NA","h","NA","NA","s","528","NA","37481","NA","NA","528","2","legacy","1024","2","48000","-16","experiment","SSSSS","3","odd","39787","NA","NA","NA","157115","2305","NA","NA","58072","2294","NA","158174","158279","158808","158172","158279","Flanker Task","67","39992","68","yes","1024"
"98.55072463768116","98.55072463768116","587.2028985507246","587.2028985507246","black","legacy","legacy","legacy","0","congruent","uniform","1","undefined","1","h","0","0","0","0","68","0","0","0","68","0","68","68","68","68","68","68","Sun Sep 19 13:03:48 2021","1500","The main experiment item","yes","FlankerTask.osexp","C:/Users/warne/OneDrive/Documents/Tarleton - MS Applied Psychology/Adv Quantitative Methods and Experimental Design/Labs","no","mono","no","18","no","white","no","yes","768","legacy","68","68","C:/Users/warne/OneDrive/Documents/Tarleton - MS Applied Psychology/Adv Quantitative Methods and Experimental Design/Labs/AH-subject-3.csv","legacy","Lentiform Loewenfeld","3.3.9","0","h","NA","h","NA","NA","h","525","NA","37481","NA","NA","525","2","legacy","1024","2","48000","-16","experiment","HHHHH","3","odd","39787","NA","NA","NA","158813","2305","NA","NA","58072","2294","NA","159872","159977","160502","159870","159977","Flanker Task","68","40517","69","yes","1024"
"98.57142857142857","98.57142857142857","587.4","587.4","black","legacy","legacy","legacy","0","incongruent","uniform","1","undefined","1","s","0","0","0","0","69","0","0","0","69","0","69","69","69","69","69","69","Sun Sep 19 13:03:48 2021","1500","The main experiment item","yes","FlankerTask.osexp","C:/Users/warne/OneDrive/Documents/Tarleton - MS Applied Psychology/Adv Quantitative Methods and Experimental Design/Labs","no","mono","no","18","no","white","no","yes","768","legacy","69","69","C:/Users/warne/OneDrive/Documents/Tarleton - MS Applied Psychology/Adv Quantitative Methods and Experimental Design/Labs/AH-subject-3.csv","legacy","Lentiform Loewenfeld","3.3.9","0","s","NA","h","NA","NA","s","601","NA","37481","NA","NA","601","2","legacy","1024","2","48000","-16","experiment","HHSHH","3","odd","39787","NA","NA","NA","160507","2305","NA","NA","58072","2294","NA","161566","161671","162273","161564","161670","Flanker Task","69","41118","70","yes","1024"
"98.59154929577464","98.59154929577464","588.8732394366198","588.8732394366198","black","legacy","legacy","legacy","0","congruent","uniform","1","undefined","1","h","0","0","0","0","70","0","0","0","70","0","70","70","70","70","70","70","Sun Sep 19 13:03:48 2021","1500","The main experiment item","yes","FlankerTask.osexp","C:/Users/warne/OneDrive/Documents/Tarleton - MS Applied Psychology/Adv Quantitative Methods and Experimental Design/Labs","no","mono","no","18","no","white","no","yes","768","legacy","70","70","C:/Users/warne/OneDrive/Documents/Tarleton - MS Applied Psychology/Adv Quantitative Methods and Experimental Design/Labs/AH-subject-3.csv","legacy","Lentiform Loewenfeld","3.3.9","0","h","NA","h","NA","NA","h","692","NA","37481","NA","NA","692","2","legacy","1024","2","48000","-16","experiment","HHHHH","3","odd","39787","NA","NA","NA","162278","2305","NA","NA","58072","2294","NA","163337","163441","164134","163335","163441","Flanker Task","70","41810","71","yes","1024"
"98.61111111111111","98.61111111111111","588.2083333333334","588.2083333333334","black","legacy","legacy","legacy","0","incongruent","uniform","1","undefined","1","s","0","0","0","0","71","0","0","0","71","0","71","71","71","71","71","71","Sun Sep 19 13:03:48 2021","1500","The main experiment item","yes","FlankerTask.osexp","C:/Users/warne/OneDrive/Documents/Tarleton - MS Applied Psychology/Adv Quantitative Methods and Experimental Design/Labs","no","mono","no","18","no","white","no","yes","768","legacy","71","71","C:/Users/warne/OneDrive/Documents/Tarleton - MS Applied Psychology/Adv Quantitative Methods and Experimental Design/Labs/AH-subject-3.csv","legacy","Lentiform Loewenfeld","3.3.9","0","s","NA","h","NA","NA","s","541","NA","37481","NA","NA","541","2","legacy","1024","2","48000","-16","experiment","HHSHH","3","odd","39787","NA","NA","NA","164137","2305","NA","NA","58072","2294","NA","165196","165301","165843","165194","165301","Flanker Task","71","42351","72","yes","1024"
"98.63013698630137","98.63013698630137","585.917808219178","585.917808219178","black","legacy","legacy","legacy","0","incongruent","uniform","1","undefined","1","s","0","0","0","0","72","0","0","0","72","0","72","72","72","72","72","72","Sun Sep 19 13:03:48 2021","1500","The main experiment item","yes","FlankerTask.osexp","C:/Users/warne/OneDrive/Documents/Tarleton - MS Applied Psychology/Adv Quantitative Methods and Experimental Design/Labs","no","mono","no","18","no","white","no","yes","768","legacy","72","72","C:/Users/warne/OneDrive/Documents/Tarleton - MS Applied Psychology/Adv Quantitative Methods and Experimental Design/Labs/AH-subject-3.csv","legacy","Lentiform Loewenfeld","3.3.9","0","s","NA","h","NA","NA","s","421","NA","37481","NA","NA","421","2","legacy","1024","2","48000","-16","experiment","HHSHH","3","odd","39787","NA","NA","NA","165848","2305","NA","NA","58072","2294","NA","166908","167012","167434","166906","167012","Flanker Task","72","42772","73","yes","1024"
"98.64864864864865","98.64864864864865","584.8918918918919","584.8918918918919","black","legacy","legacy","legacy","0","congruent","uniform","1","undefined","1","h","0","0","0","0","73","0","0","0","73","0","73","73","73","73","73","73","Sun Sep 19 13:03:48 2021","1500","The main experiment item","yes","FlankerTask.osexp","C:/Users/warne/OneDrive/Documents/Tarleton - MS Applied Psychology/Adv Quantitative Methods and Experimental Design/Labs","no","mono","no","18","no","white","no","yes","768","legacy","73","73","C:/Users/warne/OneDrive/Documents/Tarleton - MS Applied Psychology/Adv Quantitative Methods and Experimental Design/Labs/AH-subject-3.csv","legacy","Lentiform Loewenfeld","3.3.9","0","h","NA","h","NA","NA","h","510","NA","37481","NA","NA","510","2","legacy","1024","2","48000","-16","experiment","HHHHH","3","odd","39787","NA","NA","NA","167439","2305","NA","NA","58072","2294","NA","168498","168603","169114","168496","168603","Flanker Task","73","43282","74","yes","1024"
"98.66666666666667","98.66666666666667","584.08","584.08","black","legacy","legacy","legacy","0","congruent","uniform","1","undefined","1","h","0","0","0","0","74","0","0","0","74","0","74","74","74","74","74","74","Sun Sep 19 13:03:48 2021","1500","The main experiment item","yes","FlankerTask.osexp","C:/Users/warne/OneDrive/Documents/Tarleton - MS Applied Psychology/Adv Quantitative Methods and Experimental Design/Labs","no","mono","no","18","no","white","no","yes","768","legacy","74","74","C:/Users/warne/OneDrive/Documents/Tarleton - MS Applied Psychology/Adv Quantitative Methods and Experimental Design/Labs/AH-subject-3.csv","legacy","Lentiform Loewenfeld","3.3.9","0","h","NA","h","NA","NA","h","524","NA","37481","NA","NA","524","2","legacy","1024","2","48000","-16","experiment","HHHHH","3","odd","39787","NA","NA","NA","169120","2305","NA","NA","58072","2294","NA","170179","170284","170809","170177","170284","Flanker Task","74","43806","75","yes","1024"
"98.6842105263158","98.6842105263158","584.921052631579","584.921052631579","black","legacy","legacy","legacy","0","incongruent","uniform","1","undefined","1","h","0","0","0","0","75","0","0","0","75","0","75","75","75","75","75","75","Sun Sep 19 13:03:48 2021","1500","The main experiment item","yes","FlankerTask.osexp","C:/Users/warne/OneDrive/Documents/Tarleton - MS Applied Psychology/Adv Quantitative Methods and Experimental Design/Labs","no","mono","no","18","no","white","no","yes","768","legacy","75","75","C:/Users/warne/OneDrive/Documents/Tarleton - MS Applied Psychology/Adv Quantitative Methods and Experimental Design/Labs/AH-subject-3.csv","legacy","Lentiform Loewenfeld","3.3.9","0","h","NA","h","NA","NA","h","648","NA","37481","NA","NA","648","2","legacy","1024","2","48000","-16","experiment","SSHSS","3","odd","39787","NA","NA","NA","170812","2305","NA","NA","58072","2294","NA","171872","171976","172624","171870","171976","Flanker Task","75","44454","76","yes","1024"
"98.7012987012987","98.7012987012987","585.3116883116883","585.3116883116883","black","legacy","legacy","legacy","0","incongruent","uniform","1","undefined","1","s","0","0","0","0","76","0","0","0","76","0","76","76","76","76","76","76","Sun Sep 19 13:03:48 2021","1500","The main experiment item","yes","FlankerTask.osexp","C:/Users/warne/OneDrive/Documents/Tarleton - MS Applied Psychology/Adv Quantitative Methods and Experimental Design/Labs","no","mono","no","18","no","white","no","yes","768","legacy","76","76","C:/Users/warne/OneDrive/Documents/Tarleton - MS Applied Psychology/Adv Quantitative Methods and Experimental Design/Labs/AH-subject-3.csv","legacy","Lentiform Loewenfeld","3.3.9","0","s","NA","h","NA","NA","s","615","NA","37481","NA","NA","615","2","legacy","1024","2","48000","-16","experiment","HHSHH","3","odd","39787","NA","NA","NA","172629","2305","NA","NA","58072","2294","NA","173704","173809","174425","173702","173809","Flanker Task","76","45069","77","yes","1024"
"98.71794871794872","98.71794871794872","585.474358974359","585.474358974359","black","legacy","legacy","legacy","0","congruent","uniform","1","undefined","1","s","0","0","0","0","77","0","0","0","77","0","77","77","77","77","77","77","Sun Sep 19 13:03:48 2021","1500","The main experiment item","yes","FlankerTask.osexp","C:/Users/warne/OneDrive/Documents/Tarleton - MS Applied Psychology/Adv Quantitative Methods and Experimental Design/Labs","no","mono","no","18","no","white","no","yes","768","legacy","77","77","C:/Users/warne/OneDrive/Documents/Tarleton - MS Applied Psychology/Adv Quantitative Methods and Experimental Design/Labs/AH-subject-3.csv","legacy","Lentiform Loewenfeld","3.3.9","0","s","NA","h","NA","NA","s","598","NA","37481","NA","NA","598","2","legacy","1024","2","48000","-16","experiment","SSSSS","3","odd","39787","NA","NA","NA","174432","2305","NA","NA","58072","2294","NA","175492","175596","176195","175490","175596","Flanker Task","77","45667","78","yes","1024"
"98.73417721518987","98.73417721518987","584.7088607594936","584.7088607594936","black","legacy","legacy","legacy","0","incongruent","uniform","1","undefined","1","h","0","0","0","0","78","0","0","0","78","0","78","78","78","78","78","78","Sun Sep 19 13:03:48 2021","1500","The main experiment item","yes","FlankerTask.osexp","C:/Users/warne/OneDrive/Documents/Tarleton - MS Applied Psychology/Adv Quantitative Methods and Experimental Design/Labs","no","mono","no","18","no","white","no","yes","768","legacy","78","78","C:/Users/warne/OneDrive/Documents/Tarleton - MS Applied Psychology/Adv Quantitative Methods and Experimental Design/Labs/AH-subject-3.csv","legacy","Lentiform Loewenfeld","3.3.9","0","h","NA","h","NA","NA","h","525","NA","37481","NA","NA","525","2","legacy","1024","2","48000","-16","experiment","SSHSS","3","odd","39787","NA","NA","NA","176200","2305","NA","NA","58072","2294","NA","177260","177364","177890","177258","177364","Flanker Task","78","46192","79","yes","1024"
"98.75","98.75","585.0875","585.0875","black","legacy","legacy","legacy","0","congruent","uniform","1","undefined","1","s","0","0","0","0","79","0","0","0","79","0","79","79","79","79","79","79","Sun Sep 19 13:03:48 2021","1500","The main experiment item","yes","FlankerTask.osexp","C:/Users/warne/OneDrive/Documents/Tarleton - MS Applied Psychology/Adv Quantitative Methods and Experimental Design/Labs","no","mono","no","18","no","white","no","yes","768","legacy","79","79","C:/Users/warne/OneDrive/Documents/Tarleton - MS Applied Psychology/Adv Quantitative Methods and Experimental Design/Labs/AH-subject-3.csv","legacy","Lentiform Loewenfeld","3.3.9","0","s","NA","h","NA","NA","s","615","NA","37481","NA","NA","615","2","legacy","1024","2","48000","-16","experiment","SSSSS","3","odd","39787","NA","NA","NA","177895","2305","NA","NA","58072","2294","NA","178955","179060","179676","178953","179060","Flanker Task","79","46807","80","yes","1024"
"98.76543209876543","98.76543209876543","583.6296296296297","583.6296296296297","black","legacy","legacy","legacy","0","congruent","uniform","1","undefined","1","h","0","0","0","0","80","0","0","0","80","0","80","80","80","80","80","80","Sun Sep 19 13:03:48 2021","600","The main experiment item","yes","FlankerTask.osexp","C:/Users/warne/OneDrive/Documents/Tarleton - MS Applied Psychology/Adv Quantitative Methods and Experimental Design/Labs","no","mono","no","18","no","white","no","yes","768","legacy","0","79","C:/Users/warne/OneDrive/Documents/Tarleton - MS Applied Psychology/Adv Quantitative Methods and Experimental Design/Labs/AH-subject-3.csv","legacy","Lentiform Loewenfeld","3.3.9","0","h","NA","h","h","NA","h","467","NA","37481","22082","NA","467","2","legacy","1024","2","48000","-16","experiment","HHHHH","3","odd","39787","202782","NA","NA","179681","2305","180699","NA","58072","2294","NA","202836","202941","203409","202835","202940","Flanker Task","80","47274","81","yes","1024"
"98.78048780487805","98.78048780487805","581.780487804878","581.780487804878","black","legacy","legacy","legacy","0","congruent","uniform","1","undefined","1","h","0","0","0","0","81","0","0","0","81","0","81","81","81","81","81","81","Sun Sep 19 13:03:48 2021","600","The main experiment item","yes","FlankerTask.osexp","C:/Users/warne/OneDrive/Documents/Tarleton - MS Applied Psychology/Adv Quantitative Methods and Experimental Design/Labs","no","mono","no","18","no","white","no","yes","768","legacy","1","79","C:/Users/warne/OneDrive/Documents/Tarleton - MS Applied Psychology/Adv Quantitative Methods and Experimental Design/Labs/AH-subject-3.csv","legacy","Lentiform Loewenfeld","3.3.9","0","h","NA","h","h","NA","h","432","NA","37481","22082","NA","432","2","legacy","1024","2","48000","-16","experiment","HHHHH","3","odd","39787","202782","NA","NA","203416","2305","180699","NA","58072","2294","NA","204476","204581","205014","204474","204581","Flanker Task","81","47706","82","yes","1024"
"97.59036144578313","97.59036144578313","580.7590361445783","580.7590361445783","black","legacy","legacy","legacy","0","incongruent","uniform","0","undefined","0","h","0","0","0","0","82","0","0","0","82","0","82","82","82","82","82","82","Sun Sep 19 13:03:48 2021","600","The main experiment item","yes","FlankerTask.osexp","C:/Users/warne/OneDrive/Documents/Tarleton - MS Applied Psychology/Adv Quantitative Methods and Experimental Design/Labs","no","mono","no","18","no","white","no","yes","768","legacy","2","79","C:/Users/warne/OneDrive/Documents/Tarleton - MS Applied Psychology/Adv Quantitative Methods and Experimental Design/Labs/AH-subject-3.csv","legacy","Lentiform Loewenfeld","3.3.9","0","s","NA","h","h","NA","s","497","NA","37481","22082","NA","497","2","legacy","1024","2","48000","-16","experiment","SSHSS","3","odd","39787","202782","NA","NA","205018","2305","180699","NA","58072","2294","NA","206077","206182","206680","206076","206182","Flanker Task","81","48203","83","yes","1024"
"97.61904761904762","97.61904761904762","582.1904761904761","582.1904761904761","black","legacy","legacy","legacy","0","incongruent","uniform","1","undefined","1","s","0","0","0","0","83","0","0","0","83","0","83","83","83","83","83","83","Sun Sep 19 13:03:48 2021","600","The main experiment item","yes","FlankerTask.osexp","C:/Users/warne/OneDrive/Documents/Tarleton - MS Applied Psychology/Adv Quantitative Methods and Experimental Design/Labs","no","mono","no","18","no","white","no","yes","768","legacy","3","79","C:/Users/warne/OneDrive/Documents/Tarleton - MS Applied Psychology/Adv Quantitative Methods and Experimental Design/Labs/AH-subject-3.csv","legacy","Lentiform Loewenfeld","3.3.9","0","s","NA","h","h","NA","s","701","NA","37481","22082","NA","701","2","legacy","1024","2","48000","-16","experiment","HHSHH","3","odd","39787","202782","NA","NA","207188","2305","180699","NA","206687","2294","NA","208247","208352","209053","208245","208352","Flanker Task","82","48904","84","yes","1024"
"96.47058823529412","96.47058823529412","580.1882352941177","580.1882352941177","black","legacy","legacy","legacy","0","incongruent","uniform","0","undefined","0","s","0","0","0","0","84","0","0","0","84","0","84","84","84","84","84","84","Sun Sep 19 13:03:48 2021","600","The main experiment item","yes","FlankerTask.osexp","C:/Users/warne/OneDrive/Documents/Tarleton - MS Applied Psychology/Adv Quantitative Methods and Experimental Design/Labs","no","mono","no","18","no","white","no","yes","768","legacy","4","79","C:/Users/warne/OneDrive/Documents/Tarleton - MS Applied Psychology/Adv Quantitative Methods and Experimental Design/Labs/AH-subject-3.csv","legacy","Lentiform Loewenfeld","3.3.9","0","h","NA","h","h","NA","h","412","NA","37481","22082","NA","412","2","legacy","1024","2","48000","-16","experiment","HHSHH","3","odd","39787","202782","NA","NA","209558","2305","180699","NA","206687","2294","209057","210617","210722","211135","210615","210722","Flanker Task","82","49316","85","yes","1024"
"96.51162790697674","96.51162790697674","579.3488372093024","579.3488372093024","black","legacy","legacy","legacy","0","congruent","uniform","1","undefined","1","s","0","0","0","0","85","0","0","0","85","0","85","85","85","85","85","85","Sun Sep 19 13:03:48 2021","600","The main experiment item","yes","FlankerTask.osexp","C:/Users/warne/OneDrive/Documents/Tarleton - MS Applied Psychology/Adv Quantitative Methods and Experimental Design/Labs","no","mono","no","18","no","white","no","yes","768","legacy","5","79","C:/Users/warne/OneDrive/Documents/Tarleton - MS Applied Psychology/Adv Quantitative Methods and Experimental Design/Labs/AH-subject-3.csv","legacy","Lentiform Loewenfeld","3.3.9","0","s","NA","h","h","NA","s","508","NA","37481","22082","NA","508","2","legacy","1024","2","48000","-16","experiment","SSSSS","3","odd","39787","202782","NA","NA","211641","2305","180699","NA","211140","2294","209057","212700","212805","213313","212698","212805","Flanker Task","83","49824","86","yes","1024"
"96.55172413793103","96.55172413793103","577.8850574712644","577.8850574712644","black","legacy","legacy","legacy","0","congruent","uniform","1","undefined","1","s","0","0","0","0","86","0","0","0","86","0","86","86","86","86","86","86","Sun Sep 19 13:03:48 2021","600","The main experiment item","yes","FlankerTask.osexp","C:/Users/warne/OneDrive/Documents/Tarleton - MS Applied Psychology/Adv Quantitative Methods and Experimental Design/Labs","no","mono","no","18","no","white","no","yes","768","legacy","6","79","C:/Users/warne/OneDrive/Documents/Tarleton - MS Applied Psychology/Adv Quantitative Methods and Experimental Design/Labs/AH-subject-3.csv","legacy","Lentiform Loewenfeld","3.3.9","0","s","NA","h","h","NA","s","452","NA","37481","22082","NA","452","2","legacy","1024","2","48000","-16","experiment","SSSSS","3","odd","39787","202782","NA","NA","213318","2305","180699","NA","211140","2294","209057","214377","214478","214931","214375","214478","Flanker Task","84","50276","87","yes","1024"
"96.5909090909091","96.5909090909091","577.6363636363636","577.6363636363636","black","legacy","legacy","legacy","0","congruent","uniform","1","undefined","1","h","0","0","0","0","87","0","0","0","87","0","87","87","87","87","87","87","Sun Sep 19 13:03:48 2021","600","The main experiment item","yes","FlankerTask.osexp","C:/Users/warne/OneDrive/Documents/Tarleton - MS Applied Psychology/Adv Quantitative Methods and Experimental Design/Labs","no","mono","no","18","no","white","no","yes","768","legacy","7","79","C:/Users/warne/OneDrive/Documents/Tarleton - MS Applied Psychology/Adv Quantitative Methods and Experimental Design/Labs/AH-subject-3.csv","legacy","Lentiform Loewenfeld","3.3.9","0","h","NA","h","h","NA","h","556","NA","37481","22082","NA","556","2","legacy","1024","2","48000","-16","experiment","HHHHH","3","odd","39787","202782","NA","NA","214936","2305","180699","NA","211140","2294","209057","216010","216114","216671","216009","216114","Flanker Task","85","50832","88","yes","1024"
"96.62921348314607","96.62921348314607","577.2247191011236","577.2247191011236","black","legacy","legacy","legacy","0","incongruent","uniform","1","undefined","1","s","0","0","0","0","88","0","0","0","88","0","88","88","88","88","88","88","Sun Sep 19 13:03:48 2021","600","The main experiment item","yes","FlankerTask.osexp","C:/Users/warne/OneDrive/Documents/Tarleton - MS Applied Psychology/Adv Quantitative Methods and Experimental Design/Labs","no","mono","no","18","no","white","no","yes","768","legacy","8","79","C:/Users/warne/OneDrive/Documents/Tarleton - MS Applied Psychology/Adv Quantitative Methods and Experimental Design/Labs/AH-subject-3.csv","legacy","Lentiform Loewenfeld","3.3.9","0","s","NA","h","h","NA","s","541","NA","37481","22082","NA","541","2","legacy","1024","2","48000","-16","experiment","HHSHH","3","odd","39787","202782","NA","NA","216676","2305","180699","NA","211140","2294","209057","217735","217840","218381","217733","217840","Flanker Task","86","51373","89","yes","1024"
"96.66666666666667","96.66666666666667","575.8111111111111","575.8111111111111","black","legacy","legacy","legacy","0","congruent","uniform","1","undefined","1","h","0","0","0","0","89","0","0","0","89","0","89","89","89","89","89","89","Sun Sep 19 13:03:48 2021","600","The main experiment item","yes","FlankerTask.osexp","C:/Users/warne/OneDrive/Documents/Tarleton - MS Applied Psychology/Adv Quantitative Methods and Experimental Design/Labs","no","mono","no","18","no","white","no","yes","768","legacy","9","79","C:/Users/warne/OneDrive/Documents/Tarleton - MS Applied Psychology/Adv Quantitative Methods and Experimental Design/Labs/AH-subject-3.csv","legacy","Lentiform Loewenfeld","3.3.9","0","h","NA","h","h","NA","h","450","NA","37481","22082","NA","450","2","legacy","1024","2","48000","-16","experiment","HHHHH","3","odd","39787","202782","NA","NA","218386","2305","180699","NA","211140","2294","209057","219446","219551","220002","219444","219551","Flanker Task","87","51823","90","yes","1024"
"96.7032967032967","96.7032967032967","575.7472527472528","575.7472527472528","black","legacy","legacy","legacy","0","incongruent","uniform","1","undefined","1","h","0","0","0","0","90","0","0","0","90","0","90","90","90","90","90","90","Sun Sep 19 13:03:48 2021","600","The main experiment item","yes","FlankerTask.osexp","C:/Users/warne/OneDrive/Documents/Tarleton - MS Applied Psychology/Adv Quantitative Methods and Experimental Design/Labs","no","mono","no","18","no","white","no","yes","768","legacy","10","79","C:/Users/warne/OneDrive/Documents/Tarleton - MS Applied Psychology/Adv Quantitative Methods and Experimental Design/Labs/AH-subject-3.csv","legacy","Lentiform Loewenfeld","3.3.9","0","h","NA","h","h","NA","h","570","NA","37481","22082","NA","570","2","legacy","1024","2","48000","-16","experiment","SSHSS","3","odd","39787","202782","NA","NA","220005","2305","180699","NA","211140","2294","209057","221065","221170","221741","221063","221170","Flanker Task","88","52393","91","yes","1024"
"96.73913043478261","96.73913043478261","575.0326086956521","575.0326086956521","black","legacy","legacy","legacy","0","congruent","uniform","1","undefined","1","h","0","0","0","0","91","0","0","0","91","0","91","91","91","91","91","91","Sun Sep 19 13:03:48 2021","600","The main experiment item","yes","FlankerTask.osexp","C:/Users/warne/OneDrive/Documents/Tarleton - MS Applied Psychology/Adv Quantitative Methods and Experimental Design/Labs","no","mono","no","18","no","white","no","yes","768","legacy","11","79","C:/Users/warne/OneDrive/Documents/Tarleton - MS Applied Psychology/Adv Quantitative Methods and Experimental Design/Labs/AH-subject-3.csv","legacy","Lentiform Loewenfeld","3.3.9","0","h","NA","h","h","NA","h","510","NA","37481","22082","NA","510","2","legacy","1024","2","48000","-16","experiment","HHHHH","3","odd","39787","202782","NA","NA","221747","2305","180699","NA","211140","2294","209057","222806","222911","223422","222804","222911","Flanker Task","89","52903","92","yes","1024"
"96.7741935483871","96.7741935483871","575.1935483870968","575.1935483870968","black","legacy","legacy","legacy","0","incongruent","uniform","1","undefined","1","s","0","0","0","0","92","0","0","0","92","0","92","92","92","92","92","92","Sun Sep 19 13:03:48 2021","600","The main experiment item","yes","FlankerTask.osexp","C:/Users/warne/OneDrive/Documents/Tarleton - MS Applied Psychology/Adv Quantitative Methods and Experimental Design/Labs","no","mono","no","18","no","white","no","yes","768","legacy","12","79","C:/Users/warne/OneDrive/Documents/Tarleton - MS Applied Psychology/Adv Quantitative Methods and Experimental Design/Labs/AH-subject-3.csv","legacy","Lentiform Loewenfeld","3.3.9","0","s","NA","h","h","NA","s","590","NA","37481","22082","NA","590","2","legacy","1024","2","48000","-16","experiment","HHSHH","3","odd","39787","202782","NA","NA","223427","2305","180699","NA","211140","2294","209057","224486","224587","225177","224484","224587","Flanker Task","90","53493","93","yes","1024"
"96.80851063829788","96.80851063829788","574.6808510638298","574.6808510638298","black","legacy","legacy","legacy","0","congruent","uniform","1","undefined","1","s","0","0","0","0","93","0","0","0","93","0","93","93","93","93","93","93","Sun Sep 19 13:03:48 2021","600","The main experiment item","yes","FlankerTask.osexp","C:/Users/warne/OneDrive/Documents/Tarleton - MS Applied Psychology/Adv Quantitative Methods and Experimental Design/Labs","no","mono","no","18","no","white","no","yes","768","legacy","13","79","C:/Users/warne/OneDrive/Documents/Tarleton - MS Applied Psychology/Adv Quantitative Methods and Experimental Design/Labs/AH-subject-3.csv","legacy","Lentiform Loewenfeld","3.3.9","0","s","NA","h","h","NA","s","527","NA","37481","22082","NA","527","2","legacy","1024","2","48000","-16","experiment","SSSSS","3","odd","39787","202782","NA","NA","225184","2305","180699","NA","211140","2294","209057","226241","226345","226873","226240","226345","Flanker Task","91","54020","94","yes","1024"
"96.84210526315789","96.84210526315789","573.1894736842105","573.1894736842105","black","legacy","legacy","legacy","0","congruent","uniform","1","undefined","1","s","0","0","0","0","94","0","0","0","94","0","94","94","94","94","94","94","Sun Sep 19 13:03:48 2021","600","The main experiment item","yes","FlankerTask.osexp","C:/Users/warne/OneDrive/Documents/Tarleton - MS Applied Psychology/Adv Quantitative Methods and Experimental Design/Labs","no","mono","no","18","no","white","no","yes","768","legacy","14","79","C:/Users/warne/OneDrive/Documents/Tarleton - MS Applied Psychology/Adv Quantitative Methods and Experimental Design/Labs/AH-subject-3.csv","legacy","Lentiform Loewenfeld","3.3.9","0","s","NA","h","h","NA","s","433","NA","37481","22082","NA","433","2","legacy","1024","2","48000","-16","experiment","SSSSS","3","odd","39787","202782","NA","NA","226881","2305","180699","NA","211140","2294","209057","227939","228044","228477","227937","228043","Flanker Task","92","54453","95","yes","1024"
"96.875","96.875","572.40625","572.40625","black","legacy","legacy","legacy","0","incongruent","uniform","1","undefined","1","h","0","0","0","0","95","0","0","0","95","0","95","95","95","95","95","95","Sun Sep 19 13:03:48 2021","600","The main experiment item","yes","FlankerTask.osexp","C:/Users/warne/OneDrive/Documents/Tarleton - MS Applied Psychology/Adv Quantitative Methods and Experimental Design/Labs","no","mono","no","18","no","white","no","yes","768","legacy","15","79","C:/Users/warne/OneDrive/Documents/Tarleton - MS Applied Psychology/Adv Quantitative Methods and Experimental Design/Labs/AH-subject-3.csv","legacy","Lentiform Loewenfeld","3.3.9","0","h","NA","h","h","NA","h","498","NA","37481","22082","NA","498","2","legacy","1024","2","48000","-16","experiment","SSHSS","3","odd","39787","202782","NA","NA","228482","2305","180699","NA","211140","2294","209057","229540","229645","230143","229538","229645","Flanker Task","93","54951","96","yes","1024"
"96.90721649484536","96.90721649484536","570.8453608247422","570.8453608247422","black","legacy","legacy","legacy","0","congruent","uniform","1","undefined","1","s","0","0","0","0","96","0","0","0","96","0","96","96","96","96","96","96","Sun Sep 19 13:03:48 2021","600","The main experiment item","yes","FlankerTask.osexp","C:/Users/warne/OneDrive/Documents/Tarleton - MS Applied Psychology/Adv Quantitative Methods and Experimental Design/Labs","no","mono","no","18","no","white","no","yes","768","legacy","16","79","C:/Users/warne/OneDrive/Documents/Tarleton - MS Applied Psychology/Adv Quantitative Methods and Experimental Design/Labs/AH-subject-3.csv","legacy","Lentiform Loewenfeld","3.3.9","0","s","NA","h","h","NA","s","421","NA","37481","22082","NA","421","2","legacy","1024","2","48000","-16","experiment","SSSSS","3","odd","39787","202782","NA","NA","230148","2305","180699","NA","211140","2294","209057","231207","231311","231733","231205","231311","Flanker Task","94","55372","97","yes","1024"
"96.93877551020408","96.93877551020408","569.6530612244898","569.6530612244898","black","legacy","legacy","legacy","0","incongruent","uniform","1","undefined","1","s","0","0","0","0","97","0","0","0","97","0","97","97","97","97","97","97","Sun Sep 19 13:03:48 2021","600","The main experiment item","yes","FlankerTask.osexp","C:/Users/warne/OneDrive/Documents/Tarleton - MS Applied Psychology/Adv Quantitative Methods and Experimental Design/Labs","no","mono","no","18","no","white","no","yes","768","legacy","17","79","C:/Users/warne/OneDrive/Documents/Tarleton - MS Applied Psychology/Adv Quantitative Methods and Experimental Design/Labs/AH-subject-3.csv","legacy","Lentiform Loewenfeld","3.3.9","0","s","NA","h","h","NA","s","454","NA","37481","22082","NA","454","2","legacy","1024","2","48000","-16","experiment","HHSHH","3","odd","39787","202782","NA","NA","231738","2305","180699","NA","211140","2294","209057","232797","232898","233353","232795","232898","Flanker Task","95","55826","98","yes","1024"
"96.96969696969697","96.96969696969697","568.7777777777778","568.7777777777778","black","legacy","legacy","legacy","0","congruent","uniform","1","undefined","1","s","0","0","0","0","98","0","0","0","98","0","98","98","98","98","98","98","Sun Sep 19 13:03:48 2021","600","The main experiment item","yes","FlankerTask.osexp","C:/Users/warne/OneDrive/Documents/Tarleton - MS Applied Psychology/Adv Quantitative Methods and Experimental Design/Labs","no","mono","no","18","no","white","no","yes","768","legacy","18","79","C:/Users/warne/OneDrive/Documents/Tarleton - MS Applied Psychology/Adv Quantitative Methods and Experimental Design/Labs/AH-subject-3.csv","legacy","Lentiform Loewenfeld","3.3.9","0","s","NA","h","h","NA","s","483","NA","37481","22082","NA","483","2","legacy","1024","2","48000","-16","experiment","SSSSS","3","odd","39787","202782","NA","NA","233360","2305","180699","NA","211140","2294","209057","234418","234520","235004","234417","234520","Flanker Task","96","56309","99","yes","1024"
"97","97","567.61","567.61","black","legacy","legacy","legacy","0","congruent","uniform","1","undefined","1","h","0","0","0","0","99","0","0","0","99","0","99","99","99","99","99","99","Sun Sep 19 13:03:48 2021","600","The main experiment item","yes","FlankerTask.osexp","C:/Users/warne/OneDrive/Documents/Tarleton - MS Applied Psychology/Adv Quantitative Methods and Experimental Design/Labs","no","mono","no","18","no","white","no","yes","768","legacy","19","79","C:/Users/warne/OneDrive/Documents/Tarleton - MS Applied Psychology/Adv Quantitative Methods and Experimental Design/Labs/AH-subject-3.csv","legacy","Lentiform Loewenfeld","3.3.9","0","h","NA","h","h","NA","h","452","NA","37481","22082","NA","452","2","legacy","1024","2","48000","-16","experiment","HHHHH","3","odd","39787","202782","NA","NA","235007","2305","180699","NA","211140","2294","209057","236066","236171","236624","236064","236171","Flanker Task","97","56761","100","yes","1024"
