"acc","accuracy","average_response_time","avg_rt","background","canvas_backend","clock_backend","color_backend","compensation","condition","coordinates","correct","correct_instructions1","correct_keyboard_response","correct_response","count_ISI","count_block1","count_block2","count_block3","count_errorFeedback","count_experiment","count_faster","count_finish","count_fixation","count_instructions1","count_instructions2","count_instructions3","count_keyboard_response","count_logger","count_sequence","count_stimulus","datetime","deadline","description","disable_garbage_collection","experiment_file","experiment_path","font_bold","font_family","font_italic","font_size","font_underline","foreground","form_clicks","fullscreen","height","keyboard_backend","live_row","live_row_block1","logfile","mouse_backend","opensesame_codename","opensesame_version","repeat_cycle","response","response_finish","response_instructions1","response_instructions2","response_instructions3","response_keyboard_response","response_time","response_time_finish","response_time_instructions1","response_time_instructions2","response_time_instructions3","response_time_keyboard_response","round_decimals","sampler_backend","sound_buf_size","sound_channels","sound_freq","sound_sample_size","start","stimulus","subject_nr","subject_parity","time_ISI","time_block1","time_block2","time_block3","time_errorFeedback","time_experiment","time_faster","time_finish","time_fixation","time_instructions1","time_instructions2","time_instructions3","time_keyboard_response","time_logger","time_sequence","time_stimulus","title","total_correct","total_response_time","total_responses","uniform_coordinates","width"
"0","0","1500","1500","black","legacy","legacy","legacy","0","congruent","uniform","0","undefined","0","h","0","0","0","0","0","0","0","0","0","0","0","0","0","0","0","0","Fri Sep 24 12:01:34 2021","1500","The main experiment item","yes","Flankertask.osexp","/Users/mihailcodreanu/Desktop","no","mono","no","18","no","white","no","yes","768","legacy","0","0","/Users/mihailcodreanu/Desktop/mc-subject-4.csv","legacy","Lentiform Loewenfeld","3.3.9","0","None","NA","caps lock","NA","NA","None","1500","NA","44687","NA","NA","1500","2","legacy","1024","2","48000","-16","experiment","HHHHH","4","even","NA","48021","NA","NA","NA","3322","NA","NA","48070","3330","NA","NA","48176","49676","48066","48175","Flanker task ","0","1500","1","yes","1024"
"50","50","1298.5","1298.5","black","legacy","legacy","legacy","0","congruent","uniform","1","undefined","1","s","1","0","0","0","1","0","1","0","1","0","0","0","1","1","1","1","Fri Sep 24 12:01:34 2021","1500","The main experiment item","yes","Flankertask.osexp","/Users/mihailcodreanu/Desktop","no","mono","no","18","no","white","no","yes","768","legacy","1","1","/Users/mihailcodreanu/Desktop/mc-subject-4.csv","legacy","Lentiform Loewenfeld","3.3.9","0","S","NA","caps lock","NA","NA","S","1097","NA","44687","NA","NA","1097","2","legacy","1024","2","48000","-16","experiment","SSSSS","4","even","50195","48021","NA","NA","49685","3322","NA","NA","51252","3330","NA","NA","51356","52453","51249","51356","Flanker task ","1","2597","2","yes","1024"
"33.333333333333336","33.333333333333336","1083.6666666666667","1083.6666666666667","black","legacy","legacy","legacy","0","incongruent","uniform","0","undefined","0","h","2","0","0","0","2","0","2","0","2","0","0","0","2","2","2","2","Fri Sep 24 12:01:34 2021","1500","The main experiment item","yes","Flankertask.osexp","/Users/mihailcodreanu/Desktop","no","mono","no","18","no","white","no","yes","768","legacy","2","2","/Users/mihailcodreanu/Desktop/mc-subject-4.csv","legacy","Lentiform Loewenfeld","3.3.9","0","S","NA","caps lock","NA","NA","S","654","NA","44687","NA","NA","654","2","legacy","1024","2","48000","-16","experiment","SSHSS","4","even","52460","48021","NA","NA","49685","3322","NA","NA","53511","3330","NA","NA","53615","54269","53507","53615","Flanker task ","1","3251","3","yes","1024"
"50","50","922.5","922.5","black","legacy","legacy","legacy","0","congruent","uniform","1","undefined","1","h","3","0","0","0","3","0","3","0","3","0","0","0","3","3","3","3","Fri Sep 24 12:01:34 2021","1500","The main experiment item","yes","Flankertask.osexp","/Users/mihailcodreanu/Desktop","no","mono","no","18","no","white","no","yes","768","legacy","3","3","/Users/mihailcodreanu/Desktop/mc-subject-4.csv","legacy","Lentiform Loewenfeld","3.3.9","0","H","NA","caps lock","NA","NA","H","439","NA","44687","NA","NA","439","2","legacy","1024","2","48000","-16","experiment","HHHHH","4","even","54778","48021","NA","NA","54274","3322","NA","NA","55830","3330","NA","NA","55934","56373","55826","55934","Flanker task ","2","3690","4","yes","1024"
"60","60","843.2","843.2","black","legacy","legacy","legacy","0","congruent","uniform","1","undefined","1","s","4","0","0","0","4","0","4","0","4","0","0","0","4","4","4","4","Fri Sep 24 12:01:34 2021","1500","The main experiment item","yes","Flankertask.osexp","/Users/mihailcodreanu/Desktop","no","mono","no","18","no","white","no","yes","768","legacy","4","4","/Users/mihailcodreanu/Desktop/mc-subject-4.csv","legacy","Lentiform Loewenfeld","3.3.9","0","S","NA","caps lock","NA","NA","S","526","NA","44687","NA","NA","526","2","legacy","1024","2","48000","-16","experiment","SSSSS","4","even","56380","48021","NA","NA","54274","3322","NA","NA","57431","3330","NA","NA","57535","58061","57427","57535","Flanker task ","3","4216","5","yes","1024"
"66.66666666666667","66.66666666666667","799.8333333333334","799.8333333333334","black","legacy","legacy","legacy","0","incongruent","uniform","1","undefined","1","s","5","0","0","0","5","0","5","0","5","0","0","0","5","5","5","5","Fri Sep 24 12:01:34 2021","1500","The main experiment item","yes","Flankertask.osexp","/Users/mihailcodreanu/Desktop","no","mono","no","18","no","white","no","yes","768","legacy","5","5","/Users/mihailcodreanu/Desktop/mc-subject-4.csv","legacy","Lentiform Loewenfeld","3.3.9","0","S","NA","caps lock","NA","NA","S","583","NA","44687","NA","NA","583","2","legacy","1024","2","48000","-16","experiment","HHSHH","4","even","58065","48021","NA","NA","54274","3322","NA","NA","59118","3330","NA","NA","59222","59805","59114","59221","Flanker task ","4","4799","6","yes","1024"
"57.142857142857146","57.142857142857146","740","740","black","legacy","legacy","legacy","0","incongruent","uniform","0","undefined","0","h","6","0","0","0","6","0","6","0","6","0","0","0","6","6","6","6","Fri Sep 24 12:01:34 2021","1500","The main experiment item","yes","Flankertask.osexp","/Users/mihailcodreanu/Desktop","no","mono","no","18","no","white","no","yes","768","legacy","6","6","/Users/mihailcodreanu/Desktop/mc-subject-4.csv","legacy","Lentiform Loewenfeld","3.3.9","0","S","NA","caps lock","NA","NA","S","381","NA","44687","NA","NA","381","2","legacy","1024","2","48000","-16","experiment","SSHSS","4","even","59811","48021","NA","NA","54274","3322","NA","NA","60864","3330","NA","NA","60968","61349","60860","60968","Flanker task ","4","5180","7","yes","1024"
"62.5","62.5","709.25","709.25","black","legacy","legacy","legacy","0","incongruent","uniform","1","undefined","1","s","7","0","0","0","7","0","7","0","7","0","0","0","7","7","7","7","Fri Sep 24 12:01:34 2021","1500","The main experiment item","yes","Flankertask.osexp","/Users/mihailcodreanu/Desktop","no","mono","no","18","no","white","no","yes","768","legacy","7","7","/Users/mihailcodreanu/Desktop/mc-subject-4.csv","legacy","Lentiform Loewenfeld","3.3.9","0","S","NA","caps lock","NA","NA","S","494","NA","44687","NA","NA","494","2","legacy","1024","2","48000","-16","experiment","HHSHH","4","even","61860","48021","NA","NA","61356","3322","NA","NA","62911","3330","NA","NA","63015","63509","62908","63015","Flanker task ","5","5674","8","yes","1024"
"66.66666666666667","66.66666666666667","682","682","black","legacy","legacy","legacy","0","incongruent","uniform","1","undefined","1","s","8","0","0","0","8","0","8","0","8","0","0","0","8","8","8","8","Fri Sep 24 12:01:34 2021","1500","The main experiment item","yes","Flankertask.osexp","/Users/mihailcodreanu/Desktop","no","mono","no","18","no","white","no","yes","768","legacy","8","8","/Users/mihailcodreanu/Desktop/mc-subject-4.csv","legacy","Lentiform Loewenfeld","3.3.9","0","S","NA","caps lock","NA","NA","S","464","NA","44687","NA","NA","464","2","legacy","1024","2","48000","-16","experiment","HHSHH","4","even","63516","48021","NA","NA","61356","3322","NA","NA","64565","3330","NA","NA","64669","65133","64562","64669","Flanker task ","6","6138","9","yes","1024"
"70","70","661.4","661.4","black","legacy","legacy","legacy","0","incongruent","uniform","1","undefined","1","s","9","0","0","0","9","0","9","0","9","0","0","0","9","9","9","9","Fri Sep 24 12:01:34 2021","1500","The main experiment item","yes","Flankertask.osexp","/Users/mihailcodreanu/Desktop","no","mono","no","18","no","white","no","yes","768","legacy","9","9","/Users/mihailcodreanu/Desktop/mc-subject-4.csv","legacy","Lentiform Loewenfeld","3.3.9","0","S","NA","caps lock","NA","NA","S","476","NA","44687","NA","NA","476","2","legacy","1024","2","48000","-16","experiment","HHSHH","4","even","65140","48021","NA","NA","61356","3322","NA","NA","66193","3330","NA","NA","66297","66773","66189","66297","Flanker task ","7","6614","10","yes","1024"
"72.72727272727273","72.72727272727273","644","644","black","legacy","legacy","legacy","0","incongruent","uniform","1","undefined","1","s","10","0","0","0","10","0","10","0","10","0","0","0","10","10","10","10","Fri Sep 24 12:01:34 2021","1500","The main experiment item","yes","Flankertask.osexp","/Users/mihailcodreanu/Desktop","no","mono","no","18","no","white","no","yes","768","legacy","10","10","/Users/mihailcodreanu/Desktop/mc-subject-4.csv","legacy","Lentiform Loewenfeld","3.3.9","0","S","NA","caps lock","NA","NA","S","470","NA","44687","NA","NA","470","2","legacy","1024","2","48000","-16","experiment","HHSHH","4","even","66780","48021","NA","NA","61356","3322","NA","NA","67829","3330","NA","NA","67934","68405","67826","67934","Flanker task ","8","7084","11","yes","1024"
"75","75","620.9166666666666","620.9166666666666","black","legacy","legacy","legacy","0","congruent","uniform","1","undefined","1","s","11","0","0","0","11","0","11","0","11","0","0","0","11","11","11","11","Fri Sep 24 12:01:34 2021","1500","The main experiment item","yes","Flankertask.osexp","/Users/mihailcodreanu/Desktop","no","mono","no","18","no","white","no","yes","768","legacy","11","11","/Users/mihailcodreanu/Desktop/mc-subject-4.csv","legacy","Lentiform Loewenfeld","3.3.9","0","S","NA","caps lock","NA","NA","S","367","NA","44687","NA","NA","367","2","legacy","1024","2","48000","-16","experiment","SSSSS","4","even","68412","48021","NA","NA","61356","3322","NA","NA","69462","3330","NA","NA","69566","69933","69458","69566","Flanker task ","9","7451","12","yes","1024"
"76.92307692307692","76.92307692307692","600.4615384615385","600.4615384615385","black","legacy","legacy","legacy","0","congruent","uniform","1","undefined","1","s","12","0","0","0","12","0","12","0","12","0","0","0","12","12","12","12","Fri Sep 24 12:01:34 2021","1500","The main experiment item","yes","Flankertask.osexp","/Users/mihailcodreanu/Desktop","no","mono","no","18","no","white","no","yes","768","legacy","12","12","/Users/mihailcodreanu/Desktop/mc-subject-4.csv","legacy","Lentiform Loewenfeld","3.3.9","0","S","NA","caps lock","NA","NA","S","355","NA","44687","NA","NA","355","2","legacy","1024","2","48000","-16","experiment","SSSSS","4","even","69941","48021","NA","NA","61356","3322","NA","NA","70994","3330","NA","NA","71098","71453","70990","71098","Flanker task ","10","7806","13","yes","1024"
"78.57142857142857","78.57142857142857","596.1428571428571","596.1428571428571","black","legacy","legacy","legacy","0","incongruent","uniform","1","undefined","1","s","13","0","0","0","13","0","13","0","13","0","0","0","13","13","13","13","Fri Sep 24 12:01:34 2021","1500","The main experiment item","yes","Flankertask.osexp","/Users/mihailcodreanu/Desktop","no","mono","no","18","no","white","no","yes","768","legacy","13","13","/Users/mihailcodreanu/Desktop/mc-subject-4.csv","legacy","Lentiform Loewenfeld","3.3.9","0","S","NA","caps lock","NA","NA","S","540","NA","44687","NA","NA","540","2","legacy","1024","2","48000","-16","experiment","HHSHH","4","even","71469","48021","NA","NA","61356","3322","NA","NA","72520","3330","NA","NA","72624","73165","72516","72624","Flanker task ","11","8346","14","yes","1024"
"80","80","579.0666666666667","579.0666666666667","black","legacy","legacy","legacy","0","congruent","uniform","1","undefined","1","h","14","0","0","0","14","0","14","0","14","0","0","0","14","14","14","14","Fri Sep 24 12:01:34 2021","1500","The main experiment item","yes","Flankertask.osexp","/Users/mihailcodreanu/Desktop","no","mono","no","18","no","white","no","yes","768","legacy","14","14","/Users/mihailcodreanu/Desktop/mc-subject-4.csv","legacy","Lentiform Loewenfeld","3.3.9","0","H","NA","caps lock","NA","NA","H","340","NA","44687","NA","NA","340","2","legacy","1024","2","48000","-16","experiment","HHHHH","4","even","73171","48021","NA","NA","61356","3322","NA","NA","74223","3330","NA","NA","74328","74669","74219","74327","Flanker task ","12","8686","15","yes","1024"
"81.25","81.25","568.25","568.25","black","legacy","legacy","legacy","0","incongruent","uniform","1","undefined","1","h","15","0","0","0","15","0","15","0","15","0","0","0","15","15","15","15","Fri Sep 24 12:01:34 2021","1500","The main experiment item","yes","Flankertask.osexp","/Users/mihailcodreanu/Desktop","no","mono","no","18","no","white","no","yes","768","legacy","15","15","/Users/mihailcodreanu/Desktop/mc-subject-4.csv","legacy","Lentiform Loewenfeld","3.3.9","0","H","NA","caps lock","NA","NA","H","406","NA","44687","NA","NA","406","2","legacy","1024","2","48000","-16","experiment","SSHSS","4","even","74676","48021","NA","NA","61356","3322","NA","NA","75727","3330","NA","NA","75831","76238","75723","75831","Flanker task ","13","9092","16","yes","1024"
"82.3529411764706","82.3529411764706","557.1764705882352","557.1764705882352","black","legacy","legacy","legacy","0","congruent","uniform","1","undefined","1","s","16","0","0","0","16","0","16","0","16","0","0","0","16","16","16","16","Fri Sep 24 12:01:34 2021","1500","The main experiment item","yes","Flankertask.osexp","/Users/mihailcodreanu/Desktop","no","mono","no","18","no","white","no","yes","768","legacy","16","16","/Users/mihailcodreanu/Desktop/mc-subject-4.csv","legacy","Lentiform Loewenfeld","3.3.9","0","S","NA","caps lock","NA","NA","S","380","NA","44687","NA","NA","380","2","legacy","1024","2","48000","-16","experiment","SSSSS","4","even","76245","48021","NA","NA","61356","3322","NA","NA","77297","3330","NA","NA","77401","77781","77293","77401","Flanker task ","14","9472","17","yes","1024"
"77.77777777777777","77.77777777777777","544.8888888888889","544.8888888888889","black","legacy","legacy","legacy","0","incongruent","uniform","0","undefined","0","h","17","0","0","0","17","0","17","0","17","0","0","0","17","17","17","17","Fri Sep 24 12:01:34 2021","1500","The main experiment item","yes","Flankertask.osexp","/Users/mihailcodreanu/Desktop","no","mono","no","18","no","white","no","yes","768","legacy","17","17","/Users/mihailcodreanu/Desktop/mc-subject-4.csv","legacy","Lentiform Loewenfeld","3.3.9","0","S","NA","caps lock","NA","NA","S","336","NA","44687","NA","NA","336","2","legacy","1024","2","48000","-16","experiment","SSHSS","4","even","77788","48021","NA","NA","61356","3322","NA","NA","78837","3330","NA","NA","78941","79277","78834","78941","Flanker task ","14","9808","18","yes","1024"
"78.94736842105263","78.94736842105263","541.8421052631579","541.8421052631579","black","legacy","legacy","legacy","0","congruent","uniform","1","undefined","1","h","18","0","0","0","18","0","18","0","18","0","0","0","18","18","18","18","Fri Sep 24 12:01:34 2021","1500","The main experiment item","yes","Flankertask.osexp","/Users/mihailcodreanu/Desktop","no","mono","no","18","no","white","no","yes","768","legacy","18","18","/Users/mihailcodreanu/Desktop/mc-subject-4.csv","legacy","Lentiform Loewenfeld","3.3.9","0","H","NA","caps lock","NA","NA","H","487","NA","44687","NA","NA","487","2","legacy","1024","2","48000","-16","experiment","HHHHH","4","even","79788","48021","NA","NA","79284","3322","NA","NA","80838","3330","NA","NA","80942","81429","80834","80942","Flanker task ","15","10295","19","yes","1024"
"80","80","535.35","535.35","black","legacy","legacy","legacy","0","congruent","uniform","1","undefined","1","h","19","0","0","0","19","0","19","0","19","0","0","0","19","19","19","19","Fri Sep 24 12:01:34 2021","1500","The main experiment item","yes","Flankertask.osexp","/Users/mihailcodreanu/Desktop","no","mono","no","18","no","white","no","yes","768","legacy","19","19","/Users/mihailcodreanu/Desktop/mc-subject-4.csv","legacy","Lentiform Loewenfeld","3.3.9","0","H","NA","caps lock","NA","NA","H","412","NA","44687","NA","NA","412","2","legacy","1024","2","48000","-16","experiment","HHHHH","4","even","81436","48021","NA","NA","79284","3322","NA","NA","82489","3330","NA","NA","82593","83005","82485","82593","Flanker task ","16","10707","20","yes","1024"
"80.95238095238095","80.95238095238095","530.3809523809524","530.3809523809524","black","legacy","legacy","legacy","0","incongruent","uniform","1","undefined","1","s","20","0","0","0","20","0","20","0","20","0","0","0","20","20","20","20","Fri Sep 24 12:01:34 2021","1500","The main experiment item","yes","Flankertask.osexp","/Users/mihailcodreanu/Desktop","no","mono","no","18","no","white","no","yes","768","legacy","20","20","/Users/mihailcodreanu/Desktop/mc-subject-4.csv","legacy","Lentiform Loewenfeld","3.3.9","0","S","NA","caps lock","NA","NA","S","431","NA","44687","NA","NA","431","2","legacy","1024","2","48000","-16","experiment","HHSHH","4","even","83010","48021","NA","NA","79284","3322","NA","NA","84061","3330","NA","NA","84165","84597","84057","84165","Flanker task ","17","11138","21","yes","1024"
"81.81818181818181","81.81818181818181","524.8636363636364","524.8636363636364","black","legacy","legacy","legacy","0","congruent","uniform","1","undefined","1","s","21","0","0","0","21","0","21","0","21","0","0","0","21","21","21","21","Fri Sep 24 12:01:34 2021","1500","The main experiment item","yes","Flankertask.osexp","/Users/mihailcodreanu/Desktop","no","mono","no","18","no","white","no","yes","768","legacy","21","21","/Users/mihailcodreanu/Desktop/mc-subject-4.csv","legacy","Lentiform Loewenfeld","3.3.9","0","S","NA","caps lock","NA","NA","S","409","NA","44687","NA","NA","409","2","legacy","1024","2","48000","-16","experiment","SSSSS","4","even","84603","48021","NA","NA","79284","3322","NA","NA","85652","3330","NA","NA","85756","86165","85649","85756","Flanker task ","18","11547","22","yes","1024"
"82.6086956521739","82.6086956521739","521","521","black","legacy","legacy","legacy","0","congruent","uniform","1","undefined","1","h","22","0","0","0","22","0","22","0","22","0","0","0","22","22","22","22","Fri Sep 24 12:01:34 2021","1500","The main experiment item","yes","Flankertask.osexp","/Users/mihailcodreanu/Desktop","no","mono","no","18","no","white","no","yes","768","legacy","22","22","/Users/mihailcodreanu/Desktop/mc-subject-4.csv","legacy","Lentiform Loewenfeld","3.3.9","0","H","NA","caps lock","NA","NA","H","436","NA","44687","NA","NA","436","2","legacy","1024","2","48000","-16","experiment","HHHHH","4","even","86172","48021","NA","NA","79284","3322","NA","NA","87225","3330","NA","NA","87329","87765","87221","87329","Flanker task ","19","11983","23","yes","1024"
"79.16666666666667","79.16666666666667","519.2083333333334","519.2083333333334","black","legacy","legacy","legacy","0","incongruent","uniform","0","undefined","0","h","23","0","0","0","23","0","23","0","23","0","0","0","23","23","23","23","Fri Sep 24 12:01:34 2021","1500","The main experiment item","yes","Flankertask.osexp","/Users/mihailcodreanu/Desktop","no","mono","no","18","no","white","no","yes","768","legacy","23","23","/Users/mihailcodreanu/Desktop/mc-subject-4.csv","legacy","Lentiform Loewenfeld","3.3.9","0","S","NA","caps lock","NA","NA","S","478","NA","44687","NA","NA","478","2","legacy","1024","2","48000","-16","experiment","SSHSS","4","even","87771","48021","NA","NA","79284","3322","NA","NA","88823","3330","NA","NA","88927","89405","88819","88927","Flanker task ","19","12461","24","yes","1024"
"80","80","519.4","519.4","black","legacy","legacy","legacy","0","incongruent","uniform","1","undefined","1","h","24","0","0","0","24","0","24","0","24","0","0","0","24","24","24","24","Fri Sep 24 12:01:34 2021","1500","The main experiment item","yes","Flankertask.osexp","/Users/mihailcodreanu/Desktop","no","mono","no","18","no","white","no","yes","768","legacy","24","24","/Users/mihailcodreanu/Desktop/mc-subject-4.csv","legacy","Lentiform Loewenfeld","3.3.9","0","H","NA","caps lock","NA","NA","H","524","NA","44687","NA","NA","524","2","legacy","1024","2","48000","-16","experiment","SSHSS","4","even","89917","48021","NA","NA","89413","3322","NA","NA","90968","3330","NA","NA","91073","91598","90965","91073","Flanker task ","20","12985","25","yes","1024"
"80.76923076923077","80.76923076923077","513.8461538461538","513.8461538461538","black","legacy","legacy","legacy","0","incongruent","uniform","1","undefined","1","h","25","0","0","0","25","0","25","0","25","0","0","0","25","25","25","25","Fri Sep 24 12:01:34 2021","1500","The main experiment item","yes","Flankertask.osexp","/Users/mihailcodreanu/Desktop","no","mono","no","18","no","white","no","yes","768","legacy","25","25","/Users/mihailcodreanu/Desktop/mc-subject-4.csv","legacy","Lentiform Loewenfeld","3.3.9","0","H","NA","caps lock","NA","NA","H","375","NA","44687","NA","NA","375","2","legacy","1024","2","48000","-16","experiment","SSHSS","4","even","91604","48021","NA","NA","89413","3322","NA","NA","92654","3330","NA","NA","92758","93133","92650","92758","Flanker task ","21","13360","26","yes","1024"
"81.48148148148148","81.48148148148148","511.6666666666667","511.6666666666667","black","legacy","legacy","legacy","0","incongruent","uniform","1","undefined","1","h","26","0","0","0","26","0","26","0","26","0","0","0","26","26","26","26","Fri Sep 24 12:01:34 2021","1500","The main experiment item","yes","Flankertask.osexp","/Users/mihailcodreanu/Desktop","no","mono","no","18","no","white","no","yes","768","legacy","26","26","/Users/mihailcodreanu/Desktop/mc-subject-4.csv","legacy","Lentiform Loewenfeld","3.3.9","0","H","NA","caps lock","NA","NA","H","455","NA","44687","NA","NA","455","2","legacy","1024","2","48000","-16","experiment","SSHSS","4","even","93140","48021","NA","NA","89413","3322","NA","NA","94191","3330","NA","NA","94294","94749","94187","94294","Flanker task ","22","13815","27","yes","1024"
"82.14285714285714","82.14285714285714","508.64285714285717","508.64285714285717","black","legacy","legacy","legacy","0","congruent","uniform","1","undefined","1","s","27","0","0","0","27","0","27","0","27","0","0","0","27","27","27","27","Fri Sep 24 12:01:34 2021","1500","The main experiment item","yes","Flankertask.osexp","/Users/mihailcodreanu/Desktop","no","mono","no","18","no","white","no","yes","768","legacy","27","27","/Users/mihailcodreanu/Desktop/mc-subject-4.csv","legacy","Lentiform Loewenfeld","3.3.9","0","S","NA","caps lock","NA","NA","S","427","NA","44687","NA","NA","427","2","legacy","1024","2","48000","-16","experiment","SSSSS","4","even","94757","48021","NA","NA","89413","3322","NA","NA","95810","3330","NA","NA","95914","96341","95806","95914","Flanker task ","23","14242","28","yes","1024"
"82.75862068965517","82.75862068965517","505.17241379310343","505.17241379310343","black","legacy","legacy","legacy","0","congruent","uniform","1","undefined","1","h","28","0","0","0","28","0","28","0","28","0","0","0","28","28","28","28","Fri Sep 24 12:01:34 2021","1500","The main experiment item","yes","Flankertask.osexp","/Users/mihailcodreanu/Desktop","no","mono","no","18","no","white","no","yes","768","legacy","28","28","/Users/mihailcodreanu/Desktop/mc-subject-4.csv","legacy","Lentiform Loewenfeld","3.3.9","0","H","NA","caps lock","NA","NA","H","408","NA","44687","NA","NA","408","2","legacy","1024","2","48000","-16","experiment","HHHHH","4","even","96348","48021","NA","NA","89413","3322","NA","NA","97397","3330","NA","NA","97501","97909","97393","97501","Flanker task ","24","14650","29","yes","1024"
"83.33333333333333","83.33333333333333","502.43333333333334","502.43333333333334","black","legacy","legacy","legacy","0","congruent","uniform","1","undefined","1","s","29","0","0","0","29","0","29","0","29","0","0","0","29","29","29","29","Fri Sep 24 12:01:34 2021","1500","The main experiment item","yes","Flankertask.osexp","/Users/mihailcodreanu/Desktop","no","mono","no","18","no","white","no","yes","768","legacy","29","29","/Users/mihailcodreanu/Desktop/mc-subject-4.csv","legacy","Lentiform Loewenfeld","3.3.9","0","S","NA","caps lock","NA","NA","S","423","NA","44687","NA","NA","423","2","legacy","1024","2","48000","-16","experiment","SSSSS","4","even","97915","48021","NA","NA","89413","3322","NA","NA","98966","3330","NA","NA","99070","99493","98962","99070","Flanker task ","25","15073","30","yes","1024"
"83.87096774193549","83.87096774193549","498.741935483871","498.741935483871","black","legacy","legacy","legacy","0","congruent","uniform","1","undefined","1","h","30","0","0","0","30","0","30","0","30","0","0","0","30","30","30","30","Fri Sep 24 12:01:34 2021","1500","The main experiment item","yes","Flankertask.osexp","/Users/mihailcodreanu/Desktop","no","mono","no","18","no","white","no","yes","768","legacy","30","30","/Users/mihailcodreanu/Desktop/mc-subject-4.csv","legacy","Lentiform Loewenfeld","3.3.9","0","H","NA","caps lock","NA","NA","H","388","NA","44687","NA","NA","388","2","legacy","1024","2","48000","-16","experiment","HHHHH","4","even","99500","48021","NA","NA","89413","3322","NA","NA","100553","3330","NA","NA","100657","101045","100549","100657","Flanker task ","26","15461","31","yes","1024"
"84.375","84.375","494.75","494.75","black","legacy","legacy","legacy","0","congruent","uniform","1","undefined","1","h","31","0","0","0","31","0","31","0","31","0","0","0","31","31","31","31","Fri Sep 24 12:01:34 2021","1500","The main experiment item","yes","Flankertask.osexp","/Users/mihailcodreanu/Desktop","no","mono","no","18","no","white","no","yes","768","legacy","31","31","/Users/mihailcodreanu/Desktop/mc-subject-4.csv","legacy","Lentiform Loewenfeld","3.3.9","0","H","NA","caps lock","NA","NA","H","371","NA","44687","NA","NA","371","2","legacy","1024","2","48000","-16","experiment","HHHHH","4","even","101051","48021","NA","NA","89413","3322","NA","NA","102106","3330","NA","NA","102210","102581","102099","102210","Flanker task ","27","15832","32","yes","1024"
"84.84848484848484","84.84848484848484","491.8181818181818","491.8181818181818","black","legacy","legacy","legacy","0","incongruent","uniform","1","undefined","1","s","32","0","0","0","32","0","32","0","32","0","0","0","32","32","32","32","Fri Sep 24 12:01:34 2021","1500","The main experiment item","yes","Flankertask.osexp","/Users/mihailcodreanu/Desktop","no","mono","no","18","no","white","no","yes","768","legacy","32","32","/Users/mihailcodreanu/Desktop/mc-subject-4.csv","legacy","Lentiform Loewenfeld","3.3.9","0","S","NA","caps lock","NA","NA","S","398","NA","44687","NA","NA","398","2","legacy","1024","2","48000","-16","experiment","HHSHH","4","even","102588","48021","NA","NA","89413","3322","NA","NA","103638","3330","NA","NA","103743","104142","103634","103743","Flanker task ","28","16230","33","yes","1024"
"85.29411764705883","85.29411764705883","489.52941176470586","489.52941176470586","black","legacy","legacy","legacy","0","incongruent","uniform","1","undefined","1","s","33","0","0","0","33","0","33","0","33","0","0","0","33","33","33","33","Fri Sep 24 12:01:34 2021","1500","The main experiment item","yes","Flankertask.osexp","/Users/mihailcodreanu/Desktop","no","mono","no","18","no","white","no","yes","768","legacy","33","33","/Users/mihailcodreanu/Desktop/mc-subject-4.csv","legacy","Lentiform Loewenfeld","3.3.9","0","S","NA","caps lock","NA","NA","S","414","NA","44687","NA","NA","414","2","legacy","1024","2","48000","-16","experiment","HHSHH","4","even","104148","48021","NA","NA","89413","3322","NA","NA","105199","3330","NA","NA","105303","105717","105196","105303","Flanker task ","29","16644","34","yes","1024"
"85.71428571428571","85.71428571428571","486.37142857142857","486.37142857142857","black","legacy","legacy","legacy","0","congruent","uniform","1","undefined","1","h","34","0","0","0","34","0","34","0","34","0","0","0","34","34","34","34","Fri Sep 24 12:01:34 2021","1500","The main experiment item","yes","Flankertask.osexp","/Users/mihailcodreanu/Desktop","no","mono","no","18","no","white","no","yes","768","legacy","34","34","/Users/mihailcodreanu/Desktop/mc-subject-4.csv","legacy","Lentiform Loewenfeld","3.3.9","0","H","NA","caps lock","NA","NA","H","379","NA","44687","NA","NA","379","2","legacy","1024","2","48000","-16","experiment","HHHHH","4","even","105724","48021","NA","NA","89413","3322","NA","NA","106776","3330","NA","NA","106882","107262","106772","106881","Flanker task ","30","17023","35","yes","1024"
"86.11111111111111","86.11111111111111","484.72222222222223","484.72222222222223","black","legacy","legacy","legacy","0","incongruent","uniform","1","undefined","1","s","35","0","0","0","35","0","35","0","35","0","0","0","35","35","35","35","Fri Sep 24 12:01:34 2021","1500","The main experiment item","yes","Flankertask.osexp","/Users/mihailcodreanu/Desktop","no","mono","no","18","no","white","no","yes","768","legacy","35","35","/Users/mihailcodreanu/Desktop/mc-subject-4.csv","legacy","Lentiform Loewenfeld","3.3.9","0","S","NA","caps lock","NA","NA","S","427","NA","44687","NA","NA","427","2","legacy","1024","2","48000","-16","experiment","HHSHH","4","even","107269","48021","NA","NA","89413","3322","NA","NA","108322","3330","NA","NA","108426","108853","108318","108426","Flanker task ","31","17450","36","yes","1024"
"86.48648648648648","86.48648648648648","483.05405405405406","483.05405405405406","black","legacy","legacy","legacy","0","incongruent","uniform","1","undefined","1","h","36","0","0","0","36","0","36","0","36","0","0","0","36","36","36","36","Fri Sep 24 12:01:34 2021","1500","The main experiment item","yes","Flankertask.osexp","/Users/mihailcodreanu/Desktop","no","mono","no","18","no","white","no","yes","768","legacy","36","36","/Users/mihailcodreanu/Desktop/mc-subject-4.csv","legacy","Lentiform Loewenfeld","3.3.9","0","H","NA","caps lock","NA","NA","H","423","NA","44687","NA","NA","423","2","legacy","1024","2","48000","-16","experiment","SSHSS","4","even","108860","48021","NA","NA","89413","3322","NA","NA","109910","3330","NA","NA","110014","110437","109907","110014","Flanker task ","32","17873","37","yes","1024"
"86.84210526315789","86.84210526315789","480.8157894736842","480.8157894736842","black","legacy","legacy","legacy","0","congruent","uniform","1","undefined","1","s","37","0","0","0","37","0","37","0","37","0","0","0","37","37","37","37","Fri Sep 24 12:01:34 2021","1500","The main experiment item","yes","Flankertask.osexp","/Users/mihailcodreanu/Desktop","no","mono","no","18","no","white","no","yes","768","legacy","37","37","/Users/mihailcodreanu/Desktop/mc-subject-4.csv","legacy","Lentiform Loewenfeld","3.3.9","0","S","NA","caps lock","NA","NA","S","398","NA","44687","NA","NA","398","2","legacy","1024","2","48000","-16","experiment","SSSSS","4","even","110444","48021","NA","NA","89413","3322","NA","NA","111494","3330","NA","NA","111598","111997","111490","111598","Flanker task ","33","18271","38","yes","1024"
"87.17948717948718","87.17948717948718","478.2564102564103","478.2564102564103","black","legacy","legacy","legacy","0","congruent","uniform","1","undefined","1","s","38","0","0","0","38","0","38","0","38","0","0","0","38","38","38","38","Fri Sep 24 12:01:34 2021","1500","The main experiment item","yes","Flankertask.osexp","/Users/mihailcodreanu/Desktop","no","mono","no","18","no","white","no","yes","768","legacy","38","38","/Users/mihailcodreanu/Desktop/mc-subject-4.csv","legacy","Lentiform Loewenfeld","3.3.9","0","S","NA","caps lock","NA","NA","S","381","NA","44687","NA","NA","381","2","legacy","1024","2","48000","-16","experiment","SSSSS","4","even","112004","48021","NA","NA","89413","3322","NA","NA","113055","3330","NA","NA","113160","113542","113052","113159","Flanker task ","34","18652","39","yes","1024"
"87.5","87.5","476.35","476.35","black","legacy","legacy","legacy","0","incongruent","uniform","1","undefined","1","h","39","0","0","0","39","0","39","0","39","0","0","0","39","39","39","39","Fri Sep 24 12:01:34 2021","1500","The main experiment item","yes","Flankertask.osexp","/Users/mihailcodreanu/Desktop","no","mono","no","18","no","white","no","yes","768","legacy","39","39","/Users/mihailcodreanu/Desktop/mc-subject-4.csv","legacy","Lentiform Loewenfeld","3.3.9","0","H","NA","caps lock","NA","NA","H","402","NA","44687","NA","NA","402","2","legacy","1024","2","48000","-16","experiment","SSHSS","4","even","113549","48021","NA","NA","89413","3322","NA","NA","114603","3330","NA","NA","114707","115109","114599","114707","Flanker task ","35","19054","40","yes","1024"
"87.8048780487805","87.8048780487805","473.4146341463415","473.4146341463415","black","legacy","legacy","legacy","0","congruent","uniform","1","undefined","1","h","40","0","0","0","40","0","40","0","40","0","0","0","40","40","40","40","Fri Sep 24 12:01:34 2021","1500","The main experiment item","yes","Flankertask.osexp","/Users/mihailcodreanu/Desktop","no","mono","no","18","no","white","no","yes","768","legacy","40","40","/Users/mihailcodreanu/Desktop/mc-subject-4.csv","legacy","Lentiform Loewenfeld","3.3.9","0","H","NA","caps lock","NA","NA","H","356","NA","44687","NA","NA","356","2","legacy","1024","2","48000","-16","experiment","HHHHH","4","even","115117","48021","NA","NA","89413","3322","NA","NA","116167","3330","NA","NA","116272","116629","116164","116272","Flanker task ","36","19410","41","yes","1024"
"88.0952380952381","88.0952380952381","471.3809523809524","471.3809523809524","black","legacy","legacy","legacy","0","congruent","uniform","1","undefined","1","s","41","0","0","0","41","0","41","0","41","0","0","0","41","41","41","41","Fri Sep 24 12:01:34 2021","1500","The main experiment item","yes","Flankertask.osexp","/Users/mihailcodreanu/Desktop","no","mono","no","18","no","white","no","yes","768","legacy","41","41","/Users/mihailcodreanu/Desktop/mc-subject-4.csv","legacy","Lentiform Loewenfeld","3.3.9","0","S","NA","caps lock","NA","NA","S","388","NA","44687","NA","NA","388","2","legacy","1024","2","48000","-16","experiment","SSSSS","4","even","116636","48021","NA","NA","89413","3322","NA","NA","117689","3330","NA","NA","117793","118181","117685","117793","Flanker task ","37","19798","42","yes","1024"
"88.37209302325581","88.37209302325581","469.6744186046512","469.6744186046512","black","legacy","legacy","legacy","0","congruent","uniform","1","undefined","1","h","42","0","0","0","42","0","42","0","42","0","0","0","42","42","42","42","Fri Sep 24 12:01:34 2021","1500","The main experiment item","yes","Flankertask.osexp","/Users/mihailcodreanu/Desktop","no","mono","no","18","no","white","no","yes","768","legacy","42","42","/Users/mihailcodreanu/Desktop/mc-subject-4.csv","legacy","Lentiform Loewenfeld","3.3.9","0","H","NA","caps lock","NA","NA","H","398","NA","44687","NA","NA","398","2","legacy","1024","2","48000","-16","experiment","HHHHH","4","even","118188","48021","NA","NA","89413","3322","NA","NA","119239","3330","NA","NA","119343","119741","119235","119343","Flanker task ","38","20196","43","yes","1024"
"88.63636363636364","88.63636363636364","467.6818181818182","467.6818181818182","black","legacy","legacy","legacy","0","congruent","uniform","1","undefined","1","s","43","0","0","0","43","0","43","0","43","0","0","0","43","43","43","43","Fri Sep 24 12:01:34 2021","1500","The main experiment item","yes","Flankertask.osexp","/Users/mihailcodreanu/Desktop","no","mono","no","18","no","white","no","yes","768","legacy","43","43","/Users/mihailcodreanu/Desktop/mc-subject-4.csv","legacy","Lentiform Loewenfeld","3.3.9","0","S","NA","caps lock","NA","NA","S","382","NA","44687","NA","NA","382","2","legacy","1024","2","48000","-16","experiment","SSSSS","4","even","119748","48021","NA","NA","89413","3322","NA","NA","120799","3330","NA","NA","120903","121286","120795","120903","Flanker task ","39","20578","44","yes","1024"
"88.88888888888889","88.88888888888889","469.26666666666665","469.26666666666665","black","legacy","legacy","legacy","0","congruent","uniform","1","undefined","1","h","44","0","0","0","44","0","44","0","44","0","0","0","44","44","44","44","Fri Sep 24 12:01:34 2021","1500","The main experiment item","yes","Flankertask.osexp","/Users/mihailcodreanu/Desktop","no","mono","no","18","no","white","no","yes","768","legacy","44","44","/Users/mihailcodreanu/Desktop/mc-subject-4.csv","legacy","Lentiform Loewenfeld","3.3.9","0","H","NA","caps lock","NA","NA","H","539","NA","44687","NA","NA","539","2","legacy","1024","2","48000","-16","experiment","HHHHH","4","even","121290","48021","NA","NA","89413","3322","NA","NA","122339","3330","NA","NA","122442","122981","122336","122442","Flanker task ","40","21117","45","yes","1024"
"89.1304347826087","89.1304347826087","467.2608695652174","467.2608695652174","black","legacy","legacy","legacy","0","congruent","uniform","1","undefined","1","s","45","0","0","0","45","0","45","0","45","0","0","0","45","45","45","45","Fri Sep 24 12:01:34 2021","1500","The main experiment item","yes","Flankertask.osexp","/Users/mihailcodreanu/Desktop","no","mono","no","18","no","white","no","yes","768","legacy","45","45","/Users/mihailcodreanu/Desktop/mc-subject-4.csv","legacy","Lentiform Loewenfeld","3.3.9","0","S","NA","caps lock","NA","NA","S","377","NA","44687","NA","NA","377","2","legacy","1024","2","48000","-16","experiment","SSSSS","4","even","122986","48021","NA","NA","89413","3322","NA","NA","124035","3330","NA","NA","124139","124517","124032","124139","Flanker task ","41","21494","46","yes","1024"
"89.36170212765957","89.36170212765957","465.29787234042556","465.29787234042556","black","legacy","legacy","legacy","0","congruent","uniform","1","undefined","1","s","46","0","0","0","46","0","46","0","46","0","0","0","46","46","46","46","Fri Sep 24 12:01:34 2021","1500","The main experiment item","yes","Flankertask.osexp","/Users/mihailcodreanu/Desktop","no","mono","no","18","no","white","no","yes","768","legacy","46","46","/Users/mihailcodreanu/Desktop/mc-subject-4.csv","legacy","Lentiform Loewenfeld","3.3.9","0","S","NA","caps lock","NA","NA","S","375","NA","44687","NA","NA","375","2","legacy","1024","2","48000","-16","experiment","SSSSS","4","even","124524","48021","NA","NA","89413","3322","NA","NA","125574","3330","NA","NA","125678","126053","125570","125678","Flanker task ","42","21869","47","yes","1024"
"89.58333333333333","89.58333333333333","462.9583333333333","462.9583333333333","black","legacy","legacy","legacy","0","congruent","uniform","1","undefined","1","s","47","0","0","0","47","0","47","0","47","0","0","0","47","47","47","47","Fri Sep 24 12:01:34 2021","1500","The main experiment item","yes","Flankertask.osexp","/Users/mihailcodreanu/Desktop","no","mono","no","18","no","white","no","yes","768","legacy","47","47","/Users/mihailcodreanu/Desktop/mc-subject-4.csv","legacy","Lentiform Loewenfeld","3.3.9","0","S","NA","caps lock","NA","NA","S","353","NA","44687","NA","NA","353","2","legacy","1024","2","48000","-16","experiment","SSSSS","4","even","126060","48021","NA","NA","89413","3322","NA","NA","127109","3330","NA","NA","127212","127566","127106","127212","Flanker task ","43","22222","48","yes","1024"
"89.79591836734694","89.79591836734694","462.7755102040816","462.7755102040816","black","legacy","legacy","legacy","0","incongruent","uniform","1","undefined","1","s","48","0","0","0","48","0","48","0","48","0","0","0","48","48","48","48","Fri Sep 24 12:01:34 2021","1500","The main experiment item","yes","Flankertask.osexp","/Users/mihailcodreanu/Desktop","no","mono","no","18","no","white","no","yes","768","legacy","48","48","/Users/mihailcodreanu/Desktop/mc-subject-4.csv","legacy","Lentiform Loewenfeld","3.3.9","0","S","NA","caps lock","NA","NA","S","454","NA","44687","NA","NA","454","2","legacy","1024","2","48000","-16","experiment","HHSHH","4","even","127573","48021","NA","NA","89413","3322","NA","NA","128623","3330","NA","NA","128727","129181","128620","128727","Flanker task ","44","22676","49","yes","1024"
"90","90","464.8","464.8","black","legacy","legacy","legacy","0","incongruent","uniform","1","undefined","1","s","49","0","0","0","49","0","49","0","49","0","0","0","49","49","49","49","Fri Sep 24 12:01:34 2021","1500","The main experiment item","yes","Flankertask.osexp","/Users/mihailcodreanu/Desktop","no","mono","no","18","no","white","no","yes","768","legacy","49","49","/Users/mihailcodreanu/Desktop/mc-subject-4.csv","legacy","Lentiform Loewenfeld","3.3.9","0","S","NA","caps lock","NA","NA","S","564","NA","44687","NA","NA","564","2","legacy","1024","2","48000","-16","experiment","HHSHH","4","even","129188","48021","NA","NA","89413","3322","NA","NA","130240","3330","NA","NA","130345","130909","130236","130345","Flanker task ","45","23240","50","yes","1024"
"90.19607843137256","90.19607843137256","462.7843137254902","462.7843137254902","black","legacy","legacy","legacy","0","incongruent","uniform","1","undefined","1","s","50","0","0","0","50","0","50","0","50","0","0","0","50","50","50","50","Fri Sep 24 12:01:34 2021","1500","The main experiment item","yes","Flankertask.osexp","/Users/mihailcodreanu/Desktop","no","mono","no","18","no","white","no","yes","768","legacy","50","50","/Users/mihailcodreanu/Desktop/mc-subject-4.csv","legacy","Lentiform Loewenfeld","3.3.9","0","S","NA","caps lock","NA","NA","S","362","NA","44687","NA","NA","362","2","legacy","1024","2","48000","-16","experiment","HHSHH","4","even","130922","48021","NA","NA","89413","3322","NA","NA","131971","3330","NA","NA","132075","132438","131967","132075","Flanker task ","46","23602","51","yes","1024"
"90.38461538461539","90.38461538461539","460.7692307692308","460.7692307692308","black","legacy","legacy","legacy","0","incongruent","uniform","1","undefined","1","s","51","0","0","0","51","0","51","0","51","0","0","0","51","51","51","51","Fri Sep 24 12:01:34 2021","1500","The main experiment item","yes","Flankertask.osexp","/Users/mihailcodreanu/Desktop","no","mono","no","18","no","white","no","yes","768","legacy","51","51","/Users/mihailcodreanu/Desktop/mc-subject-4.csv","legacy","Lentiform Loewenfeld","3.3.9","0","S","NA","caps lock","NA","NA","S","358","NA","44687","NA","NA","358","2","legacy","1024","2","48000","-16","experiment","HHSHH","4","even","132444","48021","NA","NA","89413","3322","NA","NA","133494","3330","NA","NA","133599","133957","133491","133598","Flanker task ","47","23960","52","yes","1024"
"90.56603773584905","90.56603773584905","458.62264150943395","458.62264150943395","black","legacy","legacy","legacy","0","incongruent","uniform","1","undefined","1","h","52","0","0","0","52","0","52","0","52","0","0","0","52","52","52","52","Fri Sep 24 12:01:34 2021","1500","The main experiment item","yes","Flankertask.osexp","/Users/mihailcodreanu/Desktop","no","mono","no","18","no","white","no","yes","768","legacy","52","52","/Users/mihailcodreanu/Desktop/mc-subject-4.csv","legacy","Lentiform Loewenfeld","3.3.9","0","H","NA","caps lock","NA","NA","H","347","NA","44687","NA","NA","347","2","legacy","1024","2","48000","-16","experiment","SSHSS","4","even","133965","48021","NA","NA","89413","3322","NA","NA","135017","3330","NA","NA","135122","135469","135013","135121","Flanker task ","48","24307","53","yes","1024"
"90.74074074074075","90.74074074074075","458","458","black","legacy","legacy","legacy","0","incongruent","uniform","1","undefined","1","h","53","0","0","0","53","0","53","0","53","0","0","0","53","53","53","53","Fri Sep 24 12:01:34 2021","1500","The main experiment item","yes","Flankertask.osexp","/Users/mihailcodreanu/Desktop","no","mono","no","18","no","white","no","yes","768","legacy","53","53","/Users/mihailcodreanu/Desktop/mc-subject-4.csv","legacy","Lentiform Loewenfeld","3.3.9","0","H","NA","caps lock","NA","NA","H","425","NA","44687","NA","NA","425","2","legacy","1024","2","48000","-16","experiment","SSHSS","4","even","135476","48021","NA","NA","89413","3322","NA","NA","136539","3330","NA","NA","136643","137070","136535","136643","Flanker task ","49","24732","54","yes","1024"
"90.9090909090909","90.9090909090909","455.8727272727273","455.8727272727273","black","legacy","legacy","legacy","0","incongruent","uniform","1","undefined","1","h","54","0","0","0","54","0","54","0","54","0","0","0","54","54","54","54","Fri Sep 24 12:01:34 2021","1500","The main experiment item","yes","Flankertask.osexp","/Users/mihailcodreanu/Desktop","no","mono","no","18","no","white","no","yes","768","legacy","54","54","/Users/mihailcodreanu/Desktop/mc-subject-4.csv","legacy","Lentiform Loewenfeld","3.3.9","0","H","NA","caps lock","NA","NA","H","341","NA","44687","NA","NA","341","2","legacy","1024","2","48000","-16","experiment","SSHSS","4","even","137076","48021","NA","NA","89413","3322","NA","NA","138128","3330","NA","NA","138232","138573","138124","138232","Flanker task ","50","25073","55","yes","1024"
"91.07142857142857","91.07142857142857","453.82142857142856","453.82142857142856","black","legacy","legacy","legacy","0","congruent","uniform","1","undefined","1","s","55","0","0","0","55","0","55","0","55","0","0","0","55","55","55","55","Fri Sep 24 12:01:34 2021","1500","The main experiment item","yes","Flankertask.osexp","/Users/mihailcodreanu/Desktop","no","mono","no","18","no","white","no","yes","768","legacy","55","55","/Users/mihailcodreanu/Desktop/mc-subject-4.csv","legacy","Lentiform Loewenfeld","3.3.9","0","S","NA","caps lock","NA","NA","S","341","NA","44687","NA","NA","341","2","legacy","1024","2","48000","-16","experiment","SSSSS","4","even","138580","48021","NA","NA","89413","3322","NA","NA","139631","3330","NA","NA","139736","140077","139627","139735","Flanker task ","51","25414","56","yes","1024"
"91.2280701754386","91.2280701754386","455.7719298245614","455.7719298245614","black","legacy","legacy","legacy","0","incongruent","uniform","1","undefined","1","s","56","0","0","0","56","0","56","0","56","0","0","0","56","56","56","56","Fri Sep 24 12:01:34 2021","1500","The main experiment item","yes","Flankertask.osexp","/Users/mihailcodreanu/Desktop","no","mono","no","18","no","white","no","yes","768","legacy","56","56","/Users/mihailcodreanu/Desktop/mc-subject-4.csv","legacy","Lentiform Loewenfeld","3.3.9","0","S","NA","caps lock","NA","NA","S","565","NA","44687","NA","NA","565","2","legacy","1024","2","48000","-16","experiment","HHSHH","4","even","140084","48021","NA","NA","89413","3322","NA","NA","141135","3330","NA","NA","141239","141805","141132","141239","Flanker task ","52","25979","57","yes","1024"
"91.37931034482759","91.37931034482759","454.08620689655174","454.08620689655174","black","legacy","legacy","legacy","0","congruent","uniform","1","undefined","1","s","57","0","0","0","57","0","57","0","57","0","0","0","57","57","57","57","Fri Sep 24 12:01:34 2021","1500","The main experiment item","yes","Flankertask.osexp","/Users/mihailcodreanu/Desktop","no","mono","no","18","no","white","no","yes","768","legacy","57","57","/Users/mihailcodreanu/Desktop/mc-subject-4.csv","legacy","Lentiform Loewenfeld","3.3.9","0","S","NA","caps lock","NA","NA","S","358","NA","44687","NA","NA","358","2","legacy","1024","2","48000","-16","experiment","SSSSS","4","even","141812","48021","NA","NA","89413","3322","NA","NA","142862","3330","NA","NA","142967","143326","142859","142966","Flanker task ","53","26337","58","yes","1024"
"91.52542372881356","91.52542372881356","455.59322033898303","455.59322033898303","black","legacy","legacy","legacy","0","incongruent","uniform","1","undefined","1","h","58","0","0","0","58","0","58","0","58","0","0","0","58","58","58","58","Fri Sep 24 12:01:34 2021","1500","The main experiment item","yes","Flankertask.osexp","/Users/mihailcodreanu/Desktop","no","mono","no","18","no","white","no","yes","768","legacy","58","58","/Users/mihailcodreanu/Desktop/mc-subject-4.csv","legacy","Lentiform Loewenfeld","3.3.9","0","H","NA","caps lock","NA","NA","H","543","NA","44687","NA","NA","543","2","legacy","1024","2","48000","-16","experiment","SSHSS","4","even","143330","48021","NA","NA","89413","3322","NA","NA","144383","3330","NA","NA","144486","145029","144379","144486","Flanker task ","54","26880","59","yes","1024"
"91.66666666666667","91.66666666666667","454.5833333333333","454.5833333333333","black","legacy","legacy","legacy","0","congruent","uniform","1","undefined","1","h","59","0","0","0","59","0","59","0","59","0","0","0","59","59","59","59","Fri Sep 24 12:01:34 2021","1500","The main experiment item","yes","Flankertask.osexp","/Users/mihailcodreanu/Desktop","no","mono","no","18","no","white","no","yes","768","legacy","59","59","/Users/mihailcodreanu/Desktop/mc-subject-4.csv","legacy","Lentiform Loewenfeld","3.3.9","0","H","NA","caps lock","NA","NA","H","395","NA","44687","NA","NA","395","2","legacy","1024","2","48000","-16","experiment","HHHHH","4","even","145037","48021","NA","NA","89413","3322","NA","NA","146090","3330","NA","NA","146194","146589","146086","146194","Flanker task ","55","27275","60","yes","1024"
"91.80327868852459","91.80327868852459","452.7049180327869","452.7049180327869","black","legacy","legacy","legacy","0","congruent","uniform","1","undefined","1","h","60","0","0","0","60","0","60","0","60","0","0","0","60","60","60","60","Fri Sep 24 12:01:34 2021","1500","The main experiment item","yes","Flankertask.osexp","/Users/mihailcodreanu/Desktop","no","mono","no","18","no","white","no","yes","768","legacy","60","60","/Users/mihailcodreanu/Desktop/mc-subject-4.csv","legacy","Lentiform Loewenfeld","3.3.9","0","H","NA","caps lock","NA","NA","H","340","NA","44687","NA","NA","340","2","legacy","1024","2","48000","-16","experiment","HHHHH","4","even","146596","48021","NA","NA","89413","3322","NA","NA","147648","3330","NA","NA","147753","148094","147645","147753","Flanker task ","56","27615","61","yes","1024"
"91.93548387096774","91.93548387096774","451.64516129032256","451.64516129032256","black","legacy","legacy","legacy","0","congruent","uniform","1","undefined","1","s","61","0","0","0","61","0","61","0","61","0","0","0","61","61","61","61","Fri Sep 24 12:01:34 2021","1500","The main experiment item","yes","Flankertask.osexp","/Users/mihailcodreanu/Desktop","no","mono","no","18","no","white","no","yes","768","legacy","61","61","/Users/mihailcodreanu/Desktop/mc-subject-4.csv","legacy","Lentiform Loewenfeld","3.3.9","0","S","NA","caps lock","NA","NA","S","387","NA","44687","NA","NA","387","2","legacy","1024","2","48000","-16","experiment","SSSSS","4","even","148100","48021","NA","NA","89413","3322","NA","NA","149153","3330","NA","NA","149258","149645","149149","149257","Flanker task ","57","28002","62","yes","1024"
"92.06349206349206","92.06349206349206","450.26984126984127","450.26984126984127","black","legacy","legacy","legacy","0","incongruent","uniform","1","undefined","1","h","62","0","0","0","62","0","62","0","62","0","0","0","62","62","62","62","Fri Sep 24 12:01:34 2021","1500","The main experiment item","yes","Flankertask.osexp","/Users/mihailcodreanu/Desktop","no","mono","no","18","no","white","no","yes","768","legacy","62","62","/Users/mihailcodreanu/Desktop/mc-subject-4.csv","legacy","Lentiform Loewenfeld","3.3.9","0","H","NA","caps lock","NA","NA","H","365","NA","44687","NA","NA","365","2","legacy","1024","2","48000","-16","experiment","SSHSS","4","even","149652","48021","NA","NA","89413","3322","NA","NA","150704","3330","NA","NA","150807","151173","150701","150807","Flanker task ","58","28367","63","yes","1024"
"92.1875","92.1875","449.9375","449.9375","black","legacy","legacy","legacy","0","congruent","uniform","1","undefined","1","h","63","0","0","0","63","0","63","0","63","0","0","0","63","63","63","63","Fri Sep 24 12:01:34 2021","1500","The main experiment item","yes","Flankertask.osexp","/Users/mihailcodreanu/Desktop","no","mono","no","18","no","white","no","yes","768","legacy","63","63","/Users/mihailcodreanu/Desktop/mc-subject-4.csv","legacy","Lentiform Loewenfeld","3.3.9","0","H","NA","caps lock","NA","NA","H","429","NA","44687","NA","NA","429","2","legacy","1024","2","48000","-16","experiment","HHHHH","4","even","151180","48021","NA","NA","89413","3322","NA","NA","152232","3330","NA","NA","152336","152765","152229","152336","Flanker task ","59","28796","64","yes","1024"
"92.3076923076923","92.3076923076923","447.8615384615385","447.8615384615385","black","legacy","legacy","legacy","0","congruent","uniform","1","undefined","1","h","64","0","0","0","64","0","64","0","64","0","0","0","64","64","64","64","Fri Sep 24 12:01:34 2021","1500","The main experiment item","yes","Flankertask.osexp","/Users/mihailcodreanu/Desktop","no","mono","no","18","no","white","no","yes","768","legacy","64","64","/Users/mihailcodreanu/Desktop/mc-subject-4.csv","legacy","Lentiform Loewenfeld","3.3.9","0","H","NA","caps lock","NA","NA","H","315","NA","44687","NA","NA","315","2","legacy","1024","2","48000","-16","experiment","HHHHH","4","even","152771","48021","NA","NA","89413","3322","NA","NA","153824","3330","NA","NA","153929","154245","153821","153929","Flanker task ","60","29111","65","yes","1024"
"92.42424242424242","92.42424242424242","447.8181818181818","447.8181818181818","black","legacy","legacy","legacy","0","incongruent","uniform","1","undefined","1","h","65","0","0","0","65","0","65","0","65","0","0","0","65","65","65","65","Fri Sep 24 12:01:34 2021","1500","The main experiment item","yes","Flankertask.osexp","/Users/mihailcodreanu/Desktop","no","mono","no","18","no","white","no","yes","768","legacy","65","65","/Users/mihailcodreanu/Desktop/mc-subject-4.csv","legacy","Lentiform Loewenfeld","3.3.9","0","H","NA","caps lock","NA","NA","H","445","NA","44687","NA","NA","445","2","legacy","1024","2","48000","-16","experiment","SSHSS","4","even","154252","48021","NA","NA","89413","3322","NA","NA","155303","3330","NA","NA","155407","155853","155299","155407","Flanker task ","61","29556","66","yes","1024"
"91.04477611940298","91.04477611940298","446.3731343283582","446.3731343283582","black","legacy","legacy","legacy","0","incongruent","uniform","0","undefined","0","h","66","0","0","0","66","0","66","0","66","0","0","0","66","66","66","66","Fri Sep 24 12:01:34 2021","1500","The main experiment item","yes","Flankertask.osexp","/Users/mihailcodreanu/Desktop","no","mono","no","18","no","white","no","yes","768","legacy","66","66","/Users/mihailcodreanu/Desktop/mc-subject-4.csv","legacy","Lentiform Loewenfeld","3.3.9","0","S","NA","caps lock","NA","NA","S","351","NA","44687","NA","NA","351","2","legacy","1024","2","48000","-16","experiment","SSHSS","4","even","155860","48021","NA","NA","89413","3322","NA","NA","156910","3330","NA","NA","157014","157365","156907","157014","Flanker task ","61","29907","67","yes","1024"
"91.17647058823529","91.17647058823529","447","447","black","legacy","legacy","legacy","0","incongruent","uniform","1","undefined","1","s","67","0","0","0","67","0","67","0","67","0","0","0","67","67","67","67","Fri Sep 24 12:01:34 2021","1500","The main experiment item","yes","Flankertask.osexp","/Users/mihailcodreanu/Desktop","no","mono","no","18","no","white","no","yes","768","legacy","67","67","/Users/mihailcodreanu/Desktop/mc-subject-4.csv","legacy","Lentiform Loewenfeld","3.3.9","0","S","NA","caps lock","NA","NA","S","489","NA","44687","NA","NA","489","2","legacy","1024","2","48000","-16","experiment","HHSHH","4","even","157877","48021","NA","NA","157373","3322","NA","NA","158932","3330","NA","NA","159036","159525","158929","159036","Flanker task ","62","30396","68","yes","1024"
"91.30434782608695","91.30434782608695","446.18840579710144","446.18840579710144","black","legacy","legacy","legacy","0","incongruent","uniform","1","undefined","1","h","68","0","0","0","68","0","68","0","68","0","0","0","68","68","68","68","Fri Sep 24 12:01:34 2021","1500","The main experiment item","yes","Flankertask.osexp","/Users/mihailcodreanu/Desktop","no","mono","no","18","no","white","no","yes","768","legacy","68","68","/Users/mihailcodreanu/Desktop/mc-subject-4.csv","legacy","Lentiform Loewenfeld","3.3.9","0","H","NA","caps lock","NA","NA","H","391","NA","44687","NA","NA","391","2","legacy","1024","2","48000","-16","experiment","SSHSS","4","even","159532","48021","NA","NA","157373","3322","NA","NA","160582","3330","NA","NA","160686","161077","160578","160686","Flanker task ","63","30787","69","yes","1024"
"91.42857142857143","91.42857142857143","445.72857142857146","445.72857142857146","black","legacy","legacy","legacy","0","incongruent","uniform","1","undefined","1","h","69","0","0","0","69","0","69","0","69","0","0","0","69","69","69","69","Fri Sep 24 12:01:34 2021","1500","The main experiment item","yes","Flankertask.osexp","/Users/mihailcodreanu/Desktop","no","mono","no","18","no","white","no","yes","768","legacy","69","69","/Users/mihailcodreanu/Desktop/mc-subject-4.csv","legacy","Lentiform Loewenfeld","3.3.9","0","H","NA","caps lock","NA","NA","H","414","NA","44687","NA","NA","414","2","legacy","1024","2","48000","-16","experiment","SSHSS","4","even","161085","48021","NA","NA","157373","3322","NA","NA","162135","3330","NA","NA","162239","162654","162132","162239","Flanker task ","64","31201","70","yes","1024"
"91.54929577464789","91.54929577464789","445.6619718309859","445.6619718309859","black","legacy","legacy","legacy","0","congruent","uniform","1","undefined","1","s","70","0","0","0","70","0","70","0","70","0","0","0","70","70","70","70","Fri Sep 24 12:01:34 2021","1500","The main experiment item","yes","Flankertask.osexp","/Users/mihailcodreanu/Desktop","no","mono","no","18","no","white","no","yes","768","legacy","70","70","/Users/mihailcodreanu/Desktop/mc-subject-4.csv","legacy","Lentiform Loewenfeld","3.3.9","0","S","NA","caps lock","NA","NA","S","441","NA","44687","NA","NA","441","2","legacy","1024","2","48000","-16","experiment","SSSSS","4","even","162658","48021","NA","NA","157373","3322","NA","NA","163708","3330","NA","NA","163812","164253","163704","163812","Flanker task ","65","31642","71","yes","1024"
"91.66666666666667","91.66666666666667","444.8888888888889","444.8888888888889","black","legacy","legacy","legacy","0","congruent","uniform","1","undefined","1","s","71","0","0","0","71","0","71","0","71","0","0","0","71","71","71","71","Fri Sep 24 12:01:34 2021","1500","The main experiment item","yes","Flankertask.osexp","/Users/mihailcodreanu/Desktop","no","mono","no","18","no","white","no","yes","768","legacy","71","71","/Users/mihailcodreanu/Desktop/mc-subject-4.csv","legacy","Lentiform Loewenfeld","3.3.9","0","S","NA","caps lock","NA","NA","S","390","NA","44687","NA","NA","390","2","legacy","1024","2","48000","-16","experiment","SSSSS","4","even","164260","48021","NA","NA","157373","3322","NA","NA","165311","3330","NA","NA","165415","165806","165308","165415","Flanker task ","66","32032","72","yes","1024"
"91.78082191780823","91.78082191780823","446.1917808219178","446.1917808219178","black","legacy","legacy","legacy","0","incongruent","uniform","1","undefined","1","s","72","0","0","0","72","0","72","0","72","0","0","0","72","72","72","72","Fri Sep 24 12:01:34 2021","1500","The main experiment item","yes","Flankertask.osexp","/Users/mihailcodreanu/Desktop","no","mono","no","18","no","white","no","yes","768","legacy","72","72","/Users/mihailcodreanu/Desktop/mc-subject-4.csv","legacy","Lentiform Loewenfeld","3.3.9","0","S","NA","caps lock","NA","NA","S","540","NA","44687","NA","NA","540","2","legacy","1024","2","48000","-16","experiment","HHSHH","4","even","165812","48021","NA","NA","157373","3322","NA","NA","166863","3330","NA","NA","166968","167509","166860","166967","Flanker task ","67","32572","73","yes","1024"
"91.89189189189189","91.89189189189189","445.7162162162162","445.7162162162162","black","legacy","legacy","legacy","0","incongruent","uniform","1","undefined","1","h","73","0","0","0","73","0","73","0","73","0","0","0","73","73","73","73","Fri Sep 24 12:01:34 2021","1500","The main experiment item","yes","Flankertask.osexp","/Users/mihailcodreanu/Desktop","no","mono","no","18","no","white","no","yes","768","legacy","73","73","/Users/mihailcodreanu/Desktop/mc-subject-4.csv","legacy","Lentiform Loewenfeld","3.3.9","0","H","NA","caps lock","NA","NA","H","411","NA","44687","NA","NA","411","2","legacy","1024","2","48000","-16","experiment","SSHSS","4","even","167516","48021","NA","NA","157373","3322","NA","NA","168569","3330","NA","NA","168673","169085","168565","168673","Flanker task ","68","32983","74","yes","1024"
"92","92","444.92","444.92","black","legacy","legacy","legacy","0","congruent","uniform","1","undefined","1","h","74","0","0","0","74","0","74","0","74","0","0","0","74","74","74","74","Fri Sep 24 12:01:34 2021","1500","The main experiment item","yes","Flankertask.osexp","/Users/mihailcodreanu/Desktop","no","mono","no","18","no","white","no","yes","768","legacy","74","74","/Users/mihailcodreanu/Desktop/mc-subject-4.csv","legacy","Lentiform Loewenfeld","3.3.9","0","H","NA","caps lock","NA","NA","H","386","NA","44687","NA","NA","386","2","legacy","1024","2","48000","-16","experiment","HHHHH","4","even","169092","48021","NA","NA","157373","3322","NA","NA","170145","3330","NA","NA","170250","170637","170141","170249","Flanker task ","69","33369","75","yes","1024"
"92.10526315789474","92.10526315789474","443.9868421052632","443.9868421052632","black","legacy","legacy","legacy","0","congruent","uniform","1","undefined","1","h","75","0","0","0","75","0","75","0","75","0","0","0","75","75","75","75","Fri Sep 24 12:01:34 2021","1500","The main experiment item","yes","Flankertask.osexp","/Users/mihailcodreanu/Desktop","no","mono","no","18","no","white","no","yes","768","legacy","75","75","/Users/mihailcodreanu/Desktop/mc-subject-4.csv","legacy","Lentiform Loewenfeld","3.3.9","0","H","NA","caps lock","NA","NA","H","374","NA","44687","NA","NA","374","2","legacy","1024","2","48000","-16","experiment","HHHHH","4","even","170645","48021","NA","NA","157373","3322","NA","NA","171696","3330","NA","NA","171799","172174","171692","171799","Flanker task ","70","33743","76","yes","1024"
"92.20779220779221","92.20779220779221","443.38961038961037","443.38961038961037","black","legacy","legacy","legacy","0","incongruent","uniform","1","undefined","1","s","76","0","0","0","76","0","76","0","76","0","0","0","76","76","76","76","Fri Sep 24 12:01:34 2021","1500","The main experiment item","yes","Flankertask.osexp","/Users/mihailcodreanu/Desktop","no","mono","no","18","no","white","no","yes","768","legacy","76","76","/Users/mihailcodreanu/Desktop/mc-subject-4.csv","legacy","Lentiform Loewenfeld","3.3.9","0","S","NA","caps lock","NA","NA","S","398","NA","44687","NA","NA","398","2","legacy","1024","2","48000","-16","experiment","HHSHH","4","even","172181","48021","NA","NA","157373","3322","NA","NA","173231","3330","NA","NA","173335","173733","173228","173335","Flanker task ","71","34141","77","yes","1024"
"92.3076923076923","92.3076923076923","442.20512820512823","442.20512820512823","black","legacy","legacy","legacy","0","incongruent","uniform","1","undefined","1","s","77","0","0","0","77","0","77","0","77","0","0","0","77","77","77","77","Fri Sep 24 12:01:34 2021","1500","The main experiment item","yes","Flankertask.osexp","/Users/mihailcodreanu/Desktop","no","mono","no","18","no","white","no","yes","768","legacy","77","77","/Users/mihailcodreanu/Desktop/mc-subject-4.csv","legacy","Lentiform Loewenfeld","3.3.9","0","S","NA","caps lock","NA","NA","S","351","NA","44687","NA","NA","351","2","legacy","1024","2","48000","-16","experiment","HHSHH","4","even","173740","48021","NA","NA","157373","3322","NA","NA","174790","3330","NA","NA","174894","175246","174786","174894","Flanker task ","72","34492","78","yes","1024"
"92.40506329113924","92.40506329113924","442.1392405063291","442.1392405063291","black","legacy","legacy","legacy","0","incongruent","uniform","1","undefined","1","s","78","0","0","0","78","0","78","0","78","0","0","0","78","78","78","78","Fri Sep 24 12:01:34 2021","1500","The main experiment item","yes","Flankertask.osexp","/Users/mihailcodreanu/Desktop","no","mono","no","18","no","white","no","yes","768","legacy","78","78","/Users/mihailcodreanu/Desktop/mc-subject-4.csv","legacy","Lentiform Loewenfeld","3.3.9","0","S","NA","caps lock","NA","NA","S","437","NA","44687","NA","NA","437","2","legacy","1024","2","48000","-16","experiment","HHSHH","4","even","175252","48021","NA","NA","157373","3322","NA","NA","176304","3330","NA","NA","176408","176845","176300","176408","Flanker task ","73","34929","79","yes","1024"
"92.5","92.5","441.4875","441.4875","black","legacy","legacy","legacy","0","congruent","uniform","1","undefined","1","h","79","0","0","0","79","0","79","0","79","0","0","0","79","79","79","79","Fri Sep 24 12:01:34 2021","1500","The main experiment item","yes","Flankertask.osexp","/Users/mihailcodreanu/Desktop","no","mono","no","18","no","white","no","yes","768","legacy","79","79","/Users/mihailcodreanu/Desktop/mc-subject-4.csv","legacy","Lentiform Loewenfeld","3.3.9","0","H","NA","caps lock","NA","NA","H","390","NA","44687","NA","NA","390","2","legacy","1024","2","48000","-16","experiment","HHHHH","4","even","176853","48021","NA","NA","157373","3322","NA","NA","177902","3330","NA","NA","178007","178398","177899","178007","Flanker task ","74","35319","80","yes","1024"
"92.5925925925926","92.5925925925926","445.08641975308643","445.08641975308643","black","legacy","legacy","legacy","0","incongruent","uniform","1","undefined","1","h","80","0","0","0","80","0","80","0","80","0","0","0","80","80","80","80","Fri Sep 24 12:01:34 2021","600","The main experiment item","yes","Flankertask.osexp","/Users/mihailcodreanu/Desktop","no","mono","no","18","no","white","no","yes","768","legacy","0","79","/Users/mihailcodreanu/Desktop/mc-subject-4.csv","legacy","Lentiform Loewenfeld","3.3.9","0","H","NA","caps lock","return","NA","H","733","NA","44687","35543","NA","733","2","legacy","1024","2","48000","-16","experiment","SSHSS","4","even","178405","48021","214974","NA","157373","3322","NA","NA","215008","3330","179430","NA","215112","215845","215004","215112","Flanker task ","75","36052","81","yes","1024"
"92.6829268292683","92.6829268292683","443.5365853658537","443.5365853658537","black","legacy","legacy","legacy","0","congruent","uniform","1","undefined","1","h","81","0","0","0","81","0","81","0","81","0","0","0","81","81","81","81","Fri Sep 24 12:01:34 2021","600","The main experiment item","yes","Flankertask.osexp","/Users/mihailcodreanu/Desktop","no","mono","no","18","no","white","no","yes","768","legacy","1","79","/Users/mihailcodreanu/Desktop/mc-subject-4.csv","legacy","Lentiform Loewenfeld","3.3.9","0","H","NA","caps lock","return","NA","H","318","NA","44687","35543","NA","318","2","legacy","1024","2","48000","-16","experiment","HHHHH","4","even","216356","48021","214974","NA","157373","3322","215852","NA","217407","3330","179430","NA","217511","217829","217403","217511","Flanker task ","76","36370","82","yes","1024"
"91.56626506024097","91.56626506024097","442.31325301204816","442.31325301204816","black","legacy","legacy","legacy","0","incongruent","uniform","0","undefined","0","s","82","0","0","0","82","0","82","0","82","0","0","0","82","82","82","82","Fri Sep 24 12:01:34 2021","600","The main experiment item","yes","Flankertask.osexp","/Users/mihailcodreanu/Desktop","no","mono","no","18","no","white","no","yes","768","legacy","2","79","/Users/mihailcodreanu/Desktop/mc-subject-4.csv","legacy","Lentiform Loewenfeld","3.3.9","0","H","NA","caps lock","return","NA","H","342","NA","44687","35543","NA","342","2","legacy","1024","2","48000","-16","experiment","HHSHH","4","even","217836","48021","214974","NA","157373","3322","215852","NA","218886","3330","179430","NA","218990","219333","218882","218990","Flanker task ","76","36712","83","yes","1024"
"91.66666666666667","91.66666666666667","441.1309523809524","441.1309523809524","black","legacy","legacy","legacy","0","congruent","uniform","1","undefined","1","s","83","0","0","0","83","0","83","0","83","0","0","0","83","83","83","83","Fri Sep 24 12:01:34 2021","600","The main experiment item","yes","Flankertask.osexp","/Users/mihailcodreanu/Desktop","no","mono","no","18","no","white","no","yes","768","legacy","3","79","/Users/mihailcodreanu/Desktop/mc-subject-4.csv","legacy","Lentiform Loewenfeld","3.3.9","0","S","NA","caps lock","return","NA","S","343","NA","44687","35543","NA","343","2","legacy","1024","2","48000","-16","experiment","SSSSS","4","even","219844","48021","214974","NA","219340","3322","215852","NA","220894","3330","179430","NA","220998","221342","220891","220998","Flanker task ","77","37055","84","yes","1024"
"91.76470588235294","91.76470588235294","440.11764705882354","440.11764705882354","black","legacy","legacy","legacy","0","incongruent","uniform","1","undefined","1","s","84","0","0","0","84","0","84","0","84","0","0","0","84","84","84","84","Fri Sep 24 12:01:34 2021","600","The main experiment item","yes","Flankertask.osexp","/Users/mihailcodreanu/Desktop","no","mono","no","18","no","white","no","yes","768","legacy","4","79","/Users/mihailcodreanu/Desktop/mc-subject-4.csv","legacy","Lentiform Loewenfeld","3.3.9","0","S","NA","caps lock","return","NA","S","355","NA","44687","35543","NA","355","2","legacy","1024","2","48000","-16","experiment","HHSHH","4","even","221348","48021","214974","NA","219340","3322","215852","NA","222400","3330","179430","NA","222505","222861","222396","222504","Flanker task ","78","37410","85","yes","1024"
"91.86046511627907","91.86046511627907","440.36046511627904","440.36046511627904","black","legacy","legacy","legacy","0","incongruent","uniform","1","undefined","1","h","85","0","0","0","85","0","85","0","85","0","0","0","85","85","85","85","Fri Sep 24 12:01:34 2021","600","The main experiment item","yes","Flankertask.osexp","/Users/mihailcodreanu/Desktop","no","mono","no","18","no","white","no","yes","768","legacy","5","79","/Users/mihailcodreanu/Desktop/mc-subject-4.csv","legacy","Lentiform Loewenfeld","3.3.9","0","H","NA","caps lock","return","NA","H","461","NA","44687","35543","NA","461","2","legacy","1024","2","48000","-16","experiment","SSHSS","4","even","222868","48021","214974","NA","219340","3322","215852","NA","223919","3330","179430","NA","224023","224485","223915","224023","Flanker task ","79","37871","86","yes","1024"
"91.95402298850574","91.95402298850574","440.41379310344826","440.41379310344826","black","legacy","legacy","legacy","0","incongruent","uniform","1","undefined","1","h","86","0","0","0","86","0","86","0","86","0","0","0","86","86","86","86","Fri Sep 24 12:01:34 2021","600","The main experiment item","yes","Flankertask.osexp","/Users/mihailcodreanu/Desktop","no","mono","no","18","no","white","no","yes","768","legacy","6","79","/Users/mihailcodreanu/Desktop/mc-subject-4.csv","legacy","Lentiform Loewenfeld","3.3.9","0","H","NA","caps lock","return","NA","H","445","NA","44687","35543","NA","445","2","legacy","1024","2","48000","-16","experiment","SSHSS","4","even","224492","48021","214974","NA","219340","3322","215852","NA","225543","3330","179430","NA","225647","226093","225539","225647","Flanker task ","80","38316","87","yes","1024"
"92.04545454545455","92.04545454545455","440.3636363636364","440.3636363636364","black","legacy","legacy","legacy","0","incongruent","uniform","1","undefined","1","h","87","0","0","0","87","0","87","0","87","0","0","0","87","87","87","87","Fri Sep 24 12:01:34 2021","600","The main experiment item","yes","Flankertask.osexp","/Users/mihailcodreanu/Desktop","no","mono","no","18","no","white","no","yes","768","legacy","7","79","/Users/mihailcodreanu/Desktop/mc-subject-4.csv","legacy","Lentiform Loewenfeld","3.3.9","0","H","NA","caps lock","return","NA","H","436","NA","44687","35543","NA","436","2","legacy","1024","2","48000","-16","experiment","SSHSS","4","even","226101","48021","214974","NA","219340","3322","215852","NA","227153","3330","179430","NA","227257","227694","227149","227257","Flanker task ","81","38752","88","yes","1024"
"92.13483146067416","92.13483146067416","439.0449438202247","439.0449438202247","black","legacy","legacy","legacy","0","congruent","uniform","1","undefined","1","h","88","0","0","0","88","0","88","0","88","0","0","0","88","88","88","88","Fri Sep 24 12:01:34 2021","600","The main experiment item","yes","Flankertask.osexp","/Users/mihailcodreanu/Desktop","no","mono","no","18","no","white","no","yes","768","legacy","8","79","/Users/mihailcodreanu/Desktop/mc-subject-4.csv","legacy","Lentiform Loewenfeld","3.3.9","0","H","NA","caps lock","return","NA","H","323","NA","44687","35543","NA","323","2","legacy","1024","2","48000","-16","experiment","HHHHH","4","even","227700","48021","214974","NA","219340","3322","215852","NA","228753","3330","179430","NA","228857","229181","228749","228857","Flanker task ","82","39075","89","yes","1024"
"92.22222222222223","92.22222222222223","438.3222222222222","438.3222222222222","black","legacy","legacy","legacy","0","congruent","uniform","1","undefined","1","s","89","0","0","0","89","0","89","0","89","0","0","0","89","89","89","89","Fri Sep 24 12:01:34 2021","600","The main experiment item","yes","Flankertask.osexp","/Users/mihailcodreanu/Desktop","no","mono","no","18","no","white","no","yes","768","legacy","9","79","/Users/mihailcodreanu/Desktop/mc-subject-4.csv","legacy","Lentiform Loewenfeld","3.3.9","0","S","NA","caps lock","return","NA","S","374","NA","44687","35543","NA","374","2","legacy","1024","2","48000","-16","experiment","SSSSS","4","even","229189","48021","214974","NA","219340","3322","215852","NA","230239","3330","179430","NA","230343","230718","230235","230343","Flanker task ","83","39449","90","yes","1024"
"92.3076923076923","92.3076923076923","437.35164835164835","437.35164835164835","black","legacy","legacy","legacy","0","congruent","uniform","1","undefined","1","s","90","0","0","0","90","0","90","0","90","0","0","0","90","90","90","90","Fri Sep 24 12:01:34 2021","600","The main experiment item","yes","Flankertask.osexp","/Users/mihailcodreanu/Desktop","no","mono","no","18","no","white","no","yes","768","legacy","10","79","/Users/mihailcodreanu/Desktop/mc-subject-4.csv","legacy","Lentiform Loewenfeld","3.3.9","0","S","NA","caps lock","return","NA","S","350","NA","44687","35543","NA","350","2","legacy","1024","2","48000","-16","experiment","SSSSS","4","even","230724","48021","214974","NA","219340","3322","215852","NA","231774","3330","179430","NA","231878","232229","231770","231878","Flanker task ","84","39799","91","yes","1024"
"92.3913043478261","92.3913043478261","436.4130434782609","436.4130434782609","black","legacy","legacy","legacy","0","congruent","uniform","1","undefined","1","s","91","0","0","0","91","0","91","0","91","0","0","0","91","91","91","91","Fri Sep 24 12:01:34 2021","600","The main experiment item","yes","Flankertask.osexp","/Users/mihailcodreanu/Desktop","no","mono","no","18","no","white","no","yes","768","legacy","11","79","/Users/mihailcodreanu/Desktop/mc-subject-4.csv","legacy","Lentiform Loewenfeld","3.3.9","0","S","NA","caps lock","return","NA","S","351","NA","44687","35543","NA","351","2","legacy","1024","2","48000","-16","experiment","SSSSS","4","even","232236","48021","214974","NA","219340","3322","215852","NA","233285","3330","179430","NA","233390","233742","233282","233390","Flanker task ","85","40150","92","yes","1024"
"92.47311827956989","92.47311827956989","435.2258064516129","435.2258064516129","black","legacy","legacy","legacy","0","congruent","uniform","1","undefined","1","h","92","0","0","0","92","0","92","0","92","0","0","0","92","92","92","92","Fri Sep 24 12:01:34 2021","600","The main experiment item","yes","Flankertask.osexp","/Users/mihailcodreanu/Desktop","no","mono","no","18","no","white","no","yes","768","legacy","12","79","/Users/mihailcodreanu/Desktop/mc-subject-4.csv","legacy","Lentiform Loewenfeld","3.3.9","0","H","NA","caps lock","return","NA","H","326","NA","44687","35543","NA","326","2","legacy","1024","2","48000","-16","experiment","HHHHH","4","even","233748","48021","214974","NA","219340","3322","215852","NA","234798","3330","179430","NA","234902","235229","234795","234902","Flanker task ","86","40476","93","yes","1024"
"92.55319148936171","92.55319148936171","434.86170212765956","434.86170212765956","black","legacy","legacy","legacy","0","incongruent","uniform","1","undefined","1","s","93","0","0","0","93","0","93","0","93","0","0","0","93","93","93","93","Fri Sep 24 12:01:34 2021","600","The main experiment item","yes","Flankertask.osexp","/Users/mihailcodreanu/Desktop","no","mono","no","18","no","white","no","yes","768","legacy","13","79","/Users/mihailcodreanu/Desktop/mc-subject-4.csv","legacy","Lentiform Loewenfeld","3.3.9","0","S","NA","caps lock","return","NA","S","401","NA","44687","35543","NA","401","2","legacy","1024","2","48000","-16","experiment","HHSHH","4","even","235236","48021","214974","NA","219340","3322","215852","NA","236290","3330","179430","NA","236395","236797","236287","236395","Flanker task ","87","40877","94","yes","1024"
"92.63157894736842","92.63157894736842","433.81052631578945","433.81052631578945","black","legacy","legacy","legacy","0","congruent","uniform","1","undefined","1","s","94","0","0","0","94","0","94","0","94","0","0","0","94","94","94","94","Fri Sep 24 12:01:34 2021","600","The main experiment item","yes","Flankertask.osexp","/Users/mihailcodreanu/Desktop","no","mono","no","18","no","white","no","yes","768","legacy","14","79","/Users/mihailcodreanu/Desktop/mc-subject-4.csv","legacy","Lentiform Loewenfeld","3.3.9","0","S","NA","caps lock","return","NA","S","335","NA","44687","35543","NA","335","2","legacy","1024","2","48000","-16","experiment","SSSSS","4","even","236804","48021","214974","NA","219340","3322","215852","NA","237854","3330","179430","NA","237958","238294","237850","237958","Flanker task ","88","41212","95","yes","1024"
"92.70833333333333","92.70833333333333","432.7395833333333","432.7395833333333","black","legacy","legacy","legacy","0","congruent","uniform","1","undefined","1","s","95","0","0","0","95","0","95","0","95","0","0","0","95","95","95","95","Fri Sep 24 12:01:34 2021","600","The main experiment item","yes","Flankertask.osexp","/Users/mihailcodreanu/Desktop","no","mono","no","18","no","white","no","yes","768","legacy","15","79","/Users/mihailcodreanu/Desktop/mc-subject-4.csv","legacy","Lentiform Loewenfeld","3.3.9","0","S","NA","caps lock","return","NA","S","331","NA","44687","35543","NA","331","2","legacy","1024","2","48000","-16","experiment","SSSSS","4","even","238300","48021","214974","NA","219340","3322","215852","NA","239353","3330","179430","NA","239457","239789","239349","239457","Flanker task ","89","41543","96","yes","1024"
"92.78350515463917","92.78350515463917","431.6701030927835","431.6701030927835","black","legacy","legacy","legacy","0","incongruent","uniform","1","undefined","1","h","96","0","0","0","96","0","96","0","96","0","0","0","96","96","96","96","Fri Sep 24 12:01:34 2021","600","The main experiment item","yes","Flankertask.osexp","/Users/mihailcodreanu/Desktop","no","mono","no","18","no","white","no","yes","768","legacy","16","79","/Users/mihailcodreanu/Desktop/mc-subject-4.csv","legacy","Lentiform Loewenfeld","3.3.9","0","H","NA","caps lock","return","NA","H","329","NA","44687","35543","NA","329","2","legacy","1024","2","48000","-16","experiment","SSHSS","4","even","239795","48021","214974","NA","219340","3322","215852","NA","240844","3330","179430","NA","240948","241278","240841","240948","Flanker task ","90","41872","97","yes","1024"
"92.85714285714286","92.85714285714286","431.14285714285717","431.14285714285717","black","legacy","legacy","legacy","0","congruent","uniform","1","undefined","1","s","97","0","0","0","97","0","97","0","97","0","0","0","97","97","97","97","Fri Sep 24 12:01:34 2021","600","The main experiment item","yes","Flankertask.osexp","/Users/mihailcodreanu/Desktop","no","mono","no","18","no","white","no","yes","768","legacy","17","79","/Users/mihailcodreanu/Desktop/mc-subject-4.csv","legacy","Lentiform Loewenfeld","3.3.9","0","S","NA","caps lock","return","NA","S","380","NA","44687","35543","NA","380","2","legacy","1024","2","48000","-16","experiment","SSSSS","4","even","241285","48021","214974","NA","219340","3322","215852","NA","242336","3330","179430","NA","242440","242821","242332","242440","Flanker task ","91","42252","98","yes","1024"
"92.92929292929293","92.92929292929293","430.32323232323233","430.32323232323233","black","legacy","legacy","legacy","0","congruent","uniform","1","undefined","1","s","98","0","0","0","98","0","98","0","98","0","0","0","98","98","98","98","Fri Sep 24 12:01:34 2021","600","The main experiment item","yes","Flankertask.osexp","/Users/mihailcodreanu/Desktop","no","mono","no","18","no","white","no","yes","768","legacy","18","79","/Users/mihailcodreanu/Desktop/mc-subject-4.csv","legacy","Lentiform Loewenfeld","3.3.9","0","S","NA","caps lock","return","NA","S","350","NA","44687","35543","NA","350","2","legacy","1024","2","48000","-16","experiment","SSSSS","4","even","242828","48021","214974","NA","219340","3322","215852","NA","243878","3330","179430","NA","243982","244333","243875","243982","Flanker task ","92","42602","99","yes","1024"
"93","93","429.27","429.27","black","legacy","legacy","legacy","0","congruent","uniform","1","undefined","1","h","99","0","0","0","99","0","99","0","99","0","0","0","99","99","99","99","Fri Sep 24 12:01:34 2021","600","The main experiment item","yes","Flankertask.osexp","/Users/mihailcodreanu/Desktop","no","mono","no","18","no","white","no","yes","768","legacy","19","79","/Users/mihailcodreanu/Desktop/mc-subject-4.csv","legacy","Lentiform Loewenfeld","3.3.9","0","H","NA","caps lock","return","NA","H","325","NA","44687","35543","NA","325","2","legacy","1024","2","48000","-16","experiment","HHHHH","4","even","244340","48021","214974","NA","219340","3322","215852","NA","245392","3330","179430","NA","245496","245822","245388","245496","Flanker task ","93","42927","100","yes","1024"
"93.06930693069307","93.06930693069307","428.2475247524753","428.2475247524753","black","legacy","legacy","legacy","0","congruent","uniform","1","undefined","1","s","100","0","0","0","100","0","100","0","100","0","0","0","100","100","100","100","Fri Sep 24 12:01:34 2021","600","The main experiment item","yes","Flankertask.osexp","/Users/mihailcodreanu/Desktop","no","mono","no","18","no","white","no","yes","768","legacy","20","79","/Users/mihailcodreanu/Desktop/mc-subject-4.csv","legacy","Lentiform Loewenfeld","3.3.9","0","S","NA","caps lock","return","NA","S","326","NA","44687","35543","NA","326","2","legacy","1024","2","48000","-16","experiment","SSSSS","4","even","245828","48021","214974","NA","219340","3322","215852","NA","246878","3330","179430","NA","246982","247309","246875","246982","Flanker task ","94","43253","101","yes","1024"
"93.13725490196079","93.13725490196079","427.8529411764706","427.8529411764706","black","legacy","legacy","legacy","0","incongruent","uniform","1","undefined","1","h","101","0","0","0","101","0","101","0","101","0","0","0","101","101","101","101","Fri Sep 24 12:01:34 2021","600","The main experiment item","yes","Flankertask.osexp","/Users/mihailcodreanu/Desktop","no","mono","no","18","no","white","no","yes","768","legacy","21","79","/Users/mihailcodreanu/Desktop/mc-subject-4.csv","legacy","Lentiform Loewenfeld","3.3.9","0","H","NA","caps lock","return","NA","H","388","NA","44687","35543","NA","388","2","legacy","1024","2","48000","-16","experiment","SSHSS","4","even","247316","48021","214974","NA","219340","3322","215852","NA","248368","3330","179430","NA","248472","248861","248364","248472","Flanker task ","95","43641","102","yes","1024"
"93.20388349514563","93.20388349514563","427.0873786407767","427.0873786407767","black","legacy","legacy","legacy","0","incongruent","uniform","1","undefined","1","h","102","0","0","0","102","0","102","0","102","0","0","0","102","102","102","102","Fri Sep 24 12:01:34 2021","600","The main experiment item","yes","Flankertask.osexp","/Users/mihailcodreanu/Desktop","no","mono","no","18","no","white","no","yes","768","legacy","22","79","/Users/mihailcodreanu/Desktop/mc-subject-4.csv","legacy","Lentiform Loewenfeld","3.3.9","0","H","NA","caps lock","return","NA","H","349","NA","44687","35543","NA","349","2","legacy","1024","2","48000","-16","experiment","SSHSS","4","even","248868","48021","214974","NA","219340","3322","215852","NA","249920","3330","179430","NA","250024","250374","249916","250024","Flanker task ","96","43990","103","yes","1024"
"93.26923076923077","93.26923076923077","426.2692307692308","426.2692307692308","black","legacy","legacy","legacy","0","incongruent","uniform","1","undefined","1","h","103","0","0","0","103","0","103","0","103","0","0","0","103","103","103","103","Fri Sep 24 12:01:34 2021","600","The main experiment item","yes","Flankertask.osexp","/Users/mihailcodreanu/Desktop","no","mono","no","18","no","white","no","yes","768","legacy","23","79","/Users/mihailcodreanu/Desktop/mc-subject-4.csv","legacy","Lentiform Loewenfeld","3.3.9","0","H","NA","caps lock","return","NA","H","342","NA","44687","35543","NA","342","2","legacy","1024","2","48000","-16","experiment","SSHSS","4","even","250378","48021","214974","NA","219340","3322","215852","NA","251430","3330","179430","NA","251535","251878","251427","251535","Flanker task ","97","44332","104","yes","1024"
"93.33333333333333","93.33333333333333","425","425","black","legacy","legacy","legacy","0","incongruent","uniform","1","undefined","1","s","104","0","0","0","104","0","104","0","104","0","0","0","104","104","104","104","Fri Sep 24 12:01:34 2021","600","The main experiment item","yes","Flankertask.osexp","/Users/mihailcodreanu/Desktop","no","mono","no","18","no","white","no","yes","768","legacy","24","79","/Users/mihailcodreanu/Desktop/mc-subject-4.csv","legacy","Lentiform Loewenfeld","3.3.9","0","S","NA","caps lock","return","NA","S","293","NA","44687","35543","NA","293","2","legacy","1024","2","48000","-16","experiment","HHSHH","4","even","251884","48021","214974","NA","219340","3322","215852","NA","252935","3330","179430","NA","253040","253334","252931","253039","Flanker task ","98","44625","105","yes","1024"
"92.45283018867924","92.45283018867924","423.75471698113205","423.75471698113205","black","legacy","legacy","legacy","0","incongruent","uniform","0","undefined","0","s","105","0","0","0","105","0","105","0","105","0","0","0","105","105","105","105","Fri Sep 24 12:01:34 2021","600","The main experiment item","yes","Flankertask.osexp","/Users/mihailcodreanu/Desktop","no","mono","no","18","no","white","no","yes","768","legacy","25","79","/Users/mihailcodreanu/Desktop/mc-subject-4.csv","legacy","Lentiform Loewenfeld","3.3.9","0","H","NA","caps lock","return","NA","H","293","NA","44687","35543","NA","293","2","legacy","1024","2","48000","-16","experiment","HHSHH","4","even","253340","48021","214974","NA","219340","3322","215852","NA","254391","3330","179430","NA","254495","254789","254388","254495","Flanker task ","98","44918","106","yes","1024"
"91.58878504672897","91.58878504672897","422.9906542056075","422.9906542056075","black","legacy","legacy","legacy","0","congruent","uniform","0","undefined","0","h","106","0","0","0","106","0","106","0","106","0","0","0","106","106","106","106","Fri Sep 24 12:01:34 2021","600","The main experiment item","yes","Flankertask.osexp","/Users/mihailcodreanu/Desktop","no","mono","no","18","no","white","no","yes","768","legacy","26","79","/Users/mihailcodreanu/Desktop/mc-subject-4.csv","legacy","Lentiform Loewenfeld","3.3.9","0","S","NA","caps lock","return","NA","S","342","NA","44687","35543","NA","342","2","legacy","1024","2","48000","-16","experiment","HHHHH","4","even","255299","48021","214974","NA","254795","3322","215852","NA","256349","3330","179430","NA","256454","256797","256346","256454","Flanker task ","98","45260","107","yes","1024"
"91.66666666666667","91.66666666666667","423.037037037037","423.037037037037","black","legacy","legacy","legacy","0","incongruent","uniform","1","undefined","1","s","107","0","0","0","107","0","107","0","107","0","0","0","107","107","107","107","Fri Sep 24 12:01:34 2021","600","The main experiment item","yes","Flankertask.osexp","/Users/mihailcodreanu/Desktop","no","mono","no","18","no","white","no","yes","768","legacy","27","79","/Users/mihailcodreanu/Desktop/mc-subject-4.csv","legacy","Lentiform Loewenfeld","3.3.9","0","S","NA","caps lock","return","NA","S","428","NA","44687","35543","NA","428","2","legacy","1024","2","48000","-16","experiment","HHSHH","4","even","257309","48021","214974","NA","256804","3322","215852","NA","258360","3330","179430","NA","258465","258894","258357","258465","Flanker task ","99","45688","108","yes","1024"
"91.74311926605505","91.74311926605505","422.7155963302752","422.7155963302752","black","legacy","legacy","legacy","0","congruent","uniform","1","undefined","1","s","108","0","0","0","108","0","108","0","108","0","0","0","108","108","108","108","Fri Sep 24 12:01:34 2021","600","The main experiment item","yes","Flankertask.osexp","/Users/mihailcodreanu/Desktop","no","mono","no","18","no","white","no","yes","768","legacy","28","79","/Users/mihailcodreanu/Desktop/mc-subject-4.csv","legacy","Lentiform Loewenfeld","3.3.9","0","S","NA","caps lock","return","NA","S","388","NA","44687","35543","NA","388","2","legacy","1024","2","48000","-16","experiment","SSSSS","4","even","258900","48021","214974","NA","256804","3322","215852","NA","259952","3330","179430","NA","260056","260445","259947","260056","Flanker task ","100","46076","109","yes","1024"
"91.81818181818181","91.81818181818181","421.8181818181818","421.8181818181818","black","legacy","legacy","legacy","0","incongruent","uniform","1","undefined","1","s","109","0","0","0","109","0","109","0","109","0","0","0","109","109","109","109","Fri Sep 24 12:01:34 2021","600","The main experiment item","yes","Flankertask.osexp","/Users/mihailcodreanu/Desktop","no","mono","no","18","no","white","no","yes","768","legacy","29","79","/Users/mihailcodreanu/Desktop/mc-subject-4.csv","legacy","Lentiform Loewenfeld","3.3.9","0","S","NA","caps lock","return","NA","S","324","NA","44687","35543","NA","324","2","legacy","1024","2","48000","-16","experiment","HHSHH","4","even","260452","48021","214974","NA","256804","3322","215852","NA","261504","3330","179430","NA","261608","261934","261500","261608","Flanker task ","101","46400","110","yes","1024"
"91.89189189189189","91.89189189189189","421.3693693693694","421.3693693693694","black","legacy","legacy","legacy","0","incongruent","uniform","1","undefined","1","s","110","0","0","0","110","0","110","0","110","0","0","0","110","110","110","110","Fri Sep 24 12:01:34 2021","600","The main experiment item","yes","Flankertask.osexp","/Users/mihailcodreanu/Desktop","no","mono","no","18","no","white","no","yes","768","legacy","30","79","/Users/mihailcodreanu/Desktop/mc-subject-4.csv","legacy","Lentiform Loewenfeld","3.3.9","0","S","NA","caps lock","return","NA","S","372","NA","44687","35543","NA","372","2","legacy","1024","2","48000","-16","experiment","HHSHH","4","even","261940","48021","214974","NA","256804","3322","215852","NA","262993","3330","179430","NA","263097","263470","262989","263097","Flanker task ","102","46772","111","yes","1024"
"91.96428571428571","91.96428571428571","420.5982142857143","420.5982142857143","black","legacy","legacy","legacy","0","congruent","uniform","1","undefined","1","h","111","0","0","0","111","0","111","0","111","0","0","0","111","111","111","111","Fri Sep 24 12:01:34 2021","600","The main experiment item","yes","Flankertask.osexp","/Users/mihailcodreanu/Desktop","no","mono","no","18","no","white","no","yes","768","legacy","31","79","/Users/mihailcodreanu/Desktop/mc-subject-4.csv","legacy","Lentiform Loewenfeld","3.3.9","0","H","NA","caps lock","return","NA","H","335","NA","44687","35543","NA","335","2","legacy","1024","2","48000","-16","experiment","HHHHH","4","even","263476","48021","214974","NA","256804","3322","215852","NA","264526","3330","179430","NA","264630","264966","264522","264630","Flanker task ","103","47107","112","yes","1024"
"91.15044247787611","91.15044247787611","420.72566371681415","420.72566371681415","black","legacy","legacy","legacy","0","incongruent","uniform","0","undefined","0","h","112","0","0","0","112","0","112","0","112","0","0","0","112","112","112","112","Fri Sep 24 12:01:34 2021","600","The main experiment item","yes","Flankertask.osexp","/Users/mihailcodreanu/Desktop","no","mono","no","18","no","white","no","yes","768","legacy","32","79","/Users/mihailcodreanu/Desktop/mc-subject-4.csv","legacy","Lentiform Loewenfeld","3.3.9","0","S","NA","caps lock","return","NA","S","435","NA","44687","35543","NA","435","2","legacy","1024","2","48000","-16","experiment","SSHSS","4","even","264972","48021","214974","NA","256804","3322","215852","NA","266025","3330","179430","NA","266129","266566","266021","266129","Flanker task ","103","47542","113","yes","1024"
"91.2280701754386","91.2280701754386","422.780701754386","422.780701754386","black","legacy","legacy","legacy","0","congruent","uniform","1","undefined","1","h","113","0","0","0","113","0","113","0","113","0","0","0","113","113","113","113","Fri Sep 24 12:01:34 2021","600","The main experiment item","yes","Flankertask.osexp","/Users/mihailcodreanu/Desktop","no","mono","no","18","no","white","no","yes","768","legacy","33","79","/Users/mihailcodreanu/Desktop/mc-subject-4.csv","legacy","Lentiform Loewenfeld","3.3.9","0","H","NA","caps lock","return","NA","H","655","NA","44687","35543","NA","655","2","legacy","1024","2","48000","-16","experiment","HHHHH","4","even","267076","48021","214974","NA","266572","3322","215852","NA","268126","3330","179430","NA","268230","268886","268122","268230","Flanker task ","104","48197","114","yes","1024"
"91.30434782608695","91.30434782608695","423.6","423.6","black","legacy","legacy","legacy","0","incongruent","uniform","1","undefined","1","s","114","0","0","0","114","0","114","0","114","0","0","0","114","114","114","114","Fri Sep 24 12:01:34 2021","600","The main experiment item","yes","Flankertask.osexp","/Users/mihailcodreanu/Desktop","no","mono","no","18","no","white","no","yes","768","legacy","34","79","/Users/mihailcodreanu/Desktop/mc-subject-4.csv","legacy","Lentiform Loewenfeld","3.3.9","0","S","NA","caps lock","return","NA","S","517","NA","44687","35543","NA","517","2","legacy","1024","2","48000","-16","experiment","HHSHH","4","even","269397","48021","214974","NA","266572","3322","268893","NA","270447","3330","179430","NA","270551","271070","270444","270551","Flanker task ","105","48714","115","yes","1024"
"91.37931034482759","91.37931034482759","423.2241379310345","423.2241379310345","black","legacy","legacy","legacy","0","congruent","uniform","1","undefined","1","s","115","0","0","0","115","0","115","0","115","0","0","0","115","115","115","115","Fri Sep 24 12:01:34 2021","600","The main experiment item","yes","Flankertask.osexp","/Users/mihailcodreanu/Desktop","no","mono","no","18","no","white","no","yes","768","legacy","35","79","/Users/mihailcodreanu/Desktop/mc-subject-4.csv","legacy","Lentiform Loewenfeld","3.3.9","0","S","NA","caps lock","return","NA","S","380","NA","44687","35543","NA","380","2","legacy","1024","2","48000","-16","experiment","SSSSS","4","even","271076","48021","214974","NA","266572","3322","268893","NA","272129","3330","179430","NA","272233","272614","272125","272233","Flanker task ","106","49094","116","yes","1024"
"91.45299145299145","91.45299145299145","423.21367521367523","423.21367521367523","black","legacy","legacy","legacy","0","incongruent","uniform","1","undefined","1","s","116","0","0","0","116","0","116","0","116","0","0","0","116","116","116","116","Fri Sep 24 12:01:34 2021","600","The main experiment item","yes","Flankertask.osexp","/Users/mihailcodreanu/Desktop","no","mono","no","18","no","white","no","yes","768","legacy","36","79","/Users/mihailcodreanu/Desktop/mc-subject-4.csv","legacy","Lentiform Loewenfeld","3.3.9","0","S","NA","caps lock","return","NA","S","422","NA","44687","35543","NA","422","2","legacy","1024","2","48000","-16","experiment","HHSHH","4","even","272620","48021","214974","NA","266572","3322","268893","NA","273671","3330","179430","NA","273775","274198","273667","273775","Flanker task ","107","49516","117","yes","1024"
"91.52542372881356","91.52542372881356","423.271186440678","423.271186440678","black","legacy","legacy","legacy","0","incongruent","uniform","1","undefined","1","s","117","0","0","0","117","0","117","0","117","0","0","0","117","117","117","117","Fri Sep 24 12:01:34 2021","600","The main experiment item","yes","Flankertask.osexp","/Users/mihailcodreanu/Desktop","no","mono","no","18","no","white","no","yes","768","legacy","37","79","/Users/mihailcodreanu/Desktop/mc-subject-4.csv","legacy","Lentiform Loewenfeld","3.3.9","0","S","NA","caps lock","return","NA","S","430","NA","44687","35543","NA","430","2","legacy","1024","2","48000","-16","experiment","HHSHH","4","even","274205","48021","214974","NA","266572","3322","268893","NA","275254","3330","179430","NA","275358","275789","275251","275358","Flanker task ","108","49946","118","yes","1024"
"91.59663865546219","91.59663865546219","423.5966386554622","423.5966386554622","black","legacy","legacy","legacy","0","incongruent","uniform","1","undefined","1","h","118","0","0","0","118","0","118","0","118","0","0","0","118","118","118","118","Fri Sep 24 12:01:34 2021","600","The main experiment item","yes","Flankertask.osexp","/Users/mihailcodreanu/Desktop","no","mono","no","18","no","white","no","yes","768","legacy","38","79","/Users/mihailcodreanu/Desktop/mc-subject-4.csv","legacy","Lentiform Loewenfeld","3.3.9","0","H","NA","caps lock","return","NA","H","462","NA","44687","35543","NA","462","2","legacy","1024","2","48000","-16","experiment","SSHSS","4","even","275795","48021","214974","NA","266572","3322","268893","NA","276847","3330","179430","NA","276951","277414","276844","276951","Flanker task ","109","50408","119","yes","1024"
"91.66666666666667","91.66666666666667","423.325","423.325","black","legacy","legacy","legacy","0","incongruent","uniform","1","undefined","1","h","119","0","0","0","119","0","119","0","119","0","0","0","119","119","119","119","Fri Sep 24 12:01:34 2021","600","The main experiment item","yes","Flankertask.osexp","/Users/mihailcodreanu/Desktop","no","mono","no","18","no","white","no","yes","768","legacy","39","79","/Users/mihailcodreanu/Desktop/mc-subject-4.csv","legacy","Lentiform Loewenfeld","3.3.9","0","H","NA","caps lock","return","NA","H","391","NA","44687","35543","NA","391","2","legacy","1024","2","48000","-16","experiment","SSHSS","4","even","277420","48021","214974","NA","266572","3322","268893","NA","278469","3330","179430","NA","278573","278966","278466","278573","Flanker task ","110","50799","120","yes","1024"
