"acc","accuracy","average_response_time","avg_rt","background","canvas_backend","clock_backend","color_backend","compensation","condition","coordinates","correct","correct_Instructions1","correct_keyboard_response","correct_response","count_Block1","count_Block2","count_Block3","count_Finish","count_ISI","count_Instructions1","count_Instructions2","count_Instructions3","count_errorFeedback","count_experiment","count_faster","count_fixation","count_keyboard_response","count_logger","count_sequence","count_stimulus","datetime","deadline","description","disable_garbage_collection","experiment_file","experiment_path","font_bold","font_family","font_italic","font_size","font_underline","foreground","form_clicks","fullscreen","height","keyboard_backend","live_row","live_row_Block1","logfile","mouse_backend","opensesame_codename","opensesame_version","repeat_cycle","response","response_Finish","response_Instructions1","response_Instructions2","response_Instructions3","response_keyboard_response","response_time","response_time_Finish","response_time_Instructions1","response_time_Instructions2","response_time_Instructions3","response_time_keyboard_response","round_decimals","sampler_backend","sound_buf_size","sound_channels","sound_freq","sound_sample_size","start","stimulus","subject_nr","subject_parity","time_Block1","time_Block2","time_Block3","time_Finish","time_ISI","time_Instructions1","time_Instructions2","time_Instructions3","time_errorFeedback","time_experiment","time_faster","time_fixation","time_keyboard_response","time_logger","time_sequence","time_stimulus","title","total_correct","total_response_time","total_responses","uniform_coordinates","width"
"100","100","492","492","black","legacy","legacy","legacy","0","congruent","uniform","1","undefined","1","s","0","0","0","0","0","0","0","0","0","0","0","0","0","0","0","0","09/23/21 16:37:44","1500","The main experiment item","yes","FlankerTask.osexp","C:\Users\bryan\OneDrive\Documents\School\PSYC 5316  (Quant Methods)\Lab 2","no","mono","no","18","no","white","no","yes","768","legacy","0","0","C:/Users/bryan/OneDrive/Documents/School/PSYC 5316  (Quant Methods)/Lab 2/BS-subject-1.csv","legacy","Lentiform Loewenfeld","3.3.9","0","s","NA","s","NA","NA","s","492","NA","2588","NA","NA","492","2","legacy","1024","2","48000","-16","experiment","SSSSS","1","odd","5661","NA","NA","NA","NA","3071","NA","NA","NA","3062","NA","5773","5881","6374","5769","5880","Flanker Task","1","492","1","yes","1024"
"50","50","454","454","black","legacy","legacy","legacy","0","incongruent","uniform","0","undefined","0","s","0","0","0","0","1","0","0","0","1","0","1","1","1","1","1","1","09/23/21 16:37:44","1500","The main experiment item","yes","FlankerTask.osexp","C:\Users\bryan\OneDrive\Documents\School\PSYC 5316  (Quant Methods)\Lab 2","no","mono","no","18","no","white","no","yes","768","legacy","1","1","C:/Users/bryan/OneDrive/Documents/School/PSYC 5316  (Quant Methods)/Lab 2/BS-subject-1.csv","legacy","Lentiform Loewenfeld","3.3.9","0","h","NA","s","NA","NA","h","416","NA","2588","NA","NA","416","2","legacy","1024","2","48000","-16","experiment","HHSHH","1","odd","5661","NA","NA","NA","6387","3071","NA","NA","NA","3062","NA","7515","7623","8040","7511","7623","Flanker Task","1","908","2","yes","1024"
"66.6666666667","66.6666666667","449","449","black","legacy","legacy","legacy","0","congruent","uniform","1","undefined","1","h","0","0","0","0","2","0","0","0","2","0","2","2","2","2","2","2","09/23/21 16:37:44","1500","The main experiment item","yes","FlankerTask.osexp","C:\Users\bryan\OneDrive\Documents\School\PSYC 5316  (Quant Methods)\Lab 2","no","mono","no","18","no","white","no","yes","768","legacy","2","2","C:/Users/bryan/OneDrive/Documents/School/PSYC 5316  (Quant Methods)/Lab 2/BS-subject-1.csv","legacy","Lentiform Loewenfeld","3.3.9","0","h","NA","s","NA","NA","h","439","NA","2588","NA","NA","439","2","legacy","1024","2","48000","-16","experiment","HHHHH","1","odd","5661","NA","NA","NA","8558","3071","NA","NA","8050","3062","NA","9674","9783","10222","9669","9782","Flanker Task","2","1347","3","yes","1024"
"75","75","466.5","466.5","black","legacy","legacy","legacy","0","congruent","uniform","1","undefined","1","h","0","0","0","0","3","0","0","0","3","0","3","3","3","3","3","3","09/23/21 16:37:44","1500","The main experiment item","yes","FlankerTask.osexp","C:\Users\bryan\OneDrive\Documents\School\PSYC 5316  (Quant Methods)\Lab 2","no","mono","no","18","no","white","no","yes","768","legacy","3","3","C:/Users/bryan/OneDrive/Documents/School/PSYC 5316  (Quant Methods)/Lab 2/BS-subject-1.csv","legacy","Lentiform Loewenfeld","3.3.9","0","h","NA","s","NA","NA","h","519","NA","2588","NA","NA","519","2","legacy","1024","2","48000","-16","experiment","HHHHH","1","odd","5661","NA","NA","NA","10229","3071","NA","NA","8050","3062","NA","11367","11470","11990","11362","11470","Flanker Task","3","1866","4","yes","1024"
"80","80","462","462","black","legacy","legacy","legacy","0","incongruent","uniform","1","undefined","1","s","0","0","0","0","4","0","0","0","4","0","4","4","4","4","4","4","09/23/21 16:37:44","1500","The main experiment item","yes","FlankerTask.osexp","C:\Users\bryan\OneDrive\Documents\School\PSYC 5316  (Quant Methods)\Lab 2","no","mono","no","18","no","white","no","yes","768","legacy","4","4","C:/Users/bryan/OneDrive/Documents/School/PSYC 5316  (Quant Methods)/Lab 2/BS-subject-1.csv","legacy","Lentiform Loewenfeld","3.3.9","0","s","NA","s","NA","NA","s","444","NA","2588","NA","NA","444","2","legacy","1024","2","48000","-16","experiment","HHSHH","1","odd","5661","NA","NA","NA","11997","3071","NA","NA","8050","3062","NA","13123","13231","13675","13118","13231","Flanker Task","4","2310","5","yes","1024"
"83.3333333333","83.3333333333","469","469","black","legacy","legacy","legacy","0","congruent","uniform","1","undefined","1","s","0","0","0","0","5","0","0","0","5","0","5","5","5","5","5","5","09/23/21 16:37:44","1500","The main experiment item","yes","FlankerTask.osexp","C:\Users\bryan\OneDrive\Documents\School\PSYC 5316  (Quant Methods)\Lab 2","no","mono","no","18","no","white","no","yes","768","legacy","5","5","C:/Users/bryan/OneDrive/Documents/School/PSYC 5316  (Quant Methods)/Lab 2/BS-subject-1.csv","legacy","Lentiform Loewenfeld","3.3.9","0","s","NA","s","NA","NA","s","504","NA","2588","NA","NA","504","2","legacy","1024","2","48000","-16","experiment","SSSSS","1","odd","5661","NA","NA","NA","13685","3071","NA","NA","8050","3062","NA","14810","14914","15419","14805","14914","Flanker Task","5","2814","6","yes","1024"
"85.7142857143","85.7142857143","468.714285714","468.714285714","black","legacy","legacy","legacy","0","congruent","uniform","1","undefined","1","s","0","0","0","0","6","0","0","0","6","0","6","6","6","6","6","6","09/23/21 16:37:44","1500","The main experiment item","yes","FlankerTask.osexp","C:\Users\bryan\OneDrive\Documents\School\PSYC 5316  (Quant Methods)\Lab 2","no","mono","no","18","no","white","no","yes","768","legacy","6","6","C:/Users/bryan/OneDrive/Documents/School/PSYC 5316  (Quant Methods)/Lab 2/BS-subject-1.csv","legacy","Lentiform Loewenfeld","3.3.9","0","s","NA","s","NA","NA","s","467","NA","2588","NA","NA","467","2","legacy","1024","2","48000","-16","experiment","SSSSS","1","odd","5661","NA","NA","NA","15427","3071","NA","NA","8050","3062","NA","16535","16644","17112","16530","16643","Flanker Task","6","3281","7","yes","1024"
"87.5","87.5","478.625","478.625","black","legacy","legacy","legacy","0","congruent","uniform","1","undefined","1","s","0","0","0","0","7","0","0","0","7","0","7","7","7","7","7","7","09/23/21 16:37:44","1500","The main experiment item","yes","FlankerTask.osexp","C:\Users\bryan\OneDrive\Documents\School\PSYC 5316  (Quant Methods)\Lab 2","no","mono","no","18","no","white","no","yes","768","legacy","7","7","C:/Users/bryan/OneDrive/Documents/School/PSYC 5316  (Quant Methods)/Lab 2/BS-subject-1.csv","legacy","Lentiform Loewenfeld","3.3.9","0","s","NA","s","NA","NA","s","548","NA","2588","NA","NA","548","2","legacy","1024","2","48000","-16","experiment","SSSSS","1","odd","5661","NA","NA","NA","17121","3071","NA","NA","8050","3062","NA","18248","18357","18906","18244","18356","Flanker Task","7","3829","8","yes","1024"
"88.8888888889","88.8888888889","482.888888889","482.888888889","black","legacy","legacy","legacy","0","incongruent","uniform","1","undefined","1","s","0","0","0","0","8","0","0","0","8","0","8","8","8","8","8","8","09/23/21 16:37:44","1500","The main experiment item","yes","FlankerTask.osexp","C:\Users\bryan\OneDrive\Documents\School\PSYC 5316  (Quant Methods)\Lab 2","no","mono","no","18","no","white","no","yes","768","legacy","8","8","C:/Users/bryan/OneDrive/Documents/School/PSYC 5316  (Quant Methods)/Lab 2/BS-subject-1.csv","legacy","Lentiform Loewenfeld","3.3.9","0","s","NA","s","NA","NA","s","517","NA","2588","NA","NA","517","2","legacy","1024","2","48000","-16","experiment","HHSHH","1","odd","5661","NA","NA","NA","18916","3071","NA","NA","8050","3062","NA","20041","20151","20669","20038","20150","Flanker Task","8","4346","9","yes","1024"
"90","90","480.8","480.8","black","legacy","legacy","legacy","0","congruent","uniform","1","undefined","1","s","0","0","0","0","9","0","0","0","9","0","9","9","9","9","9","9","09/23/21 16:37:44","1500","The main experiment item","yes","FlankerTask.osexp","C:\Users\bryan\OneDrive\Documents\School\PSYC 5316  (Quant Methods)\Lab 2","no","mono","no","18","no","white","no","yes","768","legacy","9","9","C:/Users/bryan/OneDrive/Documents/School/PSYC 5316  (Quant Methods)/Lab 2/BS-subject-1.csv","legacy","Lentiform Loewenfeld","3.3.9","0","s","NA","s","NA","NA","s","462","NA","2588","NA","NA","462","2","legacy","1024","2","48000","-16","experiment","SSSSS","1","odd","5661","NA","NA","NA","20677","3071","NA","NA","8050","3062","NA","21783","21886","22349","21779","21886","Flanker Task","9","4808","10","yes","1024"
"90.9090909091","90.9090909091","481.636363636","481.636363636","black","legacy","legacy","legacy","0","incongruent","uniform","1","undefined","1","h","0","0","0","0","10","0","0","0","10","0","10","10","10","10","10","10","09/23/21 16:37:44","1500","The main experiment item","yes","FlankerTask.osexp","C:\Users\bryan\OneDrive\Documents\School\PSYC 5316  (Quant Methods)\Lab 2","no","mono","no","18","no","white","no","yes","768","legacy","10","10","C:/Users/bryan/OneDrive/Documents/School/PSYC 5316  (Quant Methods)/Lab 2/BS-subject-1.csv","legacy","Lentiform Loewenfeld","3.3.9","0","h","NA","s","NA","NA","h","490","NA","2588","NA","NA","490","2","legacy","1024","2","48000","-16","experiment","SSHSS","1","odd","5661","NA","NA","NA","22358","3071","NA","NA","8050","3062","NA","23468","23571","24062","23463","23571","Flanker Task","10","5298","11","yes","1024"
"91.6666666667","91.6666666667","482.75","482.75","black","legacy","legacy","legacy","0","incongruent","uniform","1","undefined","1","s","0","0","0","0","11","0","0","0","11","0","11","11","11","11","11","11","09/23/21 16:37:44","1500","The main experiment item","yes","FlankerTask.osexp","C:\Users\bryan\OneDrive\Documents\School\PSYC 5316  (Quant Methods)\Lab 2","no","mono","no","18","no","white","no","yes","768","legacy","11","11","C:/Users/bryan/OneDrive/Documents/School/PSYC 5316  (Quant Methods)/Lab 2/BS-subject-1.csv","legacy","Lentiform Loewenfeld","3.3.9","0","s","NA","s","NA","NA","s","495","NA","2588","NA","NA","495","2","legacy","1024","2","48000","-16","experiment","HHSHH","1","odd","5661","NA","NA","NA","24072","3071","NA","NA","8050","3062","NA","25188","25296","25792","25183","25296","Flanker Task","11","5793","12","yes","1024"
"92.3076923077","92.3076923077","489.692307692","489.692307692","black","legacy","legacy","legacy","0","incongruent","uniform","1","undefined","1","h","0","0","0","0","12","0","0","0","12","0","12","12","12","12","12","12","09/23/21 16:37:44","1500","The main experiment item","yes","FlankerTask.osexp","C:\Users\bryan\OneDrive\Documents\School\PSYC 5316  (Quant Methods)\Lab 2","no","mono","no","18","no","white","no","yes","768","legacy","12","12","C:/Users/bryan/OneDrive/Documents/School/PSYC 5316  (Quant Methods)/Lab 2/BS-subject-1.csv","legacy","Lentiform Loewenfeld","3.3.9","0","h","NA","s","NA","NA","h","573","NA","2588","NA","NA","573","2","legacy","1024","2","48000","-16","experiment","SSHSS","1","odd","5661","NA","NA","NA","25799","3071","NA","NA","8050","3062","NA","26910","27018","27592","26905","27018","Flanker Task","12","6366","13","yes","1024"
"92.8571428571","92.8571428571","491.5","491.5","black","legacy","legacy","legacy","0","congruent","uniform","1","undefined","1","s","0","0","0","0","13","0","0","0","13","0","13","13","13","13","13","13","09/23/21 16:37:44","1500","The main experiment item","yes","FlankerTask.osexp","C:\Users\bryan\OneDrive\Documents\School\PSYC 5316  (Quant Methods)\Lab 2","no","mono","no","18","no","white","no","yes","768","legacy","13","13","C:/Users/bryan/OneDrive/Documents/School/PSYC 5316  (Quant Methods)/Lab 2/BS-subject-1.csv","legacy","Lentiform Loewenfeld","3.3.9","0","s","NA","s","NA","NA","s","515","NA","2588","NA","NA","515","2","legacy","1024","2","48000","-16","experiment","SSSSS","1","odd","5661","NA","NA","NA","27599","3071","NA","NA","8050","3062","NA","28718","28827","29343","28714","28826","Flanker Task","13","6881","14","yes","1024"
"93.3333333333","93.3333333333","500.266666667","500.266666667","black","legacy","legacy","legacy","0","incongruent","uniform","1","undefined","1","h","0","0","0","0","14","0","0","0","14","0","14","14","14","14","14","14","09/23/21 16:37:44","1500","The main experiment item","yes","FlankerTask.osexp","C:\Users\bryan\OneDrive\Documents\School\PSYC 5316  (Quant Methods)\Lab 2","no","mono","no","18","no","white","no","yes","768","legacy","14","14","C:/Users/bryan/OneDrive/Documents/School/PSYC 5316  (Quant Methods)/Lab 2/BS-subject-1.csv","legacy","Lentiform Loewenfeld","3.3.9","0","h","NA","s","NA","NA","h","623","NA","2588","NA","NA","623","2","legacy","1024","2","48000","-16","experiment","SSHSS","1","odd","5661","NA","NA","NA","29354","3071","NA","NA","8050","3062","NA","30470","30578","31202","30466","30577","Flanker Task","14","7504","15","yes","1024"
"93.75","93.75","505.8125","505.8125","black","legacy","legacy","legacy","0","congruent","uniform","1","undefined","1","s","0","0","0","0","15","0","0","0","15","0","15","15","15","15","15","15","09/23/21 16:37:44","1500","The main experiment item","yes","FlankerTask.osexp","C:\Users\bryan\OneDrive\Documents\School\PSYC 5316  (Quant Methods)\Lab 2","no","mono","no","18","no","white","no","yes","768","legacy","15","15","C:/Users/bryan/OneDrive/Documents/School/PSYC 5316  (Quant Methods)/Lab 2/BS-subject-1.csv","legacy","Lentiform Loewenfeld","3.3.9","0","s","NA","s","NA","NA","s","589","NA","2588","NA","NA","589","2","legacy","1024","2","48000","-16","experiment","SSSSS","1","odd","5661","NA","NA","NA","31212","3071","NA","NA","8050","3062","NA","32328","32437","33027","32324","32436","Flanker Task","15","8093","16","yes","1024"
"94.1176470588","94.1176470588","522.117647059","522.117647059","black","legacy","legacy","legacy","0","incongruent","uniform","1","undefined","1","h","0","0","0","0","16","0","0","0","16","0","16","16","16","16","16","16","09/23/21 16:37:44","1500","The main experiment item","yes","FlankerTask.osexp","C:\Users\bryan\OneDrive\Documents\School\PSYC 5316  (Quant Methods)\Lab 2","no","mono","no","18","no","white","no","yes","768","legacy","16","16","C:/Users/bryan/OneDrive/Documents/School/PSYC 5316  (Quant Methods)/Lab 2/BS-subject-1.csv","legacy","Lentiform Loewenfeld","3.3.9","0","h","NA","s","NA","NA","h","783","NA","2588","NA","NA","783","2","legacy","1024","2","48000","-16","experiment","SSHSS","1","odd","5661","NA","NA","NA","33037","3071","NA","NA","8050","3062","NA","34157","34265","35049","34153","34265","Flanker Task","16","8876","17","yes","1024"
"94.4444444444","94.4444444444","525.055555556","525.055555556","black","legacy","legacy","legacy","0","congruent","uniform","1","undefined","1","h","0","0","0","0","17","0","0","0","17","0","17","17","17","17","17","17","09/23/21 16:37:44","1500","The main experiment item","yes","FlankerTask.osexp","C:\Users\bryan\OneDrive\Documents\School\PSYC 5316  (Quant Methods)\Lab 2","no","mono","no","18","no","white","no","yes","768","legacy","17","17","C:/Users/bryan/OneDrive/Documents/School/PSYC 5316  (Quant Methods)/Lab 2/BS-subject-1.csv","legacy","Lentiform Loewenfeld","3.3.9","0","h","NA","s","NA","NA","h","575","NA","2588","NA","NA","575","2","legacy","1024","2","48000","-16","experiment","HHHHH","1","odd","5661","NA","NA","NA","35055","3071","NA","NA","8050","3062","NA","36168","36277","36853","36163","36276","Flanker Task","17","9451","18","yes","1024"
"94.7368421053","94.7368421053","527.157894737","527.157894737","black","legacy","legacy","legacy","0","incongruent","uniform","1","undefined","1","h","0","0","0","0","18","0","0","0","18","0","18","18","18","18","18","18","09/23/21 16:37:44","1500","The main experiment item","yes","FlankerTask.osexp","C:\Users\bryan\OneDrive\Documents\School\PSYC 5316  (Quant Methods)\Lab 2","no","mono","no","18","no","white","no","yes","768","legacy","18","18","C:/Users/bryan/OneDrive/Documents/School/PSYC 5316  (Quant Methods)/Lab 2/BS-subject-1.csv","legacy","Lentiform Loewenfeld","3.3.9","0","h","NA","s","NA","NA","h","565","NA","2588","NA","NA","565","2","legacy","1024","2","48000","-16","experiment","SSHSS","1","odd","5661","NA","NA","NA","36860","3071","NA","NA","8050","3062","NA","37969","38079","38645","37964","38078","Flanker Task","18","10016","19","yes","1024"
"95","95","529.1","529.1","black","legacy","legacy","legacy","0","congruent","uniform","1","undefined","1","s","0","0","0","0","19","0","0","0","19","0","19","19","19","19","19","19","09/23/21 16:37:44","1500","The main experiment item","yes","FlankerTask.osexp","C:\Users\bryan\OneDrive\Documents\School\PSYC 5316  (Quant Methods)\Lab 2","no","mono","no","18","no","white","no","yes","768","legacy","19","19","C:/Users/bryan/OneDrive/Documents/School/PSYC 5316  (Quant Methods)/Lab 2/BS-subject-1.csv","legacy","Lentiform Loewenfeld","3.3.9","0","s","NA","s","NA","NA","s","566","NA","2588","NA","NA","566","2","legacy","1024","2","48000","-16","experiment","SSSSS","1","odd","5661","NA","NA","NA","38655","3071","NA","NA","8050","3062","NA","39773","39882","40449","39768","39881","Flanker Task","19","10582","20","yes","1024"
"95.2380952381","95.2380952381","526.952380952","526.952380952","black","legacy","legacy","legacy","0","congruent","uniform","1","undefined","1","s","0","0","0","0","20","0","0","0","20","0","20","20","20","20","20","20","09/23/21 16:37:44","1500","The main experiment item","yes","FlankerTask.osexp","C:\Users\bryan\OneDrive\Documents\School\PSYC 5316  (Quant Methods)\Lab 2","no","mono","no","18","no","white","no","yes","768","legacy","20","20","C:/Users/bryan/OneDrive/Documents/School/PSYC 5316  (Quant Methods)/Lab 2/BS-subject-1.csv","legacy","Lentiform Loewenfeld","3.3.9","0","s","NA","s","NA","NA","s","484","NA","2588","NA","NA","484","2","legacy","1024","2","48000","-16","experiment","SSSSS","1","odd","5661","NA","NA","NA","40456","3071","NA","NA","8050","3062","NA","41572","41676","42161","41567","41675","Flanker Task","20","11066","21","yes","1024"
"95.4545454545","95.4545454545","525.954545455","525.954545455","black","legacy","legacy","legacy","0","congruent","uniform","1","undefined","1","s","0","0","0","0","21","0","0","0","21","0","21","21","21","21","21","21","09/23/21 16:37:44","1500","The main experiment item","yes","FlankerTask.osexp","C:\Users\bryan\OneDrive\Documents\School\PSYC 5316  (Quant Methods)\Lab 2","no","mono","no","18","no","white","no","yes","768","legacy","21","21","C:/Users/bryan/OneDrive/Documents/School/PSYC 5316  (Quant Methods)/Lab 2/BS-subject-1.csv","legacy","Lentiform Loewenfeld","3.3.9","0","s","NA","s","NA","NA","s","505","NA","2588","NA","NA","505","2","legacy","1024","2","48000","-16","experiment","SSSSS","1","odd","5661","NA","NA","NA","42168","3071","NA","NA","8050","3062","NA","43284","43392","43898","43281","43392","Flanker Task","21","11571","22","yes","1024"
"95.652173913","95.652173913","536.956521739","536.956521739","black","legacy","legacy","legacy","0","incongruent","uniform","1","undefined","1","h","0","0","0","0","22","0","0","0","22","0","22","22","22","22","22","22","09/23/21 16:37:44","1500","The main experiment item","yes","FlankerTask.osexp","C:\Users\bryan\OneDrive\Documents\School\PSYC 5316  (Quant Methods)\Lab 2","no","mono","no","18","no","white","no","yes","768","legacy","22","22","C:/Users/bryan/OneDrive/Documents/School/PSYC 5316  (Quant Methods)/Lab 2/BS-subject-1.csv","legacy","Lentiform Loewenfeld","3.3.9","0","h","NA","s","NA","NA","h","779","NA","2588","NA","NA","779","2","legacy","1024","2","48000","-16","experiment","SSHSS","1","odd","5661","NA","NA","NA","43908","3071","NA","NA","8050","3062","NA","45015","45123","45903","45011","45123","Flanker Task","22","12350","23","yes","1024"
"95.8333333333","95.8333333333","548.833333333","548.833333333","black","legacy","legacy","legacy","0","incongruent","uniform","1","undefined","1","h","0","0","0","0","23","0","0","0","23","0","23","23","23","23","23","23","09/23/21 16:37:44","1500","The main experiment item","yes","FlankerTask.osexp","C:\Users\bryan\OneDrive\Documents\School\PSYC 5316  (Quant Methods)\Lab 2","no","mono","no","18","no","white","no","yes","768","legacy","23","23","C:/Users/bryan/OneDrive/Documents/School/PSYC 5316  (Quant Methods)/Lab 2/BS-subject-1.csv","legacy","Lentiform Loewenfeld","3.3.9","0","h","NA","s","NA","NA","h","822","NA","2588","NA","NA","822","2","legacy","1024","2","48000","-16","experiment","SSHSS","1","odd","5661","NA","NA","NA","45912","3071","NA","NA","8050","3062","NA","47027","47135","47958","47023","47134","Flanker Task","23","13172","24","yes","1024"
"96","96","548.04","548.04","black","legacy","legacy","legacy","0","congruent","uniform","1","undefined","1","s","0","0","0","0","24","0","0","0","24","0","24","24","24","24","24","24","09/23/21 16:37:44","1500","The main experiment item","yes","FlankerTask.osexp","C:\Users\bryan\OneDrive\Documents\School\PSYC 5316  (Quant Methods)\Lab 2","no","mono","no","18","no","white","no","yes","768","legacy","24","24","C:/Users/bryan/OneDrive/Documents/School/PSYC 5316  (Quant Methods)/Lab 2/BS-subject-1.csv","legacy","Lentiform Loewenfeld","3.3.9","0","s","NA","s","NA","NA","s","529","NA","2588","NA","NA","529","2","legacy","1024","2","48000","-16","experiment","SSSSS","1","odd","5661","NA","NA","NA","47966","3071","NA","NA","8050","3062","NA","49085","49194","49724","49079","49193","Flanker Task","24","13701","25","yes","1024"
"96.1538461538","96.1538461538","551.269230769","551.269230769","black","legacy","legacy","legacy","0","incongruent","uniform","1","undefined","1","h","0","0","0","0","25","0","0","0","25","0","25","25","25","25","25","25","09/23/21 16:37:44","1500","The main experiment item","yes","FlankerTask.osexp","C:\Users\bryan\OneDrive\Documents\School\PSYC 5316  (Quant Methods)\Lab 2","no","mono","no","18","no","white","no","yes","768","legacy","25","25","C:/Users/bryan/OneDrive/Documents/School/PSYC 5316  (Quant Methods)/Lab 2/BS-subject-1.csv","legacy","Lentiform Loewenfeld","3.3.9","0","h","NA","s","NA","NA","h","632","NA","2588","NA","NA","632","2","legacy","1024","2","48000","-16","experiment","SSHSS","1","odd","5661","NA","NA","NA","49734","3071","NA","NA","8050","3062","NA","50867","50970","51603","50862","50970","Flanker Task","25","14333","26","yes","1024"
"96.2962962963","96.2962962963","550.296296296","550.296296296","black","legacy","legacy","legacy","0","congruent","uniform","1","undefined","1","h","0","0","0","0","26","0","0","0","26","0","26","26","26","26","26","26","09/23/21 16:37:44","1500","The main experiment item","yes","FlankerTask.osexp","C:\Users\bryan\OneDrive\Documents\School\PSYC 5316  (Quant Methods)\Lab 2","no","mono","no","18","no","white","no","yes","768","legacy","26","26","C:/Users/bryan/OneDrive/Documents/School/PSYC 5316  (Quant Methods)/Lab 2/BS-subject-1.csv","legacy","Lentiform Loewenfeld","3.3.9","0","h","NA","s","NA","NA","h","525","NA","2588","NA","NA","525","2","legacy","1024","2","48000","-16","experiment","HHHHH","1","odd","5661","NA","NA","NA","51610","3071","NA","NA","8050","3062","NA","52728","52837","53363","52723","52836","Flanker Task","26","14858","27","yes","1024"
"92.8571428571","92.8571428571","548.392857143","548.392857143","black","legacy","legacy","legacy","0","congruent","uniform","0","undefined","0","s","0","0","0","0","27","0","0","0","27","0","27","27","27","27","27","27","09/23/21 16:37:44","1500","The main experiment item","yes","FlankerTask.osexp","C:\Users\bryan\OneDrive\Documents\School\PSYC 5316  (Quant Methods)\Lab 2","no","mono","no","18","no","white","no","yes","768","legacy","27","27","C:/Users/bryan/OneDrive/Documents/School/PSYC 5316  (Quant Methods)/Lab 2/BS-subject-1.csv","legacy","Lentiform Loewenfeld","3.3.9","0","h","NA","s","NA","NA","h","497","NA","2588","NA","NA","497","2","legacy","1024","2","48000","-16","experiment","SSSSS","1","odd","5661","NA","NA","NA","53373","3071","NA","NA","8050","3062","NA","54496","54600","55098","54492","54600","Flanker Task","26","15355","28","yes","1024"
"93.1034482759","93.1034482759","548.413793103","548.413793103","black","legacy","legacy","legacy","0","incongruent","uniform","1","undefined","1","s","0","0","0","0","28","0","0","0","28","0","28","28","28","28","28","28","09/23/21 16:37:44","1500","The main experiment item","yes","FlankerTask.osexp","C:\Users\bryan\OneDrive\Documents\School\PSYC 5316  (Quant Methods)\Lab 2","no","mono","no","18","no","white","no","yes","768","legacy","28","28","C:/Users/bryan/OneDrive/Documents/School/PSYC 5316  (Quant Methods)/Lab 2/BS-subject-1.csv","legacy","Lentiform Loewenfeld","3.3.9","0","s","NA","s","NA","NA","s","549","NA","2588","NA","NA","549","2","legacy","1024","2","48000","-16","experiment","HHSHH","1","odd","5661","NA","NA","NA","55612","3071","NA","NA","55104","3062","NA","56737","56845","57395","56732","56844","Flanker Task","27","15904","29","yes","1024"
"93.3333333333","93.3333333333","547.833333333","547.833333333","black","legacy","legacy","legacy","0","incongruent","uniform","1","undefined","1","h","0","0","0","0","29","0","0","0","29","0","29","29","29","29","29","29","09/23/21 16:37:44","1500","The main experiment item","yes","FlankerTask.osexp","C:\Users\bryan\OneDrive\Documents\School\PSYC 5316  (Quant Methods)\Lab 2","no","mono","no","18","no","white","no","yes","768","legacy","29","29","C:/Users/bryan/OneDrive/Documents/School/PSYC 5316  (Quant Methods)/Lab 2/BS-subject-1.csv","legacy","Lentiform Loewenfeld","3.3.9","0","h","NA","s","NA","NA","h","531","NA","2588","NA","NA","531","2","legacy","1024","2","48000","-16","experiment","SSHSS","1","odd","5661","NA","NA","NA","57402","3071","NA","NA","55104","3062","NA","58524","58633","59165","58519","58632","Flanker Task","28","16435","30","yes","1024"
"93.5483870968","93.5483870968","550.806451613","550.806451613","black","legacy","legacy","legacy","0","incongruent","uniform","1","undefined","1","s","0","0","0","0","30","0","0","0","30","0","30","30","30","30","30","30","09/23/21 16:37:44","1500","The main experiment item","yes","FlankerTask.osexp","C:\Users\bryan\OneDrive\Documents\School\PSYC 5316  (Quant Methods)\Lab 2","no","mono","no","18","no","white","no","yes","768","legacy","30","30","C:/Users/bryan/OneDrive/Documents/School/PSYC 5316  (Quant Methods)/Lab 2/BS-subject-1.csv","legacy","Lentiform Loewenfeld","3.3.9","0","s","NA","s","NA","NA","s","640","NA","2588","NA","NA","640","2","legacy","1024","2","48000","-16","experiment","HHSHH","1","odd","5661","NA","NA","NA","59172","3071","NA","NA","55104","3062","NA","60288","60392","61033","60284","60392","Flanker Task","29","17075","31","yes","1024"
"93.75","93.75","553.4375","553.4375","black","legacy","legacy","legacy","0","incongruent","uniform","1","undefined","1","h","0","0","0","0","31","0","0","0","31","0","31","31","31","31","31","31","09/23/21 16:37:44","1500","The main experiment item","yes","FlankerTask.osexp","C:\Users\bryan\OneDrive\Documents\School\PSYC 5316  (Quant Methods)\Lab 2","no","mono","no","18","no","white","no","yes","768","legacy","31","31","C:/Users/bryan/OneDrive/Documents/School/PSYC 5316  (Quant Methods)/Lab 2/BS-subject-1.csv","legacy","Lentiform Loewenfeld","3.3.9","0","h","NA","s","NA","NA","h","635","NA","2588","NA","NA","635","2","legacy","1024","2","48000","-16","experiment","SSHSS","1","odd","5661","NA","NA","NA","61040","3071","NA","NA","55104","3062","NA","62152","62255","62891","62148","62255","Flanker Task","30","17710","32","yes","1024"
"93.9393939394","93.9393939394","554.636363636","554.636363636","black","legacy","legacy","legacy","0","congruent","uniform","1","undefined","1","h","0","0","0","0","32","0","0","0","32","0","32","32","32","32","32","32","09/23/21 16:37:44","1500","The main experiment item","yes","FlankerTask.osexp","C:\Users\bryan\OneDrive\Documents\School\PSYC 5316  (Quant Methods)\Lab 2","no","mono","no","18","no","white","no","yes","768","legacy","32","32","C:/Users/bryan/OneDrive/Documents/School/PSYC 5316  (Quant Methods)/Lab 2/BS-subject-1.csv","legacy","Lentiform Loewenfeld","3.3.9","0","h","NA","s","NA","NA","h","593","NA","2588","NA","NA","593","2","legacy","1024","2","48000","-16","experiment","HHHHH","1","odd","5661","NA","NA","NA","62898","3071","NA","NA","55104","3062","NA","64012","64121","64715","64007","64120","Flanker Task","31","18303","33","yes","1024"
"94.1176470588","94.1176470588","555","555","black","legacy","legacy","legacy","0","congruent","uniform","1","undefined","1","s","0","0","0","0","33","0","0","0","33","0","33","33","33","33","33","33","09/23/21 16:37:44","1500","The main experiment item","yes","FlankerTask.osexp","C:\Users\bryan\OneDrive\Documents\School\PSYC 5316  (Quant Methods)\Lab 2","no","mono","no","18","no","white","no","yes","768","legacy","33","33","C:/Users/bryan/OneDrive/Documents/School/PSYC 5316  (Quant Methods)/Lab 2/BS-subject-1.csv","legacy","Lentiform Loewenfeld","3.3.9","0","s","NA","s","NA","NA","s","567","NA","2588","NA","NA","567","2","legacy","1024","2","48000","-16","experiment","SSSSS","1","odd","5661","NA","NA","NA","64725","3071","NA","NA","55104","3062","NA","65842","65951","66519","65837","65950","Flanker Task","32","18870","34","yes","1024"
"94.2857142857","94.2857142857","554.085714286","554.085714286","black","legacy","legacy","legacy","0","congruent","uniform","1","undefined","1","h","0","0","0","0","34","0","0","0","34","0","34","34","34","34","34","34","09/23/21 16:37:44","1500","The main experiment item","yes","FlankerTask.osexp","C:\Users\bryan\OneDrive\Documents\School\PSYC 5316  (Quant Methods)\Lab 2","no","mono","no","18","no","white","no","yes","768","legacy","34","34","C:/Users/bryan/OneDrive/Documents/School/PSYC 5316  (Quant Methods)/Lab 2/BS-subject-1.csv","legacy","Lentiform Loewenfeld","3.3.9","0","h","NA","s","NA","NA","h","523","NA","2588","NA","NA","523","2","legacy","1024","2","48000","-16","experiment","HHHHH","1","odd","5661","NA","NA","NA","66526","3071","NA","NA","55104","3062","NA","67641","67750","68274","67637","67749","Flanker Task","33","19393","35","yes","1024"
"94.4444444444","94.4444444444","553.111111111","553.111111111","black","legacy","legacy","legacy","0","incongruent","uniform","1","undefined","1","s","0","0","0","0","35","0","0","0","35","0","35","35","35","35","35","35","09/23/21 16:37:44","1500","The main experiment item","yes","FlankerTask.osexp","C:\Users\bryan\OneDrive\Documents\School\PSYC 5316  (Quant Methods)\Lab 2","no","mono","no","18","no","white","no","yes","768","legacy","35","35","C:/Users/bryan/OneDrive/Documents/School/PSYC 5316  (Quant Methods)/Lab 2/BS-subject-1.csv","legacy","Lentiform Loewenfeld","3.3.9","0","s","NA","s","NA","NA","s","519","NA","2588","NA","NA","519","2","legacy","1024","2","48000","-16","experiment","HHSHH","1","odd","5661","NA","NA","NA","68281","3071","NA","NA","55104","3062","NA","69390","69499","70019","69386","69498","Flanker Task","34","19912","36","yes","1024"
"94.5945945946","94.5945945946","551.243243243","551.243243243","black","legacy","legacy","legacy","0","incongruent","uniform","1","undefined","1","s","0","0","0","0","36","0","0","0","36","0","36","36","36","36","36","36","09/23/21 16:37:44","1500","The main experiment item","yes","FlankerTask.osexp","C:\Users\bryan\OneDrive\Documents\School\PSYC 5316  (Quant Methods)\Lab 2","no","mono","no","18","no","white","no","yes","768","legacy","36","36","C:/Users/bryan/OneDrive/Documents/School/PSYC 5316  (Quant Methods)/Lab 2/BS-subject-1.csv","legacy","Lentiform Loewenfeld","3.3.9","0","s","NA","s","NA","NA","s","484","NA","2588","NA","NA","484","2","legacy","1024","2","48000","-16","experiment","HHSHH","1","odd","5661","NA","NA","NA","70029","3071","NA","NA","55104","3062","NA","71147","71254","71739","71142","71254","Flanker Task","35","20396","37","yes","1024"
"94.7368421053","94.7368421053","549.894736842","549.894736842","black","legacy","legacy","legacy","0","congruent","uniform","1","undefined","1","h","0","0","0","0","37","0","0","0","37","0","37","37","37","37","37","37","09/23/21 16:37:44","1500","The main experiment item","yes","FlankerTask.osexp","C:\Users\bryan\OneDrive\Documents\School\PSYC 5316  (Quant Methods)\Lab 2","no","mono","no","18","no","white","no","yes","768","legacy","37","37","C:/Users/bryan/OneDrive/Documents/School/PSYC 5316  (Quant Methods)/Lab 2/BS-subject-1.csv","legacy","Lentiform Loewenfeld","3.3.9","0","h","NA","s","NA","NA","h","500","NA","2588","NA","NA","500","2","legacy","1024","2","48000","-16","experiment","HHHHH","1","odd","5661","NA","NA","NA","71749","3071","NA","NA","55104","3062","NA","72863","72972","73473","72859","72971","Flanker Task","36","20896","38","yes","1024"
"94.8717948718","94.8717948718","548.58974359","548.58974359","black","legacy","legacy","legacy","0","incongruent","uniform","1","undefined","1","h","0","0","0","0","38","0","0","0","38","0","38","38","38","38","38","38","09/23/21 16:37:44","1500","The main experiment item","yes","FlankerTask.osexp","C:\Users\bryan\OneDrive\Documents\School\PSYC 5316  (Quant Methods)\Lab 2","no","mono","no","18","no","white","no","yes","768","legacy","38","38","C:/Users/bryan/OneDrive/Documents/School/PSYC 5316  (Quant Methods)/Lab 2/BS-subject-1.csv","legacy","Lentiform Loewenfeld","3.3.9","0","h","NA","s","NA","NA","h","499","NA","2588","NA","NA","499","2","legacy","1024","2","48000","-16","experiment","SSHSS","1","odd","5661","NA","NA","NA","73482","3071","NA","NA","55104","3062","NA","74597","74706","75206","74592","74705","Flanker Task","37","21395","39","yes","1024"
"95","95","546.15","546.15","black","legacy","legacy","legacy","0","incongruent","uniform","1","undefined","1","h","0","0","0","0","39","0","0","0","39","0","39","39","39","39","39","39","09/23/21 16:37:44","1500","The main experiment item","yes","FlankerTask.osexp","C:\Users\bryan\OneDrive\Documents\School\PSYC 5316  (Quant Methods)\Lab 2","no","mono","no","18","no","white","no","yes","768","legacy","39","39","C:/Users/bryan/OneDrive/Documents/School/PSYC 5316  (Quant Methods)/Lab 2/BS-subject-1.csv","legacy","Lentiform Loewenfeld","3.3.9","0","h","NA","s","NA","NA","h","451","NA","2588","NA","NA","451","2","legacy","1024","2","48000","-16","experiment","SSHSS","1","odd","5661","NA","NA","NA","75213","3071","NA","NA","55104","3062","NA","76335","76444","76896","76330","76443","Flanker Task","38","21846","40","yes","1024"
"95.1219512195","95.1219512195","543.658536585","543.658536585","black","legacy","legacy","legacy","0","congruent","uniform","1","undefined","1","s","0","0","0","0","40","0","0","0","40","0","40","40","40","40","40","40","09/23/21 16:37:44","1500","The main experiment item","yes","FlankerTask.osexp","C:\Users\bryan\OneDrive\Documents\School\PSYC 5316  (Quant Methods)\Lab 2","no","mono","no","18","no","white","no","yes","768","legacy","40","40","C:/Users/bryan/OneDrive/Documents/School/PSYC 5316  (Quant Methods)/Lab 2/BS-subject-1.csv","legacy","Lentiform Loewenfeld","3.3.9","0","s","NA","s","NA","NA","s","444","NA","2588","NA","NA","444","2","legacy","1024","2","48000","-16","experiment","SSSSS","1","odd","5661","NA","NA","NA","76907","3071","NA","NA","55104","3062","NA","78021","78130","78575","78016","78129","Flanker Task","39","22290","41","yes","1024"
"95.2380952381","95.2380952381","538.714285714","538.714285714","black","legacy","legacy","legacy","0","incongruent","uniform","1","undefined","1","s","0","0","0","0","41","0","0","0","41","0","41","41","41","41","41","41","09/23/21 16:37:44","1500","The main experiment item","yes","FlankerTask.osexp","C:\Users\bryan\OneDrive\Documents\School\PSYC 5316  (Quant Methods)\Lab 2","no","mono","no","18","no","white","no","yes","768","legacy","41","41","C:/Users/bryan/OneDrive/Documents/School/PSYC 5316  (Quant Methods)/Lab 2/BS-subject-1.csv","legacy","Lentiform Loewenfeld","3.3.9","0","s","NA","s","NA","NA","s","336","NA","2588","NA","NA","336","2","legacy","1024","2","48000","-16","experiment","HHSHH","1","odd","5661","NA","NA","NA","78585","3071","NA","NA","55104","3062","NA","79701","79810","80147","79697","79809","Flanker Task","40","22626","42","yes","1024"
"95.3488372093","95.3488372093","535.744186047","535.744186047","black","legacy","legacy","legacy","0","congruent","uniform","1","undefined","1","h","0","0","0","0","42","0","0","0","42","0","42","42","42","42","42","42","09/23/21 16:37:44","1500","The main experiment item","yes","FlankerTask.osexp","C:\Users\bryan\OneDrive\Documents\School\PSYC 5316  (Quant Methods)\Lab 2","no","mono","no","18","no","white","no","yes","768","legacy","42","42","C:/Users/bryan/OneDrive/Documents/School/PSYC 5316  (Quant Methods)/Lab 2/BS-subject-1.csv","legacy","Lentiform Loewenfeld","3.3.9","0","h","NA","s","NA","NA","h","411","NA","2588","NA","NA","411","2","legacy","1024","2","48000","-16","experiment","HHHHH","1","odd","5661","NA","NA","NA","80153","3071","NA","NA","55104","3062","NA","81276","81385","81797","81272","81384","Flanker Task","41","23037","43","yes","1024"
"95.4545454545","95.4545454545","534.545454545","534.545454545","black","legacy","legacy","legacy","0","incongruent","uniform","1","undefined","1","h","0","0","0","0","43","0","0","0","43","0","43","43","43","43","43","43","09/23/21 16:37:44","1500","The main experiment item","yes","FlankerTask.osexp","C:\Users\bryan\OneDrive\Documents\School\PSYC 5316  (Quant Methods)\Lab 2","no","mono","no","18","no","white","no","yes","768","legacy","43","43","C:/Users/bryan/OneDrive/Documents/School/PSYC 5316  (Quant Methods)/Lab 2/BS-subject-1.csv","legacy","Lentiform Loewenfeld","3.3.9","0","h","NA","s","NA","NA","h","483","NA","2588","NA","NA","483","2","legacy","1024","2","48000","-16","experiment","SSHSS","1","odd","5661","NA","NA","NA","81807","3071","NA","NA","55104","3062","NA","82916","83024","83508","82911","83023","Flanker Task","42","23520","44","yes","1024"
"95.5555555556","95.5555555556","534.266666667","534.266666667","black","legacy","legacy","legacy","0","congruent","uniform","1","undefined","1","s","0","0","0","0","44","0","0","0","44","0","44","44","44","44","44","44","09/23/21 16:37:44","1500","The main experiment item","yes","FlankerTask.osexp","C:\Users\bryan\OneDrive\Documents\School\PSYC 5316  (Quant Methods)\Lab 2","no","mono","no","18","no","white","no","yes","768","legacy","44","44","C:/Users/bryan/OneDrive/Documents/School/PSYC 5316  (Quant Methods)/Lab 2/BS-subject-1.csv","legacy","Lentiform Loewenfeld","3.3.9","0","s","NA","s","NA","NA","s","522","NA","2588","NA","NA","522","2","legacy","1024","2","48000","-16","experiment","SSSSS","1","odd","5661","NA","NA","NA","83515","3071","NA","NA","55104","3062","NA","84640","84749","85273","84635","84748","Flanker Task","43","24042","45","yes","1024"
"95.652173913","95.652173913","533.891304348","533.891304348","black","legacy","legacy","legacy","0","incongruent","uniform","1","undefined","1","h","0","0","0","0","45","0","0","0","45","0","45","45","45","45","45","45","09/23/21 16:37:44","1500","The main experiment item","yes","FlankerTask.osexp","C:\Users\bryan\OneDrive\Documents\School\PSYC 5316  (Quant Methods)\Lab 2","no","mono","no","18","no","white","no","yes","768","legacy","45","45","C:/Users/bryan/OneDrive/Documents/School/PSYC 5316  (Quant Methods)/Lab 2/BS-subject-1.csv","legacy","Lentiform Loewenfeld","3.3.9","0","h","NA","s","NA","NA","h","517","NA","2588","NA","NA","517","2","legacy","1024","2","48000","-16","experiment","SSHSS","1","odd","5661","NA","NA","NA","85282","3071","NA","NA","55104","3062","NA","86409","86518","87036","86404","86518","Flanker Task","44","24559","46","yes","1024"
"95.7446808511","95.7446808511","534.574468085","534.574468085","black","legacy","legacy","legacy","0","congruent","uniform","1","undefined","1","h","0","0","0","0","46","0","0","0","46","0","46","46","46","46","46","46","09/23/21 16:37:44","1500","The main experiment item","yes","FlankerTask.osexp","C:\Users\bryan\OneDrive\Documents\School\PSYC 5316  (Quant Methods)\Lab 2","no","mono","no","18","no","white","no","yes","768","legacy","46","46","C:/Users/bryan/OneDrive/Documents/School/PSYC 5316  (Quant Methods)/Lab 2/BS-subject-1.csv","legacy","Lentiform Loewenfeld","3.3.9","0","h","NA","s","NA","NA","h","566","NA","2588","NA","NA","566","2","legacy","1024","2","48000","-16","experiment","HHHHH","1","odd","5661","NA","NA","NA","87046","3071","NA","NA","55104","3062","NA","88157","88267","88835","88153","88266","Flanker Task","45","25125","47","yes","1024"
"95.8333333333","95.8333333333","536.229166667","536.229166667","black","legacy","legacy","legacy","0","congruent","uniform","1","undefined","1","h","0","0","0","0","47","0","0","0","47","0","47","47","47","47","47","47","09/23/21 16:37:44","1500","The main experiment item","yes","FlankerTask.osexp","C:\Users\bryan\OneDrive\Documents\School\PSYC 5316  (Quant Methods)\Lab 2","no","mono","no","18","no","white","no","yes","768","legacy","47","47","C:/Users/bryan/OneDrive/Documents/School/PSYC 5316  (Quant Methods)/Lab 2/BS-subject-1.csv","legacy","Lentiform Loewenfeld","3.3.9","0","h","NA","s","NA","NA","h","614","NA","2588","NA","NA","614","2","legacy","1024","2","48000","-16","experiment","HHHHH","1","odd","5661","NA","NA","NA","88843","3071","NA","NA","55104","3062","NA","89952","90055","90671","89948","90055","Flanker Task","46","25739","48","yes","1024"
"95.9183673469","95.9183673469","537.571428571","537.571428571","black","legacy","legacy","legacy","0","congruent","uniform","1","undefined","1","h","0","0","0","0","48","0","0","0","48","0","48","48","48","48","48","48","09/23/21 16:37:44","1500","The main experiment item","yes","FlankerTask.osexp","C:\Users\bryan\OneDrive\Documents\School\PSYC 5316  (Quant Methods)\Lab 2","no","mono","no","18","no","white","no","yes","768","legacy","48","48","C:/Users/bryan/OneDrive/Documents/School/PSYC 5316  (Quant Methods)/Lab 2/BS-subject-1.csv","legacy","Lentiform Loewenfeld","3.3.9","0","h","NA","s","NA","NA","h","602","NA","2588","NA","NA","602","2","legacy","1024","2","48000","-16","experiment","HHHHH","1","odd","5661","NA","NA","NA","90679","3071","NA","NA","55104","3062","NA","91788","91899","92502","91784","91898","Flanker Task","47","26341","49","yes","1024"
"96","96","536.34","536.34","black","legacy","legacy","legacy","0","incongruent","uniform","1","undefined","1","s","0","0","0","0","49","0","0","0","49","0","49","49","49","49","49","49","09/23/21 16:37:44","1500","The main experiment item","yes","FlankerTask.osexp","C:\Users\bryan\OneDrive\Documents\School\PSYC 5316  (Quant Methods)\Lab 2","no","mono","no","18","no","white","no","yes","768","legacy","49","49","C:/Users/bryan/OneDrive/Documents/School/PSYC 5316  (Quant Methods)/Lab 2/BS-subject-1.csv","legacy","Lentiform Loewenfeld","3.3.9","0","s","NA","s","NA","NA","s","476","NA","2588","NA","NA","476","2","legacy","1024","2","48000","-16","experiment","HHSHH","1","odd","5661","NA","NA","NA","92513","3071","NA","NA","55104","3062","NA","93638","93747","94225","93634","93746","Flanker Task","48","26817","50","yes","1024"
"96.0784313725","96.0784313725","536.705882353","536.705882353","black","legacy","legacy","legacy","0","incongruent","uniform","1","undefined","1","h","0","0","0","0","50","0","0","0","50","0","50","50","50","50","50","50","09/23/21 16:37:44","1500","The main experiment item","yes","FlankerTask.osexp","C:\Users\bryan\OneDrive\Documents\School\PSYC 5316  (Quant Methods)\Lab 2","no","mono","no","18","no","white","no","yes","768","legacy","50","50","C:/Users/bryan/OneDrive/Documents/School/PSYC 5316  (Quant Methods)/Lab 2/BS-subject-1.csv","legacy","Lentiform Loewenfeld","3.3.9","0","h","NA","s","NA","NA","h","555","NA","2588","NA","NA","555","2","legacy","1024","2","48000","-16","experiment","SSHSS","1","odd","5661","NA","NA","NA","94233","3071","NA","NA","55104","3062","NA","95354","95464","96021","95350","95463","Flanker Task","49","27372","51","yes","1024"
"96.1538461538","96.1538461538","539.288461538","539.288461538","black","legacy","legacy","legacy","0","congruent","uniform","1","undefined","1","h","0","0","0","0","51","0","0","0","51","0","51","51","51","51","51","51","09/23/21 16:37:44","1500","The main experiment item","yes","FlankerTask.osexp","C:\Users\bryan\OneDrive\Documents\School\PSYC 5316  (Quant Methods)\Lab 2","no","mono","no","18","no","white","no","yes","768","legacy","51","51","C:/Users/bryan/OneDrive/Documents/School/PSYC 5316  (Quant Methods)/Lab 2/BS-subject-1.csv","legacy","Lentiform Loewenfeld","3.3.9","0","h","NA","s","NA","NA","h","671","NA","2588","NA","NA","671","2","legacy","1024","2","48000","-16","experiment","HHHHH","1","odd","5661","NA","NA","NA","96030","3071","NA","NA","55104","3062","NA","97151","97260","97932","97147","97259","Flanker Task","50","28043","52","yes","1024"
"96.2264150943","96.2264150943","539.58490566","539.58490566","black","legacy","legacy","legacy","0","incongruent","uniform","1","undefined","1","s","0","0","0","0","52","0","0","0","52","0","52","52","52","52","52","52","09/23/21 16:37:44","1500","The main experiment item","yes","FlankerTask.osexp","C:\Users\bryan\OneDrive\Documents\School\PSYC 5316  (Quant Methods)\Lab 2","no","mono","no","18","no","white","no","yes","768","legacy","52","52","C:/Users/bryan/OneDrive/Documents/School/PSYC 5316  (Quant Methods)/Lab 2/BS-subject-1.csv","legacy","Lentiform Loewenfeld","3.3.9","0","s","NA","s","NA","NA","s","555","NA","2588","NA","NA","555","2","legacy","1024","2","48000","-16","experiment","HHSHH","1","odd","5661","NA","NA","NA","97939","3071","NA","NA","55104","3062","NA","99055","99159","99715","99049","99159","Flanker Task","51","28598","53","yes","1024"
"96.2962962963","96.2962962963","541.462962963","541.462962963","black","legacy","legacy","legacy","0","incongruent","uniform","1","undefined","1","s","0","0","0","0","53","0","0","0","53","0","53","53","53","53","53","53","09/23/21 16:37:44","1500","The main experiment item","yes","FlankerTask.osexp","C:\Users\bryan\OneDrive\Documents\School\PSYC 5316  (Quant Methods)\Lab 2","no","mono","no","18","no","white","no","yes","768","legacy","53","53","C:/Users/bryan/OneDrive/Documents/School/PSYC 5316  (Quant Methods)/Lab 2/BS-subject-1.csv","legacy","Lentiform Loewenfeld","3.3.9","0","s","NA","s","NA","NA","s","641","NA","2588","NA","NA","641","2","legacy","1024","2","48000","-16","experiment","HHSHH","1","odd","5661","NA","NA","NA","99722","3071","NA","NA","55104","3062","NA","100843","100952","101594","100839","100951","Flanker Task","52","29239","54","yes","1024"
"96.3636363636","96.3636363636","542.763636364","542.763636364","black","legacy","legacy","legacy","0","congruent","uniform","1","undefined","1","h","0","0","0","0","54","0","0","0","54","0","54","54","54","54","54","54","09/23/21 16:37:44","1500","The main experiment item","yes","FlankerTask.osexp","C:\Users\bryan\OneDrive\Documents\School\PSYC 5316  (Quant Methods)\Lab 2","no","mono","no","18","no","white","no","yes","768","legacy","54","54","C:/Users/bryan/OneDrive/Documents/School/PSYC 5316  (Quant Methods)/Lab 2/BS-subject-1.csv","legacy","Lentiform Loewenfeld","3.3.9","0","h","NA","s","NA","NA","h","613","NA","2588","NA","NA","613","2","legacy","1024","2","48000","-16","experiment","HHHHH","1","odd","5661","NA","NA","NA","101600","3071","NA","NA","55104","3062","NA","102728","102837","103452","102723","102836","Flanker Task","53","29852","55","yes","1024"
"96.4285714286","96.4285714286","542.982142857","542.982142857","black","legacy","legacy","legacy","0","congruent","uniform","1","undefined","1","s","0","0","0","0","55","0","0","0","55","0","55","55","55","55","55","55","09/23/21 16:37:44","1500","The main experiment item","yes","FlankerTask.osexp","C:\Users\bryan\OneDrive\Documents\School\PSYC 5316  (Quant Methods)\Lab 2","no","mono","no","18","no","white","no","yes","768","legacy","55","55","C:/Users/bryan/OneDrive/Documents/School/PSYC 5316  (Quant Methods)/Lab 2/BS-subject-1.csv","legacy","Lentiform Loewenfeld","3.3.9","0","s","NA","s","NA","NA","s","555","NA","2588","NA","NA","555","2","legacy","1024","2","48000","-16","experiment","SSSSS","1","odd","5661","NA","NA","NA","103461","3071","NA","NA","55104","3062","NA","104589","104698","105254","104584","104697","Flanker Task","54","30407","56","yes","1024"
"96.4912280702","96.4912280702","544.754385965","544.754385965","black","legacy","legacy","legacy","0","congruent","uniform","1","undefined","1","h","0","0","0","0","56","0","0","0","56","0","56","56","56","56","56","56","09/23/21 16:37:44","1500","The main experiment item","yes","FlankerTask.osexp","C:\Users\bryan\OneDrive\Documents\School\PSYC 5316  (Quant Methods)\Lab 2","no","mono","no","18","no","white","no","yes","768","legacy","56","56","C:/Users/bryan/OneDrive/Documents/School/PSYC 5316  (Quant Methods)/Lab 2/BS-subject-1.csv","legacy","Lentiform Loewenfeld","3.3.9","0","h","NA","s","NA","NA","h","644","NA","2588","NA","NA","644","2","legacy","1024","2","48000","-16","experiment","HHHHH","1","odd","5661","NA","NA","NA","105264","3071","NA","NA","55104","3062","NA","106393","106502","107147","106388","106501","Flanker Task","55","31051","57","yes","1024"
"96.5517241379","96.5517241379","545.517241379","545.517241379","black","legacy","legacy","legacy","0","congruent","uniform","1","undefined","1","s","0","0","0","0","57","0","0","0","57","0","57","57","57","57","57","57","09/23/21 16:37:44","1500","The main experiment item","yes","FlankerTask.osexp","C:\Users\bryan\OneDrive\Documents\School\PSYC 5316  (Quant Methods)\Lab 2","no","mono","no","18","no","white","no","yes","768","legacy","57","57","C:/Users/bryan/OneDrive/Documents/School/PSYC 5316  (Quant Methods)/Lab 2/BS-subject-1.csv","legacy","Lentiform Loewenfeld","3.3.9","0","s","NA","s","NA","NA","s","589","NA","2588","NA","NA","589","2","legacy","1024","2","48000","-16","experiment","SSSSS","1","odd","5661","NA","NA","NA","107154","3071","NA","NA","55104","3062","NA","108278","108387","108977","108273","108386","Flanker Task","56","31640","58","yes","1024"
"96.6101694915","96.6101694915","547.288135593","547.288135593","black","legacy","legacy","legacy","0","incongruent","uniform","1","undefined","1","h","0","0","0","0","58","0","0","0","58","0","58","58","58","58","58","58","09/23/21 16:37:44","1500","The main experiment item","yes","FlankerTask.osexp","C:\Users\bryan\OneDrive\Documents\School\PSYC 5316  (Quant Methods)\Lab 2","no","mono","no","18","no","white","no","yes","768","legacy","58","58","C:/Users/bryan/OneDrive/Documents/School/PSYC 5316  (Quant Methods)/Lab 2/BS-subject-1.csv","legacy","Lentiform Loewenfeld","3.3.9","0","h","NA","s","NA","NA","h","650","NA","2588","NA","NA","650","2","legacy","1024","2","48000","-16","experiment","SSHSS","1","odd","5661","NA","NA","NA","108987","3071","NA","NA","55104","3062","NA","110112","110221","110872","110107","110220","Flanker Task","57","32290","59","yes","1024"
"96.6666666667","96.6666666667","546.933333333","546.933333333","black","legacy","legacy","legacy","0","congruent","uniform","1","undefined","1","h","0","0","0","0","59","0","0","0","59","0","59","59","59","59","59","59","09/23/21 16:37:44","1500","The main experiment item","yes","FlankerTask.osexp","C:\Users\bryan\OneDrive\Documents\School\PSYC 5316  (Quant Methods)\Lab 2","no","mono","no","18","no","white","no","yes","768","legacy","59","59","C:/Users/bryan/OneDrive/Documents/School/PSYC 5316  (Quant Methods)/Lab 2/BS-subject-1.csv","legacy","Lentiform Loewenfeld","3.3.9","0","h","NA","s","NA","NA","h","526","NA","2588","NA","NA","526","2","legacy","1024","2","48000","-16","experiment","HHHHH","1","odd","5661","NA","NA","NA","110881","3071","NA","NA","55104","3062","NA","112004","112112","112639","112000","112112","Flanker Task","58","32816","60","yes","1024"
"96.7213114754","96.7213114754","546.786885246","546.786885246","black","legacy","legacy","legacy","0","congruent","uniform","1","undefined","1","h","0","0","0","0","60","0","0","0","60","0","60","60","60","60","60","60","09/23/21 16:37:44","1500","The main experiment item","yes","FlankerTask.osexp","C:\Users\bryan\OneDrive\Documents\School\PSYC 5316  (Quant Methods)\Lab 2","no","mono","no","18","no","white","no","yes","768","legacy","60","60","C:/Users/bryan/OneDrive/Documents/School/PSYC 5316  (Quant Methods)/Lab 2/BS-subject-1.csv","legacy","Lentiform Loewenfeld","3.3.9","0","h","NA","s","NA","NA","h","538","NA","2588","NA","NA","538","2","legacy","1024","2","48000","-16","experiment","HHHHH","1","odd","5661","NA","NA","NA","112648","3071","NA","NA","55104","3062","NA","113772","113880","114419","113767","113879","Flanker Task","59","33354","61","yes","1024"
"96.7741935484","96.7741935484","545.822580645","545.822580645","black","legacy","legacy","legacy","0","incongruent","uniform","1","undefined","1","s","0","0","0","0","61","0","0","0","61","0","61","61","61","61","61","61","09/23/21 16:37:44","1500","The main experiment item","yes","FlankerTask.osexp","C:\Users\bryan\OneDrive\Documents\School\PSYC 5316  (Quant Methods)\Lab 2","no","mono","no","18","no","white","no","yes","768","legacy","61","61","C:/Users/bryan/OneDrive/Documents/School/PSYC 5316  (Quant Methods)/Lab 2/BS-subject-1.csv","legacy","Lentiform Loewenfeld","3.3.9","0","s","NA","s","NA","NA","s","487","NA","2588","NA","NA","487","2","legacy","1024","2","48000","-16","experiment","HHSHH","1","odd","5661","NA","NA","NA","114429","3071","NA","NA","55104","3062","NA","115553","115661","116150","115548","115660","Flanker Task","60","33841","62","yes","1024"
"96.8253968254","96.8253968254","544.825396825","544.825396825","black","legacy","legacy","legacy","0","incongruent","uniform","1","undefined","1","s","0","0","0","0","62","0","0","0","62","0","62","62","62","62","62","62","09/23/21 16:37:44","1500","The main experiment item","yes","FlankerTask.osexp","C:\Users\bryan\OneDrive\Documents\School\PSYC 5316  (Quant Methods)\Lab 2","no","mono","no","18","no","white","no","yes","768","legacy","62","62","C:/Users/bryan/OneDrive/Documents/School/PSYC 5316  (Quant Methods)/Lab 2/BS-subject-1.csv","legacy","Lentiform Loewenfeld","3.3.9","0","s","NA","s","NA","NA","s","483","NA","2588","NA","NA","483","2","legacy","1024","2","48000","-16","experiment","HHSHH","1","odd","5661","NA","NA","NA","116159","3071","NA","NA","55104","3062","NA","117292","117401","117886","117287","117400","Flanker Task","61","34324","63","yes","1024"
"96.875","96.875","544.375","544.375","black","legacy","legacy","legacy","0","incongruent","uniform","1","undefined","1","h","0","0","0","0","63","0","0","0","63","0","63","63","63","63","63","63","09/23/21 16:37:44","1500","The main experiment item","yes","FlankerTask.osexp","C:\Users\bryan\OneDrive\Documents\School\PSYC 5316  (Quant Methods)\Lab 2","no","mono","no","18","no","white","no","yes","768","legacy","63","63","C:/Users/bryan/OneDrive/Documents/School/PSYC 5316  (Quant Methods)/Lab 2/BS-subject-1.csv","legacy","Lentiform Loewenfeld","3.3.9","0","h","NA","s","NA","NA","h","516","NA","2588","NA","NA","516","2","legacy","1024","2","48000","-16","experiment","SSHSS","1","odd","5661","NA","NA","NA","117896","3071","NA","NA","55104","3062","NA","119018","119128","119646","119014","119127","Flanker Task","62","34840","64","yes","1024"
"96.9230769231","96.9230769231","544.076923077","544.076923077","black","legacy","legacy","legacy","0","incongruent","uniform","1","undefined","1","h","0","0","0","0","64","0","0","0","64","0","64","64","64","64","64","64","09/23/21 16:37:44","1500","The main experiment item","yes","FlankerTask.osexp","C:\Users\bryan\OneDrive\Documents\School\PSYC 5316  (Quant Methods)\Lab 2","no","mono","no","18","no","white","no","yes","768","legacy","64","64","C:/Users/bryan/OneDrive/Documents/School/PSYC 5316  (Quant Methods)/Lab 2/BS-subject-1.csv","legacy","Lentiform Loewenfeld","3.3.9","0","h","NA","s","NA","NA","h","525","NA","2588","NA","NA","525","2","legacy","1024","2","48000","-16","experiment","SSHSS","1","odd","5661","NA","NA","NA","119653","3071","NA","NA","55104","3062","NA","120772","120881","121407","120768","120880","Flanker Task","63","35365","65","yes","1024"
"96.9696969697","96.9696969697","547.212121212","547.212121212","black","legacy","legacy","legacy","0","congruent","uniform","1","undefined","1","h","0","0","0","0","65","0","0","0","65","0","65","65","65","65","65","65","09/23/21 16:37:44","1500","The main experiment item","yes","FlankerTask.osexp","C:\Users\bryan\OneDrive\Documents\School\PSYC 5316  (Quant Methods)\Lab 2","no","mono","no","18","no","white","no","yes","768","legacy","65","65","C:/Users/bryan/OneDrive/Documents/School/PSYC 5316  (Quant Methods)/Lab 2/BS-subject-1.csv","legacy","Lentiform Loewenfeld","3.3.9","0","h","NA","s","NA","NA","h","751","NA","2588","NA","NA","751","2","legacy","1024","2","48000","-16","experiment","HHHHH","1","odd","5661","NA","NA","NA","121417","3071","NA","NA","55104","3062","NA","122535","122644","123397","122531","122644","Flanker Task","64","36116","66","yes","1024"
"97.0149253731","97.0149253731","549.089552239","549.089552239","black","legacy","legacy","legacy","0","incongruent","uniform","1","undefined","1","h","0","0","0","0","66","0","0","0","66","0","66","66","66","66","66","66","09/23/21 16:37:44","1500","The main experiment item","yes","FlankerTask.osexp","C:\Users\bryan\OneDrive\Documents\School\PSYC 5316  (Quant Methods)\Lab 2","no","mono","no","18","no","white","no","yes","768","legacy","66","66","C:/Users/bryan/OneDrive/Documents/School/PSYC 5316  (Quant Methods)/Lab 2/BS-subject-1.csv","legacy","Lentiform Loewenfeld","3.3.9","0","h","NA","s","NA","NA","h","673","NA","2588","NA","NA","673","2","legacy","1024","2","48000","-16","experiment","SSHSS","1","odd","5661","NA","NA","NA","123406","3071","NA","NA","55104","3062","NA","124517","124626","125300","124513","124625","Flanker Task","65","36789","67","yes","1024"
"97.0588235294","97.0588235294","549.647058824","549.647058824","black","legacy","legacy","legacy","0","incongruent","uniform","1","undefined","1","h","0","0","0","0","67","0","0","0","67","0","67","67","67","67","67","67","09/23/21 16:37:44","1500","The main experiment item","yes","FlankerTask.osexp","C:\Users\bryan\OneDrive\Documents\School\PSYC 5316  (Quant Methods)\Lab 2","no","mono","no","18","no","white","no","yes","768","legacy","67","67","C:/Users/bryan/OneDrive/Documents/School/PSYC 5316  (Quant Methods)/Lab 2/BS-subject-1.csv","legacy","Lentiform Loewenfeld","3.3.9","0","h","NA","s","NA","NA","h","587","NA","2588","NA","NA","587","2","legacy","1024","2","48000","-16","experiment","SSHSS","1","odd","5661","NA","NA","NA","125309","3071","NA","NA","55104","3062","NA","126434","126542","127130","126429","126542","Flanker Task","66","37376","68","yes","1024"
"97.1014492754","97.1014492754","548.811594203","548.811594203","black","legacy","legacy","legacy","0","congruent","uniform","1","undefined","1","h","0","0","0","0","68","0","0","0","68","0","68","68","68","68","68","68","09/23/21 16:37:44","1500","The main experiment item","yes","FlankerTask.osexp","C:\Users\bryan\OneDrive\Documents\School\PSYC 5316  (Quant Methods)\Lab 2","no","mono","no","18","no","white","no","yes","768","legacy","68","68","C:/Users/bryan/OneDrive/Documents/School/PSYC 5316  (Quant Methods)/Lab 2/BS-subject-1.csv","legacy","Lentiform Loewenfeld","3.3.9","0","h","NA","s","NA","NA","h","492","NA","2588","NA","NA","492","2","legacy","1024","2","48000","-16","experiment","HHHHH","1","odd","5661","NA","NA","NA","127137","3071","NA","NA","55104","3062","NA","128256","128366","128860","128252","128365","Flanker Task","67","37868","69","yes","1024"
"97.1428571429","97.1428571429","548.514285714","548.514285714","black","legacy","legacy","legacy","0","incongruent","uniform","1","undefined","1","s","0","0","0","0","69","0","0","0","69","0","69","69","69","69","69","69","09/23/21 16:37:44","1500","The main experiment item","yes","FlankerTask.osexp","C:\Users\bryan\OneDrive\Documents\School\PSYC 5316  (Quant Methods)\Lab 2","no","mono","no","18","no","white","no","yes","768","legacy","69","69","C:/Users/bryan/OneDrive/Documents/School/PSYC 5316  (Quant Methods)/Lab 2/BS-subject-1.csv","legacy","Lentiform Loewenfeld","3.3.9","0","s","NA","s","NA","NA","s","528","NA","2588","NA","NA","528","2","legacy","1024","2","48000","-16","experiment","HHSHH","1","odd","5661","NA","NA","NA","128870","3071","NA","NA","55104","3062","NA","130000","130109","130638","129996","130108","Flanker Task","68","38396","70","yes","1024"
"97.1830985915","97.1830985915","547.915492958","547.915492958","black","legacy","legacy","legacy","0","congruent","uniform","1","undefined","1","h","0","0","0","0","70","0","0","0","70","0","70","70","70","70","70","70","09/23/21 16:37:44","1500","The main experiment item","yes","FlankerTask.osexp","C:\Users\bryan\OneDrive\Documents\School\PSYC 5316  (Quant Methods)\Lab 2","no","mono","no","18","no","white","no","yes","768","legacy","70","70","C:/Users/bryan/OneDrive/Documents/School/PSYC 5316  (Quant Methods)/Lab 2/BS-subject-1.csv","legacy","Lentiform Loewenfeld","3.3.9","0","h","NA","s","NA","NA","h","506","NA","2588","NA","NA","506","2","legacy","1024","2","48000","-16","experiment","HHHHH","1","odd","5661","NA","NA","NA","130646","3071","NA","NA","55104","3062","NA","131769","131879","132387","131765","131878","Flanker Task","69","38902","71","yes","1024"
"97.2222222222","97.2222222222","547.777777778","547.777777778","black","legacy","legacy","legacy","0","congruent","uniform","1","undefined","1","h","0","0","0","0","71","0","0","0","71","0","71","71","71","71","71","71","09/23/21 16:37:44","1500","The main experiment item","yes","FlankerTask.osexp","C:\Users\bryan\OneDrive\Documents\School\PSYC 5316  (Quant Methods)\Lab 2","no","mono","no","18","no","white","no","yes","768","legacy","71","71","C:/Users/bryan/OneDrive/Documents/School/PSYC 5316  (Quant Methods)/Lab 2/BS-subject-1.csv","legacy","Lentiform Loewenfeld","3.3.9","0","h","NA","s","NA","NA","h","538","NA","2588","NA","NA","538","2","legacy","1024","2","48000","-16","experiment","HHHHH","1","odd","5661","NA","NA","NA","132397","3071","NA","NA","55104","3062","NA","133511","133619","134158","133505","133618","Flanker Task","70","39440","72","yes","1024"
"97.2602739726","97.2602739726","547.232876712","547.232876712","black","legacy","legacy","legacy","0","incongruent","uniform","1","undefined","1","s","0","0","0","0","72","0","0","0","72","0","72","72","72","72","72","72","09/23/21 16:37:44","1500","The main experiment item","yes","FlankerTask.osexp","C:\Users\bryan\OneDrive\Documents\School\PSYC 5316  (Quant Methods)\Lab 2","no","mono","no","18","no","white","no","yes","768","legacy","72","72","C:/Users/bryan/OneDrive/Documents/School/PSYC 5316  (Quant Methods)/Lab 2/BS-subject-1.csv","legacy","Lentiform Loewenfeld","3.3.9","0","s","NA","s","NA","NA","s","508","NA","2588","NA","NA","508","2","legacy","1024","2","48000","-16","experiment","HHSHH","1","odd","5661","NA","NA","NA","134168","3071","NA","NA","55104","3062","NA","135287","135396","135905","135283","135395","Flanker Task","71","39948","73","yes","1024"
"97.2972972973","97.2972972973","546.675675676","546.675675676","black","legacy","legacy","legacy","0","incongruent","uniform","1","undefined","1","s","0","0","0","0","73","0","0","0","73","0","73","73","73","73","73","73","09/23/21 16:37:44","1500","The main experiment item","yes","FlankerTask.osexp","C:\Users\bryan\OneDrive\Documents\School\PSYC 5316  (Quant Methods)\Lab 2","no","mono","no","18","no","white","no","yes","768","legacy","73","73","C:/Users/bryan/OneDrive/Documents/School/PSYC 5316  (Quant Methods)/Lab 2/BS-subject-1.csv","legacy","Lentiform Loewenfeld","3.3.9","0","s","NA","s","NA","NA","s","506","NA","2588","NA","NA","506","2","legacy","1024","2","48000","-16","experiment","HHSHH","1","odd","5661","NA","NA","NA","135913","3071","NA","NA","55104","3062","NA","137031","137140","137648","137026","137139","Flanker Task","72","40454","74","yes","1024"
"97.3333333333","97.3333333333","545.733333333","545.733333333","black","legacy","legacy","legacy","0","congruent","uniform","1","undefined","1","s","0","0","0","0","74","0","0","0","74","0","74","74","74","74","74","74","09/23/21 16:37:44","1500","The main experiment item","yes","FlankerTask.osexp","C:\Users\bryan\OneDrive\Documents\School\PSYC 5316  (Quant Methods)\Lab 2","no","mono","no","18","no","white","no","yes","768","legacy","74","74","C:/Users/bryan/OneDrive/Documents/School/PSYC 5316  (Quant Methods)/Lab 2/BS-subject-1.csv","legacy","Lentiform Loewenfeld","3.3.9","0","s","NA","s","NA","NA","s","476","NA","2588","NA","NA","476","2","legacy","1024","2","48000","-16","experiment","SSSSS","1","odd","5661","NA","NA","NA","137658","3071","NA","NA","55104","3062","NA","138767","138876","139354","138762","138875","Flanker Task","73","40930","75","yes","1024"
"97.3684210526","97.3684210526","545.947368421","545.947368421","black","legacy","legacy","legacy","0","congruent","uniform","1","undefined","1","s","0","0","0","0","75","0","0","0","75","0","75","75","75","75","75","75","09/23/21 16:37:44","1500","The main experiment item","yes","FlankerTask.osexp","C:\Users\bryan\OneDrive\Documents\School\PSYC 5316  (Quant Methods)\Lab 2","no","mono","no","18","no","white","no","yes","768","legacy","75","75","C:/Users/bryan/OneDrive/Documents/School/PSYC 5316  (Quant Methods)/Lab 2/BS-subject-1.csv","legacy","Lentiform Loewenfeld","3.3.9","0","s","NA","s","NA","NA","s","562","NA","2588","NA","NA","562","2","legacy","1024","2","48000","-16","experiment","SSSSS","1","odd","5661","NA","NA","NA","139364","3071","NA","NA","55104","3062","NA","140479","140588","141152","140474","140587","Flanker Task","74","41492","76","yes","1024"
"97.4025974026","97.4025974026","546.298701299","546.298701299","black","legacy","legacy","legacy","0","incongruent","uniform","1","undefined","1","s","0","0","0","0","76","0","0","0","76","0","76","76","76","76","76","76","09/23/21 16:37:44","1500","The main experiment item","yes","FlankerTask.osexp","C:\Users\bryan\OneDrive\Documents\School\PSYC 5316  (Quant Methods)\Lab 2","no","mono","no","18","no","white","no","yes","768","legacy","76","76","C:/Users/bryan/OneDrive/Documents/School/PSYC 5316  (Quant Methods)/Lab 2/BS-subject-1.csv","legacy","Lentiform Loewenfeld","3.3.9","0","s","NA","s","NA","NA","s","573","NA","2588","NA","NA","573","2","legacy","1024","2","48000","-16","experiment","HHSHH","1","odd","5661","NA","NA","NA","141161","3071","NA","NA","55104","3062","NA","142281","142384","142959","142277","142384","Flanker Task","75","42065","77","yes","1024"
"97.4358974359","97.4358974359","546.128205128","546.128205128","black","legacy","legacy","legacy","0","congruent","uniform","1","undefined","1","s","0","0","0","0","77","0","0","0","77","0","77","77","77","77","77","77","09/23/21 16:37:44","1500","The main experiment item","yes","FlankerTask.osexp","C:\Users\bryan\OneDrive\Documents\School\PSYC 5316  (Quant Methods)\Lab 2","no","mono","no","18","no","white","no","yes","768","legacy","77","77","C:/Users/bryan/OneDrive/Documents/School/PSYC 5316  (Quant Methods)/Lab 2/BS-subject-1.csv","legacy","Lentiform Loewenfeld","3.3.9","0","s","NA","s","NA","NA","s","533","NA","2588","NA","NA","533","2","legacy","1024","2","48000","-16","experiment","SSSSS","1","odd","5661","NA","NA","NA","142966","3071","NA","NA","55104","3062","NA","144079","144187","144721","144075","144186","Flanker Task","76","42598","78","yes","1024"
"97.4683544304","97.4683544304","546.139240506","546.139240506","black","legacy","legacy","legacy","0","incongruent","uniform","1","undefined","1","s","0","0","0","0","78","0","0","0","78","0","78","78","78","78","78","78","09/23/21 16:37:44","1500","The main experiment item","yes","FlankerTask.osexp","C:\Users\bryan\OneDrive\Documents\School\PSYC 5316  (Quant Methods)\Lab 2","no","mono","no","18","no","white","no","yes","768","legacy","78","78","C:/Users/bryan/OneDrive/Documents/School/PSYC 5316  (Quant Methods)/Lab 2/BS-subject-1.csv","legacy","Lentiform Loewenfeld","3.3.9","0","s","NA","s","NA","NA","s","547","NA","2588","NA","NA","547","2","legacy","1024","2","48000","-16","experiment","HHSHH","1","odd","5661","NA","NA","NA","144728","3071","NA","NA","55104","3062","NA","145848","145958","146507","145843","145957","Flanker Task","77","43145","79","yes","1024"
"97.5","97.5","545.075","545.075","black","legacy","legacy","legacy","0","incongruent","uniform","1","undefined","1","s","0","0","0","0","79","0","0","0","79","0","79","79","79","79","79","79","09/23/21 16:37:44","1500","The main experiment item","yes","FlankerTask.osexp","C:\Users\bryan\OneDrive\Documents\School\PSYC 5316  (Quant Methods)\Lab 2","no","mono","no","18","no","white","no","yes","768","legacy","79","79","C:/Users/bryan/OneDrive/Documents/School/PSYC 5316  (Quant Methods)/Lab 2/BS-subject-1.csv","legacy","Lentiform Loewenfeld","3.3.9","0","s","NA","s","NA","NA","s","461","NA","2588","NA","NA","461","2","legacy","1024","2","48000","-16","experiment","HHSHH","1","odd","5661","NA","NA","NA","146518","3071","NA","NA","55104","3062","NA","147641","147750","148213","147636","147749","Flanker Task","78","43606","80","yes","1024"
"96.2962962963","96.2962962963","544.530864198","544.530864198","black","legacy","legacy","legacy","0","incongruent","uniform","0","undefined","0","h","0","0","0","0","80","0","0","0","80","0","80","80","80","80","80","80","09/23/21 16:37:44","600","The main experiment item","yes","FlankerTask.osexp","C:\Users\bryan\OneDrive\Documents\School\PSYC 5316  (Quant Methods)\Lab 2","no","mono","no","18","no","white","no","yes","768","legacy","0","79","C:/Users/bryan/OneDrive/Documents/School/PSYC 5316  (Quant Methods)/Lab 2/BS-subject-1.csv","legacy","Lentiform Loewenfeld","3.3.9","0","s","NA","s","s","NA","s","501","NA","2588","80625","NA","501","2","legacy","1024","2","48000","-16","experiment","SSHSS","1","odd","5661","229876","NA","NA","148219","3071","149249","NA","55104","3062","NA","229983","230092","230595","229979","230091","Flanker Task","78","44107","81","yes","1024"
"96.3414634146","96.3414634146","543.743902439","543.743902439","black","legacy","legacy","legacy","0","incongruent","uniform","1","undefined","1","h","0","0","0","0","81","0","0","0","81","0","81","81","81","81","81","81","09/23/21 16:37:44","600","The main experiment item","yes","FlankerTask.osexp","C:\Users\bryan\OneDrive\Documents\School\PSYC 5316  (Quant Methods)\Lab 2","no","mono","no","18","no","white","no","yes","768","legacy","1","79","C:/Users/bryan/OneDrive/Documents/School/PSYC 5316  (Quant Methods)/Lab 2/BS-subject-1.csv","legacy","Lentiform Loewenfeld","3.3.9","0","h","NA","s","s","NA","h","480","NA","2588","80625","NA","480","2","legacy","1024","2","48000","-16","experiment","SSHSS","1","odd","5661","229876","NA","NA","231111","3071","149249","NA","230604","3062","NA","232240","232349","232830","232235","232348","Flanker Task","79","44587","82","yes","1024"
"96.3855421687","96.3855421687","543.78313253","543.78313253","black","legacy","legacy","legacy","0","incongruent","uniform","1","undefined","1","h","0","0","0","0","82","0","0","0","82","0","82","82","82","82","82","82","09/23/21 16:37:44","600","The main experiment item","yes","FlankerTask.osexp","C:\Users\bryan\OneDrive\Documents\School\PSYC 5316  (Quant Methods)\Lab 2","no","mono","no","18","no","white","no","yes","768","legacy","2","79","C:/Users/bryan/OneDrive/Documents/School/PSYC 5316  (Quant Methods)/Lab 2/BS-subject-1.csv","legacy","Lentiform Loewenfeld","3.3.9","0","h","NA","s","s","NA","h","547","NA","2588","80625","NA","547","2","legacy","1024","2","48000","-16","experiment","SSHSS","1","odd","5661","229876","NA","NA","232836","3071","149249","NA","230604","3062","NA","233960","234069","234617","233956","234068","Flanker Task","80","45134","83","yes","1024"
"96.4285714286","96.4285714286","543.011904762","543.011904762","black","legacy","legacy","legacy","0","congruent","uniform","1","undefined","1","h","0","0","0","0","83","0","0","0","83","0","83","83","83","83","83","83","09/23/21 16:37:44","600","The main experiment item","yes","FlankerTask.osexp","C:\Users\bryan\OneDrive\Documents\School\PSYC 5316  (Quant Methods)\Lab 2","no","mono","no","18","no","white","no","yes","768","legacy","3","79","C:/Users/bryan/OneDrive/Documents/School/PSYC 5316  (Quant Methods)/Lab 2/BS-subject-1.csv","legacy","Lentiform Loewenfeld","3.3.9","0","h","NA","s","s","NA","h","479","NA","2588","80625","NA","479","2","legacy","1024","2","48000","-16","experiment","HHHHH","1","odd","5661","229876","NA","NA","234626","3071","149249","NA","230604","3062","NA","235750","235859","236339","235746","235858","Flanker Task","81","45613","84","yes","1024"
"96.4705882353","96.4705882353","542.423529412","542.423529412","black","legacy","legacy","legacy","0","congruent","uniform","1","undefined","1","h","0","0","0","0","84","0","0","0","84","0","84","84","84","84","84","84","09/23/21 16:37:44","600","The main experiment item","yes","FlankerTask.osexp","C:\Users\bryan\OneDrive\Documents\School\PSYC 5316  (Quant Methods)\Lab 2","no","mono","no","18","no","white","no","yes","768","legacy","4","79","C:/Users/bryan/OneDrive/Documents/School/PSYC 5316  (Quant Methods)/Lab 2/BS-subject-1.csv","legacy","Lentiform Loewenfeld","3.3.9","0","h","NA","s","s","NA","h","493","NA","2588","80625","NA","493","2","legacy","1024","2","48000","-16","experiment","HHHHH","1","odd","5661","229876","NA","NA","236346","3071","149249","NA","230604","3062","NA","237466","237575","238070","237462","237574","Flanker Task","82","46106","85","yes","1024"
"96.511627907","96.511627907","542.860465116","542.860465116","black","legacy","legacy","legacy","0","incongruent","uniform","1","undefined","1","h","0","0","0","0","85","0","0","0","85","0","85","85","85","85","85","85","09/23/21 16:37:44","600","The main experiment item","yes","FlankerTask.osexp","C:\Users\bryan\OneDrive\Documents\School\PSYC 5316  (Quant Methods)\Lab 2","no","mono","no","18","no","white","no","yes","768","legacy","5","79","C:/Users/bryan/OneDrive/Documents/School/PSYC 5316  (Quant Methods)/Lab 2/BS-subject-1.csv","legacy","Lentiform Loewenfeld","3.3.9","0","h","NA","s","s","NA","h","580","NA","2588","80625","NA","580","2","legacy","1024","2","48000","-16","experiment","SSHSS","1","odd","5661","229876","NA","NA","238077","3071","149249","NA","230604","3062","NA","239204","239313","239896","239199","239312","Flanker Task","83","46686","86","yes","1024"
"96.5517241379","96.5517241379","543.413793103","543.413793103","black","legacy","legacy","legacy","0","incongruent","uniform","1","undefined","1","s","0","0","0","0","86","0","0","0","86","0","86","86","86","86","86","86","09/23/21 16:37:44","600","The main experiment item","yes","FlankerTask.osexp","C:\Users\bryan\OneDrive\Documents\School\PSYC 5316  (Quant Methods)\Lab 2","no","mono","no","18","no","white","no","yes","768","legacy","6","79","C:/Users/bryan/OneDrive/Documents/School/PSYC 5316  (Quant Methods)/Lab 2/BS-subject-1.csv","legacy","Lentiform Loewenfeld","3.3.9","0","s","NA","s","s","NA","s","591","NA","2588","80625","NA","591","2","legacy","1024","2","48000","-16","experiment","HHSHH","1","odd","5661","229876","NA","NA","239903","3071","149249","NA","230604","3062","NA","241030","241137","241730","241025","241137","Flanker Task","84","47277","87","yes","1024"
"96.5909090909","96.5909090909","546.886363636","546.886363636","black","legacy","legacy","legacy","0","congruent","uniform","1","undefined","1","s","0","0","0","0","87","0","0","0","87","0","87","87","87","87","87","87","09/23/21 16:37:44","600","The main experiment item","yes","FlankerTask.osexp","C:\Users\bryan\OneDrive\Documents\School\PSYC 5316  (Quant Methods)\Lab 2","no","mono","no","18","no","white","no","yes","768","legacy","7","79","C:/Users/bryan/OneDrive/Documents/School/PSYC 5316  (Quant Methods)/Lab 2/BS-subject-1.csv","legacy","Lentiform Loewenfeld","3.3.9","0","s","NA","s","s","NA","s","849","NA","2588","80625","NA","849","2","legacy","1024","2","48000","-16","experiment","SSSSS","1","odd","5661","229876","NA","NA","241736","3071","149249","NA","230604","3062","NA","242861","242971","243822","242857","242970","Flanker Task","85","48126","88","yes","1024"
"96.6292134831","96.6292134831","549.02247191","549.02247191","black","legacy","legacy","legacy","0","congruent","uniform","1","undefined","1","s","0","0","0","0","88","0","0","0","88","0","88","88","88","88","88","88","09/23/21 16:37:44","600","The main experiment item","yes","FlankerTask.osexp","C:\Users\bryan\OneDrive\Documents\School\PSYC 5316  (Quant Methods)\Lab 2","no","mono","no","18","no","white","no","yes","768","legacy","8","79","C:/Users/bryan/OneDrive/Documents/School/PSYC 5316  (Quant Methods)/Lab 2/BS-subject-1.csv","legacy","Lentiform Loewenfeld","3.3.9","0","s","NA","s","s","NA","s","737","NA","2588","80625","NA","737","2","legacy","1024","2","48000","-16","experiment","SSSSS","1","odd","5661","229876","NA","NA","244336","3071","149249","NA","230604","3062","243828","245450","245560","246299","245446","245559","Flanker Task","86","48863","89","yes","1024"
"96.6666666667","96.6666666667","548.188888889","548.188888889","black","legacy","legacy","legacy","0","congruent","uniform","1","undefined","1","h","0","0","0","0","89","0","0","0","89","0","89","89","89","89","89","89","09/23/21 16:37:44","600","The main experiment item","yes","FlankerTask.osexp","C:\Users\bryan\OneDrive\Documents\School\PSYC 5316  (Quant Methods)\Lab 2","no","mono","no","18","no","white","no","yes","768","legacy","9","79","C:/Users/bryan/OneDrive/Documents/School/PSYC 5316  (Quant Methods)/Lab 2/BS-subject-1.csv","legacy","Lentiform Loewenfeld","3.3.9","0","h","NA","s","s","NA","h","474","NA","2588","80625","NA","474","2","legacy","1024","2","48000","-16","experiment","HHHHH","1","odd","5661","229876","NA","NA","246818","3071","149249","NA","230604","3062","246310","247928","248031","248507","247923","248031","Flanker Task","87","49337","90","yes","1024"
"96.7032967033","96.7032967033","548.087912088","548.087912088","black","legacy","legacy","legacy","0","incongruent","uniform","1","undefined","1","s","0","0","0","0","90","0","0","0","90","0","90","90","90","90","90","90","09/23/21 16:37:44","600","The main experiment item","yes","FlankerTask.osexp","C:\Users\bryan\OneDrive\Documents\School\PSYC 5316  (Quant Methods)\Lab 2","no","mono","no","18","no","white","no","yes","768","legacy","10","79","C:/Users/bryan/OneDrive/Documents/School/PSYC 5316  (Quant Methods)/Lab 2/BS-subject-1.csv","legacy","Lentiform Loewenfeld","3.3.9","0","s","NA","s","s","NA","s","539","NA","2588","80625","NA","539","2","legacy","1024","2","48000","-16","experiment","HHSHH","1","odd","5661","229876","NA","NA","248514","3071","149249","NA","230604","3062","246310","249630","249733","250273","249625","249733","Flanker Task","88","49876","91","yes","1024"
"96.7391304348","96.7391304348","547.945652174","547.945652174","black","legacy","legacy","legacy","0","congruent","uniform","1","undefined","1","h","0","0","0","0","91","0","0","0","91","0","91","91","91","91","91","91","09/23/21 16:37:44","600","The main experiment item","yes","FlankerTask.osexp","C:\Users\bryan\OneDrive\Documents\School\PSYC 5316  (Quant Methods)\Lab 2","no","mono","no","18","no","white","no","yes","768","legacy","11","79","C:/Users/bryan/OneDrive/Documents/School/PSYC 5316  (Quant Methods)/Lab 2/BS-subject-1.csv","legacy","Lentiform Loewenfeld","3.3.9","0","h","NA","s","s","NA","h","535","NA","2588","80625","NA","535","2","legacy","1024","2","48000","-16","experiment","HHHHH","1","odd","5661","229876","NA","NA","250283","3071","149249","NA","230604","3062","246310","251393","251502","252039","251389","251501","Flanker Task","89","50411","92","yes","1024"
"96.7741935484","96.7741935484","547.924731183","547.924731183","black","legacy","legacy","legacy","0","incongruent","uniform","1","undefined","1","s","0","0","0","0","92","0","0","0","92","0","92","92","92","92","92","92","09/23/21 16:37:44","600","The main experiment item","yes","FlankerTask.osexp","C:\Users\bryan\OneDrive\Documents\School\PSYC 5316  (Quant Methods)\Lab 2","no","mono","no","18","no","white","no","yes","768","legacy","12","79","C:/Users/bryan/OneDrive/Documents/School/PSYC 5316  (Quant Methods)/Lab 2/BS-subject-1.csv","legacy","Lentiform Loewenfeld","3.3.9","0","s","NA","s","s","NA","s","546","NA","2588","80625","NA","546","2","legacy","1024","2","48000","-16","experiment","HHSHH","1","odd","5661","229876","NA","NA","252050","3071","149249","NA","230604","3062","246310","253166","253273","253821","253161","253273","Flanker Task","90","50957","93","yes","1024"
"96.8085106383","96.8085106383","547.031914894","547.031914894","black","legacy","legacy","legacy","0","congruent","uniform","1","undefined","1","s","0","0","0","0","93","0","0","0","93","0","93","93","93","93","93","93","09/23/21 16:37:44","600","The main experiment item","yes","FlankerTask.osexp","C:\Users\bryan\OneDrive\Documents\School\PSYC 5316  (Quant Methods)\Lab 2","no","mono","no","18","no","white","no","yes","768","legacy","13","79","C:/Users/bryan/OneDrive/Documents/School/PSYC 5316  (Quant Methods)/Lab 2/BS-subject-1.csv","legacy","Lentiform Loewenfeld","3.3.9","0","s","NA","s","s","NA","s","464","NA","2588","80625","NA","464","2","legacy","1024","2","48000","-16","experiment","SSSSS","1","odd","5661","229876","NA","NA","253831","3071","149249","NA","230604","3062","246310","254962","255072","255538","254958","255071","Flanker Task","91","51421","94","yes","1024"
"96.8421052632","96.8421052632","546.778947368","546.778947368","black","legacy","legacy","legacy","0","incongruent","uniform","1","undefined","1","s","0","0","0","0","94","0","0","0","94","0","94","94","94","94","94","94","09/23/21 16:37:44","600","The main experiment item","yes","FlankerTask.osexp","C:\Users\bryan\OneDrive\Documents\School\PSYC 5316  (Quant Methods)\Lab 2","no","mono","no","18","no","white","no","yes","768","legacy","14","79","C:/Users/bryan/OneDrive/Documents/School/PSYC 5316  (Quant Methods)/Lab 2/BS-subject-1.csv","legacy","Lentiform Loewenfeld","3.3.9","0","s","NA","s","s","NA","s","523","NA","2588","80625","NA","523","2","legacy","1024","2","48000","-16","experiment","HHSHH","1","odd","5661","229876","NA","NA","255548","3071","149249","NA","230604","3062","246310","256668","256776","257301","256664","256776","Flanker Task","92","51944","95","yes","1024"
"96.875","96.875","546.302083333","546.302083333","black","legacy","legacy","legacy","0","congruent","uniform","1","undefined","1","h","0","0","0","0","95","0","0","0","95","0","95","95","95","95","95","95","09/23/21 16:37:44","600","The main experiment item","yes","FlankerTask.osexp","C:\Users\bryan\OneDrive\Documents\School\PSYC 5316  (Quant Methods)\Lab 2","no","mono","no","18","no","white","no","yes","768","legacy","15","79","C:/Users/bryan/OneDrive/Documents/School/PSYC 5316  (Quant Methods)/Lab 2/BS-subject-1.csv","legacy","Lentiform Loewenfeld","3.3.9","0","h","NA","s","s","NA","h","501","NA","2588","80625","NA","501","2","legacy","1024","2","48000","-16","experiment","HHHHH","1","odd","5661","229876","NA","NA","257308","3071","149249","NA","230604","3062","246310","258431","258541","259043","258427","258540","Flanker Task","93","52445","96","yes","1024"
"96.9072164948","96.9072164948","545.587628866","545.587628866","black","legacy","legacy","legacy","0","incongruent","uniform","1","undefined","1","h","0","0","0","0","96","0","0","0","96","0","96","96","96","96","96","96","09/23/21 16:37:44","600","The main experiment item","yes","FlankerTask.osexp","C:\Users\bryan\OneDrive\Documents\School\PSYC 5316  (Quant Methods)\Lab 2","no","mono","no","18","no","white","no","yes","768","legacy","16","79","C:/Users/bryan/OneDrive/Documents/School/PSYC 5316  (Quant Methods)/Lab 2/BS-subject-1.csv","legacy","Lentiform Loewenfeld","3.3.9","0","h","NA","s","s","NA","h","477","NA","2588","80625","NA","477","2","legacy","1024","2","48000","-16","experiment","SSHSS","1","odd","5661","229876","NA","NA","259051","3071","149249","NA","230604","3062","246310","260172","260281","260760","260168","260280","Flanker Task","94","52922","97","yes","1024"
"96.9387755102","96.9387755102","545.153061224","545.153061224","black","legacy","legacy","legacy","0","incongruent","uniform","1","undefined","1","h","0","0","0","0","97","0","0","0","97","0","97","97","97","97","97","97","09/23/21 16:37:44","600","The main experiment item","yes","FlankerTask.osexp","C:\Users\bryan\OneDrive\Documents\School\PSYC 5316  (Quant Methods)\Lab 2","no","mono","no","18","no","white","no","yes","768","legacy","17","79","C:/Users/bryan/OneDrive/Documents/School/PSYC 5316  (Quant Methods)/Lab 2/BS-subject-1.csv","legacy","Lentiform Loewenfeld","3.3.9","0","h","NA","s","s","NA","h","503","NA","2588","80625","NA","503","2","legacy","1024","2","48000","-16","experiment","SSHSS","1","odd","5661","229876","NA","NA","260770","3071","149249","NA","230604","3062","246310","261886","261995","262500","261882","261994","Flanker Task","95","53425","98","yes","1024"
"96.9696969697","96.9696969697","544.404040404","544.404040404","black","legacy","legacy","legacy","0","incongruent","uniform","1","undefined","1","h","0","0","0","0","98","0","0","0","98","0","98","98","98","98","98","98","09/23/21 16:37:44","600","The main experiment item","yes","FlankerTask.osexp","C:\Users\bryan\OneDrive\Documents\School\PSYC 5316  (Quant Methods)\Lab 2","no","mono","no","18","no","white","no","yes","768","legacy","18","79","C:/Users/bryan/OneDrive/Documents/School/PSYC 5316  (Quant Methods)/Lab 2/BS-subject-1.csv","legacy","Lentiform Loewenfeld","3.3.9","0","h","NA","s","s","NA","h","471","NA","2588","80625","NA","471","2","legacy","1024","2","48000","-16","experiment","SSHSS","1","odd","5661","229876","NA","NA","262509","3071","149249","NA","230604","3062","246310","263631","263740","264213","263626","263739","Flanker Task","96","53896","99","yes","1024"
"97","97","543.66","543.66","black","legacy","legacy","legacy","0","incongruent","uniform","1","undefined","1","s","0","0","0","0","99","0","0","0","99","0","99","99","99","99","99","99","09/23/21 16:37:44","600","The main experiment item","yes","FlankerTask.osexp","C:\Users\bryan\OneDrive\Documents\School\PSYC 5316  (Quant Methods)\Lab 2","no","mono","no","18","no","white","no","yes","768","legacy","19","79","C:/Users/bryan/OneDrive/Documents/School/PSYC 5316  (Quant Methods)/Lab 2/BS-subject-1.csv","legacy","Lentiform Loewenfeld","3.3.9","0","s","NA","s","s","NA","s","470","NA","2588","80625","NA","470","2","legacy","1024","2","48000","-16","experiment","HHSHH","1","odd","5661","229876","NA","NA","264220","3071","149249","NA","230604","3062","246310","265336","265440","265912","265332","265440","Flanker Task","97","54366","100","yes","1024"
"96.0396039604","96.0396039604","542.762376238","542.762376238","black","legacy","legacy","legacy","0","congruent","uniform","0","undefined","0","h","0","0","0","0","100","0","0","0","100","0","100","100","100","100","100","100","09/23/21 16:37:44","600","The main experiment item","yes","FlankerTask.osexp","C:\Users\bryan\OneDrive\Documents\School\PSYC 5316  (Quant Methods)\Lab 2","no","mono","no","18","no","white","no","yes","768","legacy","20","79","C:/Users/bryan/OneDrive/Documents/School/PSYC 5316  (Quant Methods)/Lab 2/BS-subject-1.csv","legacy","Lentiform Loewenfeld","3.3.9","0","s","NA","s","s","NA","s","453","NA","2588","80625","NA","453","2","legacy","1024","2","48000","-16","experiment","HHHHH","1","odd","5661","229876","NA","NA","265922","3071","149249","NA","230604","3062","246310","267045","267153","267608","267041","267152","Flanker Task","97","54819","101","yes","1024"
"96.0784313725","96.0784313725","541.794117647","541.794117647","black","legacy","legacy","legacy","0","congruent","uniform","1","undefined","1","s","0","0","0","0","101","0","0","0","101","0","101","101","101","101","101","101","09/23/21 16:37:44","600","The main experiment item","yes","FlankerTask.osexp","C:\Users\bryan\OneDrive\Documents\School\PSYC 5316  (Quant Methods)\Lab 2","no","mono","no","18","no","white","no","yes","768","legacy","21","79","C:/Users/bryan/OneDrive/Documents/School/PSYC 5316  (Quant Methods)/Lab 2/BS-subject-1.csv","legacy","Lentiform Loewenfeld","3.3.9","0","s","NA","s","s","NA","s","444","NA","2588","80625","NA","444","2","legacy","1024","2","48000","-16","experiment","SSSSS","1","odd","5661","229876","NA","NA","268122","3071","149249","NA","267614","3062","246310","269237","269340","269786","269232","269340","Flanker Task","98","55263","102","yes","1024"
"96.1165048544","96.1165048544","542.116504854","542.116504854","black","legacy","legacy","legacy","0","congruent","uniform","1","undefined","1","h","0","0","0","0","102","0","0","0","102","0","102","102","102","102","102","102","09/23/21 16:37:44","600","The main experiment item","yes","FlankerTask.osexp","C:\Users\bryan\OneDrive\Documents\School\PSYC 5316  (Quant Methods)\Lab 2","no","mono","no","18","no","white","no","yes","768","legacy","22","79","C:/Users/bryan/OneDrive/Documents/School/PSYC 5316  (Quant Methods)/Lab 2/BS-subject-1.csv","legacy","Lentiform Loewenfeld","3.3.9","0","h","NA","s","s","NA","h","575","NA","2588","80625","NA","575","2","legacy","1024","2","48000","-16","experiment","HHHHH","1","odd","5661","229876","NA","NA","269796","3071","149249","NA","267614","3062","246310","270903","271007","271583","270898","271007","Flanker Task","99","55838","103","yes","1024"
"96.1538461538","96.1538461538","541.692307692","541.692307692","black","legacy","legacy","legacy","0","incongruent","uniform","1","undefined","1","s","0","0","0","0","103","0","0","0","103","0","103","103","103","103","103","103","09/23/21 16:37:44","600","The main experiment item","yes","FlankerTask.osexp","C:\Users\bryan\OneDrive\Documents\School\PSYC 5316  (Quant Methods)\Lab 2","no","mono","no","18","no","white","no","yes","768","legacy","23","79","C:/Users/bryan/OneDrive/Documents/School/PSYC 5316  (Quant Methods)/Lab 2/BS-subject-1.csv","legacy","Lentiform Loewenfeld","3.3.9","0","s","NA","s","s","NA","s","498","NA","2588","80625","NA","498","2","legacy","1024","2","48000","-16","experiment","HHSHH","1","odd","5661","229876","NA","NA","271592","3071","149249","NA","267614","3062","246310","272712","272820","273320","272708","272819","Flanker Task","100","56336","104","yes","1024"
"96.1904761905","96.1904761905","541.6","541.6","black","legacy","legacy","legacy","0","congruent","uniform","1","undefined","1","s","0","0","0","0","104","0","0","0","104","0","104","104","104","104","104","104","09/23/21 16:37:44","600","The main experiment item","yes","FlankerTask.osexp","C:\Users\bryan\OneDrive\Documents\School\PSYC 5316  (Quant Methods)\Lab 2","no","mono","no","18","no","white","no","yes","768","legacy","24","79","C:/Users/bryan/OneDrive/Documents/School/PSYC 5316  (Quant Methods)/Lab 2/BS-subject-1.csv","legacy","Lentiform Loewenfeld","3.3.9","0","s","NA","s","s","NA","s","532","NA","2588","80625","NA","532","2","legacy","1024","2","48000","-16","experiment","SSSSS","1","odd","5661","229876","NA","NA","273326","3071","149249","NA","267614","3062","246310","274448","274557","275091","274443","274556","Flanker Task","101","56868","105","yes","1024"
"96.2264150943","96.2264150943","541.471698113","541.471698113","black","legacy","legacy","legacy","0","incongruent","uniform","1","undefined","1","h","0","0","0","0","105","0","0","0","105","0","105","105","105","105","105","105","09/23/21 16:37:44","600","The main experiment item","yes","FlankerTask.osexp","C:\Users\bryan\OneDrive\Documents\School\PSYC 5316  (Quant Methods)\Lab 2","no","mono","no","18","no","white","no","yes","768","legacy","25","79","C:/Users/bryan/OneDrive/Documents/School/PSYC 5316  (Quant Methods)/Lab 2/BS-subject-1.csv","legacy","Lentiform Loewenfeld","3.3.9","0","h","NA","s","s","NA","h","528","NA","2588","80625","NA","528","2","legacy","1024","2","48000","-16","experiment","SSHSS","1","odd","5661","229876","NA","NA","275097","3071","149249","NA","267614","3062","246310","276218","276327","276856","276214","276326","Flanker Task","102","57396","106","yes","1024"
"96.261682243","96.261682243","542.392523364","542.392523364","black","legacy","legacy","legacy","0","incongruent","uniform","1","undefined","1","h","0","0","0","0","106","0","0","0","106","0","106","106","106","106","106","106","09/23/21 16:37:44","600","The main experiment item","yes","FlankerTask.osexp","C:\Users\bryan\OneDrive\Documents\School\PSYC 5316  (Quant Methods)\Lab 2","no","mono","no","18","no","white","no","yes","768","legacy","26","79","C:/Users/bryan/OneDrive/Documents/School/PSYC 5316  (Quant Methods)/Lab 2/BS-subject-1.csv","legacy","Lentiform Loewenfeld","3.3.9","0","h","NA","s","s","NA","h","640","NA","2588","80625","NA","640","2","legacy","1024","2","48000","-16","experiment","SSHSS","1","odd","5661","229876","NA","NA","276863","3071","149249","NA","267614","3062","246310","277987","278096","278738","277982","278095","Flanker Task","103","58036","107","yes","1024"
"96.2962962963","96.2962962963","543.111111111","543.111111111","black","legacy","legacy","legacy","0","congruent","uniform","1","undefined","1","s","0","0","0","0","107","0","0","0","107","0","107","107","107","107","107","107","09/23/21 16:37:44","600","The main experiment item","yes","FlankerTask.osexp","C:\Users\bryan\OneDrive\Documents\School\PSYC 5316  (Quant Methods)\Lab 2","no","mono","no","18","no","white","no","yes","768","legacy","27","79","C:/Users/bryan/OneDrive/Documents/School/PSYC 5316  (Quant Methods)/Lab 2/BS-subject-1.csv","legacy","Lentiform Loewenfeld","3.3.9","0","s","NA","s","s","NA","s","620","NA","2588","80625","NA","620","2","legacy","1024","2","48000","-16","experiment","SSSSS","1","odd","5661","229876","NA","NA","279257","3071","149249","NA","267614","3062","278749","280371","280480","281102","280366","280479","Flanker Task","104","58656","108","yes","1024"
"95.4128440367","95.4128440367","542.201834862","542.201834862","black","legacy","legacy","legacy","0","incongruent","uniform","0","undefined","0","s","0","0","0","0","108","0","0","0","108","0","108","108","108","108","108","108","09/23/21 16:37:44","600","The main experiment item","yes","FlankerTask.osexp","C:\Users\bryan\OneDrive\Documents\School\PSYC 5316  (Quant Methods)\Lab 2","no","mono","no","18","no","white","no","yes","768","legacy","28","79","C:/Users/bryan/OneDrive/Documents/School/PSYC 5316  (Quant Methods)/Lab 2/BS-subject-1.csv","legacy","Lentiform Loewenfeld","3.3.9","0","h","NA","s","s","NA","h","444","NA","2588","80625","NA","444","2","legacy","1024","2","48000","-16","experiment","HHSHH","1","odd","5661","229876","NA","NA","281621","3071","149249","NA","267614","3062","281113","282738","282847","283293","282733","282846","Flanker Task","104","59100","109","yes","1024"
"95.4545454545","95.4545454545","541.581818182","541.581818182","black","legacy","legacy","legacy","0","incongruent","uniform","1","undefined","1","h","0","0","0","0","109","0","0","0","109","0","109","109","109","109","109","109","09/23/21 16:37:44","600","The main experiment item","yes","FlankerTask.osexp","C:\Users\bryan\OneDrive\Documents\School\PSYC 5316  (Quant Methods)\Lab 2","no","mono","no","18","no","white","no","yes","768","legacy","29","79","C:/Users/bryan/OneDrive/Documents/School/PSYC 5316  (Quant Methods)/Lab 2/BS-subject-1.csv","legacy","Lentiform Loewenfeld","3.3.9","0","h","NA","s","s","NA","h","474","NA","2588","80625","NA","474","2","legacy","1024","2","48000","-16","experiment","SSHSS","1","odd","5661","229876","NA","NA","283809","3071","149249","NA","283300","3062","281113","284915","285024","285500","284911","285023","Flanker Task","105","59574","110","yes","1024"
"95.4954954955","95.4954954955","540.414414414","540.414414414","black","legacy","legacy","legacy","0","congruent","uniform","1","undefined","1","h","0","0","0","0","110","0","0","0","110","0","110","110","110","110","110","110","09/23/21 16:37:44","600","The main experiment item","yes","FlankerTask.osexp","C:\Users\bryan\OneDrive\Documents\School\PSYC 5316  (Quant Methods)\Lab 2","no","mono","no","18","no","white","no","yes","768","legacy","30","79","C:/Users/bryan/OneDrive/Documents/School/PSYC 5316  (Quant Methods)/Lab 2/BS-subject-1.csv","legacy","Lentiform Loewenfeld","3.3.9","0","h","NA","s","s","NA","h","412","NA","2588","80625","NA","412","2","legacy","1024","2","48000","-16","experiment","HHHHH","1","odd","5661","229876","NA","NA","285507","3071","149249","NA","283300","3062","281113","286630","286739","287153","286626","286738","Flanker Task","106","59986","111","yes","1024"
"95.5357142857","95.5357142857","539.071428571","539.071428571","black","legacy","legacy","legacy","0","incongruent","uniform","1","undefined","1","h","0","0","0","0","111","0","0","0","111","0","111","111","111","111","111","111","09/23/21 16:37:44","600","The main experiment item","yes","FlankerTask.osexp","C:\Users\bryan\OneDrive\Documents\School\PSYC 5316  (Quant Methods)\Lab 2","no","mono","no","18","no","white","no","yes","768","legacy","31","79","C:/Users/bryan/OneDrive/Documents/School/PSYC 5316  (Quant Methods)/Lab 2/BS-subject-1.csv","legacy","Lentiform Loewenfeld","3.3.9","0","h","NA","s","s","NA","h","390","NA","2588","80625","NA","390","2","legacy","1024","2","48000","-16","experiment","SSHSS","1","odd","5661","229876","NA","NA","287158","3071","149249","NA","283300","3062","281113","288283","288392","288784","288278","288391","Flanker Task","107","60376","112","yes","1024"
