condition,deadline,Stimulus,acc,accuracy,average_response_time,avg_rt,background,canvas_backend,clock_backend,color_backend,compensation,coordinates,correct,correct_Instructions1,correct_keyboard_response,correct_response,count_Block1,count_Block2,count_Block3,count_Finish,count_Fixation,count_ISI,count_Instructions1,count_Instructions2,count_Instructions3,count_Sequence,count_Stimulus,count_errorFeedback,count_experiment,count_faster,count_keyboard_response,count_logger,datetime,description,disable_garbage_collection,experiment_file,experiment_path,font_bold,font_family,font_italic,font_size,font_underline,foreground,form_clicks,fullscreen,height,keyboard_backend,live_row,live_row_Block1,logfile,mouse_backend,opensesame_codename,opensesame_version,repeat_cycle,response,response_Finish,response_Instructions1,response_Instructions2,response_Instructions3,response_keyboard_response,response_time,response_time_Finish,response_time_Instructions1,response_time_Instructions2,response_time_Instructions3,response_time_keyboard_response,round_decimals,sampler_backend,sound_buf_size,sound_channels,sound_freq,sound_sample_size,start,subject_nr,subject_parity,time_Block1,time_Block2,time_Block3,time_Finish,time_Fixation,time_ISI,time_Instructions1,time_Instructions2,time_Instructions3,time_Sequence,time_Stimulus,time_errorFeedback,time_experiment,time_faster,time_keyboard_response,time_logger,title,total_correct,total_response_time,total_responses,uniform_coordinates,width
Incongruent,1500,HHSHH,100,100,662,662,black,legacy,legacy,legacy,0,uniform,1,undefined,1,s,0,0,0,0,0,0,0,0,0,0,0,0,0,0,0,0,Sun Sep 19 11:58:36 2021,The main experiment item,yes,FlankerTask.osexp,/Users/samonemarks/Desktop,no,mono,no,18,no,white,no,yes,768,legacy,0,0,/Users/samonemarks/Desktop/SM-subject-1.csv,legacy,Lentiform Loewenfeld,3.3.9,0,s,NA,s,NA,NA,s,662,NA,33139,NA,NA,662,2,legacy,1024,2,48000,-16,experiment,1,odd,37803,NA,NA,NA,37868,NA,4652,NA,NA,37863,37974,NA,4613,NA,37974,38638,Flanker Task,1,662,1,yes,1024
Incongruent,1500,HHSHH,100,100,641.5,641.5,black,legacy,legacy,legacy,0,uniform,1,undefined,1,s,0,0,0,0,1,1,0,0,0,1,1,1,0,1,1,1,Sun Sep 19 11:58:36 2021,The main experiment item,yes,FlankerTask.osexp,/Users/samonemarks/Desktop,no,mono,no,18,no,white,no,yes,768,legacy,1,1,/Users/samonemarks/Desktop/SM-subject-1.csv,legacy,Lentiform Loewenfeld,3.3.9,0,s,NA,s,NA,NA,s,621,NA,33139,NA,NA,621,2,legacy,1024,2,48000,-16,experiment,1,odd,37803,NA,NA,NA,39722,38646,4652,NA,NA,39716,39826,NA,4613,NA,39827,40449,Flanker Task,2,1283,2,yes,1024
Congruent,1500,SSSSS,100,100,593,593,black,legacy,legacy,legacy,0,uniform,1,undefined,1,s,0,0,0,0,2,2,0,0,0,2,2,2,0,2,2,2,Sun Sep 19 11:58:36 2021,The main experiment item,yes,FlankerTask.osexp,/Users/samonemarks/Desktop,no,mono,no,18,no,white,no,yes,768,legacy,2,2,/Users/samonemarks/Desktop/SM-subject-1.csv,legacy,Lentiform Loewenfeld,3.3.9,0,s,NA,s,NA,NA,s,496,NA,33139,NA,NA,496,2,legacy,1024,2,48000,-16,experiment,1,odd,37803,NA,NA,NA,41519,40453,4652,NA,NA,41515,41622,NA,4613,NA,41622,42119,Flanker Task,3,1779,3,yes,1024
Congruent,1500,SSSSS,100,100,561,561,black,legacy,legacy,legacy,0,uniform,1,undefined,1,s,0,0,0,0,3,3,0,0,0,3,3,3,0,3,3,3,Sun Sep 19 11:58:36 2021,The main experiment item,yes,FlankerTask.osexp,/Users/samonemarks/Desktop,no,mono,no,18,no,white,no,yes,768,legacy,3,3,/Users/samonemarks/Desktop/SM-subject-1.csv,legacy,Lentiform Loewenfeld,3.3.9,0,s,NA,s,NA,NA,s,465,NA,33139,NA,NA,465,2,legacy,1024,2,48000,-16,experiment,1,odd,37803,NA,NA,NA,43188,42123,4652,NA,NA,43185,43290,NA,4613,NA,43290,43756,Flanker Task,4,2244,4,yes,1024
Incongruent,1500,SSHSS,100,100,565,565,black,legacy,legacy,legacy,0,uniform,1,undefined,1,h,0,0,0,0,4,4,0,0,0,4,4,4,0,4,4,4,Sun Sep 19 11:58:36 2021,The main experiment item,yes,FlankerTask.osexp,/Users/samonemarks/Desktop,no,mono,no,18,no,white,no,yes,768,legacy,4,4,/Users/samonemarks/Desktop/SM-subject-1.csv,legacy,Lentiform Loewenfeld,3.3.9,0,h,NA,s,NA,NA,h,581,NA,33139,NA,NA,581,2,legacy,1024,2,48000,-16,experiment,1,odd,37803,NA,NA,NA,44825,43760,4652,NA,NA,44822,44927,NA,4613,NA,44928,45509,Flanker Task,5,2825,5,yes,1024
Incongruent,1500,HHSHH,100,100,550,550,black,legacy,legacy,legacy,0,uniform,1,undefined,1,s,0,0,0,0,5,5,0,0,0,5,5,5,0,5,5,5,Sun Sep 19 11:58:36 2021,The main experiment item,yes,FlankerTask.osexp,/Users/samonemarks/Desktop,no,mono,no,18,no,white,no,yes,768,legacy,5,5,/Users/samonemarks/Desktop/SM-subject-1.csv,legacy,Lentiform Loewenfeld,3.3.9,0,s,NA,s,NA,NA,s,475,NA,33139,NA,NA,475,2,legacy,1024,2,48000,-16,experiment,1,odd,37803,NA,NA,NA,46582,45515,4652,NA,NA,46576,46684,NA,4613,NA,46685,47161,Flanker Task,6,3300,6,yes,1024
Incongruent,1500,HHSHH,100,100,543.8571429,543.8571429,black,legacy,legacy,legacy,0,uniform,1,undefined,1,s,0,0,0,0,6,6,0,0,0,6,6,6,0,6,6,6,Sun Sep 19 11:58:36 2021,The main experiment item,yes,FlankerTask.osexp,/Users/samonemarks/Desktop,no,mono,no,18,no,white,no,yes,768,legacy,6,6,/Users/samonemarks/Desktop/SM-subject-1.csv,legacy,Lentiform Loewenfeld,3.3.9,0,s,NA,s,NA,NA,s,507,NA,33139,NA,NA,507,2,legacy,1024,2,48000,-16,experiment,1,odd,37803,NA,NA,NA,48229,47165,4652,NA,NA,48226,48331,NA,4613,NA,48331,48839,Flanker Task,7,3807,7,yes,1024
Congruent,1500,HHHHH,100,100,520.5,520.5,black,legacy,legacy,legacy,0,uniform,1,undefined,1,h,0,0,0,0,7,7,0,0,0,7,7,7,0,7,7,7,Sun Sep 19 11:58:36 2021,The main experiment item,yes,FlankerTask.osexp,/Users/samonemarks/Desktop,no,mono,no,18,no,white,no,yes,768,legacy,7,7,/Users/samonemarks/Desktop/SM-subject-1.csv,legacy,Lentiform Loewenfeld,3.3.9,0,h,NA,s,NA,NA,h,357,NA,33139,NA,NA,357,2,legacy,1024,2,48000,-16,experiment,1,odd,37803,NA,NA,NA,49908,48843,4652,NA,NA,49905,50011,NA,4613,NA,50011,50369,Flanker Task,8,4164,8,yes,1024
Congruent,1500,SSSSS,100,100,520.5555556,520.5555556,black,legacy,legacy,legacy,0,uniform,1,undefined,1,s,0,0,0,0,8,8,0,0,0,8,8,8,0,8,8,8,Sun Sep 19 11:58:36 2021,The main experiment item,yes,FlankerTask.osexp,/Users/samonemarks/Desktop,no,mono,no,18,no,white,no,yes,768,legacy,8,8,/Users/samonemarks/Desktop/SM-subject-1.csv,legacy,Lentiform Loewenfeld,3.3.9,0,s,NA,s,NA,NA,s,521,NA,33139,NA,NA,521,2,legacy,1024,2,48000,-16,experiment,1,odd,37803,NA,NA,NA,51439,50374,4652,NA,NA,51435,51541,NA,4613,NA,51541,52063,Flanker Task,9,4685,9,yes,1024
Congruent,1500,SSSSS,100,100,526.9,526.9,black,legacy,legacy,legacy,0,uniform,1,undefined,1,s,0,0,0,0,9,9,0,0,0,9,9,9,0,9,9,9,Sun Sep 19 11:58:36 2021,The main experiment item,yes,FlankerTask.osexp,/Users/samonemarks/Desktop,no,mono,no,18,no,white,no,yes,768,legacy,9,9,/Users/samonemarks/Desktop/SM-subject-1.csv,legacy,Lentiform Loewenfeld,3.3.9,0,s,NA,s,NA,NA,s,584,NA,33139,NA,NA,584,2,legacy,1024,2,48000,-16,experiment,1,odd,37803,NA,NA,NA,53134,52068,4652,NA,NA,53131,53236,NA,4613,NA,53236,53821,Flanker Task,10,5269,10,yes,1024
Incongruent,1500,SSHSS,100,100,532.1818182,532.1818182,black,legacy,legacy,legacy,0,uniform,1,undefined,1,h,0,0,0,0,10,10,0,0,0,10,10,10,0,10,10,10,Sun Sep 19 11:58:36 2021,The main experiment item,yes,FlankerTask.osexp,/Users/samonemarks/Desktop,no,mono,no,18,no,white,no,yes,768,legacy,10,10,/Users/samonemarks/Desktop/SM-subject-1.csv,legacy,Lentiform Loewenfeld,3.3.9,0,h,NA,s,NA,NA,h,585,NA,33139,NA,NA,585,2,legacy,1024,2,48000,-16,experiment,1,odd,37803,NA,NA,NA,54890,53825,4652,NA,NA,54888,54992,NA,4613,NA,54993,55579,Flanker Task,11,5854,11,yes,1024
Incongruent,1500,SSHSS,100,100,534.75,534.75,black,legacy,legacy,legacy,0,uniform,1,undefined,1,h,0,0,0,0,11,11,0,0,0,11,11,11,0,11,11,11,Sun Sep 19 11:58:36 2021,The main experiment item,yes,FlankerTask.osexp,/Users/samonemarks/Desktop,no,mono,no,18,no,white,no,yes,768,legacy,11,11,/Users/samonemarks/Desktop/SM-subject-1.csv,legacy,Lentiform Loewenfeld,3.3.9,0,h,NA,s,NA,NA,h,563,NA,33139,NA,NA,563,2,legacy,1024,2,48000,-16,experiment,1,odd,37803,NA,NA,NA,56649,55584,4652,NA,NA,56646,56751,NA,4613,NA,56751,57314,Flanker Task,12,6417,12,yes,1024
Congruent,1500,HHHHH,92.30769231,92.30769231,533.6153846,533.6153846,black,legacy,legacy,legacy,0,uniform,0,undefined,0,h,0,0,0,0,12,12,0,0,0,12,12,12,0,12,12,12,Sun Sep 19 11:58:36 2021,The main experiment item,yes,FlankerTask.osexp,/Users/samonemarks/Desktop,no,mono,no,18,no,white,no,yes,768,legacy,12,12,/Users/samonemarks/Desktop/SM-subject-1.csv,legacy,Lentiform Loewenfeld,3.3.9,0,s,NA,s,NA,NA,s,520,NA,33139,NA,NA,520,2,legacy,1024,2,48000,-16,experiment,1,odd,37803,NA,NA,NA,58384,57319,4652,NA,NA,58381,58486,NA,4613,NA,58486,59007,Flanker Task,12,6937,13,yes,1024
Congruent,1500,HHHHH,92.85714286,92.85714286,532.7857143,532.7857143,black,legacy,legacy,legacy,0,uniform,1,undefined,1,h,0,0,0,0,13,13,0,0,0,13,13,13,0,13,13,13,Sun Sep 19 11:58:36 2021,The main experiment item,yes,FlankerTask.osexp,/Users/samonemarks/Desktop,no,mono,no,18,no,white,no,yes,768,legacy,13,13,/Users/samonemarks/Desktop/SM-subject-1.csv,legacy,Lentiform Loewenfeld,3.3.9,0,h,NA,s,NA,NA,h,522,NA,33139,NA,NA,522,2,legacy,1024,2,48000,-16,experiment,1,odd,37803,NA,NA,NA,60578,59515,4652,NA,NA,60575,60681,59011,4613,NA,60682,61204,Flanker Task,13,7459,14,yes,1024
Congruent,1500,HHHHH,93.33333333,93.33333333,535.5333333,535.5333333,black,legacy,legacy,legacy,0,uniform,1,undefined,1,h,0,0,0,0,14,14,0,0,0,14,14,14,0,14,14,14,Sun Sep 19 11:58:36 2021,The main experiment item,yes,FlankerTask.osexp,/Users/samonemarks/Desktop,no,mono,no,18,no,white,no,yes,768,legacy,14,14,/Users/samonemarks/Desktop/SM-subject-1.csv,legacy,Lentiform Loewenfeld,3.3.9,0,h,NA,s,NA,NA,h,574,NA,33139,NA,NA,574,2,legacy,1024,2,48000,-16,experiment,1,odd,37803,NA,NA,NA,62273,61209,4652,NA,NA,62269,62375,59011,4613,NA,62375,62949,Flanker Task,14,8033,15,yes,1024
Congruent,1500,HHHHH,93.75,93.75,531,531,black,legacy,legacy,legacy,0,uniform,1,undefined,1,h,0,0,0,0,15,15,0,0,0,15,15,15,0,15,15,15,Sun Sep 19 11:58:36 2021,The main experiment item,yes,FlankerTask.osexp,/Users/samonemarks/Desktop,no,mono,no,18,no,white,no,yes,768,legacy,15,15,/Users/samonemarks/Desktop/SM-subject-1.csv,legacy,Lentiform Loewenfeld,3.3.9,0,h,NA,s,NA,NA,h,463,NA,33139,NA,NA,463,2,legacy,1024,2,48000,-16,experiment,1,odd,37803,NA,NA,NA,64018,62954,4652,NA,NA,64015,64120,59011,4613,NA,64120,64584,Flanker Task,15,8496,16,yes,1024
Congruent,1500,SSSSS,94.11764706,94.11764706,528.2941176,528.2941176,black,legacy,legacy,legacy,0,uniform,1,undefined,1,s,0,0,0,0,16,16,0,0,0,16,16,16,0,16,16,16,Sun Sep 19 11:58:36 2021,The main experiment item,yes,FlankerTask.osexp,/Users/samonemarks/Desktop,no,mono,no,18,no,white,no,yes,768,legacy,16,16,/Users/samonemarks/Desktop/SM-subject-1.csv,legacy,Lentiform Loewenfeld,3.3.9,0,s,NA,s,NA,NA,s,485,NA,33139,NA,NA,485,2,legacy,1024,2,48000,-16,experiment,1,odd,37803,NA,NA,NA,65652,64588,4652,NA,NA,65648,65754,59011,4613,NA,65754,66240,Flanker Task,16,8981,17,yes,1024
Congruent,1500,SSSSS,94.44444444,94.44444444,523.2222222,523.2222222,black,legacy,legacy,legacy,0,uniform,1,undefined,1,s,0,0,0,0,17,17,0,0,0,17,17,17,0,17,17,17,Sun Sep 19 11:58:36 2021,The main experiment item,yes,FlankerTask.osexp,/Users/samonemarks/Desktop,no,mono,no,18,no,white,no,yes,768,legacy,17,17,/Users/samonemarks/Desktop/SM-subject-1.csv,legacy,Lentiform Loewenfeld,3.3.9,0,s,NA,s,NA,NA,s,437,NA,33139,NA,NA,437,2,legacy,1024,2,48000,-16,experiment,1,odd,37803,NA,NA,NA,67309,66245,4652,NA,NA,67307,67411,59011,4613,NA,67412,67849,Flanker Task,17,9418,18,yes,1024
Incongruent,1500,SSHSS,94.73684211,94.73684211,536.8421053,536.8421053,black,legacy,legacy,legacy,0,uniform,1,undefined,1,h,0,0,0,0,18,18,0,0,0,18,18,18,0,18,18,18,Sun Sep 19 11:58:36 2021,The main experiment item,yes,FlankerTask.osexp,/Users/samonemarks/Desktop,no,mono,no,18,no,white,no,yes,768,legacy,18,18,/Users/samonemarks/Desktop/SM-subject-1.csv,legacy,Lentiform Loewenfeld,3.3.9,0,h,NA,s,NA,NA,h,782,NA,33139,NA,NA,782,2,legacy,1024,2,48000,-16,experiment,1,odd,37803,NA,NA,NA,68920,67854,4652,NA,NA,68917,69022,59011,4613,NA,69023,69806,Flanker Task,18,10200,19,yes,1024
Congruent,1500,SSSSS,95,95,548.35,548.35,black,legacy,legacy,legacy,0,uniform,1,undefined,1,s,0,0,0,0,19,19,0,0,0,19,19,19,0,19,19,19,Sun Sep 19 11:58:36 2021,The main experiment item,yes,FlankerTask.osexp,/Users/samonemarks/Desktop,no,mono,no,18,no,white,no,yes,768,legacy,19,19,/Users/samonemarks/Desktop/SM-subject-1.csv,legacy,Lentiform Loewenfeld,3.3.9,0,s,NA,s,NA,NA,s,767,NA,33139,NA,NA,767,2,legacy,1024,2,48000,-16,experiment,1,odd,37803,NA,NA,NA,70873,69810,4652,NA,NA,70870,70976,59011,4613,NA,70976,71744,Flanker Task,19,10967,20,yes,1024
Incongruent,1500,SSHSS,95.23809524,95.23809524,546,546,black,legacy,legacy,legacy,0,uniform,1,undefined,1,h,0,0,0,0,20,20,0,0,0,20,20,20,0,20,20,20,Sun Sep 19 11:58:36 2021,The main experiment item,yes,FlankerTask.osexp,/Users/samonemarks/Desktop,no,mono,no,18,no,white,no,yes,768,legacy,20,20,/Users/samonemarks/Desktop/SM-subject-1.csv,legacy,Lentiform Loewenfeld,3.3.9,0,h,NA,s,NA,NA,h,499,NA,33139,NA,NA,499,2,legacy,1024,2,48000,-16,experiment,1,odd,37803,NA,NA,NA,72814,71748,4652,NA,NA,72811,72916,59011,4613,NA,72916,73416,Flanker Task,20,11466,21,yes,1024
Incongruent,1500,SSHSS,95.45454545,95.45454545,552.2272727,552.2272727,black,legacy,legacy,legacy,0,uniform,1,undefined,1,h,0,0,0,0,21,21,0,0,0,21,21,21,0,21,21,21,Sun Sep 19 11:58:36 2021,The main experiment item,yes,FlankerTask.osexp,/Users/samonemarks/Desktop,no,mono,no,18,no,white,no,yes,768,legacy,21,21,/Users/samonemarks/Desktop/SM-subject-1.csv,legacy,Lentiform Loewenfeld,3.3.9,0,h,NA,s,NA,NA,h,683,NA,33139,NA,NA,683,2,legacy,1024,2,48000,-16,experiment,1,odd,37803,NA,NA,NA,74485,73421,4652,NA,NA,74482,74587,59011,4613,NA,74587,75271,Flanker Task,21,12149,22,yes,1024
Incongruent,1500,SSHSS,95.65217391,95.65217391,570.6956522,570.6956522,black,legacy,legacy,legacy,0,uniform,1,undefined,1,h,0,0,0,0,22,22,0,0,0,22,22,22,0,22,22,22,Sun Sep 19 11:58:36 2021,The main experiment item,yes,FlankerTask.osexp,/Users/samonemarks/Desktop,no,mono,no,18,no,white,no,yes,768,legacy,22,22,/Users/samonemarks/Desktop/SM-subject-1.csv,legacy,Lentiform Loewenfeld,3.3.9,0,h,NA,s,NA,NA,h,977,NA,33139,NA,NA,977,2,legacy,1024,2,48000,-16,experiment,1,odd,37803,NA,NA,NA,76339,75275,4652,NA,NA,76336,76441,59011,4613,NA,76441,77419,Flanker Task,22,13126,23,yes,1024
Incongruent,1500,SSHSS,95.83333333,95.83333333,567.6666667,567.6666667,black,legacy,legacy,legacy,0,uniform,1,undefined,1,h,0,0,0,0,23,23,0,0,0,23,23,23,0,23,23,23,Sun Sep 19 11:58:36 2021,The main experiment item,yes,FlankerTask.osexp,/Users/samonemarks/Desktop,no,mono,no,18,no,white,no,yes,768,legacy,23,23,/Users/samonemarks/Desktop/SM-subject-1.csv,legacy,Lentiform Loewenfeld,3.3.9,0,h,NA,s,NA,NA,h,498,NA,33139,NA,NA,498,2,legacy,1024,2,48000,-16,experiment,1,odd,37803,NA,NA,NA,78488,77423,4652,NA,NA,78485,78590,59011,4613,NA,78590,79089,Flanker Task,23,13624,24,yes,1024
Incongruent,1500,HHSHH,96,96,567.6,567.6,black,legacy,legacy,legacy,0,uniform,1,undefined,1,s,0,0,0,0,24,24,0,0,0,24,24,24,0,24,24,24,Sun Sep 19 11:58:36 2021,The main experiment item,yes,FlankerTask.osexp,/Users/samonemarks/Desktop,no,mono,no,18,no,white,no,yes,768,legacy,24,24,/Users/samonemarks/Desktop/SM-subject-1.csv,legacy,Lentiform Loewenfeld,3.3.9,0,s,NA,s,NA,NA,s,566,NA,33139,NA,NA,566,2,legacy,1024,2,48000,-16,experiment,1,odd,37803,NA,NA,NA,80158,79093,4652,NA,NA,80155,80261,59011,4613,NA,80261,80828,Flanker Task,24,14190,25,yes,1024
Incongruent,1500,HHSHH,96.15384615,96.15384615,565.2692308,565.2692308,black,legacy,legacy,legacy,0,uniform,1,undefined,1,s,0,0,0,0,25,25,0,0,0,25,25,25,0,25,25,25,Sun Sep 19 11:58:36 2021,The main experiment item,yes,FlankerTask.osexp,/Users/samonemarks/Desktop,no,mono,no,18,no,white,no,yes,768,legacy,25,25,/Users/samonemarks/Desktop/SM-subject-1.csv,legacy,Lentiform Loewenfeld,3.3.9,0,s,NA,s,NA,NA,s,507,NA,33139,NA,NA,507,2,legacy,1024,2,48000,-16,experiment,1,odd,37803,NA,NA,NA,81897,80832,4652,NA,NA,81894,81999,59011,4613,NA,82000,82508,Flanker Task,25,14697,26,yes,1024
Incongruent,1500,SSHSS,96.2962963,96.2962963,562.3703704,562.3703704,black,legacy,legacy,legacy,0,uniform,1,undefined,1,h,0,0,0,0,26,26,0,0,0,26,26,26,0,26,26,26,Sun Sep 19 11:58:36 2021,The main experiment item,yes,FlankerTask.osexp,/Users/samonemarks/Desktop,no,mono,no,18,no,white,no,yes,768,legacy,26,26,/Users/samonemarks/Desktop/SM-subject-1.csv,legacy,Lentiform Loewenfeld,3.3.9,0,h,NA,s,NA,NA,h,487,NA,33139,NA,NA,487,2,legacy,1024,2,48000,-16,experiment,1,odd,37803,NA,NA,NA,83577,82512,4652,NA,NA,83574,83680,59011,4613,NA,83680,84167,Flanker Task,26,15184,27,yes,1024
Incongruent,1500,HHSHH,96.42857143,96.42857143,560.5714286,560.5714286,black,legacy,legacy,legacy,0,uniform,1,undefined,1,s,0,0,0,0,27,27,0,0,0,27,27,27,0,27,27,27,Sun Sep 19 11:58:36 2021,The main experiment item,yes,FlankerTask.osexp,/Users/samonemarks/Desktop,no,mono,no,18,no,white,no,yes,768,legacy,27,27,/Users/samonemarks/Desktop/SM-subject-1.csv,legacy,Lentiform Loewenfeld,3.3.9,0,s,NA,s,NA,NA,s,512,NA,33139,NA,NA,512,2,legacy,1024,2,48000,-16,experiment,1,odd,37803,NA,NA,NA,85238,84172,4652,NA,NA,85234,85340,59011,4613,NA,85340,85852,Flanker Task,27,15696,28,yes,1024
Incongruent,1500,SSHSS,96.55172414,96.55172414,560.4137931,560.4137931,black,legacy,legacy,legacy,0,uniform,1,undefined,1,h,0,0,0,0,28,28,0,0,0,28,28,28,0,28,28,28,Sun Sep 19 11:58:36 2021,The main experiment item,yes,FlankerTask.osexp,/Users/samonemarks/Desktop,no,mono,no,18,no,white,no,yes,768,legacy,28,28,/Users/samonemarks/Desktop/SM-subject-1.csv,legacy,Lentiform Loewenfeld,3.3.9,0,h,NA,s,NA,NA,h,556,NA,33139,NA,NA,556,2,legacy,1024,2,48000,-16,experiment,1,odd,37803,NA,NA,NA,86923,85857,4652,NA,NA,86920,87025,59011,4613,NA,87025,87582,Flanker Task,28,16252,29,yes,1024
Congruent,1500,SSSSS,96.66666667,96.66666667,562.3333333,562.3333333,black,legacy,legacy,legacy,0,uniform,1,undefined,1,s,0,0,0,0,29,29,0,0,0,29,29,29,0,29,29,29,Sun Sep 19 11:58:36 2021,The main experiment item,yes,FlankerTask.osexp,/Users/samonemarks/Desktop,no,mono,no,18,no,white,no,yes,768,legacy,29,29,/Users/samonemarks/Desktop/SM-subject-1.csv,legacy,Lentiform Loewenfeld,3.3.9,0,s,NA,s,NA,NA,s,618,NA,33139,NA,NA,618,2,legacy,1024,2,48000,-16,experiment,1,odd,37803,NA,NA,NA,88651,87586,4652,NA,NA,88647,88754,59011,4613,NA,88754,89372,Flanker Task,29,16870,30,yes,1024
Congruent,1500,HHHHH,96.77419355,96.77419355,562.7419355,562.7419355,black,legacy,legacy,legacy,0,uniform,1,undefined,1,h,0,0,0,0,30,30,0,0,0,30,30,30,0,30,30,30,Sun Sep 19 11:58:36 2021,The main experiment item,yes,FlankerTask.osexp,/Users/samonemarks/Desktop,no,mono,no,18,no,white,no,yes,768,legacy,30,30,/Users/samonemarks/Desktop/SM-subject-1.csv,legacy,Lentiform Loewenfeld,3.3.9,0,h,NA,s,NA,NA,h,575,NA,33139,NA,NA,575,2,legacy,1024,2,48000,-16,experiment,1,odd,37803,NA,NA,NA,90442,89377,4652,NA,NA,90439,90545,59011,4613,NA,90545,91120,Flanker Task,30,17445,31,yes,1024
Congruent,1500,SSSSS,96.875,96.875,562.6875,562.6875,black,legacy,legacy,legacy,0,uniform,1,undefined,1,s,0,0,0,0,31,31,0,0,0,31,31,31,0,31,31,31,Sun Sep 19 11:58:36 2021,The main experiment item,yes,FlankerTask.osexp,/Users/samonemarks/Desktop,no,mono,no,18,no,white,no,yes,768,legacy,31,31,/Users/samonemarks/Desktop/SM-subject-1.csv,legacy,Lentiform Loewenfeld,3.3.9,0,s,NA,s,NA,NA,s,561,NA,33139,NA,NA,561,2,legacy,1024,2,48000,-16,experiment,1,odd,37803,NA,NA,NA,92190,91125,4652,NA,NA,92187,92292,59011,4613,NA,92292,92854,Flanker Task,31,18006,32,yes,1024
Congruent,1500,HHHHH,96.96969697,96.96969697,560.030303,560.030303,black,legacy,legacy,legacy,0,uniform,1,undefined,1,h,0,0,0,0,32,32,0,0,0,32,32,32,0,32,32,32,Sun Sep 19 11:58:36 2021,The main experiment item,yes,FlankerTask.osexp,/Users/samonemarks/Desktop,no,mono,no,18,no,white,no,yes,768,legacy,32,32,/Users/samonemarks/Desktop/SM-subject-1.csv,legacy,Lentiform Loewenfeld,3.3.9,0,h,NA,s,NA,NA,h,475,NA,33139,NA,NA,475,2,legacy,1024,2,48000,-16,experiment,1,odd,37803,NA,NA,NA,93924,92858,4652,NA,NA,93920,94027,59011,4613,NA,94027,94502,Flanker Task,32,18481,33,yes,1024
Incongruent,1500,HHSHH,97.05882353,97.05882353,557.9705882,557.9705882,black,legacy,legacy,legacy,0,uniform,1,undefined,1,s,0,0,0,0,33,33,0,0,0,33,33,33,0,33,33,33,Sun Sep 19 11:58:36 2021,The main experiment item,yes,FlankerTask.osexp,/Users/samonemarks/Desktop,no,mono,no,18,no,white,no,yes,768,legacy,33,33,/Users/samonemarks/Desktop/SM-subject-1.csv,legacy,Lentiform Loewenfeld,3.3.9,0,s,NA,s,NA,NA,s,490,NA,33139,NA,NA,490,2,legacy,1024,2,48000,-16,experiment,1,odd,37803,NA,NA,NA,95572,94507,4652,NA,NA,95569,95674,59011,4613,NA,95674,96165,Flanker Task,33,18971,34,yes,1024
Congruent,1500,HHHHH,97.14285714,97.14285714,562.7428571,562.7428571,black,legacy,legacy,legacy,0,uniform,1,undefined,1,h,0,0,0,0,34,34,0,0,0,34,34,34,0,34,34,34,Sun Sep 19 11:58:36 2021,The main experiment item,yes,FlankerTask.osexp,/Users/samonemarks/Desktop,no,mono,no,18,no,white,no,yes,768,legacy,34,34,/Users/samonemarks/Desktop/SM-subject-1.csv,legacy,Lentiform Loewenfeld,3.3.9,0,h,NA,s,NA,NA,h,725,NA,33139,NA,NA,725,2,legacy,1024,2,48000,-16,experiment,1,odd,37803,NA,NA,NA,97234,96170,4652,NA,NA,97231,97337,59011,4613,NA,97337,98062,Flanker Task,34,19696,35,yes,1024
Incongruent,1500,HHSHH,97.22222222,97.22222222,569.8055556,569.8055556,black,legacy,legacy,legacy,0,uniform,1,undefined,1,s,0,0,0,0,35,35,0,0,0,35,35,35,0,35,35,35,Sun Sep 19 11:58:36 2021,The main experiment item,yes,FlankerTask.osexp,/Users/samonemarks/Desktop,no,mono,no,18,no,white,no,yes,768,legacy,35,35,/Users/samonemarks/Desktop/SM-subject-1.csv,legacy,Lentiform Loewenfeld,3.3.9,0,s,NA,s,NA,NA,s,817,NA,33139,NA,NA,817,2,legacy,1024,2,48000,-16,experiment,1,odd,37803,NA,NA,NA,99133,98068,4652,NA,NA,99129,99235,59011,4613,NA,99236,100054,Flanker Task,35,20513,36,yes,1024
Congruent,1500,SSSSS,97.2972973,97.2972973,570.0810811,570.0810811,black,legacy,legacy,legacy,0,uniform,1,undefined,1,s,0,0,0,0,36,36,0,0,0,36,36,36,0,36,36,36,Sun Sep 19 11:58:36 2021,The main experiment item,yes,FlankerTask.osexp,/Users/samonemarks/Desktop,no,mono,no,18,no,white,no,yes,768,legacy,36,36,/Users/samonemarks/Desktop/SM-subject-1.csv,legacy,Lentiform Loewenfeld,3.3.9,0,s,NA,s,NA,NA,s,580,NA,33139,NA,NA,580,2,legacy,1024,2,48000,-16,experiment,1,odd,37803,NA,NA,NA,101123,100059,4652,NA,NA,101120,101225,59011,4613,NA,101225,101805,Flanker Task,36,21093,37,yes,1024
Congruent,1500,HHHHH,97.36842105,97.36842105,566.5,566.5,black,legacy,legacy,legacy,0,uniform,1,undefined,1,h,0,0,0,0,37,37,0,0,0,37,37,37,0,37,37,37,Sun Sep 19 11:58:36 2021,The main experiment item,yes,FlankerTask.osexp,/Users/samonemarks/Desktop,no,mono,no,18,no,white,no,yes,768,legacy,37,37,/Users/samonemarks/Desktop/SM-subject-1.csv,legacy,Lentiform Loewenfeld,3.3.9,0,h,NA,s,NA,NA,h,434,NA,33139,NA,NA,434,2,legacy,1024,2,48000,-16,experiment,1,odd,37803,NA,NA,NA,102875,101810,4652,NA,NA,102872,102977,59011,4613,NA,102977,103411,Flanker Task,37,21527,38,yes,1024
Congruent,1500,HHHHH,97.43589744,97.43589744,561.4615385,561.4615385,black,legacy,legacy,legacy,0,uniform,1,undefined,1,h,0,0,0,0,38,38,0,0,0,38,38,38,0,38,38,38,Sun Sep 19 11:58:36 2021,The main experiment item,yes,FlankerTask.osexp,/Users/samonemarks/Desktop,no,mono,no,18,no,white,no,yes,768,legacy,38,38,/Users/samonemarks/Desktop/SM-subject-1.csv,legacy,Lentiform Loewenfeld,3.3.9,0,h,NA,s,NA,NA,h,370,NA,33139,NA,NA,370,2,legacy,1024,2,48000,-16,experiment,1,odd,37803,NA,NA,NA,104479,103416,4652,NA,NA,104477,104582,59011,4613,NA,104582,104953,Flanker Task,38,21897,39,yes,1024
Incongruent,1500,HHSHH,97.5,97.5,564.375,564.375,black,legacy,legacy,legacy,0,uniform,1,undefined,1,s,0,0,0,0,39,39,0,0,0,39,39,39,0,39,39,39,Sun Sep 19 11:58:36 2021,The main experiment item,yes,FlankerTask.osexp,/Users/samonemarks/Desktop,no,mono,no,18,no,white,no,yes,768,legacy,39,39,/Users/samonemarks/Desktop/SM-subject-1.csv,legacy,Lentiform Loewenfeld,3.3.9,0,s,NA,s,NA,NA,s,678,NA,33139,NA,NA,678,2,legacy,1024,2,48000,-16,experiment,1,odd,37803,NA,NA,NA,106021,104958,4652,NA,NA,106018,106123,59011,4613,NA,106123,106801,Flanker Task,39,22575,40,yes,1024
Incongruent,1500,SSHSS,97.56097561,97.56097561,563.4146341,563.4146341,black,legacy,legacy,legacy,0,uniform,1,undefined,1,h,0,0,0,0,40,40,0,0,0,40,40,40,0,40,40,40,Sun Sep 19 11:58:36 2021,The main experiment item,yes,FlankerTask.osexp,/Users/samonemarks/Desktop,no,mono,no,18,no,white,no,yes,768,legacy,40,40,/Users/samonemarks/Desktop/SM-subject-1.csv,legacy,Lentiform Loewenfeld,3.3.9,0,h,NA,s,NA,NA,h,525,NA,33139,NA,NA,525,2,legacy,1024,2,48000,-16,experiment,1,odd,37803,NA,NA,NA,107870,106806,4652,NA,NA,107867,107972,59011,4613,NA,107972,108498,Flanker Task,40,23100,41,yes,1024
Incongruent,1500,HHSHH,97.61904762,97.61904762,561.0952381,561.0952381,black,legacy,legacy,legacy,0,uniform,1,undefined,1,s,0,0,0,0,41,41,0,0,0,41,41,41,0,41,41,41,Sun Sep 19 11:58:36 2021,The main experiment item,yes,FlankerTask.osexp,/Users/samonemarks/Desktop,no,mono,no,18,no,white,no,yes,768,legacy,41,41,/Users/samonemarks/Desktop/SM-subject-1.csv,legacy,Lentiform Loewenfeld,3.3.9,0,s,NA,s,NA,NA,s,466,NA,33139,NA,NA,466,2,legacy,1024,2,48000,-16,experiment,1,odd,37803,NA,NA,NA,109568,108503,4652,NA,NA,109565,109670,59011,4613,NA,109671,110138,Flanker Task,41,23566,42,yes,1024
Congruent,1500,HHHHH,97.6744186,97.6744186,556.6976744,556.6976744,black,legacy,legacy,legacy,0,uniform,1,undefined,1,h,0,0,0,0,42,42,0,0,0,42,42,42,0,42,42,42,Sun Sep 19 11:58:36 2021,The main experiment item,yes,FlankerTask.osexp,/Users/samonemarks/Desktop,no,mono,no,18,no,white,no,yes,768,legacy,42,42,/Users/samonemarks/Desktop/SM-subject-1.csv,legacy,Lentiform Loewenfeld,3.3.9,0,h,NA,s,NA,NA,h,372,NA,33139,NA,NA,372,2,legacy,1024,2,48000,-16,experiment,1,odd,37803,NA,NA,NA,111207,110143,4652,NA,NA,111205,111309,59011,4613,NA,111309,111682,Flanker Task,42,23938,43,yes,1024
Congruent,1500,HHHHH,97.72727273,97.72727273,553.9545455,553.9545455,black,legacy,legacy,legacy,0,uniform,1,undefined,1,h,0,0,0,0,43,43,0,0,0,43,43,43,0,43,43,43,Sun Sep 19 11:58:36 2021,The main experiment item,yes,FlankerTask.osexp,/Users/samonemarks/Desktop,no,mono,no,18,no,white,no,yes,768,legacy,43,43,/Users/samonemarks/Desktop/SM-subject-1.csv,legacy,Lentiform Loewenfeld,3.3.9,0,h,NA,s,NA,NA,h,436,NA,33139,NA,NA,436,2,legacy,1024,2,48000,-16,experiment,1,odd,37803,NA,NA,NA,112752,111687,4652,NA,NA,112749,112854,59011,4613,NA,112854,113291,Flanker Task,43,24374,44,yes,1024
Congruent,1500,HHHHH,97.77777778,97.77777778,553.0444444,553.0444444,black,legacy,legacy,legacy,0,uniform,1,undefined,1,h,0,0,0,0,44,44,0,0,0,44,44,44,0,44,44,44,Sun Sep 19 11:58:36 2021,The main experiment item,yes,FlankerTask.osexp,/Users/samonemarks/Desktop,no,mono,no,18,no,white,no,yes,768,legacy,44,44,/Users/samonemarks/Desktop/SM-subject-1.csv,legacy,Lentiform Loewenfeld,3.3.9,0,h,NA,s,NA,NA,h,513,NA,33139,NA,NA,513,2,legacy,1024,2,48000,-16,experiment,1,odd,37803,NA,NA,NA,114360,113295,4652,NA,NA,114357,114462,59011,4613,NA,114463,114977,Flanker Task,44,24887,45,yes,1024
Incongruent,1500,SSHSS,97.82608696,97.82608696,553.0217391,553.0217391,black,legacy,legacy,legacy,0,uniform,1,undefined,1,h,0,0,0,0,45,45,0,0,0,45,45,45,0,45,45,45,Sun Sep 19 11:58:36 2021,The main experiment item,yes,FlankerTask.osexp,/Users/samonemarks/Desktop,no,mono,no,18,no,white,no,yes,768,legacy,45,45,/Users/samonemarks/Desktop/SM-subject-1.csv,legacy,Lentiform Loewenfeld,3.3.9,0,h,NA,s,NA,NA,h,552,NA,33139,NA,NA,552,2,legacy,1024,2,48000,-16,experiment,1,odd,37803,NA,NA,NA,116046,114981,4652,NA,NA,116043,116148,59011,4613,NA,116148,116701,Flanker Task,45,25439,46,yes,1024
Congruent,1500,HHHHH,97.87234043,97.87234043,556.7234043,556.7234043,black,legacy,legacy,legacy,0,uniform,1,undefined,1,h,0,0,0,0,46,46,0,0,0,46,46,46,0,46,46,46,Sun Sep 19 11:58:36 2021,The main experiment item,yes,FlankerTask.osexp,/Users/samonemarks/Desktop,no,mono,no,18,no,white,no,yes,768,legacy,46,46,/Users/samonemarks/Desktop/SM-subject-1.csv,legacy,Lentiform Loewenfeld,3.3.9,0,h,NA,s,NA,NA,h,727,NA,33139,NA,NA,727,2,legacy,1024,2,48000,-16,experiment,1,odd,37803,NA,NA,NA,117770,116705,4652,NA,NA,117767,117873,59011,4613,NA,117873,118601,Flanker Task,46,26166,47,yes,1024
Incongruent,1500,HHSHH,95.83333333,95.83333333,558.6458333,558.6458333,black,legacy,legacy,legacy,0,uniform,0,undefined,0,s,0,0,0,0,47,47,0,0,0,47,47,47,0,47,47,47,Sun Sep 19 11:58:36 2021,The main experiment item,yes,FlankerTask.osexp,/Users/samonemarks/Desktop,no,mono,no,18,no,white,no,yes,768,legacy,47,47,/Users/samonemarks/Desktop/SM-subject-1.csv,legacy,Lentiform Loewenfeld,3.3.9,0,h,NA,s,NA,NA,h,649,NA,33139,NA,NA,649,2,legacy,1024,2,48000,-16,experiment,1,odd,37803,NA,NA,NA,119670,118605,4652,NA,NA,119667,119772,59011,4613,NA,119772,120421,Flanker Task,46,26815,48,yes,1024
Congruent,1500,SSSSS,95.91836735,95.91836735,557.3469388,557.3469388,black,legacy,legacy,legacy,0,uniform,1,undefined,1,s,0,0,0,0,48,48,0,0,0,48,48,48,0,48,48,48,Sun Sep 19 11:58:36 2021,The main experiment item,yes,FlankerTask.osexp,/Users/samonemarks/Desktop,no,mono,no,18,no,white,no,yes,768,legacy,48,48,/Users/samonemarks/Desktop/SM-subject-1.csv,legacy,Lentiform Loewenfeld,3.3.9,0,s,NA,s,NA,NA,s,495,NA,33139,NA,NA,495,2,legacy,1024,2,48000,-16,experiment,1,odd,37803,NA,NA,NA,121994,120930,4652,NA,NA,121992,122097,120426,4613,NA,122097,122592,Flanker Task,47,27310,49,yes,1024
Incongruent,1500,HHSHH,96,96,557.12,557.12,black,legacy,legacy,legacy,0,uniform,1,undefined,1,s,0,0,0,0,49,49,0,0,0,49,49,49,0,49,49,49,Sun Sep 19 11:58:36 2021,The main experiment item,yes,FlankerTask.osexp,/Users/samonemarks/Desktop,no,mono,no,18,no,white,no,yes,768,legacy,49,49,/Users/samonemarks/Desktop/SM-subject-1.csv,legacy,Lentiform Loewenfeld,3.3.9,0,s,NA,s,NA,NA,s,546,NA,33139,NA,NA,546,2,legacy,1024,2,48000,-16,experiment,1,odd,37803,NA,NA,NA,123662,122597,4652,NA,NA,123659,123765,120426,4613,NA,123765,124311,Flanker Task,48,27856,50,yes,1024
Incongruent,1500,SSHSS,96.07843137,96.07843137,559.0196078,559.0196078,black,legacy,legacy,legacy,0,uniform,1,undefined,1,h,0,0,0,0,50,50,0,0,0,50,50,50,0,50,50,50,Sun Sep 19 11:58:36 2021,The main experiment item,yes,FlankerTask.osexp,/Users/samonemarks/Desktop,no,mono,no,18,no,white,no,yes,768,legacy,50,50,/Users/samonemarks/Desktop/SM-subject-1.csv,legacy,Lentiform Loewenfeld,3.3.9,0,h,NA,s,NA,NA,h,654,NA,33139,NA,NA,654,2,legacy,1024,2,48000,-16,experiment,1,odd,37803,NA,NA,NA,125382,124316,4652,NA,NA,125378,125485,120426,4613,NA,125485,126139,Flanker Task,49,28510,51,yes,1024
Incongruent,1500,HHSHH,96.15384615,96.15384615,559.9423077,559.9423077,black,legacy,legacy,legacy,0,uniform,1,undefined,1,s,0,0,0,0,51,51,0,0,0,51,51,51,0,51,51,51,Sun Sep 19 11:58:36 2021,The main experiment item,yes,FlankerTask.osexp,/Users/samonemarks/Desktop,no,mono,no,18,no,white,no,yes,768,legacy,51,51,/Users/samonemarks/Desktop/SM-subject-1.csv,legacy,Lentiform Loewenfeld,3.3.9,0,s,NA,s,NA,NA,s,607,NA,33139,NA,NA,607,2,legacy,1024,2,48000,-16,experiment,1,odd,37803,NA,NA,NA,127212,126144,4652,NA,NA,127209,127314,120426,4613,NA,127315,127923,Flanker Task,50,29117,52,yes,1024
Congruent,1500,SSSSS,96.22641509,96.22641509,557.4716981,557.4716981,black,legacy,legacy,legacy,0,uniform,1,undefined,1,s,0,0,0,0,52,52,0,0,0,52,52,52,0,52,52,52,Sun Sep 19 11:58:36 2021,The main experiment item,yes,FlankerTask.osexp,/Users/samonemarks/Desktop,no,mono,no,18,no,white,no,yes,768,legacy,52,52,/Users/samonemarks/Desktop/SM-subject-1.csv,legacy,Lentiform Loewenfeld,3.3.9,0,s,NA,s,NA,NA,s,429,NA,33139,NA,NA,429,2,legacy,1024,2,48000,-16,experiment,1,odd,37803,NA,NA,NA,128992,127928,4652,NA,NA,128989,129094,120426,4613,NA,129094,129524,Flanker Task,51,29546,53,yes,1024
Incongruent,1500,SSHSS,96.2962963,96.2962963,556.5,556.5,black,legacy,legacy,legacy,0,uniform,1,undefined,1,h,0,0,0,0,53,53,0,0,0,53,53,53,0,53,53,53,Sun Sep 19 11:58:36 2021,The main experiment item,yes,FlankerTask.osexp,/Users/samonemarks/Desktop,no,mono,no,18,no,white,no,yes,768,legacy,53,53,/Users/samonemarks/Desktop/SM-subject-1.csv,legacy,Lentiform Loewenfeld,3.3.9,0,h,NA,s,NA,NA,h,505,NA,33139,NA,NA,505,2,legacy,1024,2,48000,-16,experiment,1,odd,37803,NA,NA,NA,130595,129529,4652,NA,NA,130591,130697,120426,4613,NA,130697,131203,Flanker Task,52,30051,54,yes,1024
Incongruent,1500,HHSHH,96.36363636,96.36363636,554.5272727,554.5272727,black,legacy,legacy,legacy,0,uniform,1,undefined,1,s,0,0,0,0,54,54,0,0,0,54,54,54,0,54,54,54,Sun Sep 19 11:58:36 2021,The main experiment item,yes,FlankerTask.osexp,/Users/samonemarks/Desktop,no,mono,no,18,no,white,no,yes,768,legacy,54,54,/Users/samonemarks/Desktop/SM-subject-1.csv,legacy,Lentiform Loewenfeld,3.3.9,0,s,NA,s,NA,NA,s,448,NA,33139,NA,NA,448,2,legacy,1024,2,48000,-16,experiment,1,odd,37803,NA,NA,NA,132274,131208,4652,NA,NA,132270,132376,120426,4613,NA,132376,132825,Flanker Task,53,30499,55,yes,1024
Incongruent,1500,HHSHH,96.42857143,96.42857143,555.8928571,555.8928571,black,legacy,legacy,legacy,0,uniform,1,undefined,1,s,0,0,0,0,55,55,0,0,0,55,55,55,0,55,55,55,Sun Sep 19 11:58:36 2021,The main experiment item,yes,FlankerTask.osexp,/Users/samonemarks/Desktop,no,mono,no,18,no,white,no,yes,768,legacy,55,55,/Users/samonemarks/Desktop/SM-subject-1.csv,legacy,Lentiform Loewenfeld,3.3.9,0,s,NA,s,NA,NA,s,631,NA,33139,NA,NA,631,2,legacy,1024,2,48000,-16,experiment,1,odd,37803,NA,NA,NA,133895,132830,4652,NA,NA,133892,133997,120426,4613,NA,133998,134630,Flanker Task,54,31130,56,yes,1024
Incongruent,1500,SSHSS,96.49122807,96.49122807,554.4912281,554.4912281,black,legacy,legacy,legacy,0,uniform,1,undefined,1,h,0,0,0,0,56,56,0,0,0,56,56,56,0,56,56,56,Sun Sep 19 11:58:36 2021,The main experiment item,yes,FlankerTask.osexp,/Users/samonemarks/Desktop,no,mono,no,18,no,white,no,yes,768,legacy,56,56,/Users/samonemarks/Desktop/SM-subject-1.csv,legacy,Lentiform Loewenfeld,3.3.9,0,h,NA,s,NA,NA,h,476,NA,33139,NA,NA,476,2,legacy,1024,2,48000,-16,experiment,1,odd,37803,NA,NA,NA,135699,134634,4652,NA,NA,135695,135801,120426,4613,NA,135801,136278,Flanker Task,55,31606,57,yes,1024
Congruent,1500,SSSSS,96.55172414,96.55172414,552.9482759,552.9482759,black,legacy,legacy,legacy,0,uniform,1,undefined,1,s,0,0,0,0,57,57,0,0,0,57,57,57,0,57,57,57,Sun Sep 19 11:58:36 2021,The main experiment item,yes,FlankerTask.osexp,/Users/samonemarks/Desktop,no,mono,no,18,no,white,no,yes,768,legacy,57,57,/Users/samonemarks/Desktop/SM-subject-1.csv,legacy,Lentiform Loewenfeld,3.3.9,0,s,NA,s,NA,NA,s,465,NA,33139,NA,NA,465,2,legacy,1024,2,48000,-16,experiment,1,odd,37803,NA,NA,NA,137346,136282,4652,NA,NA,137343,137450,120426,4613,NA,137450,137916,Flanker Task,56,32071,58,yes,1024
Congruent,1500,SSSSS,94.91525424,94.91525424,549.0338983,549.0338983,black,legacy,legacy,legacy,0,uniform,0,undefined,0,s,0,0,0,0,58,58,0,0,0,58,58,58,0,58,58,58,Sun Sep 19 11:58:36 2021,The main experiment item,yes,FlankerTask.osexp,/Users/samonemarks/Desktop,no,mono,no,18,no,white,no,yes,768,legacy,58,58,/Users/samonemarks/Desktop/SM-subject-1.csv,legacy,Lentiform Loewenfeld,3.3.9,0,h,NA,s,NA,NA,h,322,NA,33139,NA,NA,322,2,legacy,1024,2,48000,-16,experiment,1,odd,37803,NA,NA,NA,138985,137920,4652,NA,NA,138983,139088,120426,4613,NA,139088,139411,Flanker Task,56,32393,59,yes,1024
Congruent,1500,SSSSS,95,95,548.2,548.2,black,legacy,legacy,legacy,0,uniform,1,undefined,1,s,0,0,0,0,59,59,0,0,0,59,59,59,0,59,59,59,Sun Sep 19 11:58:36 2021,The main experiment item,yes,FlankerTask.osexp,/Users/samonemarks/Desktop,no,mono,no,18,no,white,no,yes,768,legacy,59,59,/Users/samonemarks/Desktop/SM-subject-1.csv,legacy,Lentiform Loewenfeld,3.3.9,0,s,NA,s,NA,NA,s,499,NA,33139,NA,NA,499,2,legacy,1024,2,48000,-16,experiment,1,odd,37803,NA,NA,NA,140984,139919,4652,NA,NA,140980,141086,139416,4613,NA,141086,141586,Flanker Task,57,32892,60,yes,1024
Congruent,1500,HHHHH,95.08196721,95.08196721,547.5901639,547.5901639,black,legacy,legacy,legacy,0,uniform,1,undefined,1,h,0,0,0,0,60,60,0,0,0,60,60,60,0,60,60,60,Sun Sep 19 11:58:36 2021,The main experiment item,yes,FlankerTask.osexp,/Users/samonemarks/Desktop,no,mono,no,18,no,white,no,yes,768,legacy,60,60,/Users/samonemarks/Desktop/SM-subject-1.csv,legacy,Lentiform Loewenfeld,3.3.9,0,h,NA,s,NA,NA,h,511,NA,33139,NA,NA,511,2,legacy,1024,2,48000,-16,experiment,1,odd,37803,NA,NA,NA,142655,141590,4652,NA,NA,142651,142757,139416,4613,NA,142758,143270,Flanker Task,58,33403,61,yes,1024
Incongruent,1500,HHSHH,95.16129032,95.16129032,546.016129,546.016129,black,legacy,legacy,legacy,0,uniform,1,undefined,1,s,0,0,0,0,61,61,0,0,0,61,61,61,0,61,61,61,Sun Sep 19 11:58:36 2021,The main experiment item,yes,FlankerTask.osexp,/Users/samonemarks/Desktop,no,mono,no,18,no,white,no,yes,768,legacy,61,61,/Users/samonemarks/Desktop/SM-subject-1.csv,legacy,Lentiform Loewenfeld,3.3.9,0,s,NA,s,NA,NA,s,450,NA,33139,NA,NA,450,2,legacy,1024,2,48000,-16,experiment,1,odd,37803,NA,NA,NA,144341,143275,4652,NA,NA,144337,144444,139416,4613,NA,144444,144895,Flanker Task,59,33853,62,yes,1024
Congruent,1500,HHHHH,95.23809524,95.23809524,544.031746,544.031746,black,legacy,legacy,legacy,0,uniform,1,undefined,1,h,0,0,0,0,62,62,0,0,0,62,62,62,0,62,62,62,Sun Sep 19 11:58:36 2021,The main experiment item,yes,FlankerTask.osexp,/Users/samonemarks/Desktop,no,mono,no,18,no,white,no,yes,768,legacy,62,62,/Users/samonemarks/Desktop/SM-subject-1.csv,legacy,Lentiform Loewenfeld,3.3.9,0,h,NA,s,NA,NA,h,421,NA,33139,NA,NA,421,2,legacy,1024,2,48000,-16,experiment,1,odd,37803,NA,NA,NA,145963,144899,4652,NA,NA,145961,146066,139416,4613,NA,146066,146487,Flanker Task,60,34274,63,yes,1024
Incongruent,1500,HHSHH,95.3125,95.3125,543.796875,543.796875,black,legacy,legacy,legacy,0,uniform,1,undefined,1,s,0,0,0,0,63,63,0,0,0,63,63,63,0,63,63,63,Sun Sep 19 11:58:36 2021,The main experiment item,yes,FlankerTask.osexp,/Users/samonemarks/Desktop,no,mono,no,18,no,white,no,yes,768,legacy,63,63,/Users/samonemarks/Desktop/SM-subject-1.csv,legacy,Lentiform Loewenfeld,3.3.9,0,s,NA,s,NA,NA,s,529,NA,33139,NA,NA,529,2,legacy,1024,2,48000,-16,experiment,1,odd,37803,NA,NA,NA,147558,146492,4652,NA,NA,147554,147660,139416,4613,NA,147661,148191,Flanker Task,61,34803,64,yes,1024
Incongruent,1500,SSHSS,95.38461538,95.38461538,543.6153846,543.6153846,black,legacy,legacy,legacy,0,uniform,1,undefined,1,h,0,0,0,0,64,64,0,0,0,64,64,64,0,64,64,64,Sun Sep 19 11:58:36 2021,The main experiment item,yes,FlankerTask.osexp,/Users/samonemarks/Desktop,no,mono,no,18,no,white,no,yes,768,legacy,64,64,/Users/samonemarks/Desktop/SM-subject-1.csv,legacy,Lentiform Loewenfeld,3.3.9,0,h,NA,s,NA,NA,h,532,NA,33139,NA,NA,532,2,legacy,1024,2,48000,-16,experiment,1,odd,37803,NA,NA,NA,149261,148196,4652,NA,NA,149257,149364,139416,4613,NA,149364,149897,Flanker Task,62,35335,65,yes,1024
Congruent,1500,SSSSS,95.45454545,95.45454545,542.3333333,542.3333333,black,legacy,legacy,legacy,0,uniform,1,undefined,1,s,0,0,0,0,65,65,0,0,0,65,65,65,0,65,65,65,Sun Sep 19 11:58:36 2021,The main experiment item,yes,FlankerTask.osexp,/Users/samonemarks/Desktop,no,mono,no,18,no,white,no,yes,768,legacy,65,65,/Users/samonemarks/Desktop/SM-subject-1.csv,legacy,Lentiform Loewenfeld,3.3.9,0,s,NA,s,NA,NA,s,459,NA,33139,NA,NA,459,2,legacy,1024,2,48000,-16,experiment,1,odd,37803,NA,NA,NA,150965,149901,4652,NA,NA,150962,151067,139416,4613,NA,151067,151526,Flanker Task,63,35794,66,yes,1024
Congruent,1500,HHHHH,95.52238806,95.52238806,544.1641791,544.1641791,black,legacy,legacy,legacy,0,uniform,1,undefined,1,h,0,0,0,0,66,66,0,0,0,66,66,66,0,66,66,66,Sun Sep 19 11:58:36 2021,The main experiment item,yes,FlankerTask.osexp,/Users/samonemarks/Desktop,no,mono,no,18,no,white,no,yes,768,legacy,66,66,/Users/samonemarks/Desktop/SM-subject-1.csv,legacy,Lentiform Loewenfeld,3.3.9,0,h,NA,s,NA,NA,h,665,NA,33139,NA,NA,665,2,legacy,1024,2,48000,-16,experiment,1,odd,37803,NA,NA,NA,152596,151531,4652,NA,NA,152593,152698,139416,4613,NA,152698,153363,Flanker Task,64,36459,67,yes,1024
Congruent,1500,SSSSS,94.11764706,94.11764706,540.2647059,540.2647059,black,legacy,legacy,legacy,0,uniform,0,undefined,0,s,0,0,0,0,67,67,0,0,0,67,67,67,0,67,67,67,Sun Sep 19 11:58:36 2021,The main experiment item,yes,FlankerTask.osexp,/Users/samonemarks/Desktop,no,mono,no,18,no,white,no,yes,768,legacy,67,67,/Users/samonemarks/Desktop/SM-subject-1.csv,legacy,Lentiform Loewenfeld,3.3.9,0,h,NA,s,NA,NA,h,279,NA,33139,NA,NA,279,2,legacy,1024,2,48000,-16,experiment,1,odd,37803,NA,NA,NA,154432,153368,4652,NA,NA,154429,154534,139416,4613,NA,154534,154813,Flanker Task,64,36738,68,yes,1024
Congruent,1500,HHHHH,94.20289855,94.20289855,540.2463768,540.2463768,black,legacy,legacy,legacy,0,uniform,1,undefined,1,h,0,0,0,0,68,68,0,0,0,68,68,68,0,68,68,68,Sun Sep 19 11:58:36 2021,The main experiment item,yes,FlankerTask.osexp,/Users/samonemarks/Desktop,no,mono,no,18,no,white,no,yes,768,legacy,68,68,/Users/samonemarks/Desktop/SM-subject-1.csv,legacy,Lentiform Loewenfeld,3.3.9,0,h,NA,s,NA,NA,h,539,NA,33139,NA,NA,539,2,legacy,1024,2,48000,-16,experiment,1,odd,37803,NA,NA,NA,156386,155321,4652,NA,NA,156384,156488,154818,4613,NA,156488,157027,Flanker Task,65,37277,69,yes,1024
Incongruent,1500,HHSHH,94.28571429,94.28571429,540.1428571,540.1428571,black,legacy,legacy,legacy,0,uniform,1,undefined,1,s,0,0,0,0,69,69,0,0,0,69,69,69,0,69,69,69,Sun Sep 19 11:58:36 2021,The main experiment item,yes,FlankerTask.osexp,/Users/samonemarks/Desktop,no,mono,no,18,no,white,no,yes,768,legacy,69,69,/Users/samonemarks/Desktop/SM-subject-1.csv,legacy,Lentiform Loewenfeld,3.3.9,0,s,NA,s,NA,NA,s,533,NA,33139,NA,NA,533,2,legacy,1024,2,48000,-16,experiment,1,odd,37803,NA,NA,NA,158096,157032,4652,NA,NA,158093,158198,154818,4613,NA,158198,158733,Flanker Task,66,37810,70,yes,1024
Congruent,1500,SSSSS,94.36619718,94.36619718,545.056338,545.056338,black,legacy,legacy,legacy,0,uniform,1,undefined,1,s,0,0,0,0,70,70,0,0,0,70,70,70,0,70,70,70,Sun Sep 19 11:58:36 2021,The main experiment item,yes,FlankerTask.osexp,/Users/samonemarks/Desktop,no,mono,no,18,no,white,no,yes,768,legacy,70,70,/Users/samonemarks/Desktop/SM-subject-1.csv,legacy,Lentiform Loewenfeld,3.3.9,0,s,NA,s,NA,NA,s,889,NA,33139,NA,NA,889,2,legacy,1024,2,48000,-16,experiment,1,odd,37803,NA,NA,NA,159803,158737,4652,NA,NA,159800,159906,154818,4613,NA,159907,160796,Flanker Task,67,38699,71,yes,1024
Congruent,1500,SSSSS,94.44444444,94.44444444,550.2083333,550.2083333,black,legacy,legacy,legacy,0,uniform,1,undefined,1,s,0,0,0,0,71,71,0,0,0,71,71,71,0,71,71,71,Sun Sep 19 11:58:36 2021,The main experiment item,yes,FlankerTask.osexp,/Users/samonemarks/Desktop,no,mono,no,18,no,white,no,yes,768,legacy,71,71,/Users/samonemarks/Desktop/SM-subject-1.csv,legacy,Lentiform Loewenfeld,3.3.9,0,s,NA,s,NA,NA,s,916,NA,33139,NA,NA,916,2,legacy,1024,2,48000,-16,experiment,1,odd,37803,NA,NA,NA,161866,160800,4652,NA,NA,161863,161968,154818,4613,NA,161968,162885,Flanker Task,68,39615,72,yes,1024
Congruent,1500,SSSSS,94.52054795,94.52054795,553.9726027,553.9726027,black,legacy,legacy,legacy,0,uniform,1,undefined,1,s,0,0,0,0,72,72,0,0,0,72,72,72,0,72,72,72,Sun Sep 19 11:58:36 2021,The main experiment item,yes,FlankerTask.osexp,/Users/samonemarks/Desktop,no,mono,no,18,no,white,no,yes,768,legacy,72,72,/Users/samonemarks/Desktop/SM-subject-1.csv,legacy,Lentiform Loewenfeld,3.3.9,0,s,NA,s,NA,NA,s,825,NA,33139,NA,NA,825,2,legacy,1024,2,48000,-16,experiment,1,odd,37803,NA,NA,NA,163955,162890,4652,NA,NA,163952,164057,154818,4613,NA,164057,164883,Flanker Task,69,40440,73,yes,1024
Congruent,1500,HHHHH,94.59459459,94.59459459,558.6216216,558.6216216,black,legacy,legacy,legacy,0,uniform,1,undefined,1,h,0,0,0,0,73,73,0,0,0,73,73,73,0,73,73,73,Sun Sep 19 11:58:36 2021,The main experiment item,yes,FlankerTask.osexp,/Users/samonemarks/Desktop,no,mono,no,18,no,white,no,yes,768,legacy,73,73,/Users/samonemarks/Desktop/SM-subject-1.csv,legacy,Lentiform Loewenfeld,3.3.9,0,h,NA,s,NA,NA,h,898,NA,33139,NA,NA,898,2,legacy,1024,2,48000,-16,experiment,1,odd,37803,NA,NA,NA,165954,164888,4652,NA,NA,165952,166057,154818,4613,NA,166057,166956,Flanker Task,70,41338,74,yes,1024
Incongruent,1500,SSHSS,93.33333333,93.33333333,560.9466667,560.9466667,black,legacy,legacy,legacy,0,uniform,0,undefined,0,h,0,0,0,0,74,74,0,0,0,74,74,74,0,74,74,74,Sun Sep 19 11:58:36 2021,The main experiment item,yes,FlankerTask.osexp,/Users/samonemarks/Desktop,no,mono,no,18,no,white,no,yes,768,legacy,74,74,/Users/samonemarks/Desktop/SM-subject-1.csv,legacy,Lentiform Loewenfeld,3.3.9,0,s,NA,s,NA,NA,s,733,NA,33139,NA,NA,733,2,legacy,1024,2,48000,-16,experiment,1,odd,37803,NA,NA,NA,168028,166960,4652,NA,NA,168025,168131,154818,4613,NA,168131,168865,Flanker Task,70,42071,75,yes,1024
Incongruent,1500,SSHSS,93.42105263,93.42105263,565.9605263,565.9605263,black,legacy,legacy,legacy,0,uniform,1,undefined,1,h,0,0,0,0,75,75,0,0,0,75,75,75,0,75,75,75,Sun Sep 19 11:58:36 2021,The main experiment item,yes,FlankerTask.osexp,/Users/samonemarks/Desktop,no,mono,no,18,no,white,no,yes,768,legacy,75,75,/Users/samonemarks/Desktop/SM-subject-1.csv,legacy,Lentiform Loewenfeld,3.3.9,0,h,NA,s,NA,NA,h,942,NA,33139,NA,NA,942,2,legacy,1024,2,48000,-16,experiment,1,odd,37803,NA,NA,NA,170434,169371,4652,NA,NA,170432,170536,168869,4613,NA,170536,171478,Flanker Task,71,43013,76,yes,1024
Incongruent,1500,SSHSS,93.50649351,93.50649351,566.0779221,566.0779221,black,legacy,legacy,legacy,0,uniform,1,undefined,1,h,0,0,0,0,76,76,0,0,0,76,76,76,0,76,76,76,Sun Sep 19 11:58:36 2021,The main experiment item,yes,FlankerTask.osexp,/Users/samonemarks/Desktop,no,mono,no,18,no,white,no,yes,768,legacy,76,76,/Users/samonemarks/Desktop/SM-subject-1.csv,legacy,Lentiform Loewenfeld,3.3.9,0,h,NA,s,NA,NA,h,575,NA,33139,NA,NA,575,2,legacy,1024,2,48000,-16,experiment,1,odd,37803,NA,NA,NA,172547,171483,4652,NA,NA,172544,172649,168869,4613,NA,172649,173224,Flanker Task,72,43588,77,yes,1024
Incongruent,1500,SSHSS,93.58974359,93.58974359,566.3717949,566.3717949,black,legacy,legacy,legacy,0,uniform,1,undefined,1,h,0,0,0,0,77,77,0,0,0,77,77,77,0,77,77,77,Sun Sep 19 11:58:36 2021,The main experiment item,yes,FlankerTask.osexp,/Users/samonemarks/Desktop,no,mono,no,18,no,white,no,yes,768,legacy,77,77,/Users/samonemarks/Desktop/SM-subject-1.csv,legacy,Lentiform Loewenfeld,3.3.9,0,h,NA,s,NA,NA,h,589,NA,33139,NA,NA,589,2,legacy,1024,2,48000,-16,experiment,1,odd,37803,NA,NA,NA,174295,173229,4652,NA,NA,174291,174397,168869,4613,NA,174398,174988,Flanker Task,73,44177,78,yes,1024
Incongruent,1500,HHSHH,93.67088608,93.67088608,565.6835443,565.6835443,black,legacy,legacy,legacy,0,uniform,1,undefined,1,s,0,0,0,0,78,78,0,0,0,78,78,78,0,78,78,78,Sun Sep 19 11:58:36 2021,The main experiment item,yes,FlankerTask.osexp,/Users/samonemarks/Desktop,no,mono,no,18,no,white,no,yes,768,legacy,78,78,/Users/samonemarks/Desktop/SM-subject-1.csv,legacy,Lentiform Loewenfeld,3.3.9,0,s,NA,s,NA,NA,s,512,NA,33139,NA,NA,512,2,legacy,1024,2,48000,-16,experiment,1,odd,37803,NA,NA,NA,176060,174992,4652,NA,NA,176058,176162,168869,4613,NA,176162,176675,Flanker Task,74,44689,79,yes,1024
Congruent,1500,HHHHH,93.75,93.75,565.4125,565.4125,black,legacy,legacy,legacy,0,uniform,1,undefined,1,h,0,0,0,0,79,79,0,0,0,79,79,79,0,79,79,79,Sun Sep 19 11:58:36 2021,The main experiment item,yes,FlankerTask.osexp,/Users/samonemarks/Desktop,no,mono,no,18,no,white,no,yes,768,legacy,79,79,/Users/samonemarks/Desktop/SM-subject-1.csv,legacy,Lentiform Loewenfeld,3.3.9,0,h,NA,s,NA,NA,h,544,NA,33139,NA,NA,544,2,legacy,1024,2,48000,-16,experiment,1,odd,37803,NA,NA,NA,177743,176679,4652,NA,NA,177741,177845,168869,4613,NA,177845,178390,Flanker Task,75,45233,80,yes,1024
Incongruent,600,SSHSS,93.82716049,93.82716049,566.7407407,566.7407407,black,legacy,legacy,legacy,0,uniform,1,undefined,1,h,0,0,0,0,80,80,0,0,0,80,80,80,0,80,80,80,Sun Sep 19 11:58:36 2021,The main experiment item,yes,FlankerTask.osexp,/Users/samonemarks/Desktop,no,mono,no,18,no,white,no,yes,768,legacy,0,79,/Users/samonemarks/Desktop/SM-subject-1.csv,legacy,Lentiform Loewenfeld,3.3.9,0,h,NA,s,s,NA,h,673,NA,33139,80499,NA,673,2,legacy,1024,2,48000,-16,experiment,1,odd,37803,259918,NA,NA,259966,178394,4652,179418,NA,259963,260071,168869,4613,NA,260071,260745,Flanker Task,76,45906,81,yes,1024
Incongruent,600,HHSHH,93.90243902,93.90243902,565.1463415,565.1463415,black,legacy,legacy,legacy,0,uniform,1,undefined,1,s,0,0,0,0,81,81,0,0,0,81,81,81,0,81,81,81,Sun Sep 19 11:58:36 2021,The main experiment item,yes,FlankerTask.osexp,/Users/samonemarks/Desktop,no,mono,no,18,no,white,no,yes,768,legacy,1,79,/Users/samonemarks/Desktop/SM-subject-1.csv,legacy,Lentiform Loewenfeld,3.3.9,0,s,NA,s,s,NA,s,436,NA,33139,80499,NA,436,2,legacy,1024,2,48000,-16,experiment,1,odd,37803,259918,NA,NA,262325,261258,4652,179418,NA,262322,262427,168869,4613,260749,262427,262864,Flanker Task,77,46342,82,yes,1024
Congruent,600,SSSSS,93.97590361,93.97590361,562.626506,562.626506,black,legacy,legacy,legacy,0,uniform,1,undefined,1,s,0,0,0,0,82,82,0,0,0,82,82,82,0,82,82,82,Sun Sep 19 11:58:36 2021,The main experiment item,yes,FlankerTask.osexp,/Users/samonemarks/Desktop,no,mono,no,18,no,white,no,yes,768,legacy,2,79,/Users/samonemarks/Desktop/SM-subject-1.csv,legacy,Lentiform Loewenfeld,3.3.9,0,s,NA,s,s,NA,s,356,NA,33139,80499,NA,356,2,legacy,1024,2,48000,-16,experiment,1,odd,37803,259918,NA,NA,263933,262869,4652,179418,NA,263931,264036,168869,4613,260749,264036,264393,Flanker Task,78,46698,83,yes,1024
Congruent,600,HHHHH,94.04761905,94.04761905,560.2261905,560.2261905,black,legacy,legacy,legacy,0,uniform,1,undefined,1,h,0,0,0,0,83,83,0,0,0,83,83,83,0,83,83,83,Sun Sep 19 11:58:36 2021,The main experiment item,yes,FlankerTask.osexp,/Users/samonemarks/Desktop,no,mono,no,18,no,white,no,yes,768,legacy,3,79,/Users/samonemarks/Desktop/SM-subject-1.csv,legacy,Lentiform Loewenfeld,3.3.9,0,h,NA,s,s,NA,h,361,NA,33139,80499,NA,361,2,legacy,1024,2,48000,-16,experiment,1,odd,37803,259918,NA,NA,265461,264397,4652,179418,NA,265459,265563,168869,4613,260749,265563,265924,Flanker Task,79,47059,84,yes,1024
Incongruent,600,HHSHH,94.11764706,94.11764706,559.5882353,559.5882353,black,legacy,legacy,legacy,0,uniform,1,undefined,1,s,0,0,0,0,84,84,0,0,0,84,84,84,0,84,84,84,Sun Sep 19 11:58:36 2021,The main experiment item,yes,FlankerTask.osexp,/Users/samonemarks/Desktop,no,mono,no,18,no,white,no,yes,768,legacy,4,79,/Users/samonemarks/Desktop/SM-subject-1.csv,legacy,Lentiform Loewenfeld,3.3.9,0,s,NA,s,s,NA,s,506,NA,33139,80499,NA,506,2,legacy,1024,2,48000,-16,experiment,1,odd,37803,259918,NA,NA,266995,265929,4652,179418,NA,266991,267098,168869,4613,260749,267098,267605,Flanker Task,80,47565,85,yes,1024
Congruent,600,HHHHH,94.18604651,94.18604651,556.9534884,556.9534884,black,legacy,legacy,legacy,0,uniform,1,undefined,1,h,0,0,0,0,85,85,0,0,0,85,85,85,0,85,85,85,Sun Sep 19 11:58:36 2021,The main experiment item,yes,FlankerTask.osexp,/Users/samonemarks/Desktop,no,mono,no,18,no,white,no,yes,768,legacy,5,79,/Users/samonemarks/Desktop/SM-subject-1.csv,legacy,Lentiform Loewenfeld,3.3.9,0,h,NA,s,s,NA,h,333,NA,33139,80499,NA,333,2,legacy,1024,2,48000,-16,experiment,1,odd,37803,259918,NA,NA,268674,267610,4652,179418,NA,268671,268776,168869,4613,260749,268776,269109,Flanker Task,81,47898,86,yes,1024
Incongruent,600,SSHSS,93.10344828,93.10344828,554.3908046,554.3908046,black,legacy,legacy,legacy,0,uniform,0,undefined,0,h,0,0,0,0,86,86,0,0,0,86,86,86,0,86,86,86,Sun Sep 19 11:58:36 2021,The main experiment item,yes,FlankerTask.osexp,/Users/samonemarks/Desktop,no,mono,no,18,no,white,no,yes,768,legacy,6,79,/Users/samonemarks/Desktop/SM-subject-1.csv,legacy,Lentiform Loewenfeld,3.3.9,0,s,NA,s,s,NA,s,334,NA,33139,80499,NA,334,2,legacy,1024,2,48000,-16,experiment,1,odd,37803,259918,NA,NA,270179,269114,4652,179418,NA,270175,270282,168869,4613,260749,270282,270617,Flanker Task,81,48232,87,yes,1024
Congruent,600,HHHHH,93.18181818,93.18181818,552.3409091,552.3409091,black,legacy,legacy,legacy,0,uniform,1,undefined,1,h,0,0,0,0,87,87,0,0,0,87,87,87,0,87,87,87,Sun Sep 19 11:58:36 2021,The main experiment item,yes,FlankerTask.osexp,/Users/samonemarks/Desktop,no,mono,no,18,no,white,no,yes,768,legacy,7,79,/Users/samonemarks/Desktop/SM-subject-1.csv,legacy,Lentiform Loewenfeld,3.3.9,0,h,NA,s,s,NA,h,374,NA,33139,80499,NA,374,2,legacy,1024,2,48000,-16,experiment,1,odd,37803,259918,NA,NA,272191,271127,4652,179418,NA,272188,272294,270622,4613,260749,272294,272669,Flanker Task,82,48606,88,yes,1024
Congruent,600,HHHHH,93.25842697,93.25842697,549.8988764,549.8988764,black,legacy,legacy,legacy,0,uniform,1,undefined,1,h,0,0,0,0,88,88,0,0,0,88,88,88,0,88,88,88,Sun Sep 19 11:58:36 2021,The main experiment item,yes,FlankerTask.osexp,/Users/samonemarks/Desktop,no,mono,no,18,no,white,no,yes,768,legacy,8,79,/Users/samonemarks/Desktop/SM-subject-1.csv,legacy,Lentiform Loewenfeld,3.3.9,0,h,NA,s,s,NA,h,335,NA,33139,80499,NA,335,2,legacy,1024,2,48000,-16,experiment,1,odd,37803,259918,NA,NA,273741,272674,4652,179418,NA,273738,273843,270622,4613,260749,273843,274179,Flanker Task,83,48941,89,yes,1024
Congruent,600,SSSSS,93.33333333,93.33333333,548.3555556,548.3555556,black,legacy,legacy,legacy,0,uniform,1,undefined,1,s,0,0,0,0,89,89,0,0,0,89,89,89,0,89,89,89,Sun Sep 19 11:58:36 2021,The main experiment item,yes,FlankerTask.osexp,/Users/samonemarks/Desktop,no,mono,no,18,no,white,no,yes,768,legacy,9,79,/Users/samonemarks/Desktop/SM-subject-1.csv,legacy,Lentiform Loewenfeld,3.3.9,0,s,NA,s,s,NA,s,411,NA,33139,80499,NA,411,2,legacy,1024,2,48000,-16,experiment,1,odd,37803,259918,NA,NA,275248,274184,4652,179418,NA,275246,275350,270622,4613,260749,275350,275762,Flanker Task,84,49352,90,yes,1024
Congruent,600,HHHHH,92.30769231,92.30769231,546.0659341,546.0659341,black,legacy,legacy,legacy,0,uniform,0,undefined,0,h,0,0,0,0,90,90,0,0,0,90,90,90,0,90,90,90,Sun Sep 19 11:58:36 2021,The main experiment item,yes,FlankerTask.osexp,/Users/samonemarks/Desktop,no,mono,no,18,no,white,no,yes,768,legacy,10,79,/Users/samonemarks/Desktop/SM-subject-1.csv,legacy,Lentiform Loewenfeld,3.3.9,0,s,NA,s,s,NA,s,340,NA,33139,80499,NA,340,2,legacy,1024,2,48000,-16,experiment,1,odd,37803,259918,NA,NA,276832,275766,4652,179418,NA,276829,276935,270622,4613,260749,276935,277276,Flanker Task,84,49692,91,yes,1024
Congruent,600,SSSSS,91.30434783,91.30434783,544.0434783,544.0434783,black,legacy,legacy,legacy,0,uniform,0,undefined,0,s,0,0,0,0,91,91,0,0,0,91,91,91,0,91,91,91,Sun Sep 19 11:58:36 2021,The main experiment item,yes,FlankerTask.osexp,/Users/samonemarks/Desktop,no,mono,no,18,no,white,no,yes,768,legacy,11,79,/Users/samonemarks/Desktop/SM-subject-1.csv,legacy,Lentiform Loewenfeld,3.3.9,0,h,NA,s,s,NA,h,360,NA,33139,80499,NA,360,2,legacy,1024,2,48000,-16,experiment,1,odd,37803,259918,NA,NA,278851,277786,4652,179418,NA,278848,278953,277281,4613,260749,278953,279314,Flanker Task,84,50052,92,yes,1024
Incongruent,600,SSHSS,91.39784946,91.39784946,543.8924731,543.8924731,black,legacy,legacy,legacy,0,uniform,1,undefined,1,h,0,0,0,0,92,92,0,0,0,92,92,92,0,92,92,92,Sun Sep 19 11:58:36 2021,The main experiment item,yes,FlankerTask.osexp,/Users/samonemarks/Desktop,no,mono,no,18,no,white,no,yes,768,legacy,12,79,/Users/samonemarks/Desktop/SM-subject-1.csv,legacy,Lentiform Loewenfeld,3.3.9,0,h,NA,s,s,NA,h,530,NA,33139,80499,NA,530,2,legacy,1024,2,48000,-16,experiment,1,odd,37803,259918,NA,NA,280888,279823,4652,179418,NA,280885,280990,279319,4613,260749,280990,281521,Flanker Task,85,50582,93,yes,1024
Incongruent,600,SSHSS,90.42553191,90.42553191,541.8191489,541.8191489,black,legacy,legacy,legacy,0,uniform,0,undefined,0,h,0,0,0,0,93,93,0,0,0,93,93,93,0,93,93,93,Sun Sep 19 11:58:36 2021,The main experiment item,yes,FlankerTask.osexp,/Users/samonemarks/Desktop,no,mono,no,18,no,white,no,yes,768,legacy,13,79,/Users/samonemarks/Desktop/SM-subject-1.csv,legacy,Lentiform Loewenfeld,3.3.9,0,s,NA,s,s,NA,s,349,NA,33139,80499,NA,349,2,legacy,1024,2,48000,-16,experiment,1,odd,37803,259918,NA,NA,282590,281525,4652,179418,NA,282587,282692,279319,4613,260749,282692,283042,Flanker Task,85,50931,94,yes,1024
Congruent,600,SSSSS,90.52631579,90.52631579,539.9894737,539.9894737,black,legacy,legacy,legacy,0,uniform,1,undefined,1,s,0,0,0,0,94,94,0,0,0,94,94,94,0,94,94,94,Sun Sep 19 11:58:36 2021,The main experiment item,yes,FlankerTask.osexp,/Users/samonemarks/Desktop,no,mono,no,18,no,white,no,yes,768,legacy,14,79,/Users/samonemarks/Desktop/SM-subject-1.csv,legacy,Lentiform Loewenfeld,3.3.9,0,s,NA,s,s,NA,s,368,NA,33139,80499,NA,368,2,legacy,1024,2,48000,-16,experiment,1,odd,37803,259918,NA,NA,284613,283548,4652,179418,NA,284610,284715,283046,4613,260749,284716,285085,Flanker Task,86,51299,95,yes,1024
Incongruent,600,SSHSS,90.625,90.625,539.5833333,539.5833333,black,legacy,legacy,legacy,0,uniform,1,undefined,1,h,0,0,0,0,95,95,0,0,0,95,95,95,0,95,95,95,Sun Sep 19 11:58:36 2021,The main experiment item,yes,FlankerTask.osexp,/Users/samonemarks/Desktop,no,mono,no,18,no,white,no,yes,768,legacy,15,79,/Users/samonemarks/Desktop/SM-subject-1.csv,legacy,Lentiform Loewenfeld,3.3.9,0,h,NA,s,s,NA,h,501,NA,33139,80499,NA,501,2,legacy,1024,2,48000,-16,experiment,1,odd,37803,259918,NA,NA,286154,285090,4652,179418,NA,286152,286256,283046,4613,260749,286256,286758,Flanker Task,87,51800,96,yes,1024
Incongruent,600,SSHSS,90.72164948,90.72164948,537.3298969,537.3298969,black,legacy,legacy,legacy,0,uniform,1,undefined,1,h,0,0,0,0,96,96,0,0,0,96,96,96,0,96,96,96,Sun Sep 19 11:58:36 2021,The main experiment item,yes,FlankerTask.osexp,/Users/samonemarks/Desktop,no,mono,no,18,no,white,no,yes,768,legacy,16,79,/Users/samonemarks/Desktop/SM-subject-1.csv,legacy,Lentiform Loewenfeld,3.3.9,0,h,NA,s,s,NA,h,321,NA,33139,80499,NA,321,2,legacy,1024,2,48000,-16,experiment,1,odd,37803,259918,NA,NA,287826,286762,4652,179418,NA,287824,287928,283046,4613,260749,287929,288251,Flanker Task,88,52121,97,yes,1024
Incongruent,600,HHSHH,90.81632653,90.81632653,535.4183673,535.4183673,black,legacy,legacy,legacy,0,uniform,1,undefined,1,s,0,0,0,0,97,97,0,0,0,97,97,97,0,97,97,97,Sun Sep 19 11:58:36 2021,The main experiment item,yes,FlankerTask.osexp,/Users/samonemarks/Desktop,no,mono,no,18,no,white,no,yes,768,legacy,17,79,/Users/samonemarks/Desktop/SM-subject-1.csv,legacy,Lentiform Loewenfeld,3.3.9,0,s,NA,s,s,NA,s,350,NA,33139,80499,NA,350,2,legacy,1024,2,48000,-16,experiment,1,odd,37803,259918,NA,NA,289320,288256,4652,179418,NA,289318,289422,283046,4613,260749,289422,289773,Flanker Task,89,52471,98,yes,1024
Congruent,600,HHHHH,90.90909091,90.90909091,532.8686869,532.8686869,black,legacy,legacy,legacy,0,uniform,1,undefined,1,h,0,0,0,0,98,98,0,0,0,98,98,98,0,98,98,98,Sun Sep 19 11:58:36 2021,The main experiment item,yes,FlankerTask.osexp,/Users/samonemarks/Desktop,no,mono,no,18,no,white,no,yes,768,legacy,18,79,/Users/samonemarks/Desktop/SM-subject-1.csv,legacy,Lentiform Loewenfeld,3.3.9,0,h,NA,s,s,NA,h,283,NA,33139,80499,NA,283,2,legacy,1024,2,48000,-16,experiment,1,odd,37803,259918,NA,NA,290840,289777,4652,179418,NA,290838,290942,283046,4613,260749,290942,291226,Flanker Task,90,52754,99,yes,1024
Incongruent,600,SSHSS,91,91,531.78,531.78,black,legacy,legacy,legacy,0,uniform,1,undefined,1,h,0,0,0,0,99,99,0,0,0,99,99,99,0,99,99,99,Sun Sep 19 11:58:36 2021,The main experiment item,yes,FlankerTask.osexp,/Users/samonemarks/Desktop,no,mono,no,18,no,white,no,yes,768,legacy,19,79,/Users/samonemarks/Desktop/SM-subject-1.csv,legacy,Lentiform Loewenfeld,3.3.9,0,h,NA,s,s,NA,h,424,NA,33139,80499,NA,424,2,legacy,1024,2,48000,-16,experiment,1,odd,37803,259918,NA,NA,292294,291230,4652,179418,NA,292291,292397,283046,4613,260749,292397,292822,Flanker Task,91,53178,100,yes,1024
Incongruent,600,HHSHH,91.08910891,91.08910891,530.5544554,530.5544554,black,legacy,legacy,legacy,0,uniform,1,undefined,1,s,0,0,0,0,100,100,0,0,0,100,100,100,0,100,100,100,Sun Sep 19 11:58:36 2021,The main experiment item,yes,FlankerTask.osexp,/Users/samonemarks/Desktop,no,mono,no,18,no,white,no,yes,768,legacy,20,79,/Users/samonemarks/Desktop/SM-subject-1.csv,legacy,Lentiform Loewenfeld,3.3.9,0,s,NA,s,s,NA,s,408,NA,33139,80499,NA,408,2,legacy,1024,2,48000,-16,experiment,1,odd,37803,259918,NA,NA,293891,292826,4652,179418,NA,293888,293993,283046,4613,260749,293994,294403,Flanker Task,92,53586,101,yes,1024
Congruent,600,SSSSS,91.17647059,91.17647059,528.8627451,528.8627451,black,legacy,legacy,legacy,0,uniform,1,undefined,1,s,0,0,0,0,101,101,0,0,0,101,101,101,0,101,101,101,Sun Sep 19 11:58:36 2021,The main experiment item,yes,FlankerTask.osexp,/Users/samonemarks/Desktop,no,mono,no,18,no,white,no,yes,768,legacy,21,79,/Users/samonemarks/Desktop/SM-subject-1.csv,legacy,Lentiform Loewenfeld,3.3.9,0,s,NA,s,s,NA,s,358,NA,33139,80499,NA,358,2,legacy,1024,2,48000,-16,experiment,1,odd,37803,259918,NA,NA,295477,294409,4652,179418,NA,295471,295579,283046,4613,260749,295579,295938,Flanker Task,93,53944,102,yes,1024
Congruent,600,HHHHH,91.26213592,91.26213592,527.1067961,527.1067961,black,legacy,legacy,legacy,0,uniform,1,undefined,1,h,0,0,0,0,102,102,0,0,0,102,102,102,0,102,102,102,Sun Sep 19 11:58:36 2021,The main experiment item,yes,FlankerTask.osexp,/Users/samonemarks/Desktop,no,mono,no,18,no,white,no,yes,768,legacy,22,79,/Users/samonemarks/Desktop/SM-subject-1.csv,legacy,Lentiform Loewenfeld,3.3.9,0,h,NA,s,s,NA,h,348,NA,33139,80499,NA,348,2,legacy,1024,2,48000,-16,experiment,1,odd,37803,259918,NA,NA,297007,295942,4652,179418,NA,297004,297109,283046,4613,260749,297109,297459,Flanker Task,94,54292,103,yes,1024
Incongruent,600,HHSHH,91.34615385,91.34615385,525.3365385,525.3365385,black,legacy,legacy,legacy,0,uniform,1,undefined,1,s,0,0,0,0,103,103,0,0,0,103,103,103,0,103,103,103,Sun Sep 19 11:58:36 2021,The main experiment item,yes,FlankerTask.osexp,/Users/samonemarks/Desktop,no,mono,no,18,no,white,no,yes,768,legacy,23,79,/Users/samonemarks/Desktop/SM-subject-1.csv,legacy,Lentiform Loewenfeld,3.3.9,0,s,NA,s,s,NA,s,343,NA,33139,80499,NA,343,2,legacy,1024,2,48000,-16,experiment,1,odd,37803,259918,NA,NA,298530,297463,4652,179418,NA,298524,298633,283046,4613,260749,298634,298978,Flanker Task,95,54635,104,yes,1024
Incongruent,600,SSHSS,91.42857143,91.42857143,522.8952381,522.8952381,black,legacy,legacy,legacy,0,uniform,1,undefined,1,h,0,0,0,0,104,104,0,0,0,104,104,104,0,104,104,104,Sun Sep 19 11:58:36 2021,The main experiment item,yes,FlankerTask.osexp,/Users/samonemarks/Desktop,no,mono,no,18,no,white,no,yes,768,legacy,24,79,/Users/samonemarks/Desktop/SM-subject-1.csv,legacy,Lentiform Loewenfeld,3.3.9,0,h,NA,s,s,NA,h,269,NA,33139,80499,NA,269,2,legacy,1024,2,48000,-16,experiment,1,odd,37803,259918,NA,NA,300048,298983,4652,179418,NA,300045,300152,283046,4613,260749,300153,300423,Flanker Task,96,54904,105,yes,1024
Incongruent,600,HHSHH,91.50943396,91.50943396,521.0283019,521.0283019,black,legacy,legacy,legacy,0,uniform,1,undefined,1,s,0,0,0,0,105,105,0,0,0,105,105,105,0,105,105,105,Sun Sep 19 11:58:36 2021,The main experiment item,yes,FlankerTask.osexp,/Users/samonemarks/Desktop,no,mono,no,18,no,white,no,yes,768,legacy,25,79,/Users/samonemarks/Desktop/SM-subject-1.csv,legacy,Lentiform Loewenfeld,3.3.9,0,s,NA,s,s,NA,s,325,NA,33139,80499,NA,325,2,legacy,1024,2,48000,-16,experiment,1,odd,37803,259918,NA,NA,301492,300428,4652,179418,NA,301489,301594,283046,4613,260749,301594,301920,Flanker Task,97,55229,106,yes,1024
Congruent,600,SSSSS,91.58878505,91.58878505,519.2897196,519.2897196,black,legacy,legacy,legacy,0,uniform,1,undefined,1,s,0,0,0,0,106,106,0,0,0,106,106,106,0,106,106,106,Sun Sep 19 11:58:36 2021,The main experiment item,yes,FlankerTask.osexp,/Users/samonemarks/Desktop,no,mono,no,18,no,white,no,yes,768,legacy,26,79,/Users/samonemarks/Desktop/SM-subject-1.csv,legacy,Lentiform Loewenfeld,3.3.9,0,s,NA,s,s,NA,s,335,NA,33139,80499,NA,335,2,legacy,1024,2,48000,-16,experiment,1,odd,37803,259918,NA,NA,302988,301925,4652,179418,NA,302986,303090,283046,4613,260749,303091,303428,Flanker Task,98,55564,107,yes,1024
Incongruent,600,HHSHH,91.66666667,91.66666667,517.2222222,517.2222222,black,legacy,legacy,legacy,0,uniform,1,undefined,1,s,0,0,0,0,107,107,0,0,0,107,107,107,0,107,107,107,Sun Sep 19 11:58:36 2021,The main experiment item,yes,FlankerTask.osexp,/Users/samonemarks/Desktop,no,mono,no,18,no,white,no,yes,768,legacy,27,79,/Users/samonemarks/Desktop/SM-subject-1.csv,legacy,Lentiform Loewenfeld,3.3.9,0,s,NA,s,s,NA,s,296,NA,33139,80499,NA,296,2,legacy,1024,2,48000,-16,experiment,1,odd,37803,259918,NA,NA,304498,303433,4652,179418,NA,304494,304601,283046,4613,260749,304601,304898,Flanker Task,99,55860,108,yes,1024
Congruent,600,HHHHH,91.74311927,91.74311927,515.7798165,515.7798165,black,legacy,legacy,legacy,0,uniform,1,undefined,1,h,0,0,0,0,108,108,0,0,0,108,108,108,0,108,108,108,Sun Sep 19 11:58:36 2021,The main experiment item,yes,FlankerTask.osexp,/Users/samonemarks/Desktop,no,mono,no,18,no,white,no,yes,768,legacy,28,79,/Users/samonemarks/Desktop/SM-subject-1.csv,legacy,Lentiform Loewenfeld,3.3.9,0,h,NA,s,s,NA,h,360,NA,33139,80499,NA,360,2,legacy,1024,2,48000,-16,experiment,1,odd,37803,259918,NA,NA,305967,304903,4652,179418,NA,305965,306069,283046,4613,260749,306069,306430,Flanker Task,100,56220,109,yes,1024
Congruent,600,SSSSS,91.81818182,91.81818182,514.5818182,514.5818182,black,legacy,legacy,legacy,0,uniform,1,undefined,1,s,0,0,0,0,109,109,0,0,0,109,109,109,0,109,109,109,Sun Sep 19 11:58:36 2021,The main experiment item,yes,FlankerTask.osexp,/Users/samonemarks/Desktop,no,mono,no,18,no,white,no,yes,768,legacy,29,79,/Users/samonemarks/Desktop/SM-subject-1.csv,legacy,Lentiform Loewenfeld,3.3.9,0,s,NA,s,s,NA,s,384,NA,33139,80499,NA,384,2,legacy,1024,2,48000,-16,experiment,1,odd,37803,259918,NA,NA,307500,306435,4652,179418,NA,307497,307603,283046,4613,260749,307603,307988,Flanker Task,101,56604,110,yes,1024
Incongruent,600,HHSHH,90.99099099,90.99099099,512.9009009,512.9009009,black,legacy,legacy,legacy,0,uniform,0,undefined,0,s,0,0,0,0,110,110,0,0,0,110,110,110,0,110,110,110,Sun Sep 19 11:58:36 2021,The main experiment item,yes,FlankerTask.osexp,/Users/samonemarks/Desktop,no,mono,no,18,no,white,no,yes,768,legacy,30,79,/Users/samonemarks/Desktop/SM-subject-1.csv,legacy,Lentiform Loewenfeld,3.3.9,0,h,NA,s,s,NA,h,328,NA,33139,80499,NA,328,2,legacy,1024,2,48000,-16,experiment,1,odd,37803,259918,NA,NA,309058,307991,4652,179418,NA,309054,309160,283046,4613,260749,309161,309490,Flanker Task,101,56932,111,yes,1024
Congruent,600,SSSSS,91.07142857,91.07142857,512.0892857,512.0892857,black,legacy,legacy,legacy,0,uniform,1,undefined,1,s,0,0,0,0,111,111,0,0,0,111,111,111,0,111,111,111,Sun Sep 19 11:58:36 2021,The main experiment item,yes,FlankerTask.osexp,/Users/samonemarks/Desktop,no,mono,no,18,no,white,no,yes,768,legacy,31,79,/Users/samonemarks/Desktop/SM-subject-1.csv,legacy,Lentiform Loewenfeld,3.3.9,0,s,NA,s,s,NA,s,422,NA,33139,80499,NA,422,2,legacy,1024,2,48000,-16,experiment,1,odd,37803,259918,NA,NA,311063,309997,4652,179418,NA,311058,311167,309494,4613,260749,311168,311591,Flanker Task,102,57354,112,yes,1024
Congruent,600,HHHHH,91.15044248,91.15044248,510.6371681,510.6371681,black,legacy,legacy,legacy,0,uniform,1,undefined,1,h,0,0,0,0,112,112,0,0,0,112,112,112,0,112,112,112,Sun Sep 19 11:58:36 2021,The main experiment item,yes,FlankerTask.osexp,/Users/samonemarks/Desktop,no,mono,no,18,no,white,no,yes,768,legacy,32,79,/Users/samonemarks/Desktop/SM-subject-1.csv,legacy,Lentiform Loewenfeld,3.3.9,0,h,NA,s,s,NA,h,348,NA,33139,80499,NA,348,2,legacy,1024,2,48000,-16,experiment,1,odd,37803,259918,NA,NA,312660,311595,4652,179418,NA,312657,312762,309494,4613,260749,312762,313111,Flanker Task,103,57702,113,yes,1024
Congruent,600,SSSSS,91.22807018,91.22807018,509.7017544,509.7017544,black,legacy,legacy,legacy,0,uniform,1,undefined,1,s,0,0,0,0,113,113,0,0,0,113,113,113,0,113,113,113,Sun Sep 19 11:58:36 2021,The main experiment item,yes,FlankerTask.osexp,/Users/samonemarks/Desktop,no,mono,no,18,no,white,no,yes,768,legacy,33,79,/Users/samonemarks/Desktop/SM-subject-1.csv,legacy,Lentiform Loewenfeld,3.3.9,0,s,NA,s,s,NA,s,404,NA,33139,80499,NA,404,2,legacy,1024,2,48000,-16,experiment,1,odd,37803,259918,NA,NA,314181,313116,4652,179418,NA,314178,314284,309494,4613,260749,314284,314689,Flanker Task,104,58106,114,yes,1024
Incongruent,600,SSHSS,91.30434783,91.30434783,509.0173913,509.0173913,black,legacy,legacy,legacy,0,uniform,1,undefined,1,h,0,0,0,0,114,114,0,0,0,114,114,114,0,114,114,114,Sun Sep 19 11:58:36 2021,The main experiment item,yes,FlankerTask.osexp,/Users/samonemarks/Desktop,no,mono,no,18,no,white,no,yes,768,legacy,34,79,/Users/samonemarks/Desktop/SM-subject-1.csv,legacy,Lentiform Loewenfeld,3.3.9,0,h,NA,s,s,NA,h,431,NA,33139,80499,NA,431,2,legacy,1024,2,48000,-16,experiment,1,odd,37803,259918,NA,NA,315758,314693,4652,179418,NA,315755,315860,309494,4613,260749,315860,316292,Flanker Task,105,58537,115,yes,1024
Congruent,600,SSSSS,91.37931034,91.37931034,507.8448276,507.8448276,black,legacy,legacy,legacy,0,uniform,1,undefined,1,s,0,0,0,0,115,115,0,0,0,115,115,115,0,115,115,115,Sun Sep 19 11:58:36 2021,The main experiment item,yes,FlankerTask.osexp,/Users/samonemarks/Desktop,no,mono,no,18,no,white,no,yes,768,legacy,35,79,/Users/samonemarks/Desktop/SM-subject-1.csv,legacy,Lentiform Loewenfeld,3.3.9,0,s,NA,s,s,NA,s,373,NA,33139,80499,NA,373,2,legacy,1024,2,48000,-16,experiment,1,odd,37803,259918,NA,NA,317363,316297,4652,179418,NA,317359,317465,309494,4613,260749,317465,317839,Flanker Task,106,58910,116,yes,1024
Congruent,600,HHHHH,91.45299145,91.45299145,506.5897436,506.5897436,black,legacy,legacy,legacy,0,uniform,1,undefined,1,h,0,0,0,0,116,116,0,0,0,116,116,116,0,116,116,116,Sun Sep 19 11:58:36 2021,The main experiment item,yes,FlankerTask.osexp,/Users/samonemarks/Desktop,no,mono,no,18,no,white,no,yes,768,legacy,36,79,/Users/samonemarks/Desktop/SM-subject-1.csv,legacy,Lentiform Loewenfeld,3.3.9,0,h,NA,s,s,NA,h,361,NA,33139,80499,NA,361,2,legacy,1024,2,48000,-16,experiment,1,odd,37803,259918,NA,NA,318907,317844,4652,179418,NA,318905,319009,309494,4613,260749,319009,319371,Flanker Task,107,59271,117,yes,1024
Incongruent,600,SSHSS,90.6779661,90.6779661,505.1440678,505.1440678,black,legacy,legacy,legacy,0,uniform,0,undefined,0,h,0,0,0,0,117,117,0,0,0,117,117,117,0,117,117,117,Sun Sep 19 11:58:36 2021,The main experiment item,yes,FlankerTask.osexp,/Users/samonemarks/Desktop,no,mono,no,18,no,white,no,yes,768,legacy,37,79,/Users/samonemarks/Desktop/SM-subject-1.csv,legacy,Lentiform Loewenfeld,3.3.9,0,s,NA,s,s,NA,s,336,NA,33139,80499,NA,336,2,legacy,1024,2,48000,-16,experiment,1,odd,37803,259918,NA,NA,320441,319375,4652,179418,NA,320438,320543,309494,4613,260749,320543,320880,Flanker Task,107,59607,118,yes,1024
Congruent,600,SSSSS,90.75630252,90.75630252,503.8655462,503.8655462,black,legacy,legacy,legacy,0,uniform,1,undefined,1,s,0,0,0,0,118,118,0,0,0,118,118,118,0,118,118,118,Sun Sep 19 11:58:36 2021,The main experiment item,yes,FlankerTask.osexp,/Users/samonemarks/Desktop,no,mono,no,18,no,white,no,yes,768,legacy,38,79,/Users/samonemarks/Desktop/SM-subject-1.csv,legacy,Lentiform Loewenfeld,3.3.9,0,s,NA,s,s,NA,s,353,NA,33139,80499,NA,353,2,legacy,1024,2,48000,-16,experiment,1,odd,37803,259918,NA,NA,322454,321389,4652,179418,NA,322451,322556,320884,4613,260749,322556,322910,Flanker Task,108,59960,119,yes,1024
Congruent,600,SSSSS,90,90,502.4916667,502.4916667,black,legacy,legacy,legacy,0,uniform,0,undefined,0,s,0,0,0,0,119,119,0,0,0,119,119,119,0,119,119,119,Sun Sep 19 11:58:36 2021,The main experiment item,yes,FlankerTask.osexp,/Users/samonemarks/Desktop,no,mono,no,18,no,white,no,yes,768,legacy,39,79,/Users/samonemarks/Desktop/SM-subject-1.csv,legacy,Lentiform Loewenfeld,3.3.9,0,h,NA,s,s,NA,h,339,NA,33139,80499,NA,339,2,legacy,1024,2,48000,-16,experiment,1,odd,37803,259918,NA,NA,323979,322914,4652,179418,NA,323976,324081,320884,4613,260749,324081,324421,Flanker Task,108,60299,120,yes,1024
Incongruent,600,HHSHH,90.08264463,90.08264463,500.7355372,500.7355372,black,legacy,legacy,legacy,0,uniform,1,undefined,1,s,0,0,0,0,120,120,0,0,0,120,120,120,0,120,120,120,Sun Sep 19 11:58:36 2021,The main experiment item,yes,FlankerTask.osexp,/Users/samonemarks/Desktop,no,mono,no,18,no,white,no,yes,768,legacy,40,79,/Users/samonemarks/Desktop/SM-subject-1.csv,legacy,Lentiform Loewenfeld,3.3.9,0,s,NA,s,s,NA,s,290,NA,33139,80499,NA,290,2,legacy,1024,2,48000,-16,experiment,1,odd,37803,259918,NA,NA,325996,324931,4652,179418,NA,325993,326098,324426,4613,260749,326099,326390,Flanker Task,109,60589,121,yes,1024
Congruent,600,SSSSS,90.16393443,90.16393443,499.2459016,499.2459016,black,legacy,legacy,legacy,0,uniform,1,undefined,1,s,0,0,0,0,121,121,0,0,0,121,121,121,0,121,121,121,Sun Sep 19 11:58:36 2021,The main experiment item,yes,FlankerTask.osexp,/Users/samonemarks/Desktop,no,mono,no,18,no,white,no,yes,768,legacy,41,79,/Users/samonemarks/Desktop/SM-subject-1.csv,legacy,Lentiform Loewenfeld,3.3.9,0,s,NA,s,s,NA,s,319,NA,33139,80499,NA,319,2,legacy,1024,2,48000,-16,experiment,1,odd,37803,259918,NA,NA,327461,326395,4652,179418,NA,327456,327565,324426,4613,260749,327565,327885,Flanker Task,110,60908,122,yes,1024
Incongruent,600,HHSHH,90.24390244,90.24390244,497.0894309,497.0894309,black,legacy,legacy,legacy,0,uniform,1,undefined,1,s,0,0,0,0,122,122,0,0,0,122,122,122,0,122,122,122,Sun Sep 19 11:58:36 2021,The main experiment item,yes,FlankerTask.osexp,/Users/samonemarks/Desktop,no,mono,no,18,no,white,no,yes,768,legacy,42,79,/Users/samonemarks/Desktop/SM-subject-1.csv,legacy,Lentiform Loewenfeld,3.3.9,0,s,NA,s,s,NA,s,234,NA,33139,80499,NA,234,2,legacy,1024,2,48000,-16,experiment,1,odd,37803,259918,NA,NA,328954,327889,4652,179418,NA,328951,329057,324426,4613,260749,329057,329292,Flanker Task,111,61142,123,yes,1024
Congruent,600,SSSSS,89.51612903,89.51612903,494.5806452,494.5806452,black,legacy,legacy,legacy,0,uniform,0,undefined,0,s,0,0,0,0,123,123,0,0,0,123,123,123,0,123,123,123,Sun Sep 19 11:58:36 2021,The main experiment item,yes,FlankerTask.osexp,/Users/samonemarks/Desktop,no,mono,no,18,no,white,no,yes,768,legacy,43,79,/Users/samonemarks/Desktop/SM-subject-1.csv,legacy,Lentiform Loewenfeld,3.3.9,0,h,NA,s,s,NA,h,186,NA,33139,80499,NA,186,2,legacy,1024,2,48000,-16,experiment,1,odd,37803,259918,NA,NA,330362,329296,4652,179418,NA,330358,330466,324426,4613,260749,330466,330654,Flanker Task,111,61328,124,yes,1024
Congruent,600,HHHHH,88.8,88.8,492.728,492.728,black,legacy,legacy,legacy,0,uniform,0,undefined,0,h,0,0,0,0,124,124,0,0,0,124,124,124,0,124,124,124,Sun Sep 19 11:58:36 2021,The main experiment item,yes,FlankerTask.osexp,/Users/samonemarks/Desktop,no,mono,no,18,no,white,no,yes,768,legacy,44,79,/Users/samonemarks/Desktop/SM-subject-1.csv,legacy,Lentiform Loewenfeld,3.3.9,0,s,NA,s,s,NA,s,263,NA,33139,80499,NA,263,2,legacy,1024,2,48000,-16,experiment,1,odd,37803,259918,NA,NA,332228,331162,4652,179418,NA,332224,332332,330658,4613,260749,332332,332596,Flanker Task,111,61591,125,yes,1024
Incongruent,600,HHSHH,88.88888889,88.88888889,491.3968254,491.3968254,black,legacy,legacy,legacy,0,uniform,1,undefined,1,s,0,0,0,0,125,125,0,0,0,125,125,125,0,125,125,125,Sun Sep 19 11:58:36 2021,The main experiment item,yes,FlankerTask.osexp,/Users/samonemarks/Desktop,no,mono,no,18,no,white,no,yes,768,legacy,45,79,/Users/samonemarks/Desktop/SM-subject-1.csv,legacy,Lentiform Loewenfeld,3.3.9,0,s,NA,s,s,NA,s,325,NA,33139,80499,NA,325,2,legacy,1024,2,48000,-16,experiment,1,odd,37803,259918,NA,NA,334170,333104,4652,179418,NA,334167,334272,332602,4613,260749,334272,334598,Flanker Task,112,61916,126,yes,1024
Incongruent,600,SSHSS,88.18897638,88.18897638,489.8110236,489.8110236,black,legacy,legacy,legacy,0,uniform,0,undefined,0,h,0,0,0,0,126,126,0,0,0,126,126,126,0,126,126,126,Sun Sep 19 11:58:36 2021,The main experiment item,yes,FlankerTask.osexp,/Users/samonemarks/Desktop,no,mono,no,18,no,white,no,yes,768,legacy,46,79,/Users/samonemarks/Desktop/SM-subject-1.csv,legacy,Lentiform Loewenfeld,3.3.9,0,s,NA,s,s,NA,s,290,NA,33139,80499,NA,290,2,legacy,1024,2,48000,-16,experiment,1,odd,37803,259918,NA,NA,335670,334602,4652,179418,NA,335665,335774,332602,4613,260749,335774,336066,Flanker Task,112,62206,127,yes,1024
Incongruent,600,SSHSS,88.28125,88.28125,488.265625,488.265625,black,legacy,legacy,legacy,0,uniform,1,undefined,1,h,0,0,0,0,127,127,0,0,0,127,127,127,0,127,127,127,Sun Sep 19 11:58:36 2021,The main experiment item,yes,FlankerTask.osexp,/Users/samonemarks/Desktop,no,mono,no,18,no,white,no,yes,768,legacy,47,79,/Users/samonemarks/Desktop/SM-subject-1.csv,legacy,Lentiform Loewenfeld,3.3.9,0,h,NA,s,s,NA,h,292,NA,33139,80499,NA,292,2,legacy,1024,2,48000,-16,experiment,1,odd,37803,259918,NA,NA,337644,336573,4652,179418,NA,337635,337748,336070,4613,260749,337749,338042,Flanker Task,113,62498,128,yes,1024
Incongruent,600,HHSHH,88.37209302,88.37209302,487.9224806,487.9224806,black,legacy,legacy,legacy,0,uniform,1,undefined,1,s,0,0,0,0,128,128,0,0,0,128,128,128,0,128,128,128,Sun Sep 19 11:58:36 2021,The main experiment item,yes,FlankerTask.osexp,/Users/samonemarks/Desktop,no,mono,no,18,no,white,no,yes,768,legacy,48,79,/Users/samonemarks/Desktop/SM-subject-1.csv,legacy,Lentiform Loewenfeld,3.3.9,0,s,NA,s,s,NA,s,444,NA,33139,80499,NA,444,2,legacy,1024,2,48000,-16,experiment,1,odd,37803,259918,NA,NA,339114,338047,4652,179418,NA,339109,339219,336070,4613,260749,339219,339664,Flanker Task,114,62942,129,yes,1024
Incongruent,600,HHSHH,88.46153846,88.46153846,487.1692308,487.1692308,black,legacy,legacy,legacy,0,uniform,1,undefined,1,s,0,0,0,0,129,129,0,0,0,129,129,129,0,129,129,129,Sun Sep 19 11:58:36 2021,The main experiment item,yes,FlankerTask.osexp,/Users/samonemarks/Desktop,no,mono,no,18,no,white,no,yes,768,legacy,49,79,/Users/samonemarks/Desktop/SM-subject-1.csv,legacy,Lentiform Loewenfeld,3.3.9,0,s,NA,s,s,NA,s,390,NA,33139,80499,NA,390,2,legacy,1024,2,48000,-16,experiment,1,odd,37803,259918,NA,NA,340741,339669,4652,179418,NA,340735,340845,336070,4613,260749,340845,341236,Flanker Task,115,63332,130,yes,1024
Congruent,600,SSSSS,88.54961832,88.54961832,485.389313,485.389313,black,legacy,legacy,legacy,0,uniform,1,undefined,1,s,0,0,0,0,130,130,0,0,0,130,130,130,0,130,130,130,Sun Sep 19 11:58:36 2021,The main experiment item,yes,FlankerTask.osexp,/Users/samonemarks/Desktop,no,mono,no,18,no,white,no,yes,768,legacy,50,79,/Users/samonemarks/Desktop/SM-subject-1.csv,legacy,Lentiform Loewenfeld,3.3.9,0,s,NA,s,s,NA,s,254,NA,33139,80499,NA,254,2,legacy,1024,2,48000,-16,experiment,1,odd,37803,259918,NA,NA,342307,341241,4652,179418,NA,342303,342410,336070,4613,260749,342410,342665,Flanker Task,116,63586,131,yes,1024
Incongruent,600,SSHSS,87.87878788,87.87878788,483.8787879,483.8787879,black,legacy,legacy,legacy,0,uniform,0,undefined,0,h,0,0,0,0,131,131,0,0,0,131,131,131,0,131,131,131,Sun Sep 19 11:58:36 2021,The main experiment item,yes,FlankerTask.osexp,/Users/samonemarks/Desktop,no,mono,no,18,no,white,no,yes,768,legacy,51,79,/Users/samonemarks/Desktop/SM-subject-1.csv,legacy,Lentiform Loewenfeld,3.3.9,0,s,NA,s,s,NA,s,286,NA,33139,80499,NA,286,2,legacy,1024,2,48000,-16,experiment,1,odd,37803,259918,NA,NA,343736,342670,4652,179418,NA,343732,343838,336070,4613,260749,343839,344126,Flanker Task,116,63872,132,yes,1024
Congruent,600,HHHHH,87.96992481,87.96992481,482.4887218,482.4887218,black,legacy,legacy,legacy,0,uniform,1,undefined,1,h,0,0,0,0,132,132,0,0,0,132,132,132,0,132,132,132,Sun Sep 19 11:58:36 2021,The main experiment item,yes,FlankerTask.osexp,/Users/samonemarks/Desktop,no,mono,no,18,no,white,no,yes,768,legacy,52,79,/Users/samonemarks/Desktop/SM-subject-1.csv,legacy,Lentiform Loewenfeld,3.3.9,0,h,NA,s,s,NA,h,299,NA,33139,80499,NA,299,2,legacy,1024,2,48000,-16,experiment,1,odd,37803,259918,NA,NA,345703,344637,4652,179418,NA,345698,345806,344131,4613,260749,345806,346106,Flanker Task,117,64171,133,yes,1024
Incongruent,600,HHSHH,88.05970149,88.05970149,481.9253731,481.9253731,black,legacy,legacy,legacy,0,uniform,1,undefined,1,s,0,0,0,0,133,133,0,0,0,133,133,133,0,133,133,133,Sun Sep 19 11:58:36 2021,The main experiment item,yes,FlankerTask.osexp,/Users/samonemarks/Desktop,no,mono,no,18,no,white,no,yes,768,legacy,53,79,/Users/samonemarks/Desktop/SM-subject-1.csv,legacy,Lentiform Loewenfeld,3.3.9,0,s,NA,s,s,NA,s,407,NA,33139,80499,NA,407,2,legacy,1024,2,48000,-16,experiment,1,odd,37803,259918,NA,NA,347175,346111,4652,179418,NA,347172,347277,344131,4613,260749,347277,347685,Flanker Task,118,64578,134,yes,1024
Congruent,600,HHHHH,87.40740741,87.40740741,480.2962963,480.2962963,black,legacy,legacy,legacy,0,uniform,0,undefined,0,h,0,0,0,0,134,134,0,0,0,134,134,134,0,134,134,134,Sun Sep 19 11:58:36 2021,The main experiment item,yes,FlankerTask.osexp,/Users/samonemarks/Desktop,no,mono,no,18,no,white,no,yes,768,legacy,54,79,/Users/samonemarks/Desktop/SM-subject-1.csv,legacy,Lentiform Loewenfeld,3.3.9,0,s,NA,s,s,NA,s,262,NA,33139,80499,NA,262,2,legacy,1024,2,48000,-16,experiment,1,odd,37803,259918,NA,NA,348755,347689,4652,179418,NA,348753,348857,344131,4613,260749,348858,349121,Flanker Task,118,64840,135,yes,1024
Congruent,600,HHHHH,86.76470588,86.76470588,479.9338235,479.9338235,black,legacy,legacy,legacy,0,uniform,0,undefined,0,h,0,0,0,0,135,135,0,0,0,135,135,135,0,135,135,135,Sun Sep 19 11:58:36 2021,The main experiment item,yes,FlankerTask.osexp,/Users/samonemarks/Desktop,no,mono,no,18,no,white,no,yes,768,legacy,55,79,/Users/samonemarks/Desktop/SM-subject-1.csv,legacy,Lentiform Loewenfeld,3.3.9,0,s,NA,s,s,NA,s,431,NA,33139,80499,NA,431,2,legacy,1024,2,48000,-16,experiment,1,odd,37803,259918,NA,NA,350691,349628,4652,179418,NA,350688,350793,349125,4613,260749,350793,351225,Flanker Task,118,65271,136,yes,1024
Congruent,600,HHHHH,86.13138686,86.13138686,479.1751825,479.1751825,black,legacy,legacy,legacy,0,uniform,0,undefined,0,h,0,0,0,0,136,136,0,0,0,136,136,136,0,136,136,136,Sun Sep 19 11:58:36 2021,The main experiment item,yes,FlankerTask.osexp,/Users/samonemarks/Desktop,no,mono,no,18,no,white,no,yes,768,legacy,56,79,/Users/samonemarks/Desktop/SM-subject-1.csv,legacy,Lentiform Loewenfeld,3.3.9,0,s,NA,s,s,NA,s,376,NA,33139,80499,NA,376,2,legacy,1024,2,48000,-16,experiment,1,odd,37803,259918,NA,NA,352799,351732,4652,179418,NA,352797,352901,351229,4613,260749,352901,353278,Flanker Task,118,65647,137,yes,1024
Incongruent,600,HHSHH,86.23188406,86.23188406,478.7971014,478.7971014,black,legacy,legacy,legacy,0,uniform,1,undefined,1,s,0,0,0,0,137,137,0,0,0,137,137,137,0,137,137,137,Sun Sep 19 11:58:36 2021,The main experiment item,yes,FlankerTask.osexp,/Users/samonemarks/Desktop,no,mono,no,18,no,white,no,yes,768,legacy,57,79,/Users/samonemarks/Desktop/SM-subject-1.csv,legacy,Lentiform Loewenfeld,3.3.9,0,s,NA,s,s,NA,s,427,NA,33139,80499,NA,427,2,legacy,1024,2,48000,-16,experiment,1,odd,37803,259918,NA,NA,354848,353785,4652,179418,NA,354846,354950,353282,4613,260749,354950,355378,Flanker Task,119,66074,138,yes,1024
Incongruent,600,SSHSS,86.33093525,86.33093525,478.1510791,478.1510791,black,legacy,legacy,legacy,0,uniform,1,undefined,1,h,0,0,0,0,138,138,0,0,0,138,138,138,0,138,138,138,Sun Sep 19 11:58:36 2021,The main experiment item,yes,FlankerTask.osexp,/Users/samonemarks/Desktop,no,mono,no,18,no,white,no,yes,768,legacy,58,79,/Users/samonemarks/Desktop/SM-subject-1.csv,legacy,Lentiform Loewenfeld,3.3.9,0,h,NA,s,s,NA,h,389,NA,33139,80499,NA,389,2,legacy,1024,2,48000,-16,experiment,1,odd,37803,259918,NA,NA,356445,355382,4652,179418,NA,356443,356547,353282,4613,260749,356548,356938,Flanker Task,120,66463,139,yes,1024
Congruent,600,SSSSS,85.71428571,85.71428571,477.0714286,477.0714286,black,legacy,legacy,legacy,0,uniform,0,undefined,0,s,0,0,0,0,139,139,0,0,0,139,139,139,0,139,139,139,Sun Sep 19 11:58:36 2021,The main experiment item,yes,FlankerTask.osexp,/Users/samonemarks/Desktop,no,mono,no,18,no,white,no,yes,768,legacy,59,79,/Users/samonemarks/Desktop/SM-subject-1.csv,legacy,Lentiform Loewenfeld,3.3.9,0,h,NA,s,s,NA,h,327,NA,33139,80499,NA,327,2,legacy,1024,2,48000,-16,experiment,1,odd,37803,259918,NA,NA,358007,356942,4652,179418,NA,358005,358109,353282,4613,260749,358110,358439,Flanker Task,120,66790,140,yes,1024
Incongruent,600,SSHSS,85.10638298,85.10638298,476.0496454,476.0496454,black,legacy,legacy,legacy,0,uniform,0,undefined,0,h,0,0,0,0,140,140,0,0,0,140,140,140,0,140,140,140,Sun Sep 19 11:58:36 2021,The main experiment item,yes,FlankerTask.osexp,/Users/samonemarks/Desktop,no,mono,no,18,no,white,no,yes,768,legacy,60,79,/Users/samonemarks/Desktop/SM-subject-1.csv,legacy,Lentiform Loewenfeld,3.3.9,0,s,NA,s,s,NA,s,333,NA,33139,80499,NA,333,2,legacy,1024,2,48000,-16,experiment,1,odd,37803,259918,NA,NA,360010,358947,4652,179418,NA,360008,360112,358443,4613,260749,360112,360446,Flanker Task,120,67123,141,yes,1024
Congruent,600,SSSSS,85.21126761,85.21126761,475.3309859,475.3309859,black,legacy,legacy,legacy,0,uniform,1,undefined,1,s,0,0,0,0,141,141,0,0,0,141,141,141,0,141,141,141,Sun Sep 19 11:58:36 2021,The main experiment item,yes,FlankerTask.osexp,/Users/samonemarks/Desktop,no,mono,no,18,no,white,no,yes,768,legacy,61,79,/Users/samonemarks/Desktop/SM-subject-1.csv,legacy,Lentiform Loewenfeld,3.3.9,0,s,NA,s,s,NA,s,374,NA,33139,80499,NA,374,2,legacy,1024,2,48000,-16,experiment,1,odd,37803,259918,NA,NA,362016,360953,4652,179418,NA,362014,362119,360450,4613,260749,362119,362494,Flanker Task,121,67497,142,yes,1024
Congruent,600,SSSSS,85.31468531,85.31468531,473.8321678,473.8321678,black,legacy,legacy,legacy,0,uniform,1,undefined,1,s,0,0,0,0,142,142,0,0,0,142,142,142,0,142,142,142,Sun Sep 19 11:58:36 2021,The main experiment item,yes,FlankerTask.osexp,/Users/samonemarks/Desktop,no,mono,no,18,no,white,no,yes,768,legacy,62,79,/Users/samonemarks/Desktop/SM-subject-1.csv,legacy,Lentiform Loewenfeld,3.3.9,0,s,NA,s,s,NA,s,261,NA,33139,80499,NA,261,2,legacy,1024,2,48000,-16,experiment,1,odd,37803,259918,NA,NA,363563,362500,4652,179418,NA,363561,363665,360450,4613,260749,363665,363927,Flanker Task,122,67758,143,yes,1024
Congruent,600,HHHHH,84.72222222,84.72222222,472.7847222,472.7847222,black,legacy,legacy,legacy,0,uniform,0,undefined,0,h,0,0,0,0,143,143,0,0,0,143,143,143,0,143,143,143,Sun Sep 19 11:58:36 2021,The main experiment item,yes,FlankerTask.osexp,/Users/samonemarks/Desktop,no,mono,no,18,no,white,no,yes,768,legacy,63,79,/Users/samonemarks/Desktop/SM-subject-1.csv,legacy,Lentiform Loewenfeld,3.3.9,0,s,NA,s,s,NA,s,323,NA,33139,80499,NA,323,2,legacy,1024,2,48000,-16,experiment,1,odd,37803,259918,NA,NA,364996,363932,4652,179418,NA,364993,365098,360450,4613,260749,365098,365422,Flanker Task,122,68081,144,yes,1024
Incongruent,600,HHSHH,84.82758621,84.82758621,472.6482759,472.6482759,black,legacy,legacy,legacy,0,uniform,1,undefined,1,s,0,0,0,0,144,144,0,0,0,144,144,144,0,144,144,144,Sun Sep 19 11:58:36 2021,The main experiment item,yes,FlankerTask.osexp,/Users/samonemarks/Desktop,no,mono,no,18,no,white,no,yes,768,legacy,64,79,/Users/samonemarks/Desktop/SM-subject-1.csv,legacy,Lentiform Loewenfeld,3.3.9,0,s,NA,s,s,NA,s,453,NA,33139,80499,NA,453,2,legacy,1024,2,48000,-16,experiment,1,odd,37803,259918,NA,NA,366993,365930,4652,179418,NA,366991,367095,365427,4613,260749,367095,367549,Flanker Task,123,68534,145,yes,1024
Incongruent,600,SSHSS,84.93150685,84.93150685,471.9452055,471.9452055,black,legacy,legacy,legacy,0,uniform,1,undefined,1,h,0,0,0,0,145,145,0,0,0,145,145,145,0,145,145,145,Sun Sep 19 11:58:36 2021,The main experiment item,yes,FlankerTask.osexp,/Users/samonemarks/Desktop,no,mono,no,18,no,white,no,yes,768,legacy,65,79,/Users/samonemarks/Desktop/SM-subject-1.csv,legacy,Lentiform Loewenfeld,3.3.9,0,h,NA,s,s,NA,h,370,NA,33139,80499,NA,370,2,legacy,1024,2,48000,-16,experiment,1,odd,37803,259918,NA,NA,368618,367554,4652,179418,NA,368615,368720,365427,4613,260749,368720,369091,Flanker Task,124,68904,146,yes,1024
Incongruent,600,SSHSS,84.3537415,84.3537415,470.6938776,470.6938776,black,legacy,legacy,legacy,0,uniform,0,undefined,0,h,0,0,0,0,146,146,0,0,0,146,146,146,0,146,146,146,Sun Sep 19 11:58:36 2021,The main experiment item,yes,FlankerTask.osexp,/Users/samonemarks/Desktop,no,mono,no,18,no,white,no,yes,768,legacy,66,79,/Users/samonemarks/Desktop/SM-subject-1.csv,legacy,Lentiform Loewenfeld,3.3.9,0,s,NA,s,s,NA,s,288,NA,33139,80499,NA,288,2,legacy,1024,2,48000,-16,experiment,1,odd,37803,259918,NA,NA,370160,369097,4652,179418,NA,370158,370262,365427,4613,260749,370262,370551,Flanker Task,124,69192,147,yes,1024
Incongruent,600,HHSHH,84.45945946,84.45945946,470.2837838,470.2837838,black,legacy,legacy,legacy,0,uniform,1,undefined,1,s,0,0,0,0,147,147,0,0,0,147,147,147,0,147,147,147,Sun Sep 19 11:58:36 2021,The main experiment item,yes,FlankerTask.osexp,/Users/samonemarks/Desktop,no,mono,no,18,no,white,no,yes,768,legacy,67,79,/Users/samonemarks/Desktop/SM-subject-1.csv,legacy,Lentiform Loewenfeld,3.3.9,0,s,NA,s,s,NA,s,410,NA,33139,80499,NA,410,2,legacy,1024,2,48000,-16,experiment,1,odd,37803,259918,NA,NA,372122,371059,4652,179418,NA,372120,372224,370556,4613,260749,372224,372635,Flanker Task,125,69602,148,yes,1024
Congruent,600,HHHHH,84.56375839,84.56375839,470.0134228,470.0134228,black,legacy,legacy,legacy,0,uniform,1,undefined,1,h,0,0,0,0,148,148,0,0,0,148,148,148,0,148,148,148,Sun Sep 19 11:58:36 2021,The main experiment item,yes,FlankerTask.osexp,/Users/samonemarks/Desktop,no,mono,no,18,no,white,no,yes,768,legacy,68,79,/Users/samonemarks/Desktop/SM-subject-1.csv,legacy,Lentiform Loewenfeld,3.3.9,0,h,NA,s,s,NA,h,430,NA,33139,80499,NA,430,2,legacy,1024,2,48000,-16,experiment,1,odd,37803,259918,NA,NA,373703,372639,4652,179418,NA,373700,373805,370556,4613,260749,373806,374237,Flanker Task,126,70032,149,yes,1024
Incongruent,600,HHSHH,84.66666667,84.66666667,469.08,469.08,black,legacy,legacy,legacy,0,uniform,1,undefined,1,s,0,0,0,0,149,149,0,0,0,149,149,149,0,149,149,149,Sun Sep 19 11:58:36 2021,The main experiment item,yes,FlankerTask.osexp,/Users/samonemarks/Desktop,no,mono,no,18,no,white,no,yes,768,legacy,69,79,/Users/samonemarks/Desktop/SM-subject-1.csv,legacy,Lentiform Loewenfeld,3.3.9,0,s,NA,s,s,NA,s,330,NA,33139,80499,NA,330,2,legacy,1024,2,48000,-16,experiment,1,odd,37803,259918,NA,NA,375306,374242,4652,179418,NA,375304,375408,370556,4613,260749,375409,375740,Flanker Task,127,70362,150,yes,1024
Congruent,600,SSSSS,84.76821192,84.76821192,468.2450331,468.2450331,black,legacy,legacy,legacy,0,uniform,1,undefined,1,s,0,0,0,0,150,150,0,0,0,150,150,150,0,150,150,150,Sun Sep 19 11:58:36 2021,The main experiment item,yes,FlankerTask.osexp,/Users/samonemarks/Desktop,no,mono,no,18,no,white,no,yes,768,legacy,70,79,/Users/samonemarks/Desktop/SM-subject-1.csv,legacy,Lentiform Loewenfeld,3.3.9,0,s,NA,s,s,NA,s,343,NA,33139,80499,NA,343,2,legacy,1024,2,48000,-16,experiment,1,odd,37803,259918,NA,NA,376808,375744,4652,179418,NA,376806,376910,370556,4613,260749,376911,377255,Flanker Task,128,70705,151,yes,1024
Incongruent,600,HHSHH,84.86842105,84.86842105,467.0986842,467.0986842,black,legacy,legacy,legacy,0,uniform,1,undefined,1,s,0,0,0,0,151,151,0,0,0,151,151,151,0,151,151,151,Sun Sep 19 11:58:36 2021,The main experiment item,yes,FlankerTask.osexp,/Users/samonemarks/Desktop,no,mono,no,18,no,white,no,yes,768,legacy,71,79,/Users/samonemarks/Desktop/SM-subject-1.csv,legacy,Lentiform Loewenfeld,3.3.9,0,s,NA,s,s,NA,s,294,NA,33139,80499,NA,294,2,legacy,1024,2,48000,-16,experiment,1,odd,37803,259918,NA,NA,378323,377260,4652,179418,NA,378321,378425,370556,4613,260749,378425,378720,Flanker Task,129,70999,152,yes,1024
Incongruent,600,SSHSS,84.31372549,84.31372549,466.1111111,466.1111111,black,legacy,legacy,legacy,0,uniform,0,undefined,0,h,0,0,0,0,152,152,0,0,0,152,152,152,0,152,152,152,Sun Sep 19 11:58:36 2021,The main experiment item,yes,FlankerTask.osexp,/Users/samonemarks/Desktop,no,mono,no,18,no,white,no,yes,768,legacy,72,79,/Users/samonemarks/Desktop/SM-subject-1.csv,legacy,Lentiform Loewenfeld,3.3.9,0,s,NA,s,s,NA,s,316,NA,33139,80499,NA,316,2,legacy,1024,2,48000,-16,experiment,1,odd,37803,259918,NA,NA,379788,378724,4652,179418,NA,379786,379890,370556,4613,260749,379891,380208,Flanker Task,129,71315,153,yes,1024
Congruent,600,HHHHH,83.76623377,83.76623377,465.512987,465.512987,black,legacy,legacy,legacy,0,uniform,0,undefined,0,h,0,0,0,0,153,153,0,0,0,153,153,153,0,153,153,153,Sun Sep 19 11:58:36 2021,The main experiment item,yes,FlankerTask.osexp,/Users/samonemarks/Desktop,no,mono,no,18,no,white,no,yes,768,legacy,73,79,/Users/samonemarks/Desktop/SM-subject-1.csv,legacy,Lentiform Loewenfeld,3.3.9,0,s,NA,s,s,NA,s,374,NA,33139,80499,NA,374,2,legacy,1024,2,48000,-16,experiment,1,odd,37803,259918,NA,NA,381780,380715,4652,179418,NA,381778,381882,380212,4613,260749,381882,382257,Flanker Task,129,71689,154,yes,1024
Congruent,600,HHHHH,83.87096774,83.87096774,465.3935484,465.3935484,black,legacy,legacy,legacy,0,uniform,1,undefined,1,h,0,0,0,0,154,154,0,0,0,154,154,154,0,154,154,154,Sun Sep 19 11:58:36 2021,The main experiment item,yes,FlankerTask.osexp,/Users/samonemarks/Desktop,no,mono,no,18,no,white,no,yes,768,legacy,74,79,/Users/samonemarks/Desktop/SM-subject-1.csv,legacy,Lentiform Loewenfeld,3.3.9,0,h,NA,s,s,NA,h,447,NA,33139,80499,NA,447,2,legacy,1024,2,48000,-16,experiment,1,odd,37803,259918,NA,NA,383825,382763,4652,179418,NA,383823,383927,382261,4613,260749,383927,384375,Flanker Task,130,72136,155,yes,1024
Incongruent,600,SSHSS,83.33333333,83.33333333,464.8910256,464.8910256,black,legacy,legacy,legacy,0,uniform,0,undefined,0,h,0,0,0,0,155,155,0,0,0,155,155,155,0,155,155,155,Sun Sep 19 11:58:36 2021,The main experiment item,yes,FlankerTask.osexp,/Users/samonemarks/Desktop,no,mono,no,18,no,white,no,yes,768,legacy,75,79,/Users/samonemarks/Desktop/SM-subject-1.csv,legacy,Lentiform Loewenfeld,3.3.9,0,s,NA,s,s,NA,s,387,NA,33139,80499,NA,387,2,legacy,1024,2,48000,-16,experiment,1,odd,37803,259918,NA,NA,385442,384379,4652,179418,NA,385440,385544,382261,4613,260749,385545,385934,Flanker Task,130,72523,156,yes,1024
Congruent,600,SSSSS,83.43949045,83.43949045,464.2547771,464.2547771,black,legacy,legacy,legacy,0,uniform,1,undefined,1,s,0,0,0,0,156,156,0,0,0,156,156,156,0,156,156,156,Sun Sep 19 11:58:36 2021,The main experiment item,yes,FlankerTask.osexp,/Users/samonemarks/Desktop,no,mono,no,18,no,white,no,yes,768,legacy,76,79,/Users/samonemarks/Desktop/SM-subject-1.csv,legacy,Lentiform Loewenfeld,3.3.9,0,s,NA,s,s,NA,s,365,NA,33139,80499,NA,365,2,legacy,1024,2,48000,-16,experiment,1,odd,37803,259918,NA,NA,387504,386441,4652,179418,NA,387502,387606,385938,4613,260749,387606,387973,Flanker Task,131,72888,157,yes,1024
Incongruent,600,SSHSS,82.91139241,82.91139241,463.5,463.5,black,legacy,legacy,legacy,0,uniform,0,undefined,0,h,0,0,0,0,157,157,0,0,0,157,157,157,0,157,157,157,Sun Sep 19 11:58:36 2021,The main experiment item,yes,FlankerTask.osexp,/Users/samonemarks/Desktop,no,mono,no,18,no,white,no,yes,768,legacy,77,79,/Users/samonemarks/Desktop/SM-subject-1.csv,legacy,Lentiform Loewenfeld,3.3.9,0,s,NA,s,s,NA,s,345,NA,33139,80499,NA,345,2,legacy,1024,2,48000,-16,experiment,1,odd,37803,259918,NA,NA,389041,387977,4652,179418,NA,389038,389143,385938,4613,260749,389143,389489,Flanker Task,131,73233,158,yes,1024
Incongruent,600,HHSHH,83.01886792,83.01886792,463.2955975,463.2955975,black,legacy,legacy,legacy,0,uniform,1,undefined,1,s,0,0,0,0,158,158,0,0,0,158,158,158,0,158,158,158,Sun Sep 19 11:58:36 2021,The main experiment item,yes,FlankerTask.osexp,/Users/samonemarks/Desktop,no,mono,no,18,no,white,no,yes,768,legacy,78,79,/Users/samonemarks/Desktop/SM-subject-1.csv,legacy,Lentiform Loewenfeld,3.3.9,0,s,NA,s,s,NA,s,431,NA,33139,80499,NA,431,2,legacy,1024,2,48000,-16,experiment,1,odd,37803,259918,NA,NA,391061,389996,4652,179418,NA,391059,391163,389493,4613,260749,391164,391597,Flanker Task,132,73664,159,yes,1024
Congruent,600,HHHHH,83.125,83.125,462.625,462.625,black,legacy,legacy,legacy,0,uniform,1,undefined,1,h,0,0,0,0,159,159,0,0,0,159,159,159,0,159,159,159,Sun Sep 19 11:58:36 2021,The main experiment item,yes,FlankerTask.osexp,/Users/samonemarks/Desktop,no,mono,no,18,no,white,no,yes,768,legacy,79,79,/Users/samonemarks/Desktop/SM-subject-1.csv,legacy,Lentiform Loewenfeld,3.3.9,0,h,NA,s,s,NA,h,356,NA,33139,80499,NA,356,2,legacy,1024,2,48000,-16,experiment,1,odd,37803,259918,NA,NA,392664,391601,4652,179418,NA,392662,392766,389493,4613,260749,392766,393123,Flanker Task,133,74020,160,yes,1024
Congruent,300,SSSSS,83.22981366,83.22981366,463.5838509,463.5838509,black,legacy,legacy,legacy,0,uniform,1,undefined,1,s,0,0,0,0,160,160,0,0,0,160,160,160,0,160,160,160,Sun Sep 19 11:58:36 2021,The main experiment item,yes,FlankerTask.osexp,/Users/samonemarks/Desktop,no,mono,no,18,no,white,no,yes,768,legacy,0,79,/Users/samonemarks/Desktop/SM-subject-1.csv,legacy,Lentiform Loewenfeld,3.3.9,0,s,NA,s,s,s,s,617,NA,33139,80499,104931,617,2,legacy,1024,2,48000,-16,experiment,1,odd,37803,259918,499084,NA,499132,393128,4652,179418,394152,499129,499237,389493,4613,260749,499237,499856,Flanker Task,134,74637,161,yes,1024
Incongruent,300,SSHSS,82.71604938,82.71604938,462.9753086,462.9753086,black,legacy,legacy,legacy,0,uniform,0,undefined,0,h,0,0,0,0,161,161,0,0,0,161,161,161,0,161,161,161,Sun Sep 19 11:58:36 2021,The main experiment item,yes,FlankerTask.osexp,/Users/samonemarks/Desktop,no,mono,no,18,no,white,no,yes,768,legacy,1,79,/Users/samonemarks/Desktop/SM-subject-1.csv,legacy,Lentiform Loewenfeld,3.3.9,0,s,NA,s,s,s,s,365,NA,33139,80499,104931,365,2,legacy,1024,2,48000,-16,experiment,1,odd,37803,259918,499084,NA,501434,500369,4652,179418,394152,501431,501536,389493,4613,499860,501536,501902,Flanker Task,134,75002,162,yes,1024
Congruent,300,SSSSS,82.82208589,82.82208589,461.9509202,461.9509202,black,legacy,legacy,legacy,0,uniform,1,undefined,1,s,0,0,0,0,162,162,0,0,0,162,162,162,0,162,162,162,Sun Sep 19 11:58:36 2021,The main experiment item,yes,FlankerTask.osexp,/Users/samonemarks/Desktop,no,mono,no,18,no,white,no,yes,768,legacy,2,79,/Users/samonemarks/Desktop/SM-subject-1.csv,legacy,Lentiform Loewenfeld,3.3.9,0,s,NA,s,s,s,s,296,NA,33139,80499,104931,296,2,legacy,1024,2,48000,-16,experiment,1,odd,37803,259918,499084,NA,503980,502912,4652,179418,394152,503977,504082,501907,4613,502410,504083,504380,Flanker Task,135,75298,163,yes,1024
Incongruent,300,HHSHH,82.92682927,82.92682927,461.4817073,461.4817073,black,legacy,legacy,legacy,0,uniform,1,undefined,1,s,0,0,0,0,163,163,0,0,0,163,163,163,0,163,163,163,Sun Sep 19 11:58:36 2021,The main experiment item,yes,FlankerTask.osexp,/Users/samonemarks/Desktop,no,mono,no,18,no,white,no,yes,768,legacy,3,79,/Users/samonemarks/Desktop/SM-subject-1.csv,legacy,Lentiform Loewenfeld,3.3.9,0,s,NA,s,s,s,s,385,NA,33139,80499,104931,385,2,legacy,1024,2,48000,-16,experiment,1,odd,37803,259918,499084,NA,505449,504385,4652,179418,394152,505446,505551,501907,4613,502410,505552,505938,Flanker Task,136,75683,164,yes,1024
Congruent,300,SSSSS,83.03030303,83.03030303,460.5030303,460.5030303,black,legacy,legacy,legacy,0,uniform,1,undefined,1,s,0,0,0,0,164,164,0,0,0,164,164,164,0,164,164,164,Sun Sep 19 11:58:36 2021,The main experiment item,yes,FlankerTask.osexp,/Users/samonemarks/Desktop,no,mono,no,18,no,white,no,yes,768,legacy,4,79,/Users/samonemarks/Desktop/SM-subject-1.csv,legacy,Lentiform Loewenfeld,3.3.9,0,s,NA,s,s,s,s,300,NA,33139,80499,104931,300,2,legacy,1024,2,48000,-16,experiment,1,odd,37803,259918,499084,NA,507511,506445,4652,179418,394152,507508,507613,501907,4613,505943,507614,507915,Flanker Task,137,75983,165,yes,1024
Incongruent,300,HHSHH,82.53012048,82.53012048,459.8192771,459.8192771,black,legacy,legacy,legacy,0,uniform,0,undefined,0,s,0,0,0,0,165,165,0,0,0,165,165,165,0,165,165,165,Sun Sep 19 11:58:36 2021,The main experiment item,yes,FlankerTask.osexp,/Users/samonemarks/Desktop,no,mono,no,18,no,white,no,yes,768,legacy,5,79,/Users/samonemarks/Desktop/SM-subject-1.csv,legacy,Lentiform Loewenfeld,3.3.9,0,h,NA,s,s,s,h,347,NA,33139,80499,104931,347,2,legacy,1024,2,48000,-16,experiment,1,odd,37803,259918,499084,NA,508984,507920,4652,179418,394152,508981,509086,501907,4613,505943,509086,509434,Flanker Task,137,76330,166,yes,1024
