"acc","accuracy","average_response_time","avg_rt","background","canvas_backend","clock_backend","color_backend","compensation","condition","coordinates","correct","correct_Instructions1","correct_keyboard_response","correct_response","count_Block1","count_Block2","count_Block3","count_Closing","count_ISI","count_Instructions1","count_Instructions2","count_Instructions3","count_error_feedback","count_experiment","count_faster","count_fixation","count_keyboard_response","count_logger","count_sequence","count_stimulus","datetime","deadline","description","disable_garbage_collection","experiment_file","experiment_path","font_bold","font_family","font_italic","font_size","font_underline","foreground","form_clicks","fullscreen","height","keyboard_backend","live_row","live_row_Block1","logfile","mouse_backend","opensesame_codename","opensesame_version","repeat_cycle","response","response_Closing","response_Instructions1","response_Instructions2","response_Instructions3","response_keyboard_response","response_time","response_time_Closing","response_time_Instructions1","response_time_Instructions2","response_time_Instructions3","response_time_keyboard_response","round_decimals","sampler_backend","sound_buf_size","sound_channels","sound_freq","sound_sample_size","start","stimulus","subject_nr","subject_parity","time_Block1","time_Block2","time_Block3","time_Closing","time_ISI","time_Instructions1","time_Instructions2","time_Instructions3","time_error_feedback","time_experiment","time_faster","time_fixation","time_keyboard_response","time_logger","time_sequence","time_stimulus","title","total_correct","total_response_time","total_responses","uniform_coordinates","width"
"0","0","481","481","black","legacy","legacy","legacy","0","incongruent","uniform","0","undefined","0","s","0","0","0","0","0","0","0","0","0","0","0","0","0","0","0","0","Tue Sep 21 08:32:56 2021","1500","The main experiment item","yes","FlankerTask.osexp","C:/Users/warne/OneDrive/Documents/Tarleton - MS Applied Psychology/Adv Quantitative Methods and Experimental Design/Labs","no","mono","no","18","no","white","no","yes","768","legacy","0","0","C:/Users/warne/OneDrive/Documents/Tarleton - MS Applied Psychology/Adv Quantitative Methods and Experimental Design/Labs/AV-subject-4.csv","legacy","Lentiform Loewenfeld","3.3.9","0","h","NA","s","NA","NA","h","481","NA","47885","NA","NA","481","2","legacy","1024","2","48000","-16","experiment","HHSHH","4","even","50482","NA","NA","NA","NA","2596","NA","NA","NA","2588","NA","50571","50672","51153","50569","50672","Flanker Task","0","481","1","yes","1024"
"50","50","448.5","448.5","black","legacy","legacy","legacy","0","congruent","uniform","1","undefined","1","h","0","0","0","0","1","0","0","0","1","0","1","1","1","1","1","1","Tue Sep 21 08:32:56 2021","1500","The main experiment item","yes","FlankerTask.osexp","C:/Users/warne/OneDrive/Documents/Tarleton - MS Applied Psychology/Adv Quantitative Methods and Experimental Design/Labs","no","mono","no","18","no","white","no","yes","768","legacy","1","1","C:/Users/warne/OneDrive/Documents/Tarleton - MS Applied Psychology/Adv Quantitative Methods and Experimental Design/Labs/AV-subject-4.csv","legacy","Lentiform Loewenfeld","3.3.9","0","h","NA","s","NA","NA","h","416","NA","47885","NA","NA","416","2","legacy","1024","2","48000","-16","experiment","HHHHH","4","even","50482","NA","NA","NA","51662","2596","NA","NA","51161","2588","NA","52719","52822","53239","52717","52822","Flanker Task","1","897","2","yes","1024"
"66.66666666666667","66.66666666666667","435.6666666666667","435.6666666666667","black","legacy","legacy","legacy","0","congruent","uniform","1","undefined","1","h","0","0","0","0","2","0","0","0","2","0","2","2","2","2","2","2","Tue Sep 21 08:32:56 2021","1500","The main experiment item","yes","FlankerTask.osexp","C:/Users/warne/OneDrive/Documents/Tarleton - MS Applied Psychology/Adv Quantitative Methods and Experimental Design/Labs","no","mono","no","18","no","white","no","yes","768","legacy","2","2","C:/Users/warne/OneDrive/Documents/Tarleton - MS Applied Psychology/Adv Quantitative Methods and Experimental Design/Labs/AV-subject-4.csv","legacy","Lentiform Loewenfeld","3.3.9","0","h","NA","s","NA","NA","h","410","NA","47885","NA","NA","410","2","legacy","1024","2","48000","-16","experiment","HHHHH","4","even","50482","NA","NA","NA","53245","2596","NA","NA","51161","2588","NA","54302","54403","54813","54300","54403","Flanker Task","2","1307","3","yes","1024"
"75","75","421.5","421.5","black","legacy","legacy","legacy","0","congruent","uniform","1","undefined","1","s","0","0","0","0","3","0","0","0","3","0","3","3","3","3","3","3","Tue Sep 21 08:32:56 2021","1500","The main experiment item","yes","FlankerTask.osexp","C:/Users/warne/OneDrive/Documents/Tarleton - MS Applied Psychology/Adv Quantitative Methods and Experimental Design/Labs","no","mono","no","18","no","white","no","yes","768","legacy","3","3","C:/Users/warne/OneDrive/Documents/Tarleton - MS Applied Psychology/Adv Quantitative Methods and Experimental Design/Labs/AV-subject-4.csv","legacy","Lentiform Loewenfeld","3.3.9","0","s","NA","s","NA","NA","s","379","NA","47885","NA","NA","379","2","legacy","1024","2","48000","-16","experiment","SSSSS","4","even","50482","NA","NA","NA","54818","2596","NA","NA","51161","2588","NA","55875","55979","56358","55874","55979","Flanker Task","3","1686","4","yes","1024"
"80","80","428","428","black","legacy","legacy","legacy","0","incongruent","uniform","1","undefined","1","h","0","0","0","0","4","0","0","0","4","0","4","4","4","4","4","4","Tue Sep 21 08:32:56 2021","1500","The main experiment item","yes","FlankerTask.osexp","C:/Users/warne/OneDrive/Documents/Tarleton - MS Applied Psychology/Adv Quantitative Methods and Experimental Design/Labs","no","mono","no","18","no","white","no","yes","768","legacy","4","4","C:/Users/warne/OneDrive/Documents/Tarleton - MS Applied Psychology/Adv Quantitative Methods and Experimental Design/Labs/AV-subject-4.csv","legacy","Lentiform Loewenfeld","3.3.9","0","h","NA","s","NA","NA","h","454","NA","47885","NA","NA","454","2","legacy","1024","2","48000","-16","experiment","SSHSS","4","even","50482","NA","NA","NA","56363","2596","NA","NA","51161","2588","NA","57420","57524","57979","57418","57524","Flanker Task","4","2140","5","yes","1024"
"83.33333333333333","83.33333333333333","448","448","black","legacy","legacy","legacy","0","incongruent","uniform","1","undefined","1","h","0","0","0","0","5","0","0","0","5","0","5","5","5","5","5","5","Tue Sep 21 08:32:56 2021","1500","The main experiment item","yes","FlankerTask.osexp","C:/Users/warne/OneDrive/Documents/Tarleton - MS Applied Psychology/Adv Quantitative Methods and Experimental Design/Labs","no","mono","no","18","no","white","no","yes","768","legacy","5","5","C:/Users/warne/OneDrive/Documents/Tarleton - MS Applied Psychology/Adv Quantitative Methods and Experimental Design/Labs/AV-subject-4.csv","legacy","Lentiform Loewenfeld","3.3.9","0","h","NA","s","NA","NA","h","548","NA","47885","NA","NA","548","2","legacy","1024","2","48000","-16","experiment","SSHSS","4","even","50482","NA","NA","NA","57982","2596","NA","NA","51161","2588","NA","59039","59140","59689","59037","59140","Flanker Task","5","2688","6","yes","1024"
"71.42857142857143","71.42857142857143","444.14285714285717","444.14285714285717","black","legacy","legacy","legacy","0","incongruent","uniform","0","undefined","0","s","0","0","0","0","6","0","0","0","6","0","6","6","6","6","6","6","Tue Sep 21 08:32:56 2021","1500","The main experiment item","yes","FlankerTask.osexp","C:/Users/warne/OneDrive/Documents/Tarleton - MS Applied Psychology/Adv Quantitative Methods and Experimental Design/Labs","no","mono","no","18","no","white","no","yes","768","legacy","6","6","C:/Users/warne/OneDrive/Documents/Tarleton - MS Applied Psychology/Adv Quantitative Methods and Experimental Design/Labs/AV-subject-4.csv","legacy","Lentiform Loewenfeld","3.3.9","0","h","NA","s","NA","NA","h","421","NA","47885","NA","NA","421","2","legacy","1024","2","48000","-16","experiment","HHSHH","4","even","50482","NA","NA","NA","59695","2596","NA","NA","51161","2588","NA","60753","60857","61278","60751","60857","Flanker Task","5","3109","7","yes","1024"
"75","75","453.875","453.875","black","legacy","legacy","legacy","0","congruent","uniform","1","undefined","1","s","0","0","0","0","7","0","0","0","7","0","7","7","7","7","7","7","Tue Sep 21 08:32:56 2021","1500","The main experiment item","yes","FlankerTask.osexp","C:/Users/warne/OneDrive/Documents/Tarleton - MS Applied Psychology/Adv Quantitative Methods and Experimental Design/Labs","no","mono","no","18","no","white","no","yes","768","legacy","7","7","C:/Users/warne/OneDrive/Documents/Tarleton - MS Applied Psychology/Adv Quantitative Methods and Experimental Design/Labs/AV-subject-4.csv","legacy","Lentiform Loewenfeld","3.3.9","0","s","NA","s","NA","NA","s","522","NA","47885","NA","NA","522","2","legacy","1024","2","48000","-16","experiment","SSSSS","4","even","50482","NA","NA","NA","61787","2596","NA","NA","61286","2588","NA","62846","62950","63473","62844","62950","Flanker Task","6","3631","8","yes","1024"
"77.77777777777777","77.77777777777777","453.3333333333333","453.3333333333333","black","legacy","legacy","legacy","0","congruent","uniform","1","undefined","1","h","0","0","0","0","8","0","0","0","8","0","8","8","8","8","8","8","Tue Sep 21 08:32:56 2021","1500","The main experiment item","yes","FlankerTask.osexp","C:/Users/warne/OneDrive/Documents/Tarleton - MS Applied Psychology/Adv Quantitative Methods and Experimental Design/Labs","no","mono","no","18","no","white","no","yes","768","legacy","8","8","C:/Users/warne/OneDrive/Documents/Tarleton - MS Applied Psychology/Adv Quantitative Methods and Experimental Design/Labs/AV-subject-4.csv","legacy","Lentiform Loewenfeld","3.3.9","0","h","NA","s","NA","NA","h","449","NA","47885","NA","NA","449","2","legacy","1024","2","48000","-16","experiment","HHHHH","4","even","50482","NA","NA","NA","63476","2596","NA","NA","61286","2588","NA","64534","64639","65089","64532","64639","Flanker Task","7","4080","9","yes","1024"
"80","80","447.4","447.4","black","legacy","legacy","legacy","0","incongruent","uniform","1","undefined","1","s","0","0","0","0","9","0","0","0","9","0","9","9","9","9","9","9","Tue Sep 21 08:32:56 2021","1500","The main experiment item","yes","FlankerTask.osexp","C:/Users/warne/OneDrive/Documents/Tarleton - MS Applied Psychology/Adv Quantitative Methods and Experimental Design/Labs","no","mono","no","18","no","white","no","yes","768","legacy","9","9","C:/Users/warne/OneDrive/Documents/Tarleton - MS Applied Psychology/Adv Quantitative Methods and Experimental Design/Labs/AV-subject-4.csv","legacy","Lentiform Loewenfeld","3.3.9","0","s","NA","s","NA","NA","s","394","NA","47885","NA","NA","394","2","legacy","1024","2","48000","-16","experiment","HHSHH","4","even","50482","NA","NA","NA","65095","2596","NA","NA","61286","2588","NA","66153","66254","66649","66151","66254","Flanker Task","8","4474","10","yes","1024"
"81.81818181818181","81.81818181818181","451.8181818181818","451.8181818181818","black","legacy","legacy","legacy","0","congruent","uniform","1","undefined","1","h","0","0","0","0","10","0","0","0","10","0","10","10","10","10","10","10","Tue Sep 21 08:32:56 2021","1500","The main experiment item","yes","FlankerTask.osexp","C:/Users/warne/OneDrive/Documents/Tarleton - MS Applied Psychology/Adv Quantitative Methods and Experimental Design/Labs","no","mono","no","18","no","white","no","yes","768","legacy","10","10","C:/Users/warne/OneDrive/Documents/Tarleton - MS Applied Psychology/Adv Quantitative Methods and Experimental Design/Labs/AV-subject-4.csv","legacy","Lentiform Loewenfeld","3.3.9","0","h","NA","s","NA","NA","h","496","NA","47885","NA","NA","496","2","legacy","1024","2","48000","-16","experiment","HHHHH","4","even","50482","NA","NA","NA","66655","2596","NA","NA","61286","2588","NA","67713","67818","68314","67711","67817","Flanker Task","9","4970","11","yes","1024"
"83.33333333333333","83.33333333333333","450.6666666666667","450.6666666666667","black","legacy","legacy","legacy","0","incongruent","uniform","1","undefined","1","s","0","0","0","0","11","0","0","0","11","0","11","11","11","11","11","11","Tue Sep 21 08:32:56 2021","1500","The main experiment item","yes","FlankerTask.osexp","C:/Users/warne/OneDrive/Documents/Tarleton - MS Applied Psychology/Adv Quantitative Methods and Experimental Design/Labs","no","mono","no","18","no","white","no","yes","768","legacy","11","11","C:/Users/warne/OneDrive/Documents/Tarleton - MS Applied Psychology/Adv Quantitative Methods and Experimental Design/Labs/AV-subject-4.csv","legacy","Lentiform Loewenfeld","3.3.9","0","s","NA","s","NA","NA","s","438","NA","47885","NA","NA","438","2","legacy","1024","2","48000","-16","experiment","HHSHH","4","even","50482","NA","NA","NA","68321","2596","NA","NA","61286","2588","NA","69379","69480","69919","69377","69480","Flanker Task","10","5408","12","yes","1024"
"84.61538461538461","84.61538461538461","447.38461538461536","447.38461538461536","black","legacy","legacy","legacy","0","congruent","uniform","1","undefined","1","h","0","0","0","0","12","0","0","0","12","0","12","12","12","12","12","12","Tue Sep 21 08:32:56 2021","1500","The main experiment item","yes","FlankerTask.osexp","C:/Users/warne/OneDrive/Documents/Tarleton - MS Applied Psychology/Adv Quantitative Methods and Experimental Design/Labs","no","mono","no","18","no","white","no","yes","768","legacy","12","12","C:/Users/warne/OneDrive/Documents/Tarleton - MS Applied Psychology/Adv Quantitative Methods and Experimental Design/Labs/AV-subject-4.csv","legacy","Lentiform Loewenfeld","3.3.9","0","h","NA","s","NA","NA","h","408","NA","47885","NA","NA","408","2","legacy","1024","2","48000","-16","experiment","HHHHH","4","even","50482","NA","NA","NA","69924","2596","NA","NA","61286","2588","NA","70982","71086","71494","70980","71086","Flanker Task","11","5816","13","yes","1024"
"78.57142857142857","78.57142857142857","439.2142857142857","439.2142857142857","black","legacy","legacy","legacy","0","incongruent","uniform","0","undefined","0","h","0","0","0","0","13","0","0","0","13","0","13","13","13","13","13","13","Tue Sep 21 08:32:56 2021","1500","The main experiment item","yes","FlankerTask.osexp","C:/Users/warne/OneDrive/Documents/Tarleton - MS Applied Psychology/Adv Quantitative Methods and Experimental Design/Labs","no","mono","no","18","no","white","no","yes","768","legacy","13","13","C:/Users/warne/OneDrive/Documents/Tarleton - MS Applied Psychology/Adv Quantitative Methods and Experimental Design/Labs/AV-subject-4.csv","legacy","Lentiform Loewenfeld","3.3.9","0","s","NA","s","NA","NA","s","333","NA","47885","NA","NA","333","2","legacy","1024","2","48000","-16","experiment","SSHSS","4","even","50482","NA","NA","NA","71498","2596","NA","NA","61286","2588","NA","72555","72660","72994","72553","72660","Flanker Task","11","6149","14","yes","1024"
"80","80","446","446","black","legacy","legacy","legacy","0","incongruent","uniform","1","undefined","1","s","0","0","0","0","14","0","0","0","14","0","14","14","14","14","14","14","Tue Sep 21 08:32:56 2021","1500","The main experiment item","yes","FlankerTask.osexp","C:/Users/warne/OneDrive/Documents/Tarleton - MS Applied Psychology/Adv Quantitative Methods and Experimental Design/Labs","no","mono","no","18","no","white","no","yes","768","legacy","14","14","C:/Users/warne/OneDrive/Documents/Tarleton - MS Applied Psychology/Adv Quantitative Methods and Experimental Design/Labs/AV-subject-4.csv","legacy","Lentiform Loewenfeld","3.3.9","0","s","NA","s","NA","NA","s","541","NA","47885","NA","NA","541","2","legacy","1024","2","48000","-16","experiment","HHSHH","4","even","50482","NA","NA","NA","73498","2596","NA","NA","72997","2588","NA","74555","74659","75200","74553","74659","Flanker Task","12","6690","15","yes","1024"
"81.25","81.25","442.5625","442.5625","black","legacy","legacy","legacy","0","congruent","uniform","1","undefined","1","s","0","0","0","0","15","0","0","0","15","0","15","15","15","15","15","15","Tue Sep 21 08:32:56 2021","1500","The main experiment item","yes","FlankerTask.osexp","C:/Users/warne/OneDrive/Documents/Tarleton - MS Applied Psychology/Adv Quantitative Methods and Experimental Design/Labs","no","mono","no","18","no","white","no","yes","768","legacy","15","15","C:/Users/warne/OneDrive/Documents/Tarleton - MS Applied Psychology/Adv Quantitative Methods and Experimental Design/Labs/AV-subject-4.csv","legacy","Lentiform Loewenfeld","3.3.9","0","s","NA","s","NA","NA","s","391","NA","47885","NA","NA","391","2","legacy","1024","2","48000","-16","experiment","SSSSS","4","even","50482","NA","NA","NA","75206","2596","NA","NA","72997","2588","NA","76264","76368","76759","76261","76368","Flanker Task","13","7081","16","yes","1024"
"82.3529411764706","82.3529411764706","443.1764705882353","443.1764705882353","black","legacy","legacy","legacy","0","congruent","uniform","1","undefined","1","h","0","0","0","0","16","0","0","0","16","0","16","16","16","16","16","16","Tue Sep 21 08:32:56 2021","1500","The main experiment item","yes","FlankerTask.osexp","C:/Users/warne/OneDrive/Documents/Tarleton - MS Applied Psychology/Adv Quantitative Methods and Experimental Design/Labs","no","mono","no","18","no","white","no","yes","768","legacy","16","16","C:/Users/warne/OneDrive/Documents/Tarleton - MS Applied Psychology/Adv Quantitative Methods and Experimental Design/Labs/AV-subject-4.csv","legacy","Lentiform Loewenfeld","3.3.9","0","h","NA","s","NA","NA","h","453","NA","47885","NA","NA","453","2","legacy","1024","2","48000","-16","experiment","HHHHH","4","even","50482","NA","NA","NA","76763","2596","NA","NA","72997","2588","NA","77821","77926","78379","77819","77926","Flanker Task","14","7534","17","yes","1024"
"83.33333333333333","83.33333333333333","444.55555555555554","444.55555555555554","black","legacy","legacy","legacy","0","incongruent","uniform","1","undefined","1","s","0","0","0","0","17","0","0","0","17","0","17","17","17","17","17","17","Tue Sep 21 08:32:56 2021","1500","The main experiment item","yes","FlankerTask.osexp","C:/Users/warne/OneDrive/Documents/Tarleton - MS Applied Psychology/Adv Quantitative Methods and Experimental Design/Labs","no","mono","no","18","no","white","no","yes","768","legacy","17","17","C:/Users/warne/OneDrive/Documents/Tarleton - MS Applied Psychology/Adv Quantitative Methods and Experimental Design/Labs/AV-subject-4.csv","legacy","Lentiform Loewenfeld","3.3.9","0","s","NA","s","NA","NA","s","468","NA","47885","NA","NA","468","2","legacy","1024","2","48000","-16","experiment","HHSHH","4","even","50482","NA","NA","NA","78383","2596","NA","NA","72997","2588","NA","79441","79546","80014","79439","79545","Flanker Task","15","8002","18","yes","1024"
"84.21052631578948","84.21052631578948","442.05263157894734","442.05263157894734","black","legacy","legacy","legacy","0","congruent","uniform","1","undefined","1","h","0","0","0","0","18","0","0","0","18","0","18","18","18","18","18","18","Tue Sep 21 08:32:56 2021","1500","The main experiment item","yes","FlankerTask.osexp","C:/Users/warne/OneDrive/Documents/Tarleton - MS Applied Psychology/Adv Quantitative Methods and Experimental Design/Labs","no","mono","no","18","no","white","no","yes","768","legacy","18","18","C:/Users/warne/OneDrive/Documents/Tarleton - MS Applied Psychology/Adv Quantitative Methods and Experimental Design/Labs/AV-subject-4.csv","legacy","Lentiform Loewenfeld","3.3.9","0","h","NA","s","NA","NA","h","397","NA","47885","NA","NA","397","2","legacy","1024","2","48000","-16","experiment","HHHHH","4","even","50482","NA","NA","NA","80019","2596","NA","NA","72997","2588","NA","81076","81177","81574","81074","81177","Flanker Task","16","8399","19","yes","1024"
"85","85","439.05","439.05","black","legacy","legacy","legacy","0","congruent","uniform","1","undefined","1","s","0","0","0","0","19","0","0","0","19","0","19","19","19","19","19","19","Tue Sep 21 08:32:56 2021","1500","The main experiment item","yes","FlankerTask.osexp","C:/Users/warne/OneDrive/Documents/Tarleton - MS Applied Psychology/Adv Quantitative Methods and Experimental Design/Labs","no","mono","no","18","no","white","no","yes","768","legacy","19","19","C:/Users/warne/OneDrive/Documents/Tarleton - MS Applied Psychology/Adv Quantitative Methods and Experimental Design/Labs/AV-subject-4.csv","legacy","Lentiform Loewenfeld","3.3.9","0","s","NA","s","NA","NA","s","382","NA","47885","NA","NA","382","2","legacy","1024","2","48000","-16","experiment","SSSSS","4","even","50482","NA","NA","NA","81579","2596","NA","NA","72997","2588","NA","82636","82737","83120","82635","82737","Flanker Task","17","8781","20","yes","1024"
"85.71428571428571","85.71428571428571","443.9047619047619","443.9047619047619","black","legacy","legacy","legacy","0","incongruent","uniform","1","undefined","1","s","0","0","0","0","20","0","0","0","20","0","20","20","20","20","20","20","Tue Sep 21 08:32:56 2021","1500","The main experiment item","yes","FlankerTask.osexp","C:/Users/warne/OneDrive/Documents/Tarleton - MS Applied Psychology/Adv Quantitative Methods and Experimental Design/Labs","no","mono","no","18","no","white","no","yes","768","legacy","20","20","C:/Users/warne/OneDrive/Documents/Tarleton - MS Applied Psychology/Adv Quantitative Methods and Experimental Design/Labs/AV-subject-4.csv","legacy","Lentiform Loewenfeld","3.3.9","0","s","NA","s","NA","NA","s","541","NA","47885","NA","NA","541","2","legacy","1024","2","48000","-16","experiment","HHSHH","4","even","50482","NA","NA","NA","83125","2596","NA","NA","72997","2588","NA","84183","84287","84829","84181","84287","Flanker Task","18","9322","21","yes","1024"
"86.36363636363636","86.36363636363636","442.95454545454544","442.95454545454544","black","legacy","legacy","legacy","0","congruent","uniform","1","undefined","1","h","0","0","0","0","21","0","0","0","21","0","21","21","21","21","21","21","Tue Sep 21 08:32:56 2021","1500","The main experiment item","yes","FlankerTask.osexp","C:/Users/warne/OneDrive/Documents/Tarleton - MS Applied Psychology/Adv Quantitative Methods and Experimental Design/Labs","no","mono","no","18","no","white","no","yes","768","legacy","21","21","C:/Users/warne/OneDrive/Documents/Tarleton - MS Applied Psychology/Adv Quantitative Methods and Experimental Design/Labs/AV-subject-4.csv","legacy","Lentiform Loewenfeld","3.3.9","0","h","NA","s","NA","NA","h","423","NA","47885","NA","NA","423","2","legacy","1024","2","48000","-16","experiment","HHHHH","4","even","50482","NA","NA","NA","84834","2596","NA","NA","72997","2588","NA","85892","85996","86420","85890","85996","Flanker Task","19","9745","22","yes","1024"
"86.95652173913044","86.95652173913044","443.4347826086956","443.4347826086956","black","legacy","legacy","legacy","0","congruent","uniform","1","undefined","1","h","0","0","0","0","22","0","0","0","22","0","22","22","22","22","22","22","Tue Sep 21 08:32:56 2021","1500","The main experiment item","yes","FlankerTask.osexp","C:/Users/warne/OneDrive/Documents/Tarleton - MS Applied Psychology/Adv Quantitative Methods and Experimental Design/Labs","no","mono","no","18","no","white","no","yes","768","legacy","22","22","C:/Users/warne/OneDrive/Documents/Tarleton - MS Applied Psychology/Adv Quantitative Methods and Experimental Design/Labs/AV-subject-4.csv","legacy","Lentiform Loewenfeld","3.3.9","0","h","NA","s","NA","NA","h","454","NA","47885","NA","NA","454","2","legacy","1024","2","48000","-16","experiment","HHHHH","4","even","50482","NA","NA","NA","86424","2596","NA","NA","72997","2588","NA","87481","87584","88039","87479","87584","Flanker Task","20","10199","23","yes","1024"
"87.5","87.5","441.5833333333333","441.5833333333333","black","legacy","legacy","legacy","0","congruent","uniform","1","undefined","1","s","0","0","0","0","23","0","0","0","23","0","23","23","23","23","23","23","Tue Sep 21 08:32:56 2021","1500","The main experiment item","yes","FlankerTask.osexp","C:/Users/warne/OneDrive/Documents/Tarleton - MS Applied Psychology/Adv Quantitative Methods and Experimental Design/Labs","no","mono","no","18","no","white","no","yes","768","legacy","23","23","C:/Users/warne/OneDrive/Documents/Tarleton - MS Applied Psychology/Adv Quantitative Methods and Experimental Design/Labs/AV-subject-4.csv","legacy","Lentiform Loewenfeld","3.3.9","0","s","NA","s","NA","NA","s","399","NA","47885","NA","NA","399","2","legacy","1024","2","48000","-16","experiment","SSSSS","4","even","50482","NA","NA","NA","88042","2596","NA","NA","72997","2588","NA","89099","89200","89600","89097","89200","Flanker Task","21","10598","24","yes","1024"
"88","88","443.12","443.12","black","legacy","legacy","legacy","0","incongruent","uniform","1","undefined","1","h","0","0","0","0","24","0","0","0","24","0","24","24","24","24","24","24","Tue Sep 21 08:32:56 2021","1500","The main experiment item","yes","FlankerTask.osexp","C:/Users/warne/OneDrive/Documents/Tarleton - MS Applied Psychology/Adv Quantitative Methods and Experimental Design/Labs","no","mono","no","18","no","white","no","yes","768","legacy","24","24","C:/Users/warne/OneDrive/Documents/Tarleton - MS Applied Psychology/Adv Quantitative Methods and Experimental Design/Labs/AV-subject-4.csv","legacy","Lentiform Loewenfeld","3.3.9","0","h","NA","s","NA","NA","h","480","NA","47885","NA","NA","480","2","legacy","1024","2","48000","-16","experiment","SSHSS","4","even","50482","NA","NA","NA","89606","2596","NA","NA","72997","2588","NA","90664","90769","91249","90661","90769","Flanker Task","22","11078","25","yes","1024"
"88.46153846153847","88.46153846153847","444.65384615384613","444.65384615384613","black","legacy","legacy","legacy","0","congruent","uniform","1","undefined","1","h","0","0","0","0","25","0","0","0","25","0","25","25","25","25","25","25","Tue Sep 21 08:32:56 2021","1500","The main experiment item","yes","FlankerTask.osexp","C:/Users/warne/OneDrive/Documents/Tarleton - MS Applied Psychology/Adv Quantitative Methods and Experimental Design/Labs","no","mono","no","18","no","white","no","yes","768","legacy","25","25","C:/Users/warne/OneDrive/Documents/Tarleton - MS Applied Psychology/Adv Quantitative Methods and Experimental Design/Labs/AV-subject-4.csv","legacy","Lentiform Loewenfeld","3.3.9","0","h","NA","s","NA","NA","h","483","NA","47885","NA","NA","483","2","legacy","1024","2","48000","-16","experiment","HHHHH","4","even","50482","NA","NA","NA","91254","2596","NA","NA","72997","2588","NA","92312","92416","92900","92310","92416","Flanker Task","23","11561","26","yes","1024"
"88.88888888888889","88.88888888888889","442.81481481481484","442.81481481481484","black","legacy","legacy","legacy","0","congruent","uniform","1","undefined","1","s","0","0","0","0","26","0","0","0","26","0","26","26","26","26","26","26","Tue Sep 21 08:32:56 2021","1500","The main experiment item","yes","FlankerTask.osexp","C:/Users/warne/OneDrive/Documents/Tarleton - MS Applied Psychology/Adv Quantitative Methods and Experimental Design/Labs","no","mono","no","18","no","white","no","yes","768","legacy","26","26","C:/Users/warne/OneDrive/Documents/Tarleton - MS Applied Psychology/Adv Quantitative Methods and Experimental Design/Labs/AV-subject-4.csv","legacy","Lentiform Loewenfeld","3.3.9","0","s","NA","s","NA","NA","s","395","NA","47885","NA","NA","395","2","legacy","1024","2","48000","-16","experiment","SSSSS","4","even","50482","NA","NA","NA","92905","2596","NA","NA","72997","2588","NA","93963","94064","94460","93961","94064","Flanker Task","24","11956","27","yes","1024"
"89.28571428571429","89.28571428571429","443.25","443.25","black","legacy","legacy","legacy","0","congruent","uniform","1","undefined","1","s","0","0","0","0","27","0","0","0","27","0","27","27","27","27","27","27","Tue Sep 21 08:32:56 2021","1500","The main experiment item","yes","FlankerTask.osexp","C:/Users/warne/OneDrive/Documents/Tarleton - MS Applied Psychology/Adv Quantitative Methods and Experimental Design/Labs","no","mono","no","18","no","white","no","yes","768","legacy","27","27","C:/Users/warne/OneDrive/Documents/Tarleton - MS Applied Psychology/Adv Quantitative Methods and Experimental Design/Labs/AV-subject-4.csv","legacy","Lentiform Loewenfeld","3.3.9","0","s","NA","s","NA","NA","s","455","NA","47885","NA","NA","455","2","legacy","1024","2","48000","-16","experiment","SSSSS","4","even","50482","NA","NA","NA","94465","2596","NA","NA","72997","2588","NA","95523","95624","96080","95521","95624","Flanker Task","25","12411","28","yes","1024"
"89.65517241379311","89.65517241379311","448.82758620689657","448.82758620689657","black","legacy","legacy","legacy","0","incongruent","uniform","1","undefined","1","s","0","0","0","0","28","0","0","0","28","0","28","28","28","28","28","28","Tue Sep 21 08:32:56 2021","1500","The main experiment item","yes","FlankerTask.osexp","C:/Users/warne/OneDrive/Documents/Tarleton - MS Applied Psychology/Adv Quantitative Methods and Experimental Design/Labs","no","mono","no","18","no","white","no","yes","768","legacy","28","28","C:/Users/warne/OneDrive/Documents/Tarleton - MS Applied Psychology/Adv Quantitative Methods and Experimental Design/Labs/AV-subject-4.csv","legacy","Lentiform Loewenfeld","3.3.9","0","s","NA","s","NA","NA","s","605","NA","47885","NA","NA","605","2","legacy","1024","2","48000","-16","experiment","HHSHH","4","even","50482","NA","NA","NA","96084","2596","NA","NA","72997","2588","NA","97143","97244","97849","97141","97244","Flanker Task","26","13016","29","yes","1024"
"90","90","449.96666666666664","449.96666666666664","black","legacy","legacy","legacy","0","incongruent","uniform","1","undefined","1","h","0","0","0","0","29","0","0","0","29","0","29","29","29","29","29","29","Tue Sep 21 08:32:56 2021","1500","The main experiment item","yes","FlankerTask.osexp","C:/Users/warne/OneDrive/Documents/Tarleton - MS Applied Psychology/Adv Quantitative Methods and Experimental Design/Labs","no","mono","no","18","no","white","no","yes","768","legacy","29","29","C:/Users/warne/OneDrive/Documents/Tarleton - MS Applied Psychology/Adv Quantitative Methods and Experimental Design/Labs/AV-subject-4.csv","legacy","Lentiform Loewenfeld","3.3.9","0","h","NA","s","NA","NA","h","483","NA","47885","NA","NA","483","2","legacy","1024","2","48000","-16","experiment","SSHSS","4","even","50482","NA","NA","NA","97854","2596","NA","NA","72997","2588","NA","98911","99016","99499","98909","99016","Flanker Task","27","13499","30","yes","1024"
"90.3225806451613","90.3225806451613","450.61290322580646","450.61290322580646","black","legacy","legacy","legacy","0","incongruent","uniform","1","undefined","1","h","0","0","0","0","30","0","0","0","30","0","30","30","30","30","30","30","Tue Sep 21 08:32:56 2021","1500","The main experiment item","yes","FlankerTask.osexp","C:/Users/warne/OneDrive/Documents/Tarleton - MS Applied Psychology/Adv Quantitative Methods and Experimental Design/Labs","no","mono","no","18","no","white","no","yes","768","legacy","30","30","C:/Users/warne/OneDrive/Documents/Tarleton - MS Applied Psychology/Adv Quantitative Methods and Experimental Design/Labs/AV-subject-4.csv","legacy","Lentiform Loewenfeld","3.3.9","0","h","NA","s","NA","NA","h","470","NA","47885","NA","NA","470","2","legacy","1024","2","48000","-16","experiment","SSHSS","4","even","50482","NA","NA","NA","99504","2596","NA","NA","72997","2588","NA","100560","100664","101135","100558","100664","Flanker Task","28","13969","31","yes","1024"
"90.625","90.625","454.875","454.875","black","legacy","legacy","legacy","0","incongruent","uniform","1","undefined","1","h","0","0","0","0","31","0","0","0","31","0","31","31","31","31","31","31","Tue Sep 21 08:32:56 2021","1500","The main experiment item","yes","FlankerTask.osexp","C:/Users/warne/OneDrive/Documents/Tarleton - MS Applied Psychology/Adv Quantitative Methods and Experimental Design/Labs","no","mono","no","18","no","white","no","yes","768","legacy","31","31","C:/Users/warne/OneDrive/Documents/Tarleton - MS Applied Psychology/Adv Quantitative Methods and Experimental Design/Labs/AV-subject-4.csv","legacy","Lentiform Loewenfeld","3.3.9","0","h","NA","s","NA","NA","h","587","NA","47885","NA","NA","587","2","legacy","1024","2","48000","-16","experiment","SSHSS","4","even","50482","NA","NA","NA","101140","2596","NA","NA","72997","2588","NA","102198","102302","102889","102196","102302","Flanker Task","29","14556","32","yes","1024"
"90.9090909090909","90.9090909090909","455.75757575757575","455.75757575757575","black","legacy","legacy","legacy","0","congruent","uniform","1","undefined","1","h","0","0","0","0","32","0","0","0","32","0","32","32","32","32","32","32","Tue Sep 21 08:32:56 2021","1500","The main experiment item","yes","FlankerTask.osexp","C:/Users/warne/OneDrive/Documents/Tarleton - MS Applied Psychology/Adv Quantitative Methods and Experimental Design/Labs","no","mono","no","18","no","white","no","yes","768","legacy","32","32","C:/Users/warne/OneDrive/Documents/Tarleton - MS Applied Psychology/Adv Quantitative Methods and Experimental Design/Labs/AV-subject-4.csv","legacy","Lentiform Loewenfeld","3.3.9","0","h","NA","s","NA","NA","h","484","NA","47885","NA","NA","484","2","legacy","1024","2","48000","-16","experiment","HHHHH","4","even","50482","NA","NA","NA","102892","2596","NA","NA","72997","2588","NA","103950","104055","104540","103948","104055","Flanker Task","30","15040","33","yes","1024"
"91.17647058823529","91.17647058823529","454.4117647058824","454.4117647058824","black","legacy","legacy","legacy","0","congruent","uniform","1","undefined","1","h","0","0","0","0","33","0","0","0","33","0","33","33","33","33","33","33","Tue Sep 21 08:32:56 2021","1500","The main experiment item","yes","FlankerTask.osexp","C:/Users/warne/OneDrive/Documents/Tarleton - MS Applied Psychology/Adv Quantitative Methods and Experimental Design/Labs","no","mono","no","18","no","white","no","yes","768","legacy","33","33","C:/Users/warne/OneDrive/Documents/Tarleton - MS Applied Psychology/Adv Quantitative Methods and Experimental Design/Labs/AV-subject-4.csv","legacy","Lentiform Loewenfeld","3.3.9","0","h","NA","s","NA","NA","h","410","NA","47885","NA","NA","410","2","legacy","1024","2","48000","-16","experiment","HHHHH","4","even","50482","NA","NA","NA","104544","2596","NA","NA","72997","2588","NA","105600","105704","106115","105599","105704","Flanker Task","31","15450","34","yes","1024"
"91.42857142857143","91.42857142857143","452.2857142857143","452.2857142857143","black","legacy","legacy","legacy","0","congruent","uniform","1","undefined","1","s","0","0","0","0","34","0","0","0","34","0","34","34","34","34","34","34","Tue Sep 21 08:32:56 2021","1500","The main experiment item","yes","FlankerTask.osexp","C:/Users/warne/OneDrive/Documents/Tarleton - MS Applied Psychology/Adv Quantitative Methods and Experimental Design/Labs","no","mono","no","18","no","white","no","yes","768","legacy","34","34","C:/Users/warne/OneDrive/Documents/Tarleton - MS Applied Psychology/Adv Quantitative Methods and Experimental Design/Labs/AV-subject-4.csv","legacy","Lentiform Loewenfeld","3.3.9","0","s","NA","s","NA","NA","s","380","NA","47885","NA","NA","380","2","legacy","1024","2","48000","-16","experiment","SSSSS","4","even","50482","NA","NA","NA","106120","2596","NA","NA","72997","2588","NA","107178","107279","107660","107176","107279","Flanker Task","32","15830","35","yes","1024"
"91.66666666666667","91.66666666666667","450.6388888888889","450.6388888888889","black","legacy","legacy","legacy","0","congruent","uniform","1","undefined","1","h","0","0","0","0","35","0","0","0","35","0","35","35","35","35","35","35","Tue Sep 21 08:32:56 2021","1500","The main experiment item","yes","FlankerTask.osexp","C:/Users/warne/OneDrive/Documents/Tarleton - MS Applied Psychology/Adv Quantitative Methods and Experimental Design/Labs","no","mono","no","18","no","white","no","yes","768","legacy","35","35","C:/Users/warne/OneDrive/Documents/Tarleton - MS Applied Psychology/Adv Quantitative Methods and Experimental Design/Labs/AV-subject-4.csv","legacy","Lentiform Loewenfeld","3.3.9","0","h","NA","s","NA","NA","h","393","NA","47885","NA","NA","393","2","legacy","1024","2","48000","-16","experiment","HHHHH","4","even","50482","NA","NA","NA","107665","2596","NA","NA","72997","2588","NA","108722","108826","109219","108720","108826","Flanker Task","33","16223","36","yes","1024"
"91.89189189189189","91.89189189189189","450.7837837837838","450.7837837837838","black","legacy","legacy","legacy","0","incongruent","uniform","1","undefined","1","h","0","0","0","0","36","0","0","0","36","0","36","36","36","36","36","36","Tue Sep 21 08:32:56 2021","1500","The main experiment item","yes","FlankerTask.osexp","C:/Users/warne/OneDrive/Documents/Tarleton - MS Applied Psychology/Adv Quantitative Methods and Experimental Design/Labs","no","mono","no","18","no","white","no","yes","768","legacy","36","36","C:/Users/warne/OneDrive/Documents/Tarleton - MS Applied Psychology/Adv Quantitative Methods and Experimental Design/Labs/AV-subject-4.csv","legacy","Lentiform Loewenfeld","3.3.9","0","h","NA","s","NA","NA","h","456","NA","47885","NA","NA","456","2","legacy","1024","2","48000","-16","experiment","SSHSS","4","even","50482","NA","NA","NA","109224","2596","NA","NA","72997","2588","NA","110282","110383","110840","110280","110383","Flanker Task","34","16679","37","yes","1024"
"92.10526315789474","92.10526315789474","452.36842105263156","452.36842105263156","black","legacy","legacy","legacy","0","incongruent","uniform","1","undefined","1","h","0","0","0","0","37","0","0","0","37","0","37","37","37","37","37","37","Tue Sep 21 08:32:56 2021","1500","The main experiment item","yes","FlankerTask.osexp","C:/Users/warne/OneDrive/Documents/Tarleton - MS Applied Psychology/Adv Quantitative Methods and Experimental Design/Labs","no","mono","no","18","no","white","no","yes","768","legacy","37","37","C:/Users/warne/OneDrive/Documents/Tarleton - MS Applied Psychology/Adv Quantitative Methods and Experimental Design/Labs/AV-subject-4.csv","legacy","Lentiform Loewenfeld","3.3.9","0","h","NA","s","NA","NA","h","511","NA","47885","NA","NA","511","2","legacy","1024","2","48000","-16","experiment","SSHSS","4","even","50482","NA","NA","NA","110844","2596","NA","NA","72997","2588","NA","111903","112008","112520","111901","112008","Flanker Task","35","17190","38","yes","1024"
"92.3076923076923","92.3076923076923","451.2564102564103","451.2564102564103","black","legacy","legacy","legacy","0","congruent","uniform","1","undefined","1","s","0","0","0","0","38","0","0","0","38","0","38","38","38","38","38","38","Tue Sep 21 08:32:56 2021","1500","The main experiment item","yes","FlankerTask.osexp","C:/Users/warne/OneDrive/Documents/Tarleton - MS Applied Psychology/Adv Quantitative Methods and Experimental Design/Labs","no","mono","no","18","no","white","no","yes","768","legacy","38","38","C:/Users/warne/OneDrive/Documents/Tarleton - MS Applied Psychology/Adv Quantitative Methods and Experimental Design/Labs/AV-subject-4.csv","legacy","Lentiform Loewenfeld","3.3.9","0","s","NA","s","NA","NA","s","409","NA","47885","NA","NA","409","2","legacy","1024","2","48000","-16","experiment","SSSSS","4","even","50482","NA","NA","NA","112523","2596","NA","NA","72997","2588","NA","113581","113685","114095","113579","113685","Flanker Task","36","17599","39","yes","1024"
"92.5","92.5","450.875","450.875","black","legacy","legacy","legacy","0","congruent","uniform","1","undefined","1","h","0","0","0","0","39","0","0","0","39","0","39","39","39","39","39","39","Tue Sep 21 08:32:56 2021","1500","The main experiment item","yes","FlankerTask.osexp","C:/Users/warne/OneDrive/Documents/Tarleton - MS Applied Psychology/Adv Quantitative Methods and Experimental Design/Labs","no","mono","no","18","no","white","no","yes","768","legacy","39","39","C:/Users/warne/OneDrive/Documents/Tarleton - MS Applied Psychology/Adv Quantitative Methods and Experimental Design/Labs/AV-subject-4.csv","legacy","Lentiform Loewenfeld","3.3.9","0","h","NA","s","NA","NA","h","436","NA","47885","NA","NA","436","2","legacy","1024","2","48000","-16","experiment","HHHHH","4","even","50482","NA","NA","NA","114100","2596","NA","NA","72997","2588","NA","115158","115263","115700","115156","115263","Flanker Task","37","18035","40","yes","1024"
"92.6829268292683","92.6829268292683","448.780487804878","448.780487804878","black","legacy","legacy","legacy","0","congruent","uniform","1","undefined","1","s","0","0","0","0","40","0","0","0","40","0","40","40","40","40","40","40","Tue Sep 21 08:32:56 2021","1500","The main experiment item","yes","FlankerTask.osexp","C:/Users/warne/OneDrive/Documents/Tarleton - MS Applied Psychology/Adv Quantitative Methods and Experimental Design/Labs","no","mono","no","18","no","white","no","yes","768","legacy","40","40","C:/Users/warne/OneDrive/Documents/Tarleton - MS Applied Psychology/Adv Quantitative Methods and Experimental Design/Labs/AV-subject-4.csv","legacy","Lentiform Loewenfeld","3.3.9","0","s","NA","s","NA","NA","s","365","NA","47885","NA","NA","365","2","legacy","1024","2","48000","-16","experiment","SSSSS","4","even","50482","NA","NA","NA","115705","2596","NA","NA","72997","2588","NA","116763","116864","117230","116761","116864","Flanker Task","38","18400","41","yes","1024"
"92.85714285714286","92.85714285714286","446.8095238095238","446.8095238095238","black","legacy","legacy","legacy","0","congruent","uniform","1","undefined","1","s","0","0","0","0","41","0","0","0","41","0","41","41","41","41","41","41","Tue Sep 21 08:32:56 2021","1500","The main experiment item","yes","FlankerTask.osexp","C:/Users/warne/OneDrive/Documents/Tarleton - MS Applied Psychology/Adv Quantitative Methods and Experimental Design/Labs","no","mono","no","18","no","white","no","yes","768","legacy","41","41","C:/Users/warne/OneDrive/Documents/Tarleton - MS Applied Psychology/Adv Quantitative Methods and Experimental Design/Labs/AV-subject-4.csv","legacy","Lentiform Loewenfeld","3.3.9","0","s","NA","s","NA","NA","s","366","NA","47885","NA","NA","366","2","legacy","1024","2","48000","-16","experiment","SSSSS","4","even","50482","NA","NA","NA","117235","2596","NA","NA","72997","2588","NA","118292","118394","118760","118290","118394","Flanker Task","39","18766","42","yes","1024"
"93.02325581395348","93.02325581395348","447.6511627906977","447.6511627906977","black","legacy","legacy","legacy","0","incongruent","uniform","1","undefined","1","h","0","0","0","0","42","0","0","0","42","0","42","42","42","42","42","42","Tue Sep 21 08:32:56 2021","1500","The main experiment item","yes","FlankerTask.osexp","C:/Users/warne/OneDrive/Documents/Tarleton - MS Applied Psychology/Adv Quantitative Methods and Experimental Design/Labs","no","mono","no","18","no","white","no","yes","768","legacy","42","42","C:/Users/warne/OneDrive/Documents/Tarleton - MS Applied Psychology/Adv Quantitative Methods and Experimental Design/Labs/AV-subject-4.csv","legacy","Lentiform Loewenfeld","3.3.9","0","h","NA","s","NA","NA","h","483","NA","47885","NA","NA","483","2","legacy","1024","2","48000","-16","experiment","SSHSS","4","even","50482","NA","NA","NA","118765","2596","NA","NA","72997","2588","NA","119822","119927","120410","119821","119927","Flanker Task","40","19249","43","yes","1024"
"93.18181818181819","93.18181818181819","447.4318181818182","447.4318181818182","black","legacy","legacy","legacy","0","congruent","uniform","1","undefined","1","s","0","0","0","0","43","0","0","0","43","0","43","43","43","43","43","43","Tue Sep 21 08:32:56 2021","1500","The main experiment item","yes","FlankerTask.osexp","C:/Users/warne/OneDrive/Documents/Tarleton - MS Applied Psychology/Adv Quantitative Methods and Experimental Design/Labs","no","mono","no","18","no","white","no","yes","768","legacy","43","43","C:/Users/warne/OneDrive/Documents/Tarleton - MS Applied Psychology/Adv Quantitative Methods and Experimental Design/Labs/AV-subject-4.csv","legacy","Lentiform Loewenfeld","3.3.9","0","s","NA","s","NA","NA","s","438","NA","47885","NA","NA","438","2","legacy","1024","2","48000","-16","experiment","SSSSS","4","even","50482","NA","NA","NA","120415","2596","NA","NA","72997","2588","NA","121471","121576","122014","121469","121576","Flanker Task","41","19687","44","yes","1024"
"93.33333333333333","93.33333333333333","447.26666666666665","447.26666666666665","black","legacy","legacy","legacy","0","incongruent","uniform","1","undefined","1","h","0","0","0","0","44","0","0","0","44","0","44","44","44","44","44","44","Tue Sep 21 08:32:56 2021","1500","The main experiment item","yes","FlankerTask.osexp","C:/Users/warne/OneDrive/Documents/Tarleton - MS Applied Psychology/Adv Quantitative Methods and Experimental Design/Labs","no","mono","no","18","no","white","no","yes","768","legacy","44","44","C:/Users/warne/OneDrive/Documents/Tarleton - MS Applied Psychology/Adv Quantitative Methods and Experimental Design/Labs/AV-subject-4.csv","legacy","Lentiform Loewenfeld","3.3.9","0","h","NA","s","NA","NA","h","440","NA","47885","NA","NA","440","2","legacy","1024","2","48000","-16","experiment","SSHSS","4","even","50482","NA","NA","NA","122018","2596","NA","NA","72997","2588","NA","123076","123180","123620","123074","123180","Flanker Task","42","20127","45","yes","1024"
"93.47826086956522","93.47826086956522","446.1304347826087","446.1304347826087","black","legacy","legacy","legacy","0","congruent","uniform","1","undefined","1","s","0","0","0","0","45","0","0","0","45","0","45","45","45","45","45","45","Tue Sep 21 08:32:56 2021","1500","The main experiment item","yes","FlankerTask.osexp","C:/Users/warne/OneDrive/Documents/Tarleton - MS Applied Psychology/Adv Quantitative Methods and Experimental Design/Labs","no","mono","no","18","no","white","no","yes","768","legacy","45","45","C:/Users/warne/OneDrive/Documents/Tarleton - MS Applied Psychology/Adv Quantitative Methods and Experimental Design/Labs/AV-subject-4.csv","legacy","Lentiform Loewenfeld","3.3.9","0","s","NA","s","NA","NA","s","395","NA","47885","NA","NA","395","2","legacy","1024","2","48000","-16","experiment","SSSSS","4","even","50482","NA","NA","NA","123625","2596","NA","NA","72997","2588","NA","124683","124784","125180","124681","124784","Flanker Task","43","20522","46","yes","1024"
"93.61702127659575","93.61702127659575","446.5744680851064","446.5744680851064","black","legacy","legacy","legacy","0","incongruent","uniform","1","undefined","1","h","0","0","0","0","46","0","0","0","46","0","46","46","46","46","46","46","Tue Sep 21 08:32:56 2021","1500","The main experiment item","yes","FlankerTask.osexp","C:/Users/warne/OneDrive/Documents/Tarleton - MS Applied Psychology/Adv Quantitative Methods and Experimental Design/Labs","no","mono","no","18","no","white","no","yes","768","legacy","46","46","C:/Users/warne/OneDrive/Documents/Tarleton - MS Applied Psychology/Adv Quantitative Methods and Experimental Design/Labs/AV-subject-4.csv","legacy","Lentiform Loewenfeld","3.3.9","0","h","NA","s","NA","NA","h","467","NA","47885","NA","NA","467","2","legacy","1024","2","48000","-16","experiment","SSHSS","4","even","50482","NA","NA","NA","125185","2596","NA","NA","72997","2588","NA","126243","126348","126815","126241","126347","Flanker Task","44","20989","47","yes","1024"
"93.75","93.75","450.125","450.125","black","legacy","legacy","legacy","0","incongruent","uniform","1","undefined","1","h","0","0","0","0","47","0","0","0","47","0","47","47","47","47","47","47","Tue Sep 21 08:32:56 2021","1500","The main experiment item","yes","FlankerTask.osexp","C:/Users/warne/OneDrive/Documents/Tarleton - MS Applied Psychology/Adv Quantitative Methods and Experimental Design/Labs","no","mono","no","18","no","white","no","yes","768","legacy","47","47","C:/Users/warne/OneDrive/Documents/Tarleton - MS Applied Psychology/Adv Quantitative Methods and Experimental Design/Labs/AV-subject-4.csv","legacy","Lentiform Loewenfeld","3.3.9","0","h","NA","s","NA","NA","h","617","NA","47885","NA","NA","617","2","legacy","1024","2","48000","-16","experiment","SSHSS","4","even","50482","NA","NA","NA","126821","2596","NA","NA","72997","2588","NA","127879","127983","128600","127877","127983","Flanker Task","45","21606","48","yes","1024"
"91.83673469387755","91.83673469387755","447.734693877551","447.734693877551","black","legacy","legacy","legacy","0","incongruent","uniform","0","undefined","0","h","0","0","0","0","48","0","0","0","48","0","48","48","48","48","48","48","Tue Sep 21 08:32:56 2021","1500","The main experiment item","yes","FlankerTask.osexp","C:/Users/warne/OneDrive/Documents/Tarleton - MS Applied Psychology/Adv Quantitative Methods and Experimental Design/Labs","no","mono","no","18","no","white","no","yes","768","legacy","48","48","C:/Users/warne/OneDrive/Documents/Tarleton - MS Applied Psychology/Adv Quantitative Methods and Experimental Design/Labs/AV-subject-4.csv","legacy","Lentiform Loewenfeld","3.3.9","0","s","NA","s","NA","NA","s","333","NA","47885","NA","NA","333","2","legacy","1024","2","48000","-16","experiment","SSHSS","4","even","50482","NA","NA","NA","128605","2596","NA","NA","72997","2588","NA","129663","129767","130100","129661","129767","Flanker Task","45","21939","49","yes","1024"
"92","92","449.3","449.3","black","legacy","legacy","legacy","0","incongruent","uniform","1","undefined","1","s","0","0","0","0","49","0","0","0","49","0","49","49","49","49","49","49","Tue Sep 21 08:32:56 2021","1500","The main experiment item","yes","FlankerTask.osexp","C:/Users/warne/OneDrive/Documents/Tarleton - MS Applied Psychology/Adv Quantitative Methods and Experimental Design/Labs","no","mono","no","18","no","white","no","yes","768","legacy","49","49","C:/Users/warne/OneDrive/Documents/Tarleton - MS Applied Psychology/Adv Quantitative Methods and Experimental Design/Labs/AV-subject-4.csv","legacy","Lentiform Loewenfeld","3.3.9","0","s","NA","s","NA","NA","s","526","NA","47885","NA","NA","526","2","legacy","1024","2","48000","-16","experiment","HHSHH","4","even","50482","NA","NA","NA","130605","2596","NA","NA","130104","2588","NA","131663","131768","132294","131661","131768","Flanker Task","46","22465","50","yes","1024"
"92.15686274509804","92.15686274509804","449.2352941176471","449.2352941176471","black","legacy","legacy","legacy","0","congruent","uniform","1","undefined","1","h","0","0","0","0","50","0","0","0","50","0","50","50","50","50","50","50","Tue Sep 21 08:32:56 2021","1500","The main experiment item","yes","FlankerTask.osexp","C:/Users/warne/OneDrive/Documents/Tarleton - MS Applied Psychology/Adv Quantitative Methods and Experimental Design/Labs","no","mono","no","18","no","white","no","yes","768","legacy","50","50","C:/Users/warne/OneDrive/Documents/Tarleton - MS Applied Psychology/Adv Quantitative Methods and Experimental Design/Labs/AV-subject-4.csv","legacy","Lentiform Loewenfeld","3.3.9","0","h","NA","s","NA","NA","h","446","NA","47885","NA","NA","446","2","legacy","1024","2","48000","-16","experiment","HHHHH","4","even","50482","NA","NA","NA","132302","2596","NA","NA","130104","2588","NA","133360","133464","133910","133358","133464","Flanker Task","47","22911","51","yes","1024"
"92.3076923076923","92.3076923076923","449.88461538461536","449.88461538461536","black","legacy","legacy","legacy","0","incongruent","uniform","1","undefined","1","s","0","0","0","0","51","0","0","0","51","0","51","51","51","51","51","51","Tue Sep 21 08:32:56 2021","1500","The main experiment item","yes","FlankerTask.osexp","C:/Users/warne/OneDrive/Documents/Tarleton - MS Applied Psychology/Adv Quantitative Methods and Experimental Design/Labs","no","mono","no","18","no","white","no","yes","768","legacy","51","51","C:/Users/warne/OneDrive/Documents/Tarleton - MS Applied Psychology/Adv Quantitative Methods and Experimental Design/Labs/AV-subject-4.csv","legacy","Lentiform Loewenfeld","3.3.9","0","s","NA","s","NA","NA","s","483","NA","47885","NA","NA","483","2","legacy","1024","2","48000","-16","experiment","HHSHH","4","even","50482","NA","NA","NA","133915","2596","NA","NA","130104","2588","NA","134973","135077","135561","134971","135077","Flanker Task","48","23394","52","yes","1024"
"92.45283018867924","92.45283018867924","453.35849056603774","453.35849056603774","black","legacy","legacy","legacy","0","congruent","uniform","1","undefined","1","s","0","0","0","0","52","0","0","0","52","0","52","52","52","52","52","52","Tue Sep 21 08:32:56 2021","1500","The main experiment item","yes","FlankerTask.osexp","C:/Users/warne/OneDrive/Documents/Tarleton - MS Applied Psychology/Adv Quantitative Methods and Experimental Design/Labs","no","mono","no","18","no","white","no","yes","768","legacy","52","52","C:/Users/warne/OneDrive/Documents/Tarleton - MS Applied Psychology/Adv Quantitative Methods and Experimental Design/Labs/AV-subject-4.csv","legacy","Lentiform Loewenfeld","3.3.9","0","s","NA","s","NA","NA","s","634","NA","47885","NA","NA","634","2","legacy","1024","2","48000","-16","experiment","SSSSS","4","even","50482","NA","NA","NA","135564","2596","NA","NA","130104","2588","NA","136621","136725","137360","136619","136725","Flanker Task","49","24028","53","yes","1024"
"92.5925925925926","92.5925925925926","455.0925925925926","455.0925925925926","black","legacy","legacy","legacy","0","incongruent","uniform","1","undefined","1","h","0","0","0","0","53","0","0","0","53","0","53","53","53","53","53","53","Tue Sep 21 08:32:56 2021","1500","The main experiment item","yes","FlankerTask.osexp","C:/Users/warne/OneDrive/Documents/Tarleton - MS Applied Psychology/Adv Quantitative Methods and Experimental Design/Labs","no","mono","no","18","no","white","no","yes","768","legacy","53","53","C:/Users/warne/OneDrive/Documents/Tarleton - MS Applied Psychology/Adv Quantitative Methods and Experimental Design/Labs/AV-subject-4.csv","legacy","Lentiform Loewenfeld","3.3.9","0","h","NA","s","NA","NA","h","547","NA","47885","NA","NA","547","2","legacy","1024","2","48000","-16","experiment","SSHSS","4","even","50482","NA","NA","NA","137365","2596","NA","NA","130104","2588","NA","138421","138523","139071","138419","138523","Flanker Task","50","24575","54","yes","1024"
"92.72727272727273","92.72727272727273","454.4909090909091","454.4909090909091","black","legacy","legacy","legacy","0","congruent","uniform","1","undefined","1","s","0","0","0","0","54","0","0","0","54","0","54","54","54","54","54","54","Tue Sep 21 08:32:56 2021","1500","The main experiment item","yes","FlankerTask.osexp","C:/Users/warne/OneDrive/Documents/Tarleton - MS Applied Psychology/Adv Quantitative Methods and Experimental Design/Labs","no","mono","no","18","no","white","no","yes","768","legacy","54","54","C:/Users/warne/OneDrive/Documents/Tarleton - MS Applied Psychology/Adv Quantitative Methods and Experimental Design/Labs/AV-subject-4.csv","legacy","Lentiform Loewenfeld","3.3.9","0","s","NA","s","NA","NA","s","422","NA","47885","NA","NA","422","2","legacy","1024","2","48000","-16","experiment","SSSSS","4","even","50482","NA","NA","NA","139075","2596","NA","NA","130104","2588","NA","140133","140238","140661","140131","140238","Flanker Task","51","24997","55","yes","1024"
"92.85714285714286","92.85714285714286","453.92857142857144","453.92857142857144","black","legacy","legacy","legacy","0","congruent","uniform","1","undefined","1","s","0","0","0","0","55","0","0","0","55","0","55","55","55","55","55","55","Tue Sep 21 08:32:56 2021","1500","The main experiment item","yes","FlankerTask.osexp","C:/Users/warne/OneDrive/Documents/Tarleton - MS Applied Psychology/Adv Quantitative Methods and Experimental Design/Labs","no","mono","no","18","no","white","no","yes","768","legacy","55","55","C:/Users/warne/OneDrive/Documents/Tarleton - MS Applied Psychology/Adv Quantitative Methods and Experimental Design/Labs/AV-subject-4.csv","legacy","Lentiform Loewenfeld","3.3.9","0","s","NA","s","NA","NA","s","423","NA","47885","NA","NA","423","2","legacy","1024","2","48000","-16","experiment","SSSSS","4","even","50482","NA","NA","NA","140665","2596","NA","NA","130104","2588","NA","141722","141827","142250","141720","141827","Flanker Task","52","25420","56","yes","1024"
"92.98245614035088","92.98245614035088","453.96491228070175","453.96491228070175","black","legacy","legacy","legacy","0","congruent","uniform","1","undefined","1","h","0","0","0","0","56","0","0","0","56","0","56","56","56","56","56","56","Tue Sep 21 08:32:56 2021","1500","The main experiment item","yes","FlankerTask.osexp","C:/Users/warne/OneDrive/Documents/Tarleton - MS Applied Psychology/Adv Quantitative Methods and Experimental Design/Labs","no","mono","no","18","no","white","no","yes","768","legacy","56","56","C:/Users/warne/OneDrive/Documents/Tarleton - MS Applied Psychology/Adv Quantitative Methods and Experimental Design/Labs/AV-subject-4.csv","legacy","Lentiform Loewenfeld","3.3.9","0","h","NA","s","NA","NA","h","456","NA","47885","NA","NA","456","2","legacy","1024","2","48000","-16","experiment","HHHHH","4","even","50482","NA","NA","NA","142255","2596","NA","NA","130104","2588","NA","143313","143414","143871","143312","143414","Flanker Task","53","25876","57","yes","1024"
"93.10344827586206","93.10344827586206","459.6551724137931","459.6551724137931","black","legacy","legacy","legacy","0","incongruent","uniform","1","undefined","1","s","0","0","0","0","57","0","0","0","57","0","57","57","57","57","57","57","Tue Sep 21 08:32:56 2021","1500","The main experiment item","yes","FlankerTask.osexp","C:/Users/warne/OneDrive/Documents/Tarleton - MS Applied Psychology/Adv Quantitative Methods and Experimental Design/Labs","no","mono","no","18","no","white","no","yes","768","legacy","57","57","C:/Users/warne/OneDrive/Documents/Tarleton - MS Applied Psychology/Adv Quantitative Methods and Experimental Design/Labs/AV-subject-4.csv","legacy","Lentiform Loewenfeld","3.3.9","0","s","NA","s","NA","NA","s","784","NA","47885","NA","NA","784","2","legacy","1024","2","48000","-16","experiment","HHSHH","4","even","50482","NA","NA","NA","143874","2596","NA","NA","130104","2588","NA","144932","145036","145820","144930","145036","Flanker Task","54","26660","58","yes","1024"
"93.22033898305085","93.22033898305085","459.03389830508473","459.03389830508473","black","legacy","legacy","legacy","0","congruent","uniform","1","undefined","1","s","0","0","0","0","58","0","0","0","58","0","58","58","58","58","58","58","Tue Sep 21 08:32:56 2021","1500","The main experiment item","yes","FlankerTask.osexp","C:/Users/warne/OneDrive/Documents/Tarleton - MS Applied Psychology/Adv Quantitative Methods and Experimental Design/Labs","no","mono","no","18","no","white","no","yes","768","legacy","58","58","C:/Users/warne/OneDrive/Documents/Tarleton - MS Applied Psychology/Adv Quantitative Methods and Experimental Design/Labs/AV-subject-4.csv","legacy","Lentiform Loewenfeld","3.3.9","0","s","NA","s","NA","NA","s","423","NA","47885","NA","NA","423","2","legacy","1024","2","48000","-16","experiment","SSSSS","4","even","50482","NA","NA","NA","145824","2596","NA","NA","130104","2588","NA","146882","146987","147411","146880","146987","Flanker Task","55","27083","59","yes","1024"
"91.66666666666667","91.66666666666667","462.6666666666667","462.6666666666667","black","legacy","legacy","legacy","0","incongruent","uniform","0","undefined","0","h","0","0","0","0","59","0","0","0","59","0","59","59","59","59","59","59","Tue Sep 21 08:32:56 2021","1500","The main experiment item","yes","FlankerTask.osexp","C:/Users/warne/OneDrive/Documents/Tarleton - MS Applied Psychology/Adv Quantitative Methods and Experimental Design/Labs","no","mono","no","18","no","white","no","yes","768","legacy","59","59","C:/Users/warne/OneDrive/Documents/Tarleton - MS Applied Psychology/Adv Quantitative Methods and Experimental Design/Labs/AV-subject-4.csv","legacy","Lentiform Loewenfeld","3.3.9","0","s","NA","s","NA","NA","s","677","NA","47885","NA","NA","677","2","legacy","1024","2","48000","-16","experiment","SSHSS","4","even","50482","NA","NA","NA","147415","2596","NA","NA","130104","2588","NA","148473","148578","149256","148471","148578","Flanker Task","55","27760","60","yes","1024"
"91.80327868852459","91.80327868852459","471.344262295082","471.344262295082","black","legacy","legacy","legacy","0","congruent","uniform","1","undefined","1","h","0","0","0","0","60","0","0","0","60","0","60","60","60","60","60","60","Tue Sep 21 08:32:56 2021","1500","The main experiment item","yes","FlankerTask.osexp","C:/Users/warne/OneDrive/Documents/Tarleton - MS Applied Psychology/Adv Quantitative Methods and Experimental Design/Labs","no","mono","no","18","no","white","no","yes","768","legacy","60","60","C:/Users/warne/OneDrive/Documents/Tarleton - MS Applied Psychology/Adv Quantitative Methods and Experimental Design/Labs/AV-subject-4.csv","legacy","Lentiform Loewenfeld","3.3.9","0","h","NA","s","NA","NA","h","992","NA","47885","NA","NA","992","2","legacy","1024","2","48000","-16","experiment","HHHHH","4","even","50482","NA","NA","NA","149760","2596","NA","NA","149259","2588","NA","150818","150922","151914","150816","150922","Flanker Task","56","28752","61","yes","1024"
"91.93548387096774","91.93548387096774","471.46774193548384","471.46774193548384","black","legacy","legacy","legacy","0","congruent","uniform","1","undefined","1","s","0","0","0","0","61","0","0","0","61","0","61","61","61","61","61","61","Tue Sep 21 08:32:56 2021","1500","The main experiment item","yes","FlankerTask.osexp","C:/Users/warne/OneDrive/Documents/Tarleton - MS Applied Psychology/Adv Quantitative Methods and Experimental Design/Labs","no","mono","no","18","no","white","no","yes","768","legacy","61","61","C:/Users/warne/OneDrive/Documents/Tarleton - MS Applied Psychology/Adv Quantitative Methods and Experimental Design/Labs/AV-subject-4.csv","legacy","Lentiform Loewenfeld","3.3.9","0","s","NA","s","NA","NA","s","479","NA","47885","NA","NA","479","2","legacy","1024","2","48000","-16","experiment","SSSSS","4","even","50482","NA","NA","NA","151918","2596","NA","NA","149259","2588","NA","152976","153080","153560","152974","153080","Flanker Task","57","29231","62","yes","1024"
"90.47619047619048","90.47619047619048","468.53968253968253","468.53968253968253","black","legacy","legacy","legacy","0","incongruent","uniform","0","undefined","0","s","0","0","0","0","62","0","0","0","62","0","62","62","62","62","62","62","Tue Sep 21 08:32:56 2021","1500","The main experiment item","yes","FlankerTask.osexp","C:/Users/warne/OneDrive/Documents/Tarleton - MS Applied Psychology/Adv Quantitative Methods and Experimental Design/Labs","no","mono","no","18","no","white","no","yes","768","legacy","62","62","C:/Users/warne/OneDrive/Documents/Tarleton - MS Applied Psychology/Adv Quantitative Methods and Experimental Design/Labs/AV-subject-4.csv","legacy","Lentiform Loewenfeld","3.3.9","0","h","NA","s","NA","NA","h","287","NA","47885","NA","NA","287","2","legacy","1024","2","48000","-16","experiment","HHSHH","4","even","50482","NA","NA","NA","153565","2596","NA","NA","149259","2588","NA","154623","154728","155016","154621","154728","Flanker Task","57","29518","63","yes","1024"
"90.625","90.625","467.28125","467.28125","black","legacy","legacy","legacy","0","congruent","uniform","1","undefined","1","h","0","0","0","0","63","0","0","0","63","0","63","63","63","63","63","63","Tue Sep 21 08:32:56 2021","1500","The main experiment item","yes","FlankerTask.osexp","C:/Users/warne/OneDrive/Documents/Tarleton - MS Applied Psychology/Adv Quantitative Methods and Experimental Design/Labs","no","mono","no","18","no","white","no","yes","768","legacy","63","63","C:/Users/warne/OneDrive/Documents/Tarleton - MS Applied Psychology/Adv Quantitative Methods and Experimental Design/Labs/AV-subject-4.csv","legacy","Lentiform Loewenfeld","3.3.9","0","h","NA","s","NA","NA","h","388","NA","47885","NA","NA","388","2","legacy","1024","2","48000","-16","experiment","HHHHH","4","even","50482","NA","NA","NA","155522","2596","NA","NA","155021","2588","NA","156578","156682","157071","156576","156682","Flanker Task","58","29906","64","yes","1024"
"90.76923076923077","90.76923076923077","468.66153846153844","468.66153846153844","black","legacy","legacy","legacy","0","incongruent","uniform","1","undefined","1","s","0","0","0","0","64","0","0","0","64","0","64","64","64","64","64","64","Tue Sep 21 08:32:56 2021","1500","The main experiment item","yes","FlankerTask.osexp","C:/Users/warne/OneDrive/Documents/Tarleton - MS Applied Psychology/Adv Quantitative Methods and Experimental Design/Labs","no","mono","no","18","no","white","no","yes","768","legacy","64","64","C:/Users/warne/OneDrive/Documents/Tarleton - MS Applied Psychology/Adv Quantitative Methods and Experimental Design/Labs/AV-subject-4.csv","legacy","Lentiform Loewenfeld","3.3.9","0","s","NA","s","NA","NA","s","557","NA","47885","NA","NA","557","2","legacy","1024","2","48000","-16","experiment","HHSHH","4","even","50482","NA","NA","NA","157076","2596","NA","NA","155021","2588","NA","158133","158238","158796","158131","158238","Flanker Task","59","30463","65","yes","1024"
"90.9090909090909","90.9090909090909","470.0151515151515","470.0151515151515","black","legacy","legacy","legacy","0","incongruent","uniform","1","undefined","1","h","0","0","0","0","65","0","0","0","65","0","65","65","65","65","65","65","Tue Sep 21 08:32:56 2021","1500","The main experiment item","yes","FlankerTask.osexp","C:/Users/warne/OneDrive/Documents/Tarleton - MS Applied Psychology/Adv Quantitative Methods and Experimental Design/Labs","no","mono","no","18","no","white","no","yes","768","legacy","65","65","C:/Users/warne/OneDrive/Documents/Tarleton - MS Applied Psychology/Adv Quantitative Methods and Experimental Design/Labs/AV-subject-4.csv","legacy","Lentiform Loewenfeld","3.3.9","0","h","NA","s","NA","NA","h","558","NA","47885","NA","NA","558","2","legacy","1024","2","48000","-16","experiment","SSHSS","4","even","50482","NA","NA","NA","158800","2596","NA","NA","155021","2588","NA","159857","159962","160521","159855","159962","Flanker Task","60","31021","66","yes","1024"
"91.04477611940298","91.04477611940298","469.95522388059703","469.95522388059703","black","legacy","legacy","legacy","0","incongruent","uniform","1","undefined","1","s","0","0","0","0","66","0","0","0","66","0","66","66","66","66","66","66","Tue Sep 21 08:32:56 2021","1500","The main experiment item","yes","FlankerTask.osexp","C:/Users/warne/OneDrive/Documents/Tarleton - MS Applied Psychology/Adv Quantitative Methods and Experimental Design/Labs","no","mono","no","18","no","white","no","yes","768","legacy","66","66","C:/Users/warne/OneDrive/Documents/Tarleton - MS Applied Psychology/Adv Quantitative Methods and Experimental Design/Labs/AV-subject-4.csv","legacy","Lentiform Loewenfeld","3.3.9","0","s","NA","s","NA","NA","s","466","NA","47885","NA","NA","466","2","legacy","1024","2","48000","-16","experiment","HHSHH","4","even","50482","NA","NA","NA","160529","2596","NA","NA","155021","2588","NA","161587","161689","162156","161585","161689","Flanker Task","61","31487","67","yes","1024"
"91.17647058823529","91.17647058823529","470.3235294117647","470.3235294117647","black","legacy","legacy","legacy","0","incongruent","uniform","1","undefined","1","s","0","0","0","0","67","0","0","0","67","0","67","67","67","67","67","67","Tue Sep 21 08:32:56 2021","1500","The main experiment item","yes","FlankerTask.osexp","C:/Users/warne/OneDrive/Documents/Tarleton - MS Applied Psychology/Adv Quantitative Methods and Experimental Design/Labs","no","mono","no","18","no","white","no","yes","768","legacy","67","67","C:/Users/warne/OneDrive/Documents/Tarleton - MS Applied Psychology/Adv Quantitative Methods and Experimental Design/Labs/AV-subject-4.csv","legacy","Lentiform Loewenfeld","3.3.9","0","s","NA","s","NA","NA","s","495","NA","47885","NA","NA","495","2","legacy","1024","2","48000","-16","experiment","HHSHH","4","even","50482","NA","NA","NA","162162","2596","NA","NA","155021","2588","NA","163219","163325","163821","163217","163325","Flanker Task","62","31982","68","yes","1024"
"91.30434782608695","91.30434782608695","469.40579710144925","469.40579710144925","black","legacy","legacy","legacy","0","congruent","uniform","1","undefined","1","h","0","0","0","0","68","0","0","0","68","0","68","68","68","68","68","68","Tue Sep 21 08:32:56 2021","1500","The main experiment item","yes","FlankerTask.osexp","C:/Users/warne/OneDrive/Documents/Tarleton - MS Applied Psychology/Adv Quantitative Methods and Experimental Design/Labs","no","mono","no","18","no","white","no","yes","768","legacy","68","68","C:/Users/warne/OneDrive/Documents/Tarleton - MS Applied Psychology/Adv Quantitative Methods and Experimental Design/Labs/AV-subject-4.csv","legacy","Lentiform Loewenfeld","3.3.9","0","h","NA","s","NA","NA","h","407","NA","47885","NA","NA","407","2","legacy","1024","2","48000","-16","experiment","HHHHH","4","even","50482","NA","NA","NA","163826","2596","NA","NA","155021","2588","NA","164883","164988","165396","164881","164987","Flanker Task","63","32389","69","yes","1024"
"91.42857142857143","91.42857142857143","469.5857142857143","469.5857142857143","black","legacy","legacy","legacy","0","incongruent","uniform","1","undefined","1","h","0","0","0","0","69","0","0","0","69","0","69","69","69","69","69","69","Tue Sep 21 08:32:56 2021","1500","The main experiment item","yes","FlankerTask.osexp","C:/Users/warne/OneDrive/Documents/Tarleton - MS Applied Psychology/Adv Quantitative Methods and Experimental Design/Labs","no","mono","no","18","no","white","no","yes","768","legacy","69","69","C:/Users/warne/OneDrive/Documents/Tarleton - MS Applied Psychology/Adv Quantitative Methods and Experimental Design/Labs/AV-subject-4.csv","legacy","Lentiform Loewenfeld","3.3.9","0","h","NA","s","NA","NA","h","482","NA","47885","NA","NA","482","2","legacy","1024","2","48000","-16","experiment","SSHSS","4","even","50482","NA","NA","NA","165401","2596","NA","NA","155021","2588","NA","166473","166578","167061","166471","166578","Flanker Task","64","32871","70","yes","1024"
"91.54929577464789","91.54929577464789","469.7887323943662","469.7887323943662","black","legacy","legacy","legacy","0","congruent","uniform","1","undefined","1","h","0","0","0","0","70","0","0","0","70","0","70","70","70","70","70","70","Tue Sep 21 08:32:56 2021","1500","The main experiment item","yes","FlankerTask.osexp","C:/Users/warne/OneDrive/Documents/Tarleton - MS Applied Psychology/Adv Quantitative Methods and Experimental Design/Labs","no","mono","no","18","no","white","no","yes","768","legacy","70","70","C:/Users/warne/OneDrive/Documents/Tarleton - MS Applied Psychology/Adv Quantitative Methods and Experimental Design/Labs/AV-subject-4.csv","legacy","Lentiform Loewenfeld","3.3.9","0","h","NA","s","NA","NA","h","484","NA","47885","NA","NA","484","2","legacy","1024","2","48000","-16","experiment","HHHHH","4","even","50482","NA","NA","NA","167064","2596","NA","NA","155021","2588","NA","168121","168226","168711","168119","168226","Flanker Task","65","33355","71","yes","1024"
"91.66666666666667","91.66666666666667","469.55555555555554","469.55555555555554","black","legacy","legacy","legacy","0","incongruent","uniform","1","undefined","1","h","0","0","0","0","71","0","0","0","71","0","71","71","71","71","71","71","Tue Sep 21 08:32:56 2021","1500","The main experiment item","yes","FlankerTask.osexp","C:/Users/warne/OneDrive/Documents/Tarleton - MS Applied Psychology/Adv Quantitative Methods and Experimental Design/Labs","no","mono","no","18","no","white","no","yes","768","legacy","71","71","C:/Users/warne/OneDrive/Documents/Tarleton - MS Applied Psychology/Adv Quantitative Methods and Experimental Design/Labs/AV-subject-4.csv","legacy","Lentiform Loewenfeld","3.3.9","0","h","NA","s","NA","NA","h","453","NA","47885","NA","NA","453","2","legacy","1024","2","48000","-16","experiment","SSHSS","4","even","50482","NA","NA","NA","168715","2596","NA","NA","155021","2588","NA","169772","169877","170331","169770","169876","Flanker Task","66","33808","72","yes","1024"
"91.78082191780823","91.78082191780823","470.56164383561645","470.56164383561645","black","legacy","legacy","legacy","0","incongruent","uniform","1","undefined","1","s","0","0","0","0","72","0","0","0","72","0","72","72","72","72","72","72","Tue Sep 21 08:32:56 2021","1500","The main experiment item","yes","FlankerTask.osexp","C:/Users/warne/OneDrive/Documents/Tarleton - MS Applied Psychology/Adv Quantitative Methods and Experimental Design/Labs","no","mono","no","18","no","white","no","yes","768","legacy","72","72","C:/Users/warne/OneDrive/Documents/Tarleton - MS Applied Psychology/Adv Quantitative Methods and Experimental Design/Labs/AV-subject-4.csv","legacy","Lentiform Loewenfeld","3.3.9","0","s","NA","s","NA","NA","s","543","NA","47885","NA","NA","543","2","legacy","1024","2","48000","-16","experiment","HHSHH","4","even","50482","NA","NA","NA","170336","2596","NA","NA","155021","2588","NA","171408","171513","172056","171406","171512","Flanker Task","67","34351","73","yes","1024"
"91.89189189189189","91.89189189189189","470.1621621621622","470.1621621621622","black","legacy","legacy","legacy","0","congruent","uniform","1","undefined","1","s","0","0","0","0","73","0","0","0","73","0","73","73","73","73","73","73","Tue Sep 21 08:32:56 2021","1500","The main experiment item","yes","FlankerTask.osexp","C:/Users/warne/OneDrive/Documents/Tarleton - MS Applied Psychology/Adv Quantitative Methods and Experimental Design/Labs","no","mono","no","18","no","white","no","yes","768","legacy","73","73","C:/Users/warne/OneDrive/Documents/Tarleton - MS Applied Psychology/Adv Quantitative Methods and Experimental Design/Labs/AV-subject-4.csv","legacy","Lentiform Loewenfeld","3.3.9","0","s","NA","s","NA","NA","s","441","NA","47885","NA","NA","441","2","legacy","1024","2","48000","-16","experiment","SSSSS","4","even","50482","NA","NA","NA","172061","2596","NA","NA","155021","2588","NA","173118","173219","173661","173116","173219","Flanker Task","68","34792","74","yes","1024"
"92","92","469.53333333333336","469.53333333333336","black","legacy","legacy","legacy","0","congruent","uniform","1","undefined","1","s","0","0","0","0","74","0","0","0","74","0","74","74","74","74","74","74","Tue Sep 21 08:32:56 2021","1500","The main experiment item","yes","FlankerTask.osexp","C:/Users/warne/OneDrive/Documents/Tarleton - MS Applied Psychology/Adv Quantitative Methods and Experimental Design/Labs","no","mono","no","18","no","white","no","yes","768","legacy","74","74","C:/Users/warne/OneDrive/Documents/Tarleton - MS Applied Psychology/Adv Quantitative Methods and Experimental Design/Labs/AV-subject-4.csv","legacy","Lentiform Loewenfeld","3.3.9","0","s","NA","s","NA","NA","s","423","NA","47885","NA","NA","423","2","legacy","1024","2","48000","-16","experiment","SSSSS","4","even","50482","NA","NA","NA","173666","2596","NA","NA","155021","2588","NA","174723","174828","175251","174722","174828","Flanker Task","69","35215","75","yes","1024"
"92.10526315789474","92.10526315789474","471.30263157894734","471.30263157894734","black","legacy","legacy","legacy","0","incongruent","uniform","1","undefined","1","s","0","0","0","0","75","0","0","0","75","0","75","75","75","75","75","75","Tue Sep 21 08:32:56 2021","1500","The main experiment item","yes","FlankerTask.osexp","C:/Users/warne/OneDrive/Documents/Tarleton - MS Applied Psychology/Adv Quantitative Methods and Experimental Design/Labs","no","mono","no","18","no","white","no","yes","768","legacy","75","75","C:/Users/warne/OneDrive/Documents/Tarleton - MS Applied Psychology/Adv Quantitative Methods and Experimental Design/Labs/AV-subject-4.csv","legacy","Lentiform Loewenfeld","3.3.9","0","s","NA","s","NA","NA","s","604","NA","47885","NA","NA","604","2","legacy","1024","2","48000","-16","experiment","HHSHH","4","even","50482","NA","NA","NA","175255","2596","NA","NA","155021","2588","NA","176312","176416","177021","176310","176416","Flanker Task","70","35819","76","yes","1024"
"92.20779220779221","92.20779220779221","472.05194805194805","472.05194805194805","black","legacy","legacy","legacy","0","incongruent","uniform","1","undefined","1","s","0","0","0","0","76","0","0","0","76","0","76","76","76","76","76","76","Tue Sep 21 08:32:56 2021","1500","The main experiment item","yes","FlankerTask.osexp","C:/Users/warne/OneDrive/Documents/Tarleton - MS Applied Psychology/Adv Quantitative Methods and Experimental Design/Labs","no","mono","no","18","no","white","no","yes","768","legacy","76","76","C:/Users/warne/OneDrive/Documents/Tarleton - MS Applied Psychology/Adv Quantitative Methods and Experimental Design/Labs/AV-subject-4.csv","legacy","Lentiform Loewenfeld","3.3.9","0","s","NA","s","NA","NA","s","529","NA","47885","NA","NA","529","2","legacy","1024","2","48000","-16","experiment","HHSHH","4","even","50482","NA","NA","NA","177026","2596","NA","NA","155021","2588","NA","178082","178186","178716","178080","178186","Flanker Task","71","36348","77","yes","1024"
"92.3076923076923","92.3076923076923","473.93589743589746","473.93589743589746","black","legacy","legacy","legacy","0","incongruent","uniform","1","undefined","1","s","0","0","0","0","77","0","0","0","77","0","77","77","77","77","77","77","Tue Sep 21 08:32:56 2021","1500","The main experiment item","yes","FlankerTask.osexp","C:/Users/warne/OneDrive/Documents/Tarleton - MS Applied Psychology/Adv Quantitative Methods and Experimental Design/Labs","no","mono","no","18","no","white","no","yes","768","legacy","77","77","C:/Users/warne/OneDrive/Documents/Tarleton - MS Applied Psychology/Adv Quantitative Methods and Experimental Design/Labs/AV-subject-4.csv","legacy","Lentiform Loewenfeld","3.3.9","0","s","NA","s","NA","NA","s","619","NA","47885","NA","NA","619","2","legacy","1024","2","48000","-16","experiment","HHSHH","4","even","50482","NA","NA","NA","178720","2596","NA","NA","155021","2588","NA","179778","179881","180501","179776","179881","Flanker Task","72","36967","78","yes","1024"
"92.40506329113924","92.40506329113924","474.44303797468353","474.44303797468353","black","legacy","legacy","legacy","0","incongruent","uniform","1","undefined","1","s","0","0","0","0","78","0","0","0","78","0","78","78","78","78","78","78","Tue Sep 21 08:32:56 2021","1500","The main experiment item","yes","FlankerTask.osexp","C:/Users/warne/OneDrive/Documents/Tarleton - MS Applied Psychology/Adv Quantitative Methods and Experimental Design/Labs","no","mono","no","18","no","white","no","yes","768","legacy","78","78","C:/Users/warne/OneDrive/Documents/Tarleton - MS Applied Psychology/Adv Quantitative Methods and Experimental Design/Labs/AV-subject-4.csv","legacy","Lentiform Loewenfeld","3.3.9","0","s","NA","s","NA","NA","s","514","NA","47885","NA","NA","514","2","legacy","1024","2","48000","-16","experiment","HHSHH","4","even","50482","NA","NA","NA","180504","2596","NA","NA","155021","2588","NA","181562","181666","182181","181560","181666","Flanker Task","73","37481","79","yes","1024"
"92.5","92.5","475.7375","475.7375","black","legacy","legacy","legacy","0","incongruent","uniform","1","undefined","1","h","0","0","0","0","79","0","0","0","79","0","79","79","79","79","79","79","Tue Sep 21 08:32:56 2021","1500","The main experiment item","yes","FlankerTask.osexp","C:/Users/warne/OneDrive/Documents/Tarleton - MS Applied Psychology/Adv Quantitative Methods and Experimental Design/Labs","no","mono","no","18","no","white","no","yes","768","legacy","79","79","C:/Users/warne/OneDrive/Documents/Tarleton - MS Applied Psychology/Adv Quantitative Methods and Experimental Design/Labs/AV-subject-4.csv","legacy","Lentiform Loewenfeld","3.3.9","0","h","NA","s","NA","NA","h","578","NA","47885","NA","NA","578","2","legacy","1024","2","48000","-16","experiment","SSHSS","4","even","50482","NA","NA","NA","182186","2596","NA","NA","155021","2588","NA","183255","183357","183936","183253","183357","Flanker Task","74","38059","80","yes","1024"
"92.5925925925926","92.5925925925926","484.2098765432099","484.2098765432099","black","legacy","legacy","legacy","0","congruent","uniform","1","undefined","1","s","0","0","0","0","80","0","0","0","80","0","80","80","80","80","80","80","Tue Sep 21 08:32:56 2021","600","The main experiment item","yes","FlankerTask.osexp","C:/Users/warne/OneDrive/Documents/Tarleton - MS Applied Psychology/Adv Quantitative Methods and Experimental Design/Labs","no","mono","no","18","no","white","no","yes","768","legacy","0","79","C:/Users/warne/OneDrive/Documents/Tarleton - MS Applied Psychology/Adv Quantitative Methods and Experimental Design/Labs/AV-subject-4.csv","legacy","Lentiform Loewenfeld","3.3.9","0","s","NA","s","right altspace","NA","s","1162","NA","47885","5716","NA","1162","2","legacy","1024","2","48000","-16","experiment","SSSSS","4","even","50482","190678","NA","NA","183943","2596","184961","NA","155021","2588","NA","190722","190829","191992","190721","190827","Flanker Task","75","39221","81","yes","1024"
"92.6829268292683","92.6829268292683","484.890243902439","484.890243902439","black","legacy","legacy","legacy","0","incongruent","uniform","1","undefined","1","s","0","0","0","0","81","0","0","0","81","0","81","81","81","81","81","81","Tue Sep 21 08:32:56 2021","600","The main experiment item","yes","FlankerTask.osexp","C:/Users/warne/OneDrive/Documents/Tarleton - MS Applied Psychology/Adv Quantitative Methods and Experimental Design/Labs","no","mono","no","18","no","white","no","yes","768","legacy","1","79","C:/Users/warne/OneDrive/Documents/Tarleton - MS Applied Psychology/Adv Quantitative Methods and Experimental Design/Labs/AV-subject-4.csv","legacy","Lentiform Loewenfeld","3.3.9","0","s","NA","s","right altspace","NA","s","540","NA","47885","5716","NA","540","2","legacy","1024","2","48000","-16","experiment","HHSHH","4","even","50482","190678","NA","NA","192497","2596","184961","NA","155021","2588","191996","193572","193677","194217","193570","193677","Flanker Task","76","39761","82","yes","1024"
"92.7710843373494","92.7710843373494","484.43373493975906","484.43373493975906","black","legacy","legacy","legacy","0","congruent","uniform","1","undefined","1","h","0","0","0","0","82","0","0","0","82","0","82","82","82","82","82","82","Tue Sep 21 08:32:56 2021","600","The main experiment item","yes","FlankerTask.osexp","C:/Users/warne/OneDrive/Documents/Tarleton - MS Applied Psychology/Adv Quantitative Methods and Experimental Design/Labs","no","mono","no","18","no","white","no","yes","768","legacy","2","79","C:/Users/warne/OneDrive/Documents/Tarleton - MS Applied Psychology/Adv Quantitative Methods and Experimental Design/Labs/AV-subject-4.csv","legacy","Lentiform Loewenfeld","3.3.9","0","h","NA","s","right altspace","NA","h","447","NA","47885","5716","NA","447","2","legacy","1024","2","48000","-16","experiment","HHHHH","4","even","50482","190678","NA","NA","194223","2596","184961","NA","155021","2588","191996","195281","195384","195831","195279","195384","Flanker Task","77","40208","83","yes","1024"
"92.85714285714286","92.85714285714286","482.9761904761905","482.9761904761905","black","legacy","legacy","legacy","0","congruent","uniform","1","undefined","1","s","0","0","0","0","83","0","0","0","83","0","83","83","83","83","83","83","Tue Sep 21 08:32:56 2021","600","The main experiment item","yes","FlankerTask.osexp","C:/Users/warne/OneDrive/Documents/Tarleton - MS Applied Psychology/Adv Quantitative Methods and Experimental Design/Labs","no","mono","no","18","no","white","no","yes","768","legacy","3","79","C:/Users/warne/OneDrive/Documents/Tarleton - MS Applied Psychology/Adv Quantitative Methods and Experimental Design/Labs/AV-subject-4.csv","legacy","Lentiform Loewenfeld","3.3.9","0","s","NA","s","right altspace","NA","s","362","NA","47885","5716","NA","362","2","legacy","1024","2","48000","-16","experiment","SSSSS","4","even","50482","190678","NA","NA","195836","2596","184961","NA","155021","2588","191996","196894","196999","197361","196892","196999","Flanker Task","78","40570","84","yes","1024"
"92.94117647058823","92.94117647058823","483.7176470588235","483.7176470588235","black","legacy","legacy","legacy","0","incongruent","uniform","1","undefined","1","s","0","0","0","0","84","0","0","0","84","0","84","84","84","84","84","84","Tue Sep 21 08:32:56 2021","600","The main experiment item","yes","FlankerTask.osexp","C:/Users/warne/OneDrive/Documents/Tarleton - MS Applied Psychology/Adv Quantitative Methods and Experimental Design/Labs","no","mono","no","18","no","white","no","yes","768","legacy","4","79","C:/Users/warne/OneDrive/Documents/Tarleton - MS Applied Psychology/Adv Quantitative Methods and Experimental Design/Labs/AV-subject-4.csv","legacy","Lentiform Loewenfeld","3.3.9","0","s","NA","s","right altspace","NA","s","546","NA","47885","5716","NA","546","2","legacy","1024","2","48000","-16","experiment","HHSHH","4","even","50482","190678","NA","NA","197366","2596","184961","NA","155021","2588","191996","198423","198525","199071","198422","198525","Flanker Task","79","41116","85","yes","1024"
"93.02325581395348","93.02325581395348","481.93023255813955","481.93023255813955","black","legacy","legacy","legacy","0","congruent","uniform","1","undefined","1","s","0","0","0","0","85","0","0","0","85","0","85","85","85","85","85","85","Tue Sep 21 08:32:56 2021","600","The main experiment item","yes","FlankerTask.osexp","C:/Users/warne/OneDrive/Documents/Tarleton - MS Applied Psychology/Adv Quantitative Methods and Experimental Design/Labs","no","mono","no","18","no","white","no","yes","768","legacy","5","79","C:/Users/warne/OneDrive/Documents/Tarleton - MS Applied Psychology/Adv Quantitative Methods and Experimental Design/Labs/AV-subject-4.csv","legacy","Lentiform Loewenfeld","3.3.9","0","s","NA","s","right altspace","NA","s","330","NA","47885","5716","NA","330","2","legacy","1024","2","48000","-16","experiment","SSSSS","4","even","50482","190678","NA","NA","199077","2596","184961","NA","155021","2588","191996","200135","200240","200571","200133","200240","Flanker Task","80","41446","86","yes","1024"
"93.10344827586206","93.10344827586206","481.2528735632184","481.2528735632184","black","legacy","legacy","legacy","0","congruent","uniform","1","undefined","1","h","0","0","0","0","86","0","0","0","86","0","86","86","86","86","86","86","Tue Sep 21 08:32:56 2021","600","The main experiment item","yes","FlankerTask.osexp","C:/Users/warne/OneDrive/Documents/Tarleton - MS Applied Psychology/Adv Quantitative Methods and Experimental Design/Labs","no","mono","no","18","no","white","no","yes","768","legacy","6","79","C:/Users/warne/OneDrive/Documents/Tarleton - MS Applied Psychology/Adv Quantitative Methods and Experimental Design/Labs/AV-subject-4.csv","legacy","Lentiform Loewenfeld","3.3.9","0","h","NA","s","right altspace","NA","h","423","NA","47885","5716","NA","423","2","legacy","1024","2","48000","-16","experiment","HHHHH","4","even","50482","190678","NA","NA","200576","2596","184961","NA","155021","2588","191996","201633","201738","202162","201631","201738","Flanker Task","81","41869","87","yes","1024"
"93.18181818181819","93.18181818181819","480.90909090909093","480.90909090909093","black","legacy","legacy","legacy","0","incongruent","uniform","1","undefined","1","s","0","0","0","0","87","0","0","0","87","0","87","87","87","87","87","87","Tue Sep 21 08:32:56 2021","600","The main experiment item","yes","FlankerTask.osexp","C:/Users/warne/OneDrive/Documents/Tarleton - MS Applied Psychology/Adv Quantitative Methods and Experimental Design/Labs","no","mono","no","18","no","white","no","yes","768","legacy","7","79","C:/Users/warne/OneDrive/Documents/Tarleton - MS Applied Psychology/Adv Quantitative Methods and Experimental Design/Labs/AV-subject-4.csv","legacy","Lentiform Loewenfeld","3.3.9","0","s","NA","s","right altspace","NA","s","451","NA","47885","5716","NA","451","2","legacy","1024","2","48000","-16","experiment","HHSHH","4","even","50482","190678","NA","NA","202166","2596","184961","NA","155021","2588","191996","203225","203330","203781","203222","203330","Flanker Task","82","42320","88","yes","1024"
"93.25842696629213","93.25842696629213","480.08988764044943","480.08988764044943","black","legacy","legacy","legacy","0","congruent","uniform","1","undefined","1","h","0","0","0","0","88","0","0","0","88","0","88","88","88","88","88","88","Tue Sep 21 08:32:56 2021","600","The main experiment item","yes","FlankerTask.osexp","C:/Users/warne/OneDrive/Documents/Tarleton - MS Applied Psychology/Adv Quantitative Methods and Experimental Design/Labs","no","mono","no","18","no","white","no","yes","768","legacy","8","79","C:/Users/warne/OneDrive/Documents/Tarleton - MS Applied Psychology/Adv Quantitative Methods and Experimental Design/Labs/AV-subject-4.csv","legacy","Lentiform Loewenfeld","3.3.9","0","h","NA","s","right altspace","NA","h","408","NA","47885","5716","NA","408","2","legacy","1024","2","48000","-16","experiment","HHHHH","4","even","50482","190678","NA","NA","203785","2596","184961","NA","155021","2588","191996","204843","204948","205357","204841","204948","Flanker Task","83","42728","89","yes","1024"
"93.33333333333333","93.33333333333333","482.27777777777777","482.27777777777777","black","legacy","legacy","legacy","0","incongruent","uniform","1","undefined","1","h","0","0","0","0","89","0","0","0","89","0","89","89","89","89","89","89","Tue Sep 21 08:32:56 2021","600","The main experiment item","yes","FlankerTask.osexp","C:/Users/warne/OneDrive/Documents/Tarleton - MS Applied Psychology/Adv Quantitative Methods and Experimental Design/Labs","no","mono","no","18","no","white","no","yes","768","legacy","9","79","C:/Users/warne/OneDrive/Documents/Tarleton - MS Applied Psychology/Adv Quantitative Methods and Experimental Design/Labs/AV-subject-4.csv","legacy","Lentiform Loewenfeld","3.3.9","0","h","NA","s","right altspace","NA","h","677","NA","47885","5716","NA","677","2","legacy","1024","2","48000","-16","experiment","SSHSS","4","even","50482","190678","NA","NA","205362","2596","184961","NA","155021","2588","191996","206420","206524","207202","206418","206524","Flanker Task","84","43405","90","yes","1024"
"93.4065934065934","93.4065934065934","484.2197802197802","484.2197802197802","black","legacy","legacy","legacy","0","congruent","uniform","1","undefined","1","h","0","0","0","0","90","0","0","0","90","0","90","90","90","90","90","90","Tue Sep 21 08:32:56 2021","600","The main experiment item","yes","FlankerTask.osexp","C:/Users/warne/OneDrive/Documents/Tarleton - MS Applied Psychology/Adv Quantitative Methods and Experimental Design/Labs","no","mono","no","18","no","white","no","yes","768","legacy","10","79","C:/Users/warne/OneDrive/Documents/Tarleton - MS Applied Psychology/Adv Quantitative Methods and Experimental Design/Labs/AV-subject-4.csv","legacy","Lentiform Loewenfeld","3.3.9","0","h","NA","s","right altspace","NA","h","659","NA","47885","5716","NA","659","2","legacy","1024","2","48000","-16","experiment","HHHHH","4","even","50482","190678","NA","NA","207708","2596","184961","NA","155021","2588","207207","208765","208870","209529","208763","208870","Flanker Task","85","44064","91","yes","1024"
"92.3913043478261","92.3913043478261","483.6521739130435","483.6521739130435","black","legacy","legacy","legacy","0","incongruent","uniform","0","undefined","0","h","0","0","0","0","91","0","0","0","91","0","91","91","91","91","91","91","Tue Sep 21 08:32:56 2021","600","The main experiment item","yes","FlankerTask.osexp","C:/Users/warne/OneDrive/Documents/Tarleton - MS Applied Psychology/Adv Quantitative Methods and Experimental Design/Labs","no","mono","no","18","no","white","no","yes","768","legacy","11","79","C:/Users/warne/OneDrive/Documents/Tarleton - MS Applied Psychology/Adv Quantitative Methods and Experimental Design/Labs/AV-subject-4.csv","legacy","Lentiform Loewenfeld","3.3.9","0","s","NA","s","right altspace","NA","s","432","NA","47885","5716","NA","432","2","legacy","1024","2","48000","-16","experiment","SSHSS","4","even","50482","190678","NA","NA","210035","2596","184961","NA","155021","2588","209534","211093","211197","211629","211091","211197","Flanker Task","85","44496","92","yes","1024"
"92.47311827956989","92.47311827956989","483.7204301075269","483.7204301075269","black","legacy","legacy","legacy","0","congruent","uniform","1","undefined","1","h","0","0","0","0","92","0","0","0","92","0","92","92","92","92","92","92","Tue Sep 21 08:32:56 2021","600","The main experiment item","yes","FlankerTask.osexp","C:/Users/warne/OneDrive/Documents/Tarleton - MS Applied Psychology/Adv Quantitative Methods and Experimental Design/Labs","no","mono","no","18","no","white","no","yes","768","legacy","12","79","C:/Users/warne/OneDrive/Documents/Tarleton - MS Applied Psychology/Adv Quantitative Methods and Experimental Design/Labs/AV-subject-4.csv","legacy","Lentiform Loewenfeld","3.3.9","0","h","NA","s","right altspace","NA","h","490","NA","47885","5716","NA","490","2","legacy","1024","2","48000","-16","experiment","HHHHH","4","even","50482","190678","NA","NA","212135","2596","184961","NA","211634","2588","209534","213193","213298","213789","213191","213298","Flanker Task","86","44986","93","yes","1024"
"92.55319148936171","92.55319148936171","483.52127659574467","483.52127659574467","black","legacy","legacy","legacy","0","incongruent","uniform","1","undefined","1","s","0","0","0","0","93","0","0","0","93","0","93","93","93","93","93","93","Tue Sep 21 08:32:56 2021","600","The main experiment item","yes","FlankerTask.osexp","C:/Users/warne/OneDrive/Documents/Tarleton - MS Applied Psychology/Adv Quantitative Methods and Experimental Design/Labs","no","mono","no","18","no","white","no","yes","768","legacy","13","79","C:/Users/warne/OneDrive/Documents/Tarleton - MS Applied Psychology/Adv Quantitative Methods and Experimental Design/Labs/AV-subject-4.csv","legacy","Lentiform Loewenfeld","3.3.9","0","s","NA","s","right altspace","NA","s","465","NA","47885","5716","NA","465","2","legacy","1024","2","48000","-16","experiment","HHSHH","4","even","50482","190678","NA","NA","213794","2596","184961","NA","211634","2588","209534","214852","214956","215422","214850","214956","Flanker Task","87","45451","94","yes","1024"
"92.63157894736842","92.63157894736842","482.7157894736842","482.7157894736842","black","legacy","legacy","legacy","0","congruent","uniform","1","undefined","1","h","0","0","0","0","94","0","0","0","94","0","94","94","94","94","94","94","Tue Sep 21 08:32:56 2021","600","The main experiment item","yes","FlankerTask.osexp","C:/Users/warne/OneDrive/Documents/Tarleton - MS Applied Psychology/Adv Quantitative Methods and Experimental Design/Labs","no","mono","no","18","no","white","no","yes","768","legacy","14","79","C:/Users/warne/OneDrive/Documents/Tarleton - MS Applied Psychology/Adv Quantitative Methods and Experimental Design/Labs/AV-subject-4.csv","legacy","Lentiform Loewenfeld","3.3.9","0","h","NA","s","right altspace","NA","h","407","NA","47885","5716","NA","407","2","legacy","1024","2","48000","-16","experiment","HHHHH","4","even","50482","190678","NA","NA","215427","2596","184961","NA","211634","2588","209534","216484","216589","216997","216483","216588","Flanker Task","88","45858","95","yes","1024"
"92.70833333333333","92.70833333333333","480.3645833333333","480.3645833333333","black","legacy","legacy","legacy","0","incongruent","uniform","1","undefined","1","h","0","0","0","0","95","0","0","0","95","0","95","95","95","95","95","95","Tue Sep 21 08:32:56 2021","600","The main experiment item","yes","FlankerTask.osexp","C:/Users/warne/OneDrive/Documents/Tarleton - MS Applied Psychology/Adv Quantitative Methods and Experimental Design/Labs","no","mono","no","18","no","white","no","yes","768","legacy","15","79","C:/Users/warne/OneDrive/Documents/Tarleton - MS Applied Psychology/Adv Quantitative Methods and Experimental Design/Labs/AV-subject-4.csv","legacy","Lentiform Loewenfeld","3.3.9","0","h","NA","s","right altspace","NA","h","257","NA","47885","5716","NA","257","2","legacy","1024","2","48000","-16","experiment","SSHSS","4","even","50482","190678","NA","NA","217002","2596","184961","NA","211634","2588","209534","218059","218164","218422","218056","218164","Flanker Task","89","46115","96","yes","1024"
"92.78350515463917","92.78350515463917","479.7938144329897","479.7938144329897","black","legacy","legacy","legacy","0","congruent","uniform","1","undefined","1","s","0","0","0","0","96","0","0","0","96","0","96","96","96","96","96","96","Tue Sep 21 08:32:56 2021","600","The main experiment item","yes","FlankerTask.osexp","C:/Users/warne/OneDrive/Documents/Tarleton - MS Applied Psychology/Adv Quantitative Methods and Experimental Design/Labs","no","mono","no","18","no","white","no","yes","768","legacy","16","79","C:/Users/warne/OneDrive/Documents/Tarleton - MS Applied Psychology/Adv Quantitative Methods and Experimental Design/Labs/AV-subject-4.csv","legacy","Lentiform Loewenfeld","3.3.9","0","s","NA","s","right altspace","NA","s","425","NA","47885","5716","NA","425","2","legacy","1024","2","48000","-16","experiment","SSSSS","4","even","50482","190678","NA","NA","218427","2596","184961","NA","211634","2588","209534","219485","219586","220012","219483","219586","Flanker Task","90","46540","97","yes","1024"
"92.85714285714286","92.85714285714286","478.3061224489796","478.3061224489796","black","legacy","legacy","legacy","0","congruent","uniform","1","undefined","1","h","0","0","0","0","97","0","0","0","97","0","97","97","97","97","97","97","Tue Sep 21 08:32:56 2021","600","The main experiment item","yes","FlankerTask.osexp","C:/Users/warne/OneDrive/Documents/Tarleton - MS Applied Psychology/Adv Quantitative Methods and Experimental Design/Labs","no","mono","no","18","no","white","no","yes","768","legacy","17","79","C:/Users/warne/OneDrive/Documents/Tarleton - MS Applied Psychology/Adv Quantitative Methods and Experimental Design/Labs/AV-subject-4.csv","legacy","Lentiform Loewenfeld","3.3.9","0","h","NA","s","right altspace","NA","h","334","NA","47885","5716","NA","334","2","legacy","1024","2","48000","-16","experiment","HHHHH","4","even","50482","190678","NA","NA","220017","2596","184961","NA","211634","2588","209534","221075","221177","221512","221073","221177","Flanker Task","91","46874","98","yes","1024"
"92.92929292929293","92.92929292929293","475.020202020202","475.020202020202","black","legacy","legacy","legacy","0","congruent","uniform","1","undefined","1","s","0","0","0","0","98","0","0","0","98","0","98","98","98","98","98","98","Tue Sep 21 08:32:56 2021","600","The main experiment item","yes","FlankerTask.osexp","C:/Users/warne/OneDrive/Documents/Tarleton - MS Applied Psychology/Adv Quantitative Methods and Experimental Design/Labs","no","mono","no","18","no","white","no","yes","768","legacy","18","79","C:/Users/warne/OneDrive/Documents/Tarleton - MS Applied Psychology/Adv Quantitative Methods and Experimental Design/Labs/AV-subject-4.csv","legacy","Lentiform Loewenfeld","3.3.9","0","s","NA","s","right altspace","NA","s","153","NA","47885","5716","NA","153","2","legacy","1024","2","48000","-16","experiment","SSSSS","4","even","50482","190678","NA","NA","221516","2596","184961","NA","211634","2588","209534","222573","222678","222832","222572","222677","Flanker Task","92","47027","99","yes","1024"
