"acc","accuracy","average_response_time","avg_rt","background","canvas_backend","clock_backend","color_backend","compensation","condition","coordinates","correct","correct_Instructions1","correct_keyboard_response","correct_response","count_Block1","count_Block2","count_Block3","count_Instructions1","count_Instructions2","count_Instructions3","count_error_feedback","count_experiment","count_faster","count_fixation","count_isi","count_keyboard_response","count_logger","count_new_sketchpad_2","count_sequence","count_stimulus","datetime","deadline","description","disable_garbage_collection","experiment_file","experiment_path","font_bold","font_family","font_italic","font_size","font_underline","foreground","form_clicks","fullscreen","height","keyboard_backend","live_row","live_row_Block1","logfile","mouse_backend","opensesame_codename","opensesame_version","psychopy_waitblanking","repeat_cycle","response","response_Instructions1","response_Instructions2","response_Instructions3","response_keyboard_response","response_new_sketchpad_2","response_time","response_time_Instructions1","response_time_Instructions2","response_time_Instructions3","response_time_keyboard_response","response_time_new_sketchpad_2","round_decimals","sampler_backend","sound_buf_size","sound_channels","sound_freq","sound_sample_size","start","stimulus","subject_nr","subject_parity","time_Block1","time_Block2","time_Block3","time_Instructions1","time_Instructions2","time_Instructions3","time_error_feedback","time_experiment","time_faster","time_fixation","time_isi","time_keyboard_response","time_logger","time_new_sketchpad_2","time_sequence","time_stimulus","title","total_correct","total_response_time","total_responses","uniform_coordinates","width"
"100","100","505","505","black","legacy","legacy","legacy","0","incongruent","uniform","1","undefined","1","s","0","0","0","0","0","0","0","0","0","0","0","0","0","0","0","0","Fri Sep 23 19:32:16 2022","1500","The main experiment item","yes","lab_2.1.osexp","C:\Users\joey.knofczynski\Downloads","no","mono","no","18","no","white","no","yes","768","legacy","0","0","C:/Users/joey.knofczynski/Downloads/subject-4.csv","legacy","Lentiform Loewenfeld","3.3.12","yes","0","s","s","NA","NA","s","NA","505","1955","NA","NA","505","NA","2","legacy","1024","2","48000","-16","experiment","HHSHH","4","even","4162","NA","NA","2205","NA","NA","NA","2197","NA","4218","NA","4321","4827","NA","4216","4320","Lab 2.1","1","505","1","yes","1024"
"100","100","470.5","470.5","black","legacy","legacy","legacy","0","incongruent","uniform","1","undefined","1","s","0","0","0","0","0","0","1","0","1","1","1","1","1","0","1","1","Fri Sep 23 19:32:16 2022","1500","The main experiment item","yes","lab_2.1.osexp","C:\Users\joey.knofczynski\Downloads","no","mono","no","18","no","white","no","yes","768","legacy","1","1","C:/Users/joey.knofczynski/Downloads/subject-4.csv","legacy","Lentiform Loewenfeld","3.3.12","yes","0","s","s","NA","NA","s","NA","436","1955","NA","NA","436","NA","2","legacy","1024","2","48000","-16","experiment","HHSHH","4","even","4162","NA","NA","2205","NA","NA","NA","2197","NA","5887","4833","5990","6428","NA","5883","5990","Lab 2.1","2","941","2","yes","1024"
"100","100","442.6666666666667","442.6666666666667","black","legacy","legacy","legacy","0","congruent","uniform","1","undefined","1","h","0","0","0","0","0","0","2","0","2","2","2","2","2","0","2","2","Fri Sep 23 19:32:16 2022","1500","The main experiment item","yes","lab_2.1.osexp","C:\Users\joey.knofczynski\Downloads","no","mono","no","18","no","white","no","yes","768","legacy","2","2","C:/Users/joey.knofczynski/Downloads/subject-4.csv","legacy","Lentiform Loewenfeld","3.3.12","yes","0","h","s","NA","NA","h","NA","387","1955","NA","NA","387","NA","2","legacy","1024","2","48000","-16","experiment","HHHHH","4","even","4162","NA","NA","2205","NA","NA","NA","2197","NA","7486","6432","7587","7975","NA","7483","7587","Lab 2.1","3","1328","3","yes","1024"
"100","100","435.75","435.75","black","legacy","legacy","legacy","0","incongruent","uniform","1","undefined","1","s","0","0","0","0","0","0","3","0","3","3","3","3","3","0","3","3","Fri Sep 23 19:32:16 2022","1500","The main experiment item","yes","lab_2.1.osexp","C:\Users\joey.knofczynski\Downloads","no","mono","no","18","no","white","no","yes","768","legacy","3","3","C:/Users/joey.knofczynski/Downloads/subject-4.csv","legacy","Lentiform Loewenfeld","3.3.12","yes","0","s","s","NA","NA","s","NA","415","1955","NA","NA","415","NA","2","legacy","1024","2","48000","-16","experiment","HHSHH","4","even","4162","NA","NA","2205","NA","NA","NA","2197","NA","9032","7979","9135","9551","NA","9030","9135","Lab 2.1","4","1743","4","yes","1024"
"80","80","423.8","423.8","black","legacy","legacy","legacy","0","incongruent","uniform","0","undefined","0","h","0","0","0","0","0","0","4","0","4","4","4","4","4","0","4","4","Fri Sep 23 19:32:16 2022","1500","The main experiment item","yes","lab_2.1.osexp","C:\Users\joey.knofczynski\Downloads","no","mono","no","18","no","white","no","yes","768","legacy","4","4","C:/Users/joey.knofczynski/Downloads/subject-4.csv","legacy","Lentiform Loewenfeld","3.3.12","yes","0","s","s","NA","NA","s","NA","376","1955","NA","NA","376","NA","2","legacy","1024","2","48000","-16","experiment","SSHSS","4","even","4162","NA","NA","2205","NA","NA","NA","2197","NA","10611","9555","10713","11089","NA","10609","10713","Lab 2.1","4","2119","5","yes","1024"
"83.33333333333333","83.33333333333333","421.3333333333333","421.3333333333333","black","legacy","legacy","legacy","0","congruent","uniform","1","undefined","1","s","0","0","0","0","0","0","5","0","5","5","5","5","5","0","5","5","Fri Sep 23 19:32:16 2022","1500","The main experiment item","yes","lab_2.1.osexp","C:\Users\joey.knofczynski\Downloads","no","mono","no","18","no","white","no","yes","768","legacy","5","5","C:/Users/joey.knofczynski/Downloads/subject-4.csv","legacy","Lentiform Loewenfeld","3.3.12","yes","0","s","s","NA","NA","s","NA","409","1955","NA","NA","409","NA","2","legacy","1024","2","48000","-16","experiment","SSSSS","4","even","4162","NA","NA","2205","NA","NA","11094","2197","NA","12648","11595","12751","13161","NA","12645","12751","Lab 2.1","5","2528","6","yes","1024"
"85.71428571428571","85.71428571428571","428.2857142857143","428.2857142857143","black","legacy","legacy","legacy","0","incongruent","uniform","1","undefined","1","h","0","0","0","0","0","0","6","0","6","6","6","6","6","0","6","6","Fri Sep 23 19:32:16 2022","1500","The main experiment item","yes","lab_2.1.osexp","C:\Users\joey.knofczynski\Downloads","no","mono","no","18","no","white","no","yes","768","legacy","6","6","C:/Users/joey.knofczynski/Downloads/subject-4.csv","legacy","Lentiform Loewenfeld","3.3.12","yes","0","h","s","NA","NA","h","NA","470","1955","NA","NA","470","NA","2","legacy","1024","2","48000","-16","experiment","SSHSS","4","even","4162","NA","NA","2205","NA","NA","11094","2197","NA","14221","13165","14323","14793","NA","14217","14323","Lab 2.1","6","2998","7","yes","1024"
"87.5","87.5","433.375","433.375","black","legacy","legacy","legacy","0","incongruent","uniform","1","undefined","1","h","0","0","0","0","0","0","7","0","7","7","7","7","7","0","7","7","Fri Sep 23 19:32:16 2022","1500","The main experiment item","yes","lab_2.1.osexp","C:\Users\joey.knofczynski\Downloads","no","mono","no","18","no","white","no","yes","768","legacy","7","7","C:/Users/joey.knofczynski/Downloads/subject-4.csv","legacy","Lentiform Loewenfeld","3.3.12","yes","0","h","s","NA","NA","h","NA","469","1955","NA","NA","469","NA","2","legacy","1024","2","48000","-16","experiment","SSHSS","4","even","4162","NA","NA","2205","NA","NA","11094","2197","NA","15859","14797","15961","16430","NA","15855","15961","Lab 2.1","7","3467","8","yes","1024"
"88.88888888888889","88.88888888888889","425.6666666666667","425.6666666666667","black","legacy","legacy","legacy","0","incongruent","uniform","1","undefined","1","s","0","0","0","0","0","0","8","0","8","8","8","8","8","0","8","8","Fri Sep 23 19:32:16 2022","1500","The main experiment item","yes","lab_2.1.osexp","C:\Users\joey.knofczynski\Downloads","no","mono","no","18","no","white","no","yes","768","legacy","8","8","C:/Users/joey.knofczynski/Downloads/subject-4.csv","legacy","Lentiform Loewenfeld","3.3.12","yes","0","s","s","NA","NA","s","NA","364","1955","NA","NA","364","NA","2","legacy","1024","2","48000","-16","experiment","HHSHH","4","even","4162","NA","NA","2205","NA","NA","11094","2197","NA","17486","16434","17588","17953","NA","17483","17588","Lab 2.1","8","3831","9","yes","1024"
"90","90","426.8","426.8","black","legacy","legacy","legacy","0","incongruent","uniform","1","undefined","1","h","0","0","0","0","0","0","9","0","9","9","9","9","9","0","9","9","Fri Sep 23 19:32:16 2022","1500","The main experiment item","yes","lab_2.1.osexp","C:\Users\joey.knofczynski\Downloads","no","mono","no","18","no","white","no","yes","768","legacy","9","9","C:/Users/joey.knofczynski/Downloads/subject-4.csv","legacy","Lentiform Loewenfeld","3.3.12","yes","0","h","s","NA","NA","h","NA","437","1955","NA","NA","437","NA","2","legacy","1024","2","48000","-16","experiment","SSHSS","4","even","4162","NA","NA","2205","NA","NA","11094","2197","NA","19012","17957","19114","19551","NA","19007","19114","Lab 2.1","9","4268","10","yes","1024"
"90.9090909090909","90.9090909090909","424.72727272727275","424.72727272727275","black","legacy","legacy","legacy","0","congruent","uniform","1","undefined","1","s","0","0","0","0","0","0","10","0","10","10","10","10","10","0","10","10","Fri Sep 23 19:32:16 2022","1500","The main experiment item","yes","lab_2.1.osexp","C:\Users\joey.knofczynski\Downloads","no","mono","no","18","no","white","no","yes","768","legacy","10","10","C:/Users/joey.knofczynski/Downloads/subject-4.csv","legacy","Lentiform Loewenfeld","3.3.12","yes","0","s","s","NA","NA","s","NA","404","1955","NA","NA","404","NA","2","legacy","1024","2","48000","-16","experiment","SSSSS","4","even","4162","NA","NA","2205","NA","NA","11094","2197","NA","20613","19555","20715","21120","NA","20610","20715","Lab 2.1","10","4672","11","yes","1024"
"91.66666666666667","91.66666666666667","422.75","422.75","black","legacy","legacy","legacy","0","congruent","uniform","1","undefined","1","s","0","0","0","0","0","0","11","0","11","11","11","11","11","0","11","11","Fri Sep 23 19:32:16 2022","1500","The main experiment item","yes","lab_2.1.osexp","C:\Users\joey.knofczynski\Downloads","no","mono","no","18","no","white","no","yes","768","legacy","11","11","C:/Users/joey.knofczynski/Downloads/subject-4.csv","legacy","Lentiform Loewenfeld","3.3.12","yes","0","s","s","NA","NA","s","NA","401","1955","NA","NA","401","NA","2","legacy","1024","2","48000","-16","experiment","SSSSS","4","even","4162","NA","NA","2205","NA","NA","11094","2197","NA","22177","21125","22280","22682","NA","22175","22280","Lab 2.1","11","5073","12","yes","1024"
"92.3076923076923","92.3076923076923","430.61538461538464","430.61538461538464","black","legacy","legacy","legacy","0","congruent","uniform","1","undefined","1","s","0","0","0","0","0","0","12","0","12","12","12","12","12","0","12","12","Fri Sep 23 19:32:16 2022","1500","The main experiment item","yes","lab_2.1.osexp","C:\Users\joey.knofczynski\Downloads","no","mono","no","18","no","white","no","yes","768","legacy","12","12","C:/Users/joey.knofczynski/Downloads/subject-4.csv","legacy","Lentiform Loewenfeld","3.3.12","yes","0","s","s","NA","NA","s","NA","525","1955","NA","NA","525","NA","2","legacy","1024","2","48000","-16","experiment","SSSSS","4","even","4162","NA","NA","2205","NA","NA","11094","2197","NA","23739","22687","23842","24368","NA","23736","23842","Lab 2.1","12","5598","13","yes","1024"
"92.85714285714286","92.85714285714286","433.35714285714283","433.35714285714283","black","legacy","legacy","legacy","0","congruent","uniform","1","undefined","1","s","0","0","0","0","0","0","13","0","13","13","13","13","13","0","13","13","Fri Sep 23 19:32:16 2022","1500","The main experiment item","yes","lab_2.1.osexp","C:\Users\joey.knofczynski\Downloads","no","mono","no","18","no","white","no","yes","768","legacy","13","13","C:/Users/joey.knofczynski/Downloads/subject-4.csv","legacy","Lentiform Loewenfeld","3.3.12","yes","0","s","s","NA","NA","s","NA","469","1955","NA","NA","469","NA","2","legacy","1024","2","48000","-16","experiment","SSSSS","4","even","4162","NA","NA","2205","NA","NA","11094","2197","NA","25424","24372","25526","25996","NA","25421","25526","Lab 2.1","13","6067","14","yes","1024"
"93.33333333333333","93.33333333333333","435.53333333333336","435.53333333333336","black","legacy","legacy","legacy","0","congruent","uniform","1","undefined","1","s","0","0","0","0","0","0","14","0","14","14","14","14","14","0","14","14","Fri Sep 23 19:32:16 2022","1500","The main experiment item","yes","lab_2.1.osexp","C:\Users\joey.knofczynski\Downloads","no","mono","no","18","no","white","no","yes","768","legacy","14","14","C:/Users/joey.knofczynski/Downloads/subject-4.csv","legacy","Lentiform Loewenfeld","3.3.12","yes","0","s","s","NA","NA","s","NA","466","1955","NA","NA","466","NA","2","legacy","1024","2","48000","-16","experiment","SSSSS","4","even","4162","NA","NA","2205","NA","NA","11094","2197","NA","27058","26000","27160","27627","NA","27052","27160","Lab 2.1","14","6533","15","yes","1024"
"93.75","93.75","445.75","445.75","black","legacy","legacy","legacy","0","incongruent","uniform","1","undefined","1","h","0","0","0","0","0","0","15","0","15","15","15","15","15","0","15","15","Fri Sep 23 19:32:16 2022","1500","The main experiment item","yes","lab_2.1.osexp","C:\Users\joey.knofczynski\Downloads","no","mono","no","18","no","white","no","yes","768","legacy","15","15","C:/Users/joey.knofczynski/Downloads/subject-4.csv","legacy","Lentiform Loewenfeld","3.3.12","yes","0","h","s","NA","NA","h","NA","599","1955","NA","NA","599","NA","2","legacy","1024","2","48000","-16","experiment","SSHSS","4","even","4162","NA","NA","2205","NA","NA","11094","2197","NA","28685","27631","28787","29387","NA","28682","28787","Lab 2.1","15","7132","16","yes","1024"
"94.11764705882354","94.11764705882354","462.4117647058824","462.4117647058824","black","legacy","legacy","legacy","0","incongruent","uniform","1","undefined","1","s","0","0","0","0","0","0","16","0","16","16","16","16","16","0","16","16","Fri Sep 23 19:32:16 2022","1500","The main experiment item","yes","lab_2.1.osexp","C:\Users\joey.knofczynski\Downloads","no","mono","no","18","no","white","no","yes","768","legacy","16","16","C:/Users/joey.knofczynski/Downloads/subject-4.csv","legacy","Lentiform Loewenfeld","3.3.12","yes","0","s","s","NA","NA","s","NA","729","1955","NA","NA","729","NA","2","legacy","1024","2","48000","-16","experiment","HHSHH","4","even","4162","NA","NA","2205","NA","NA","11094","2197","NA","30444","29391","30547","31276","NA","30441","30547","Lab 2.1","16","7861","17","yes","1024"
"94.44444444444444","94.44444444444444","470.55555555555554","470.55555555555554","black","legacy","legacy","legacy","0","incongruent","uniform","1","undefined","1","s","0","0","0","0","0","0","17","0","17","17","17","17","17","0","17","17","Fri Sep 23 19:32:16 2022","1500","The main experiment item","yes","lab_2.1.osexp","C:\Users\joey.knofczynski\Downloads","no","mono","no","18","no","white","no","yes","768","legacy","17","17","C:/Users/joey.knofczynski/Downloads/subject-4.csv","legacy","Lentiform Loewenfeld","3.3.12","yes","0","s","s","NA","NA","s","NA","609","1955","NA","NA","609","NA","2","legacy","1024","2","48000","-16","experiment","HHSHH","4","even","4162","NA","NA","2205","NA","NA","11094","2197","NA","32335","31280","32437","33047","NA","32333","32437","Lab 2.1","17","8470","18","yes","1024"
"94.73684210526316","94.73684210526316","472.05263157894734","472.05263157894734","black","legacy","legacy","legacy","0","congruent","uniform","1","undefined","1","s","0","0","0","0","0","0","18","0","18","18","18","18","18","0","18","18","Fri Sep 23 19:32:16 2022","1500","The main experiment item","yes","lab_2.1.osexp","C:\Users\joey.knofczynski\Downloads","no","mono","no","18","no","white","no","yes","768","legacy","18","18","C:/Users/joey.knofczynski/Downloads/subject-4.csv","legacy","Lentiform Loewenfeld","3.3.12","yes","0","s","s","NA","NA","s","NA","499","1955","NA","NA","499","NA","2","legacy","1024","2","48000","-16","experiment","SSSSS","4","even","4162","NA","NA","2205","NA","NA","11094","2197","NA","34103","33051","34205","34705","NA","34100","34205","Lab 2.1","18","8969","19","yes","1024"
"95","95","480.85","480.85","black","legacy","legacy","legacy","0","incongruent","uniform","1","undefined","1","h","0","0","0","0","0","0","19","0","19","19","19","19","19","0","19","19","Fri Sep 23 19:32:16 2022","1500","The main experiment item","yes","lab_2.1.osexp","C:\Users\joey.knofczynski\Downloads","no","mono","no","18","no","white","no","yes","768","legacy","19","19","C:/Users/joey.knofczynski/Downloads/subject-4.csv","legacy","Lentiform Loewenfeld","3.3.12","yes","0","h","s","NA","NA","h","NA","648","1955","NA","NA","648","NA","2","legacy","1024","2","48000","-16","experiment","SSHSS","4","even","4162","NA","NA","2205","NA","NA","11094","2197","NA","35763","34709","35865","36514","NA","35760","35865","Lab 2.1","19","9617","20","yes","1024"
"95.23809523809524","95.23809523809524","483.14285714285717","483.14285714285717","black","legacy","legacy","legacy","0","congruent","uniform","1","undefined","1","s","0","0","0","0","0","0","20","0","20","20","20","20","20","0","20","20","Fri Sep 23 19:32:16 2022","1500","The main experiment item","yes","lab_2.1.osexp","C:\Users\joey.knofczynski\Downloads","no","mono","no","18","no","white","no","yes","768","legacy","20","20","C:/Users/joey.knofczynski/Downloads/subject-4.csv","legacy","Lentiform Loewenfeld","3.3.12","yes","0","s","s","NA","NA","s","NA","529","1955","NA","NA","529","NA","2","legacy","1024","2","48000","-16","experiment","SSSSS","4","even","4162","NA","NA","2205","NA","NA","11094","2197","NA","37571","36518","37673","38203","NA","37567","37673","Lab 2.1","20","10146","21","yes","1024"
"95.45454545454545","95.45454545454545","487.8636363636364","487.8636363636364","black","legacy","legacy","legacy","0","congruent","uniform","1","undefined","1","h","0","0","0","0","0","0","21","0","21","21","21","21","21","0","21","21","Fri Sep 23 19:32:16 2022","1500","The main experiment item","yes","lab_2.1.osexp","C:\Users\joey.knofczynski\Downloads","no","mono","no","18","no","white","no","yes","768","legacy","21","21","C:/Users/joey.knofczynski/Downloads/subject-4.csv","legacy","Lentiform Loewenfeld","3.3.12","yes","0","h","s","NA","NA","h","NA","587","1955","NA","NA","587","NA","2","legacy","1024","2","48000","-16","experiment","HHHHH","4","even","4162","NA","NA","2205","NA","NA","11094","2197","NA","39263","38207","39367","39954","NA","39260","39367","Lab 2.1","21","10733","22","yes","1024"
"95.65217391304348","95.65217391304348","496.0869565217391","496.0869565217391","black","legacy","legacy","legacy","0","incongruent","uniform","1","undefined","1","h","0","0","0","0","0","0","22","0","22","22","22","22","22","0","22","22","Fri Sep 23 19:32:16 2022","1500","The main experiment item","yes","lab_2.1.osexp","C:\Users\joey.knofczynski\Downloads","no","mono","no","18","no","white","no","yes","768","legacy","22","22","C:/Users/joey.knofczynski/Downloads/subject-4.csv","legacy","Lentiform Loewenfeld","3.3.12","yes","0","h","s","NA","NA","h","NA","677","1955","NA","NA","677","NA","2","legacy","1024","2","48000","-16","experiment","SSHSS","4","even","4162","NA","NA","2205","NA","NA","11094","2197","NA","41009","39958","41111","41789","NA","41007","41111","Lab 2.1","22","11410","23","yes","1024"
"95.83333333333333","95.83333333333333","502.4583333333333","502.4583333333333","black","legacy","legacy","legacy","0","incongruent","uniform","1","undefined","1","h","0","0","0","0","0","0","23","0","23","23","23","23","23","0","23","23","Fri Sep 23 19:32:16 2022","1500","The main experiment item","yes","lab_2.1.osexp","C:\Users\joey.knofczynski\Downloads","no","mono","no","18","no","white","no","yes","768","legacy","23","23","C:/Users/joey.knofczynski/Downloads/subject-4.csv","legacy","Lentiform Loewenfeld","3.3.12","yes","0","h","s","NA","NA","h","NA","649","1955","NA","NA","649","NA","2","legacy","1024","2","48000","-16","experiment","SSHSS","4","even","4162","NA","NA","2205","NA","NA","11094","2197","NA","42848","41793","42950","43599","NA","42844","42950","Lab 2.1","23","12059","24","yes","1024"
"96","96","509.52","509.52","black","legacy","legacy","legacy","0","congruent","uniform","1","undefined","1","h","0","0","0","0","0","0","24","0","24","24","24","24","24","0","24","24","Fri Sep 23 19:32:16 2022","1500","The main experiment item","yes","lab_2.1.osexp","C:\Users\joey.knofczynski\Downloads","no","mono","no","18","no","white","no","yes","768","legacy","24","24","C:/Users/joey.knofczynski/Downloads/subject-4.csv","legacy","Lentiform Loewenfeld","3.3.12","yes","0","h","s","NA","NA","h","NA","679","1955","NA","NA","679","NA","2","legacy","1024","2","48000","-16","experiment","HHHHH","4","even","4162","NA","NA","2205","NA","NA","11094","2197","NA","44659","43603","44761","45441","NA","44656","44761","Lab 2.1","24","12738","25","yes","1024"
"96.15384615384616","96.15384615384616","512.8076923076923","512.8076923076923","black","legacy","legacy","legacy","0","congruent","uniform","1","undefined","1","s","0","0","0","0","0","0","25","0","25","25","25","25","25","0","25","25","Fri Sep 23 19:32:16 2022","1500","The main experiment item","yes","lab_2.1.osexp","C:\Users\joey.knofczynski\Downloads","no","mono","no","18","no","white","no","yes","768","legacy","25","25","C:/Users/joey.knofczynski/Downloads/subject-4.csv","legacy","Lentiform Loewenfeld","3.3.12","yes","0","s","s","NA","NA","s","NA","595","1955","NA","NA","595","NA","2","legacy","1024","2","48000","-16","experiment","SSSSS","4","even","4162","NA","NA","2205","NA","NA","11094","2197","NA","46504","45445","46606","47202","NA","46501","46606","Lab 2.1","25","13333","26","yes","1024"
"96.29629629629629","96.29629629629629","516.4074074074074","516.4074074074074","black","legacy","legacy","legacy","0","incongruent","uniform","1","undefined","1","s","0","0","0","0","0","0","26","0","26","26","26","26","26","0","26","26","Fri Sep 23 19:32:16 2022","1500","The main experiment item","yes","lab_2.1.osexp","C:\Users\joey.knofczynski\Downloads","no","mono","no","18","no","white","no","yes","768","legacy","26","26","C:/Users/joey.knofczynski/Downloads/subject-4.csv","legacy","Lentiform Loewenfeld","3.3.12","yes","0","s","s","NA","NA","s","NA","610","1955","NA","NA","610","NA","2","legacy","1024","2","48000","-16","experiment","HHSHH","4","even","4162","NA","NA","2205","NA","NA","11094","2197","NA","48262","47207","48365","48975","NA","48259","48365","Lab 2.1","26","13943","27","yes","1024"
"96.42857142857143","96.42857142857143","522.5357142857143","522.5357142857143","black","legacy","legacy","legacy","0","incongruent","uniform","1","undefined","1","h","0","0","0","0","0","0","27","0","27","27","27","27","27","0","27","27","Fri Sep 23 19:32:16 2022","1500","The main experiment item","yes","lab_2.1.osexp","C:\Users\joey.knofczynski\Downloads","no","mono","no","18","no","white","no","yes","768","legacy","27","27","C:/Users/joey.knofczynski/Downloads/subject-4.csv","legacy","Lentiform Loewenfeld","3.3.12","yes","0","h","s","NA","NA","h","NA","688","1955","NA","NA","688","NA","2","legacy","1024","2","48000","-16","experiment","SSHSS","4","even","4162","NA","NA","2205","NA","NA","11094","2197","NA","50033","48979","50134","50823","NA","50029","50134","Lab 2.1","27","14631","28","yes","1024"
"96.55172413793103","96.55172413793103","529.4137931034483","529.4137931034483","black","legacy","legacy","legacy","0","incongruent","uniform","1","undefined","1","s","0","0","0","0","0","0","28","0","28","28","28","28","28","0","28","28","Fri Sep 23 19:32:16 2022","1500","The main experiment item","yes","lab_2.1.osexp","C:\Users\joey.knofczynski\Downloads","no","mono","no","18","no","white","no","yes","768","legacy","28","28","C:/Users/joey.knofczynski/Downloads/subject-4.csv","legacy","Lentiform Loewenfeld","3.3.12","yes","0","s","s","NA","NA","s","NA","722","1955","NA","NA","722","NA","2","legacy","1024","2","48000","-16","experiment","HHSHH","4","even","4162","NA","NA","2205","NA","NA","11094","2197","NA","51882","50828","51984","52707","NA","51879","51984","Lab 2.1","28","15353","29","yes","1024"
"96.66666666666667","96.66666666666667","530.2666666666667","530.2666666666667","black","legacy","legacy","legacy","0","incongruent","uniform","1","undefined","1","h","0","0","0","0","0","0","29","0","29","29","29","29","29","0","29","29","Fri Sep 23 19:32:16 2022","1500","The main experiment item","yes","lab_2.1.osexp","C:\Users\joey.knofczynski\Downloads","no","mono","no","18","no","white","no","yes","768","legacy","29","29","C:/Users/joey.knofczynski/Downloads/subject-4.csv","legacy","Lentiform Loewenfeld","3.3.12","yes","0","h","s","NA","NA","h","NA","555","1955","NA","NA","555","NA","2","legacy","1024","2","48000","-16","experiment","SSHSS","4","even","4162","NA","NA","2205","NA","NA","11094","2197","NA","53764","52711","53866","54422","NA","53761","53866","Lab 2.1","29","15908","30","yes","1024"
"96.7741935483871","96.7741935483871","529.9354838709677","529.9354838709677","black","legacy","legacy","legacy","0","congruent","uniform","1","undefined","1","h","0","0","0","0","0","0","30","0","30","30","30","30","30","0","30","30","Fri Sep 23 19:32:16 2022","1500","The main experiment item","yes","lab_2.1.osexp","C:\Users\joey.knofczynski\Downloads","no","mono","no","18","no","white","no","yes","768","legacy","30","30","C:/Users/joey.knofczynski/Downloads/subject-4.csv","legacy","Lentiform Loewenfeld","3.3.12","yes","0","h","s","NA","NA","h","NA","520","1955","NA","NA","520","NA","2","legacy","1024","2","48000","-16","experiment","HHHHH","4","even","4162","NA","NA","2205","NA","NA","11094","2197","NA","55481","54426","55582","56103","NA","55478","55582","Lab 2.1","30","16428","31","yes","1024"
"96.875","96.875","527.84375","527.84375","black","legacy","legacy","legacy","0","congruent","uniform","1","undefined","1","h","0","0","0","0","0","0","31","0","31","31","31","31","31","0","31","31","Fri Sep 23 19:32:16 2022","1500","The main experiment item","yes","lab_2.1.osexp","C:\Users\joey.knofczynski\Downloads","no","mono","no","18","no","white","no","yes","768","legacy","31","31","C:/Users/joey.knofczynski/Downloads/subject-4.csv","legacy","Lentiform Loewenfeld","3.3.12","yes","0","h","s","NA","NA","h","NA","463","1955","NA","NA","463","NA","2","legacy","1024","2","48000","-16","experiment","HHHHH","4","even","4162","NA","NA","2205","NA","NA","11094","2197","NA","57161","56107","57264","57728","NA","57159","57264","Lab 2.1","31","16891","32","yes","1024"
"96.96969696969697","96.96969696969697","527.4545454545455","527.4545454545455","black","legacy","legacy","legacy","0","congruent","uniform","1","undefined","1","s","0","0","0","0","0","0","32","0","32","32","32","32","32","0","32","32","Fri Sep 23 19:32:16 2022","1500","The main experiment item","yes","lab_2.1.osexp","C:\Users\joey.knofczynski\Downloads","no","mono","no","18","no","white","no","yes","768","legacy","32","32","C:/Users/joey.knofczynski/Downloads/subject-4.csv","legacy","Lentiform Loewenfeld","3.3.12","yes","0","s","s","NA","NA","s","NA","515","1955","NA","NA","515","NA","2","legacy","1024","2","48000","-16","experiment","SSSSS","4","even","4162","NA","NA","2205","NA","NA","11094","2197","NA","58796","57732","58897","59412","NA","58793","58897","Lab 2.1","32","17406","33","yes","1024"
"97.05882352941177","97.05882352941177","525.5588235294117","525.5588235294117","black","legacy","legacy","legacy","0","congruent","uniform","1","undefined","1","h","0","0","0","0","0","0","33","0","33","33","33","33","33","0","33","33","Fri Sep 23 19:32:16 2022","1500","The main experiment item","yes","lab_2.1.osexp","C:\Users\joey.knofczynski\Downloads","no","mono","no","18","no","white","no","yes","768","legacy","33","33","C:/Users/joey.knofczynski/Downloads/subject-4.csv","legacy","Lentiform Loewenfeld","3.3.12","yes","0","h","s","NA","NA","h","NA","463","1955","NA","NA","463","NA","2","legacy","1024","2","48000","-16","experiment","HHHHH","4","even","4162","NA","NA","2205","NA","NA","11094","2197","NA","60470","59416","60573","61037","NA","60467","60573","Lab 2.1","33","17869","34","yes","1024"
"97.14285714285714","97.14285714285714","523.9142857142857","523.9142857142857","black","legacy","legacy","legacy","0","congruent","uniform","1","undefined","1","h","0","0","0","0","0","0","34","0","34","34","34","34","34","0","34","34","Fri Sep 23 19:32:16 2022","1500","The main experiment item","yes","lab_2.1.osexp","C:\Users\joey.knofczynski\Downloads","no","mono","no","18","no","white","no","yes","768","legacy","34","34","C:/Users/joey.knofczynski/Downloads/subject-4.csv","legacy","Lentiform Loewenfeld","3.3.12","yes","0","h","s","NA","NA","h","NA","468","1955","NA","NA","468","NA","2","legacy","1024","2","48000","-16","experiment","HHHHH","4","even","4162","NA","NA","2205","NA","NA","11094","2197","NA","62095","61042","62197","62666","NA","62092","62196","Lab 2.1","34","18337","35","yes","1024"
"97.22222222222223","97.22222222222223","522.8888888888889","522.8888888888889","black","legacy","legacy","legacy","0","congruent","uniform","1","undefined","1","s","0","0","0","0","0","0","35","0","35","35","35","35","35","0","35","35","Fri Sep 23 19:32:16 2022","1500","The main experiment item","yes","lab_2.1.osexp","C:\Users\joey.knofczynski\Downloads","no","mono","no","18","no","white","no","yes","768","legacy","35","35","C:/Users/joey.knofczynski/Downloads/subject-4.csv","legacy","Lentiform Loewenfeld","3.3.12","yes","0","s","s","NA","NA","s","NA","487","1955","NA","NA","487","NA","2","legacy","1024","2","48000","-16","experiment","SSSSS","4","even","4162","NA","NA","2205","NA","NA","11094","2197","NA","63722","62670","63824","64312","NA","63719","63824","Lab 2.1","35","18824","36","yes","1024"
"97.29729729729729","97.29729729729729","520.7297297297297","520.7297297297297","black","legacy","legacy","legacy","0","congruent","uniform","1","undefined","1","h","0","0","0","0","0","0","36","0","36","36","36","36","36","0","36","36","Fri Sep 23 19:32:16 2022","1500","The main experiment item","yes","lab_2.1.osexp","C:\Users\joey.knofczynski\Downloads","no","mono","no","18","no","white","no","yes","768","legacy","36","36","C:/Users/joey.knofczynski/Downloads/subject-4.csv","legacy","Lentiform Loewenfeld","3.3.12","yes","0","h","s","NA","NA","h","NA","443","1955","NA","NA","443","NA","2","legacy","1024","2","48000","-16","experiment","HHHHH","4","even","4162","NA","NA","2205","NA","NA","11094","2197","NA","65370","64316","65471","65914","NA","65367","65471","Lab 2.1","36","19267","37","yes","1024"
"97.36842105263158","97.36842105263158","519.1578947368421","519.1578947368421","black","legacy","legacy","legacy","0","congruent","uniform","1","undefined","1","h","0","0","0","0","0","0","37","0","37","37","37","37","37","0","37","37","Fri Sep 23 19:32:16 2022","1500","The main experiment item","yes","lab_2.1.osexp","C:\Users\joey.knofczynski\Downloads","no","mono","no","18","no","white","no","yes","768","legacy","37","37","C:/Users/joey.knofczynski/Downloads/subject-4.csv","legacy","Lentiform Loewenfeld","3.3.12","yes","0","h","s","NA","NA","h","NA","461","1955","NA","NA","461","NA","2","legacy","1024","2","48000","-16","experiment","HHHHH","4","even","4162","NA","NA","2205","NA","NA","11094","2197","NA","66971","65918","67072","67534","NA","66968","67072","Lab 2.1","37","19728","38","yes","1024"
"97.43589743589743","97.43589743589743","516.8974358974359","516.8974358974359","black","legacy","legacy","legacy","0","congruent","uniform","1","undefined","1","s","0","0","0","0","0","0","38","0","38","38","38","38","38","0","38","38","Fri Sep 23 19:32:16 2022","1500","The main experiment item","yes","lab_2.1.osexp","C:\Users\joey.knofczynski\Downloads","no","mono","no","18","no","white","no","yes","768","legacy","38","38","C:/Users/joey.knofczynski/Downloads/subject-4.csv","legacy","Lentiform Loewenfeld","3.3.12","yes","0","s","s","NA","NA","s","NA","431","1955","NA","NA","431","NA","2","legacy","1024","2","48000","-16","experiment","SSSSS","4","even","4162","NA","NA","2205","NA","NA","11094","2197","NA","68594","67540","68696","69128","NA","68590","68696","Lab 2.1","38","20159","39","yes","1024"
"97.5","97.5","515.25","515.25","black","legacy","legacy","legacy","0","congruent","uniform","1","undefined","1","h","0","0","0","0","0","0","39","0","39","39","39","39","39","0","39","39","Fri Sep 23 19:32:16 2022","1500","The main experiment item","yes","lab_2.1.osexp","C:\Users\joey.knofczynski\Downloads","no","mono","no","18","no","white","no","yes","768","legacy","39","39","C:/Users/joey.knofczynski/Downloads/subject-4.csv","legacy","Lentiform Loewenfeld","3.3.12","yes","0","h","s","NA","NA","h","NA","451","1955","NA","NA","451","NA","2","legacy","1024","2","48000","-16","experiment","HHHHH","4","even","4162","NA","NA","2205","NA","NA","11094","2197","NA","70186","69132","70289","70741","NA","70184","70289","Lab 2.1","39","20610","40","yes","1024"
"97.5609756097561","97.5609756097561","518.2439024390244","518.2439024390244","black","legacy","legacy","legacy","0","incongruent","uniform","1","undefined","1","s","0","0","0","0","0","0","40","0","40","40","40","40","40","0","40","40","Fri Sep 23 19:32:16 2022","1500","The main experiment item","yes","lab_2.1.osexp","C:\Users\joey.knofczynski\Downloads","no","mono","no","18","no","white","no","yes","768","legacy","40","40","C:/Users/joey.knofczynski/Downloads/subject-4.csv","legacy","Lentiform Loewenfeld","3.3.12","yes","0","s","s","NA","NA","s","NA","638","1955","NA","NA","638","NA","2","legacy","1024","2","48000","-16","experiment","HHSHH","4","even","4162","NA","NA","2205","NA","NA","11094","2197","NA","71798","70745","71900","72539","NA","71795","71900","Lab 2.1","40","21248","41","yes","1024"
"97.61904761904762","97.61904761904762","517","517","black","legacy","legacy","legacy","0","congruent","uniform","1","undefined","1","s","0","0","0","0","0","0","41","0","41","41","41","41","41","0","41","41","Fri Sep 23 19:32:16 2022","1500","The main experiment item","yes","lab_2.1.osexp","C:\Users\joey.knofczynski\Downloads","no","mono","no","18","no","white","no","yes","768","legacy","41","41","C:/Users/joey.knofczynski/Downloads/subject-4.csv","legacy","Lentiform Loewenfeld","3.3.12","yes","0","s","s","NA","NA","s","NA","466","1955","NA","NA","466","NA","2","legacy","1024","2","48000","-16","experiment","SSSSS","4","even","4162","NA","NA","2205","NA","NA","11094","2197","NA","73596","72542","73698","74165","NA","73593","73698","Lab 2.1","41","21714","42","yes","1024"
"97.67441860465117","97.67441860465117","516.8139534883721","516.8139534883721","black","legacy","legacy","legacy","0","incongruent","uniform","1","undefined","1","s","0","0","0","0","0","0","42","0","42","42","42","42","42","0","42","42","Fri Sep 23 19:32:16 2022","1500","The main experiment item","yes","lab_2.1.osexp","C:\Users\joey.knofczynski\Downloads","no","mono","no","18","no","white","no","yes","768","legacy","42","42","C:/Users/joey.knofczynski/Downloads/subject-4.csv","legacy","Lentiform Loewenfeld","3.3.12","yes","0","s","s","NA","NA","s","NA","509","1955","NA","NA","509","NA","2","legacy","1024","2","48000","-16","experiment","HHSHH","4","even","4162","NA","NA","2205","NA","NA","11094","2197","NA","75224","74168","75326","75836","NA","75221","75326","Lab 2.1","42","22223","43","yes","1024"
"97.72727272727273","97.72727272727273","515.4545454545455","515.4545454545455","black","legacy","legacy","legacy","0","congruent","uniform","1","undefined","1","s","0","0","0","0","0","0","43","0","43","43","43","43","43","0","43","43","Fri Sep 23 19:32:16 2022","1500","The main experiment item","yes","lab_2.1.osexp","C:\Users\joey.knofczynski\Downloads","no","mono","no","18","no","white","no","yes","768","legacy","43","43","C:/Users/joey.knofczynski/Downloads/subject-4.csv","legacy","Lentiform Loewenfeld","3.3.12","yes","0","s","s","NA","NA","s","NA","457","1955","NA","NA","457","NA","2","legacy","1024","2","48000","-16","experiment","SSSSS","4","even","4162","NA","NA","2205","NA","NA","11094","2197","NA","76893","75840","76995","77452","NA","76889","76995","Lab 2.1","43","22680","44","yes","1024"
"97.77777777777777","97.77777777777777","518.0222222222222","518.0222222222222","black","legacy","legacy","legacy","0","incongruent","uniform","1","undefined","1","s","0","0","0","0","0","0","44","0","44","44","44","44","44","0","44","44","Fri Sep 23 19:32:16 2022","1500","The main experiment item","yes","lab_2.1.osexp","C:\Users\joey.knofczynski\Downloads","no","mono","no","18","no","white","no","yes","768","legacy","44","44","C:/Users/joey.knofczynski/Downloads/subject-4.csv","legacy","Lentiform Loewenfeld","3.3.12","yes","0","s","s","NA","NA","s","NA","631","1955","NA","NA","631","NA","2","legacy","1024","2","48000","-16","experiment","HHSHH","4","even","4162","NA","NA","2205","NA","NA","11094","2197","NA","78511","77456","78613","79244","NA","78508","78613","Lab 2.1","44","23311","45","yes","1024"
"97.82608695652173","97.82608695652173","520.9347826086956","520.9347826086956","black","legacy","legacy","legacy","0","incongruent","uniform","1","undefined","1","h","0","0","0","0","0","0","45","0","45","45","45","45","45","0","45","45","Fri Sep 23 19:32:16 2022","1500","The main experiment item","yes","lab_2.1.osexp","C:\Users\joey.knofczynski\Downloads","no","mono","no","18","no","white","no","yes","768","legacy","45","45","C:/Users/joey.knofczynski/Downloads/subject-4.csv","legacy","Lentiform Loewenfeld","3.3.12","yes","0","h","s","NA","NA","h","NA","652","1955","NA","NA","652","NA","2","legacy","1024","2","48000","-16","experiment","SSHSS","4","even","4162","NA","NA","2205","NA","NA","11094","2197","NA","80303","79249","80405","81058","NA","80299","80405","Lab 2.1","45","23963","46","yes","1024"
"97.87234042553192","97.87234042553192","522.1702127659574","522.1702127659574","black","legacy","legacy","legacy","0","incongruent","uniform","1","undefined","1","h","0","0","0","0","0","0","46","0","46","46","46","46","46","0","46","46","Fri Sep 23 19:32:16 2022","1500","The main experiment item","yes","lab_2.1.osexp","C:\Users\joey.knofczynski\Downloads","no","mono","no","18","no","white","no","yes","768","legacy","46","46","C:/Users/joey.knofczynski/Downloads/subject-4.csv","legacy","Lentiform Loewenfeld","3.3.12","yes","0","h","s","NA","NA","h","NA","579","1955","NA","NA","579","NA","2","legacy","1024","2","48000","-16","experiment","SSHSS","4","even","4162","NA","NA","2205","NA","NA","11094","2197","NA","82117","81062","82219","82799","NA","82114","82218","Lab 2.1","46","24542","47","yes","1024"
"97.91666666666667","97.91666666666667","522.1041666666666","522.1041666666666","black","legacy","legacy","legacy","0","congruent","uniform","1","undefined","1","h","0","0","0","0","0","0","47","0","47","47","47","47","47","0","47","47","Fri Sep 23 19:32:16 2022","1500","The main experiment item","yes","lab_2.1.osexp","C:\Users\joey.knofczynski\Downloads","no","mono","no","18","no","white","no","yes","768","legacy","47","47","C:/Users/joey.knofczynski/Downloads/subject-4.csv","legacy","Lentiform Loewenfeld","3.3.12","yes","0","h","s","NA","NA","h","NA","519","1955","NA","NA","519","NA","2","legacy","1024","2","48000","-16","experiment","HHHHH","4","even","4162","NA","NA","2205","NA","NA","11094","2197","NA","83859","82804","83961","84481","NA","83854","83961","Lab 2.1","47","25061","48","yes","1024"
"97.95918367346938","97.95918367346938","523.0816326530612","523.0816326530612","black","legacy","legacy","legacy","0","incongruent","uniform","1","undefined","1","h","0","0","0","0","0","0","48","0","48","48","48","48","48","0","48","48","Fri Sep 23 19:32:16 2022","1500","The main experiment item","yes","lab_2.1.osexp","C:\Users\joey.knofczynski\Downloads","no","mono","no","18","no","white","no","yes","768","legacy","48","48","C:/Users/joey.knofczynski/Downloads/subject-4.csv","legacy","Lentiform Loewenfeld","3.3.12","yes","0","h","s","NA","NA","h","NA","570","1955","NA","NA","570","NA","2","legacy","1024","2","48000","-16","experiment","SSHSS","4","even","4162","NA","NA","2205","NA","NA","11094","2197","NA","85541","84486","85642","86213","NA","85537","85642","Lab 2.1","48","25631","49","yes","1024"
"98","98","528.1","528.1","black","legacy","legacy","legacy","0","incongruent","uniform","1","undefined","1","s","0","0","0","0","0","0","49","0","49","49","49","49","49","0","49","49","Fri Sep 23 19:32:16 2022","1500","The main experiment item","yes","lab_2.1.osexp","C:\Users\joey.knofczynski\Downloads","no","mono","no","18","no","white","no","yes","768","legacy","49","49","C:/Users/joey.knofczynski/Downloads/subject-4.csv","legacy","Lentiform Loewenfeld","3.3.12","yes","0","s","s","NA","NA","s","NA","774","1955","NA","NA","774","NA","2","legacy","1024","2","48000","-16","experiment","HHSHH","4","even","4162","NA","NA","2205","NA","NA","11094","2197","NA","87270","86216","87372","88146","NA","87267","87372","Lab 2.1","49","26405","50","yes","1024"
"98.03921568627452","98.03921568627452","531.3529411764706","531.3529411764706","black","legacy","legacy","legacy","0","congruent","uniform","1","undefined","1","s","0","0","0","0","0","0","50","0","50","50","50","50","50","0","50","50","Fri Sep 23 19:32:16 2022","1500","The main experiment item","yes","lab_2.1.osexp","C:\Users\joey.knofczynski\Downloads","no","mono","no","18","no","white","no","yes","768","legacy","50","50","C:/Users/joey.knofczynski/Downloads/subject-4.csv","legacy","Lentiform Loewenfeld","3.3.12","yes","0","s","s","NA","NA","s","NA","694","1955","NA","NA","694","NA","2","legacy","1024","2","48000","-16","experiment","SSSSS","4","even","4162","NA","NA","2205","NA","NA","11094","2197","NA","89202","88150","89304","89999","NA","89199","89304","Lab 2.1","50","27099","51","yes","1024"
"98.07692307692308","98.07692307692308","530.7692307692307","530.7692307692307","black","legacy","legacy","legacy","0","incongruent","uniform","1","undefined","1","s","0","0","0","0","0","0","51","0","51","51","51","51","51","0","51","51","Fri Sep 23 19:32:16 2022","1500","The main experiment item","yes","lab_2.1.osexp","C:\Users\joey.knofczynski\Downloads","no","mono","no","18","no","white","no","yes","768","legacy","51","51","C:/Users/joey.knofczynski/Downloads/subject-4.csv","legacy","Lentiform Loewenfeld","3.3.12","yes","0","s","s","NA","NA","s","NA","501","1955","NA","NA","501","NA","2","legacy","1024","2","48000","-16","experiment","HHSHH","4","even","4162","NA","NA","2205","NA","NA","11094","2197","NA","91055","90004","91156","91658","NA","91052","91156","Lab 2.1","51","27600","52","yes","1024"
"98.11320754716981","98.11320754716981","530.2264150943396","530.2264150943396","black","legacy","legacy","legacy","0","incongruent","uniform","1","undefined","1","s","0","0","0","0","0","0","52","0","52","52","52","52","52","0","52","52","Fri Sep 23 19:32:16 2022","1500","The main experiment item","yes","lab_2.1.osexp","C:\Users\joey.knofczynski\Downloads","no","mono","no","18","no","white","no","yes","768","legacy","52","52","C:/Users/joey.knofczynski/Downloads/subject-4.csv","legacy","Lentiform Loewenfeld","3.3.12","yes","0","s","s","NA","NA","s","NA","502","1955","NA","NA","502","NA","2","legacy","1024","2","48000","-16","experiment","HHSHH","4","even","4162","NA","NA","2205","NA","NA","11094","2197","NA","92730","91662","92832","93335","NA","92726","92832","Lab 2.1","52","28102","53","yes","1024"
"98.14814814814815","98.14814814814815","528.6851851851852","528.6851851851852","black","legacy","legacy","legacy","0","incongruent","uniform","1","undefined","1","s","0","0","0","0","0","0","53","0","53","53","53","53","53","0","53","53","Fri Sep 23 19:32:16 2022","1500","The main experiment item","yes","lab_2.1.osexp","C:\Users\joey.knofczynski\Downloads","no","mono","no","18","no","white","no","yes","768","legacy","53","53","C:/Users/joey.knofczynski/Downloads/subject-4.csv","legacy","Lentiform Loewenfeld","3.3.12","yes","0","s","s","NA","NA","s","NA","447","1955","NA","NA","447","NA","2","legacy","1024","2","48000","-16","experiment","HHSHH","4","even","4162","NA","NA","2205","NA","NA","11094","2197","NA","94394","93339","94497","94944","NA","94389","94497","Lab 2.1","53","28549","54","yes","1024"
"98.18181818181819","98.18181818181819","529.8","529.8","black","legacy","legacy","legacy","0","incongruent","uniform","1","undefined","1","h","0","0","0","0","0","0","54","0","54","54","54","54","54","0","54","54","Fri Sep 23 19:32:16 2022","1500","The main experiment item","yes","lab_2.1.osexp","C:\Users\joey.knofczynski\Downloads","no","mono","no","18","no","white","no","yes","768","legacy","54","54","C:/Users/joey.knofczynski/Downloads/subject-4.csv","legacy","Lentiform Loewenfeld","3.3.12","yes","0","h","s","NA","NA","h","NA","590","1955","NA","NA","590","NA","2","legacy","1024","2","48000","-16","experiment","SSHSS","4","even","4162","NA","NA","2205","NA","NA","11094","2197","NA","96001","94948","96103","96694","NA","95998","96102","Lab 2.1","54","29139","55","yes","1024"
"98.21428571428571","98.21428571428571","530.4642857142857","530.4642857142857","black","legacy","legacy","legacy","0","incongruent","uniform","1","undefined","1","s","0","0","0","0","0","0","55","0","55","55","55","55","55","0","55","55","Fri Sep 23 19:32:16 2022","1500","The main experiment item","yes","lab_2.1.osexp","C:\Users\joey.knofczynski\Downloads","no","mono","no","18","no","white","no","yes","768","legacy","55","55","C:/Users/joey.knofczynski/Downloads/subject-4.csv","legacy","Lentiform Loewenfeld","3.3.12","yes","0","s","s","NA","NA","s","NA","567","1955","NA","NA","567","NA","2","legacy","1024","2","48000","-16","experiment","HHSHH","4","even","4162","NA","NA","2205","NA","NA","11094","2197","NA","97753","96698","97855","98423","NA","97748","97855","Lab 2.1","55","29706","56","yes","1024"
"98.24561403508773","98.24561403508773","530.8771929824561","530.8771929824561","black","legacy","legacy","legacy","0","congruent","uniform","1","undefined","1","h","0","0","0","0","0","0","56","0","56","56","56","56","56","0","56","56","Fri Sep 23 19:32:16 2022","1500","The main experiment item","yes","lab_2.1.osexp","C:\Users\joey.knofczynski\Downloads","no","mono","no","18","no","white","no","yes","768","legacy","56","56","C:/Users/joey.knofczynski/Downloads/subject-4.csv","legacy","Lentiform Loewenfeld","3.3.12","yes","0","h","s","NA","NA","h","NA","554","1955","NA","NA","554","NA","2","legacy","1024","2","48000","-16","experiment","HHHHH","4","even","4162","NA","NA","2205","NA","NA","11094","2197","NA","99482","98426","99584","100138","NA","99479","99584","Lab 2.1","56","30260","57","yes","1024"
"98.27586206896552","98.27586206896552","530.6551724137931","530.6551724137931","black","legacy","legacy","legacy","0","congruent","uniform","1","undefined","1","s","0","0","0","0","0","0","57","0","57","57","57","57","57","0","57","57","Fri Sep 23 19:32:16 2022","1500","The main experiment item","yes","lab_2.1.osexp","C:\Users\joey.knofczynski\Downloads","no","mono","no","18","no","white","no","yes","768","legacy","57","57","C:/Users/joey.knofczynski/Downloads/subject-4.csv","legacy","Lentiform Loewenfeld","3.3.12","yes","0","s","s","NA","NA","s","NA","518","1955","NA","NA","518","NA","2","legacy","1024","2","48000","-16","experiment","SSSSS","4","even","4162","NA","NA","2205","NA","NA","11094","2197","NA","101196","100144","101298","101817","NA","101193","101297","Lab 2.1","57","30778","58","yes","1024"
"98.30508474576271","98.30508474576271","531.4406779661017","531.4406779661017","black","legacy","legacy","legacy","0","incongruent","uniform","1","undefined","1","h","0","0","0","0","0","0","58","0","58","58","58","58","58","0","58","58","Fri Sep 23 19:32:16 2022","1500","The main experiment item","yes","lab_2.1.osexp","C:\Users\joey.knofczynski\Downloads","no","mono","no","18","no","white","no","yes","768","legacy","58","58","C:/Users/joey.knofczynski/Downloads/subject-4.csv","legacy","Lentiform Loewenfeld","3.3.12","yes","0","h","s","NA","NA","h","NA","577","1955","NA","NA","577","NA","2","legacy","1024","2","48000","-16","experiment","SSHSS","4","even","4162","NA","NA","2205","NA","NA","11094","2197","NA","102875","101822","102976","103554","NA","102873","102976","Lab 2.1","58","31355","59","yes","1024"
"98.33333333333333","98.33333333333333","531.55","531.55","black","legacy","legacy","legacy","0","incongruent","uniform","1","undefined","1","h","0","0","0","0","0","0","59","0","59","59","59","59","59","0","59","59","Fri Sep 23 19:32:16 2022","1500","The main experiment item","yes","lab_2.1.osexp","C:\Users\joey.knofczynski\Downloads","no","mono","no","18","no","white","no","yes","768","legacy","59","59","C:/Users/joey.knofczynski/Downloads/subject-4.csv","legacy","Lentiform Loewenfeld","3.3.12","yes","0","h","s","NA","NA","h","NA","538","1955","NA","NA","538","NA","2","legacy","1024","2","48000","-16","experiment","SSHSS","4","even","4162","NA","NA","2205","NA","NA","11094","2197","NA","104616","103559","104719","105258","NA","104611","104719","Lab 2.1","59","31893","60","yes","1024"
"98.36065573770492","98.36065573770492","529.8032786885246","529.8032786885246","black","legacy","legacy","legacy","0","congruent","uniform","1","undefined","1","s","0","0","0","0","0","0","60","0","60","60","60","60","60","0","60","60","Fri Sep 23 19:32:16 2022","1500","The main experiment item","yes","lab_2.1.osexp","C:\Users\joey.knofczynski\Downloads","no","mono","no","18","no","white","no","yes","768","legacy","60","60","C:/Users/joey.knofczynski/Downloads/subject-4.csv","legacy","Lentiform Loewenfeld","3.3.12","yes","0","s","s","NA","NA","s","NA","425","1955","NA","NA","425","NA","2","legacy","1024","2","48000","-16","experiment","SSSSS","4","even","4162","NA","NA","2205","NA","NA","11094","2197","NA","106314","105262","106416","106843","NA","106312","106416","Lab 2.1","60","32318","61","yes","1024"
"98.38709677419355","98.38709677419355","529.1612903225806","529.1612903225806","black","legacy","legacy","legacy","0","congruent","uniform","1","undefined","1","h","0","0","0","0","0","0","61","0","61","61","61","61","61","0","61","61","Fri Sep 23 19:32:16 2022","1500","The main experiment item","yes","lab_2.1.osexp","C:\Users\joey.knofczynski\Downloads","no","mono","no","18","no","white","no","yes","768","legacy","61","61","C:/Users/joey.knofczynski/Downloads/subject-4.csv","legacy","Lentiform Loewenfeld","3.3.12","yes","0","h","s","NA","NA","h","NA","490","1955","NA","NA","490","NA","2","legacy","1024","2","48000","-16","experiment","HHHHH","4","even","4162","NA","NA","2205","NA","NA","11094","2197","NA","107907","106846","108009","108500","NA","107904","108009","Lab 2.1","61","32808","62","yes","1024"
"98.41269841269842","98.41269841269842","531.7142857142857","531.7142857142857","black","legacy","legacy","legacy","0","incongruent","uniform","1","undefined","1","s","0","0","0","0","0","0","62","0","62","62","62","62","62","0","62","62","Fri Sep 23 19:32:16 2022","1500","The main experiment item","yes","lab_2.1.osexp","C:\Users\joey.knofczynski\Downloads","no","mono","no","18","no","white","no","yes","768","legacy","62","62","C:/Users/joey.knofczynski/Downloads/subject-4.csv","legacy","Lentiform Loewenfeld","3.3.12","yes","0","s","s","NA","NA","s","NA","690","1955","NA","NA","690","NA","2","legacy","1024","2","48000","-16","experiment","HHSHH","4","even","4162","NA","NA","2205","NA","NA","11094","2197","NA","109560","108503","109662","110353","NA","109557","109662","Lab 2.1","62","33498","63","yes","1024"
"98.4375","98.4375","532.390625","532.390625","black","legacy","legacy","legacy","0","incongruent","uniform","1","undefined","1","s","0","0","0","0","0","0","63","0","63","63","63","63","63","0","63","63","Fri Sep 23 19:32:16 2022","1500","The main experiment item","yes","lab_2.1.osexp","C:\Users\joey.knofczynski\Downloads","no","mono","no","18","no","white","no","yes","768","legacy","63","63","C:/Users/joey.knofczynski/Downloads/subject-4.csv","legacy","Lentiform Loewenfeld","3.3.12","yes","0","s","s","NA","NA","s","NA","575","1955","NA","NA","575","NA","2","legacy","1024","2","48000","-16","experiment","HHSHH","4","even","4162","NA","NA","2205","NA","NA","11094","2197","NA","111411","110357","111513","112089","NA","111408","111513","Lab 2.1","63","34073","64","yes","1024"
"98.46153846153847","98.46153846153847","532.4615384615385","532.4615384615385","black","legacy","legacy","legacy","0","congruent","uniform","1","undefined","1","h","0","0","0","0","0","0","64","0","64","64","64","64","64","0","64","64","Fri Sep 23 19:32:16 2022","1500","The main experiment item","yes","lab_2.1.osexp","C:\Users\joey.knofczynski\Downloads","no","mono","no","18","no","white","no","yes","768","legacy","64","64","C:/Users/joey.knofczynski/Downloads/subject-4.csv","legacy","Lentiform Loewenfeld","3.3.12","yes","0","h","s","NA","NA","h","NA","537","1955","NA","NA","537","NA","2","legacy","1024","2","48000","-16","experiment","HHHHH","4","even","4162","NA","NA","2205","NA","NA","11094","2197","NA","113155","112093","113256","113794","NA","113152","113256","Lab 2.1","64","34610","65","yes","1024"
"98.48484848484848","98.48484848484848","533","533","black","legacy","legacy","legacy","0","incongruent","uniform","1","undefined","1","h","0","0","0","0","0","0","65","0","65","65","65","65","65","0","65","65","Fri Sep 23 19:32:16 2022","1500","The main experiment item","yes","lab_2.1.osexp","C:\Users\joey.knofczynski\Downloads","no","mono","no","18","no","white","no","yes","768","legacy","65","65","C:/Users/joey.knofczynski/Downloads/subject-4.csv","legacy","Lentiform Loewenfeld","3.3.12","yes","0","h","s","NA","NA","h","NA","568","1955","NA","NA","568","NA","2","legacy","1024","2","48000","-16","experiment","SSHSS","4","even","4162","NA","NA","2205","NA","NA","11094","2197","NA","114853","113797","114955","115524","NA","114849","114955","Lab 2.1","65","35178","66","yes","1024"
"98.50746268656717","98.50746268656717","532.8955223880597","532.8955223880597","black","legacy","legacy","legacy","0","congruent","uniform","1","undefined","1","s","0","0","0","0","0","0","66","0","66","66","66","66","66","0","66","66","Fri Sep 23 19:32:16 2022","1500","The main experiment item","yes","lab_2.1.osexp","C:\Users\joey.knofczynski\Downloads","no","mono","no","18","no","white","no","yes","768","legacy","66","66","C:/Users/joey.knofczynski/Downloads/subject-4.csv","legacy","Lentiform Loewenfeld","3.3.12","yes","0","s","s","NA","NA","s","NA","526","1955","NA","NA","526","NA","2","legacy","1024","2","48000","-16","experiment","SSSSS","4","even","4162","NA","NA","2205","NA","NA","11094","2197","NA","116584","115529","116685","117212","NA","116581","116685","Lab 2.1","66","35704","67","yes","1024"
"98.52941176470588","98.52941176470588","532.3382352941177","532.3382352941177","black","legacy","legacy","legacy","0","congruent","uniform","1","undefined","1","h","0","0","0","0","0","0","67","0","67","67","67","67","67","0","67","67","Fri Sep 23 19:32:16 2022","1500","The main experiment item","yes","lab_2.1.osexp","C:\Users\joey.knofczynski\Downloads","no","mono","no","18","no","white","no","yes","768","legacy","67","67","C:/Users/joey.knofczynski/Downloads/subject-4.csv","legacy","Lentiform Loewenfeld","3.3.12","yes","0","h","s","NA","NA","h","NA","495","1955","NA","NA","495","NA","2","legacy","1024","2","48000","-16","experiment","HHHHH","4","even","4162","NA","NA","2205","NA","NA","11094","2197","NA","118278","117216","118381","118877","NA","118275","118381","Lab 2.1","67","36199","68","yes","1024"
"98.55072463768116","98.55072463768116","531.9565217391304","531.9565217391304","black","legacy","legacy","legacy","0","congruent","uniform","1","undefined","1","s","0","0","0","0","0","0","68","0","68","68","68","68","68","0","68","68","Fri Sep 23 19:32:16 2022","1500","The main experiment item","yes","lab_2.1.osexp","C:\Users\joey.knofczynski\Downloads","no","mono","no","18","no","white","no","yes","768","legacy","68","68","C:/Users/joey.knofczynski/Downloads/subject-4.csv","legacy","Lentiform Loewenfeld","3.3.12","yes","0","s","s","NA","NA","s","NA","506","1955","NA","NA","506","NA","2","legacy","1024","2","48000","-16","experiment","SSSSS","4","even","4162","NA","NA","2205","NA","NA","11094","2197","NA","119933","118881","120034","120540","NA","119931","120034","Lab 2.1","68","36705","69","yes","1024"
"98.57142857142857","98.57142857142857","530.2142857142857","530.2142857142857","black","legacy","legacy","legacy","0","congruent","uniform","1","undefined","1","h","0","0","0","0","0","0","69","0","69","69","69","69","69","0","69","69","Fri Sep 23 19:32:16 2022","1500","The main experiment item","yes","lab_2.1.osexp","C:\Users\joey.knofczynski\Downloads","no","mono","no","18","no","white","no","yes","768","legacy","69","69","C:/Users/joey.knofczynski/Downloads/subject-4.csv","legacy","Lentiform Loewenfeld","3.3.12","yes","0","h","s","NA","NA","h","NA","410","1955","NA","NA","410","NA","2","legacy","1024","2","48000","-16","experiment","HHHHH","4","even","4162","NA","NA","2205","NA","NA","11094","2197","NA","121599","120546","121700","122111","NA","121597","121700","Lab 2.1","69","37115","70","yes","1024"
"98.59154929577464","98.59154929577464","530.6901408450705","530.6901408450705","black","legacy","legacy","legacy","0","incongruent","uniform","1","undefined","1","s","0","0","0","0","0","0","70","0","70","70","70","70","70","0","70","70","Fri Sep 23 19:32:16 2022","1500","The main experiment item","yes","lab_2.1.osexp","C:\Users\joey.knofczynski\Downloads","no","mono","no","18","no","white","no","yes","768","legacy","70","70","C:/Users/joey.knofczynski/Downloads/subject-4.csv","legacy","Lentiform Loewenfeld","3.3.12","yes","0","s","s","NA","NA","s","NA","564","1955","NA","NA","564","NA","2","legacy","1024","2","48000","-16","experiment","HHSHH","4","even","4162","NA","NA","2205","NA","NA","11094","2197","NA","123172","122116","123273","123838","NA","123169","123273","Lab 2.1","70","37679","71","yes","1024"
"98.61111111111111","98.61111111111111","529.7361111111111","529.7361111111111","black","legacy","legacy","legacy","0","congruent","uniform","1","undefined","1","h","0","0","0","0","0","0","71","0","71","71","71","71","71","0","71","71","Fri Sep 23 19:32:16 2022","1500","The main experiment item","yes","lab_2.1.osexp","C:\Users\joey.knofczynski\Downloads","no","mono","no","18","no","white","no","yes","768","legacy","71","71","C:/Users/joey.knofczynski/Downloads/subject-4.csv","legacy","Lentiform Loewenfeld","3.3.12","yes","0","h","s","NA","NA","h","NA","462","1955","NA","NA","462","NA","2","legacy","1024","2","48000","-16","experiment","HHHHH","4","even","4162","NA","NA","2205","NA","NA","11094","2197","NA","124896","123842","124999","125461","NA","124892","124998","Lab 2.1","71","38141","72","yes","1024"
"98.63013698630137","98.63013698630137","530.8904109589041","530.8904109589041","black","legacy","legacy","legacy","0","incongruent","uniform","1","undefined","1","h","0","0","0","0","0","0","72","0","72","72","72","72","72","0","72","72","Fri Sep 23 19:32:16 2022","1500","The main experiment item","yes","lab_2.1.osexp","C:\Users\joey.knofczynski\Downloads","no","mono","no","18","no","white","no","yes","768","legacy","72","72","C:/Users/joey.knofczynski/Downloads/subject-4.csv","legacy","Lentiform Loewenfeld","3.3.12","yes","0","h","s","NA","NA","h","NA","614","1955","NA","NA","614","NA","2","legacy","1024","2","48000","-16","experiment","SSHSS","4","even","4162","NA","NA","2205","NA","NA","11094","2197","NA","126518","125466","126620","127235","NA","126516","126620","Lab 2.1","72","38755","73","yes","1024"
"98.64864864864865","98.64864864864865","532.6621621621622","532.6621621621622","black","legacy","legacy","legacy","0","incongruent","uniform","1","undefined","1","s","0","0","0","0","0","0","73","0","73","73","73","73","73","0","73","73","Fri Sep 23 19:32:16 2022","1500","The main experiment item","yes","lab_2.1.osexp","C:\Users\joey.knofczynski\Downloads","no","mono","no","18","no","white","no","yes","768","legacy","73","73","C:/Users/joey.knofczynski/Downloads/subject-4.csv","legacy","Lentiform Loewenfeld","3.3.12","yes","0","s","s","NA","NA","s","NA","662","1955","NA","NA","662","NA","2","legacy","1024","2","48000","-16","experiment","HHSHH","4","even","4162","NA","NA","2205","NA","NA","11094","2197","NA","128304","127239","128407","129069","NA","128301","128407","Lab 2.1","73","39417","74","yes","1024"
"98.66666666666667","98.66666666666667","533.6133333333333","533.6133333333333","black","legacy","legacy","legacy","0","incongruent","uniform","1","undefined","1","h","0","0","0","0","0","0","74","0","74","74","74","74","74","0","74","74","Fri Sep 23 19:32:16 2022","1500","The main experiment item","yes","lab_2.1.osexp","C:\Users\joey.knofczynski\Downloads","no","mono","no","18","no","white","no","yes","768","legacy","74","74","C:/Users/joey.knofczynski/Downloads/subject-4.csv","legacy","Lentiform Loewenfeld","3.3.12","yes","0","h","s","NA","NA","h","NA","604","1955","NA","NA","604","NA","2","legacy","1024","2","48000","-16","experiment","SSHSS","4","even","4162","NA","NA","2205","NA","NA","11094","2197","NA","130128","129074","130230","130835","NA","130124","130230","Lab 2.1","74","40021","75","yes","1024"
"98.6842105263158","98.6842105263158","533.1447368421053","533.1447368421053","black","legacy","legacy","legacy","0","congruent","uniform","1","undefined","1","h","0","0","0","0","0","0","75","0","75","75","75","75","75","0","75","75","Fri Sep 23 19:32:16 2022","1500","The main experiment item","yes","lab_2.1.osexp","C:\Users\joey.knofczynski\Downloads","no","mono","no","18","no","white","no","yes","768","legacy","75","75","C:/Users/joey.knofczynski/Downloads/subject-4.csv","legacy","Lentiform Loewenfeld","3.3.12","yes","0","h","s","NA","NA","h","NA","498","1955","NA","NA","498","NA","2","legacy","1024","2","48000","-16","experiment","HHHHH","4","even","4162","NA","NA","2205","NA","NA","11094","2197","NA","131893","130839","131994","132493","NA","131890","131994","Lab 2.1","75","40519","76","yes","1024"
"98.7012987012987","98.7012987012987","532.6883116883117","532.6883116883117","black","legacy","legacy","legacy","0","congruent","uniform","1","undefined","1","s","0","0","0","0","0","0","76","0","76","76","76","76","76","0","76","76","Fri Sep 23 19:32:16 2022","1500","The main experiment item","yes","lab_2.1.osexp","C:\Users\joey.knofczynski\Downloads","no","mono","no","18","no","white","no","yes","768","legacy","76","76","C:/Users/joey.knofczynski/Downloads/subject-4.csv","legacy","Lentiform Loewenfeld","3.3.12","yes","0","s","s","NA","NA","s","NA","498","1955","NA","NA","498","NA","2","legacy","1024","2","48000","-16","experiment","SSSSS","4","even","4162","NA","NA","2205","NA","NA","11094","2197","NA","133557","132498","133659","134158","NA","133554","133659","Lab 2.1","76","41017","77","yes","1024"
"98.71794871794872","98.71794871794872","533.2820512820513","533.2820512820513","black","legacy","legacy","legacy","0","congruent","uniform","1","undefined","1","h","0","0","0","0","0","0","77","0","77","77","77","77","77","0","77","77","Fri Sep 23 19:32:16 2022","1500","The main experiment item","yes","lab_2.1.osexp","C:\Users\joey.knofczynski\Downloads","no","mono","no","18","no","white","no","yes","768","legacy","77","77","C:/Users/joey.knofczynski/Downloads/subject-4.csv","legacy","Lentiform Loewenfeld","3.3.12","yes","0","h","s","NA","NA","h","NA","579","1955","NA","NA","579","NA","2","legacy","1024","2","48000","-16","experiment","HHHHH","4","even","4162","NA","NA","2205","NA","NA","11094","2197","NA","135216","134162","135318","135898","NA","135213","135318","Lab 2.1","77","41596","78","yes","1024"
"98.73417721518987","98.73417721518987","532.4050632911392","532.4050632911392","black","legacy","legacy","legacy","0","incongruent","uniform","1","undefined","1","h","0","0","0","0","0","0","78","0","78","78","78","78","78","0","78","78","Fri Sep 23 19:32:16 2022","1500","The main experiment item","yes","lab_2.1.osexp","C:\Users\joey.knofczynski\Downloads","no","mono","no","18","no","white","no","yes","768","legacy","78","78","C:/Users/joey.knofczynski/Downloads/subject-4.csv","legacy","Lentiform Loewenfeld","3.3.12","yes","0","h","s","NA","NA","h","NA","464","1955","NA","NA","464","NA","2","legacy","1024","2","48000","-16","experiment","SSHSS","4","even","4162","NA","NA","2205","NA","NA","11094","2197","NA","136955","135902","137058","137523","NA","136952","137058","Lab 2.1","78","42060","79","yes","1024"
"98.75","98.75","532.15","532.15","black","legacy","legacy","legacy","0","congruent","uniform","1","undefined","1","h","0","0","0","0","0","0","79","0","79","79","79","79","79","0","79","79","Fri Sep 23 19:32:16 2022","1500","The main experiment item","yes","lab_2.1.osexp","C:\Users\joey.knofczynski\Downloads","no","mono","no","18","no","white","no","yes","768","legacy","79","79","C:/Users/joey.knofczynski/Downloads/subject-4.csv","legacy","Lentiform Loewenfeld","3.3.12","yes","0","h","s","NA","NA","h","NA","512","1955","NA","NA","512","NA","2","legacy","1024","2","48000","-16","experiment","HHHHH","4","even","4162","NA","NA","2205","NA","NA","11094","2197","NA","138580","137527","138682","139195","NA","138577","138682","Lab 2.1","79","42572","80","yes","1024"
"98.76543209876543","98.76543209876543","533.5925925925926","533.5925925925926","black","legacy","legacy","legacy","0","congruent","uniform","1","undefined","1","s","0","0","0","0","0","0","80","0","80","80","80","80","80","0","80","80","Fri Sep 23 19:32:16 2022","600","The main experiment item","yes","lab_2.1.osexp","C:\Users\joey.knofczynski\Downloads","no","mono","no","18","no","white","no","yes","768","legacy","0","79","C:/Users/joey.knofczynski/Downloads/subject-4.csv","legacy","Lentiform Loewenfeld","3.3.12","yes","0","s","s","h","NA","s","NA","649","1955","1371","NA","649","NA","2","legacy","1024","2","48000","-16","experiment","SSSSS","4","even","4162","141589","NA","2205","140218","NA","11094","2197","NA","141630","139199","141736","142386","NA","141628","141732","Lab 2.1","80","43221","81","yes","1024"
"98.78048780487805","98.78048780487805","532.439024390244","532.439024390244","black","legacy","legacy","legacy","0","congruent","uniform","1","undefined","1","s","0","0","0","0","0","0","81","0","81","81","81","81","81","0","81","81","Fri Sep 23 19:32:16 2022","600","The main experiment item","yes","lab_2.1.osexp","C:\Users\joey.knofczynski\Downloads","no","mono","no","18","no","white","no","yes","768","legacy","1","79","C:/Users/joey.knofczynski/Downloads/subject-4.csv","legacy","Lentiform Loewenfeld","3.3.12","yes","0","s","s","h","NA","s","NA","439","1955","1371","NA","439","NA","2","legacy","1024","2","48000","-16","experiment","SSSSS","4","even","4162","141589","NA","2205","140218","NA","11094","2197","142390","143944","142892","144046","144486","NA","143941","144045","Lab 2.1","81","43660","82","yes","1024"
"98.79518072289157","98.79518072289157","530.6867469879518","530.6867469879518","black","legacy","legacy","legacy","0","congruent","uniform","1","undefined","1","s","0","0","0","0","0","0","82","0","82","82","82","82","82","0","82","82","Fri Sep 23 19:32:16 2022","600","The main experiment item","yes","lab_2.1.osexp","C:\Users\joey.knofczynski\Downloads","no","mono","no","18","no","white","no","yes","768","legacy","2","79","C:/Users/joey.knofczynski/Downloads/subject-4.csv","legacy","Lentiform Loewenfeld","3.3.12","yes","0","s","s","h","NA","s","NA","387","1955","1371","NA","387","NA","2","legacy","1024","2","48000","-16","experiment","SSSSS","4","even","4162","141589","NA","2205","140218","NA","11094","2197","142390","145543","144489","145645","146032","NA","145539","145644","Lab 2.1","82","44047","83","yes","1024"
"98.80952380952381","98.80952380952381","529.297619047619","529.297619047619","black","legacy","legacy","legacy","0","incongruent","uniform","1","undefined","1","h","0","0","0","0","0","0","83","0","83","83","83","83","83","0","83","83","Fri Sep 23 19:32:16 2022","600","The main experiment item","yes","lab_2.1.osexp","C:\Users\joey.knofczynski\Downloads","no","mono","no","18","no","white","no","yes","768","legacy","3","79","C:/Users/joey.knofczynski/Downloads/subject-4.csv","legacy","Lentiform Loewenfeld","3.3.12","yes","0","h","s","h","NA","h","NA","414","1955","1371","NA","414","NA","2","legacy","1024","2","48000","-16","experiment","SSHSS","4","even","4162","141589","NA","2205","140218","NA","11094","2197","142390","147089","146036","147191","147606","NA","147085","147191","Lab 2.1","83","44461","84","yes","1024"
"98.82352941176471","98.82352941176471","526.635294117647","526.635294117647","black","legacy","legacy","legacy","0","congruent","uniform","1","undefined","1","h","0","0","0","0","0","0","84","0","84","84","84","84","84","0","84","84","Fri Sep 23 19:32:16 2022","600","The main experiment item","yes","lab_2.1.osexp","C:\Users\joey.knofczynski\Downloads","no","mono","no","18","no","white","no","yes","768","legacy","4","79","C:/Users/joey.knofczynski/Downloads/subject-4.csv","legacy","Lentiform Loewenfeld","3.3.12","yes","0","h","s","h","NA","h","NA","303","1955","1371","NA","303","NA","2","legacy","1024","2","48000","-16","experiment","HHHHH","4","even","4162","141589","NA","2205","140218","NA","11094","2197","142390","148663","147610","148766","149070","NA","148660","148766","Lab 2.1","84","44764","85","yes","1024"
"97.67441860465117","97.67441860465117","524.8023255813954","524.8023255813954","black","legacy","legacy","legacy","0","incongruent","uniform","0","undefined","0","h","0","0","0","0","0","0","85","0","85","85","85","85","85","0","85","85","Fri Sep 23 19:32:16 2022","600","The main experiment item","yes","lab_2.1.osexp","C:\Users\joey.knofczynski\Downloads","no","mono","no","18","no","white","no","yes","768","legacy","5","79","C:/Users/joey.knofczynski/Downloads/subject-4.csv","legacy","Lentiform Loewenfeld","3.3.12","yes","0","s","s","h","NA","s","NA","369","1955","1371","NA","369","NA","2","legacy","1024","2","48000","-16","experiment","SSHSS","4","even","4162","141589","NA","2205","140218","NA","11094","2197","142390","150125","149074","150227","150596","NA","150122","150227","Lab 2.1","84","45133","86","yes","1024"
"97.70114942528735","97.70114942528735","523.551724137931","523.551724137931","black","legacy","legacy","legacy","0","congruent","uniform","1","undefined","1","s","0","0","0","0","0","0","86","0","86","86","86","86","86","0","86","86","Fri Sep 23 19:32:16 2022","600","The main experiment item","yes","lab_2.1.osexp","C:\Users\joey.knofczynski\Downloads","no","mono","no","18","no","white","no","yes","768","legacy","6","79","C:/Users/joey.knofczynski/Downloads/subject-4.csv","legacy","Lentiform Loewenfeld","3.3.12","yes","0","s","s","h","NA","s","NA","416","1955","1371","NA","416","NA","2","legacy","1024","2","48000","-16","experiment","SSSSS","4","even","4162","141589","NA","2205","140218","NA","150601","2197","142390","152155","151102","152257","152674","NA","152152","152257","Lab 2.1","85","45549","87","yes","1024"
"97.72727272727273","97.72727272727273","522.5340909090909","522.5340909090909","black","legacy","legacy","legacy","0","incongruent","uniform","1","undefined","1","h","0","0","0","0","0","0","87","0","87","87","87","87","87","0","87","87","Fri Sep 23 19:32:16 2022","600","The main experiment item","yes","lab_2.1.osexp","C:\Users\joey.knofczynski\Downloads","no","mono","no","18","no","white","no","yes","768","legacy","7","79","C:/Users/joey.knofczynski/Downloads/subject-4.csv","legacy","Lentiform Loewenfeld","3.3.12","yes","0","h","s","h","NA","h","NA","434","1955","1371","NA","434","NA","2","legacy","1024","2","48000","-16","experiment","SSHSS","4","even","4162","141589","NA","2205","140218","NA","150601","2197","142390","153731","152678","153833","154267","NA","153728","153833","Lab 2.1","86","45983","88","yes","1024"
"96.62921348314607","96.62921348314607","521.629213483146","521.629213483146","black","legacy","legacy","legacy","0","incongruent","uniform","0","undefined","0","s","0","0","0","0","0","0","88","0","88","88","88","88","88","0","88","88","Fri Sep 23 19:32:16 2022","600","The main experiment item","yes","lab_2.1.osexp","C:\Users\joey.knofczynski\Downloads","no","mono","no","18","no","white","no","yes","768","legacy","8","79","C:/Users/joey.knofczynski/Downloads/subject-4.csv","legacy","Lentiform Loewenfeld","3.3.12","yes","0","h","s","h","NA","h","NA","442","1955","1371","NA","442","NA","2","legacy","1024","2","48000","-16","experiment","HHSHH","4","even","4162","141589","NA","2205","140218","NA","150601","2197","142390","155324","154271","155426","155869","NA","155321","155426","Lab 2.1","86","46425","89","yes","1024"
"96.66666666666667","96.66666666666667","521.3777777777777","521.3777777777777","black","legacy","legacy","legacy","0","incongruent","uniform","1","undefined","1","s","0","0","0","0","0","0","89","0","89","89","89","89","89","0","89","89","Fri Sep 23 19:32:16 2022","600","The main experiment item","yes","lab_2.1.osexp","C:\Users\joey.knofczynski\Downloads","no","mono","no","18","no","white","no","yes","768","legacy","9","79","C:/Users/joey.knofczynski/Downloads/subject-4.csv","legacy","Lentiform Loewenfeld","3.3.12","yes","0","s","s","h","NA","s","NA","499","1955","1371","NA","499","NA","2","legacy","1024","2","48000","-16","experiment","HHSHH","4","even","4162","141589","NA","2205","140218","NA","155873","2197","142390","157426","156374","157528","158028","NA","157423","157527","Lab 2.1","87","46924","90","yes","1024"
"96.7032967032967","96.7032967032967","521.0769230769231","521.0769230769231","black","legacy","legacy","legacy","0","incongruent","uniform","1","undefined","1","h","0","0","0","0","0","0","90","0","90","90","90","90","90","0","90","90","Fri Sep 23 19:32:16 2022","600","The main experiment item","yes","lab_2.1.osexp","C:\Users\joey.knofczynski\Downloads","no","mono","no","18","no","white","no","yes","768","legacy","10","79","C:/Users/joey.knofczynski/Downloads/subject-4.csv","legacy","Lentiform Loewenfeld","3.3.12","yes","0","h","s","h","NA","h","NA","494","1955","1371","NA","494","NA","2","legacy","1024","2","48000","-16","experiment","SSHSS","4","even","4162","141589","NA","2205","140218","NA","155873","2197","142390","159092","158033","159194","159688","NA","159089","159193","Lab 2.1","88","47418","91","yes","1024"
"96.73913043478261","96.73913043478261","519.9565217391304","519.9565217391304","black","legacy","legacy","legacy","0","incongruent","uniform","1","undefined","1","s","0","0","0","0","0","0","91","0","91","91","91","91","91","0","91","91","Fri Sep 23 19:32:16 2022","600","The main experiment item","yes","lab_2.1.osexp","C:\Users\joey.knofczynski\Downloads","no","mono","no","18","no","white","no","yes","768","legacy","11","79","C:/Users/joey.knofczynski/Downloads/subject-4.csv","legacy","Lentiform Loewenfeld","3.3.12","yes","0","s","s","h","NA","s","NA","418","1955","1371","NA","418","NA","2","legacy","1024","2","48000","-16","experiment","HHSHH","4","even","4162","141589","NA","2205","140218","NA","155873","2197","142390","160746","159692","160848","161268","NA","160744","160848","Lab 2.1","89","47836","92","yes","1024"
"96.7741935483871","96.7741935483871","519.6344086021505","519.6344086021505","black","legacy","legacy","legacy","0","incongruent","uniform","1","undefined","1","h","0","0","0","0","0","0","92","0","92","92","92","92","92","0","92","92","Fri Sep 23 19:32:16 2022","600","The main experiment item","yes","lab_2.1.osexp","C:\Users\joey.knofczynski\Downloads","no","mono","no","18","no","white","no","yes","768","legacy","12","79","C:/Users/joey.knofczynski/Downloads/subject-4.csv","legacy","Lentiform Loewenfeld","3.3.12","yes","0","h","s","h","NA","h","NA","490","1955","1371","NA","490","NA","2","legacy","1024","2","48000","-16","experiment","SSHSS","4","even","4162","141589","NA","2205","140218","NA","155873","2197","142390","162326","161272","162427","162918","NA","162323","162427","Lab 2.1","90","48326","93","yes","1024"
"96.80851063829788","96.80851063829788","519.6489361702128","519.6489361702128","black","legacy","legacy","legacy","0","incongruent","uniform","1","undefined","1","s","0","0","0","0","0","0","93","0","93","93","93","93","93","0","93","93","Fri Sep 23 19:32:16 2022","600","The main experiment item","yes","lab_2.1.osexp","C:\Users\joey.knofczynski\Downloads","no","mono","no","18","no","white","no","yes","768","legacy","13","79","C:/Users/joey.knofczynski/Downloads/subject-4.csv","legacy","Lentiform Loewenfeld","3.3.12","yes","0","s","s","h","NA","s","NA","521","1955","1371","NA","521","NA","2","legacy","1024","2","48000","-16","experiment","HHSHH","4","even","4162","141589","NA","2205","140218","NA","155873","2197","142390","163979","162922","164081","164603","NA","163977","164081","Lab 2.1","91","48847","94","yes","1024"
"96.84210526315789","96.84210526315789","519","519","black","legacy","legacy","legacy","0","congruent","uniform","1","undefined","1","s","0","0","0","0","0","0","94","0","94","94","94","94","94","0","94","94","Fri Sep 23 19:32:16 2022","600","The main experiment item","yes","lab_2.1.osexp","C:\Users\joey.knofczynski\Downloads","no","mono","no","18","no","white","no","yes","768","legacy","14","79","C:/Users/joey.knofczynski/Downloads/subject-4.csv","legacy","Lentiform Loewenfeld","3.3.12","yes","0","s","s","h","NA","s","NA","458","1955","1371","NA","458","NA","2","legacy","1024","2","48000","-16","experiment","SSSSS","4","even","4162","141589","NA","2205","140218","NA","155873","2197","142390","165661","164607","165763","166222","NA","165658","165763","Lab 2.1","92","49305","95","yes","1024"
"96.875","96.875","518.2604166666666","518.2604166666666","black","legacy","legacy","legacy","0","incongruent","uniform","1","undefined","1","h","0","0","0","0","0","0","95","0","95","95","95","95","95","0","95","95","Fri Sep 23 19:32:16 2022","600","The main experiment item","yes","lab_2.1.osexp","C:\Users\joey.knofczynski\Downloads","no","mono","no","18","no","white","no","yes","768","legacy","15","79","C:/Users/joey.knofczynski/Downloads/subject-4.csv","legacy","Lentiform Loewenfeld","3.3.12","yes","0","h","s","h","NA","h","NA","448","1955","1371","NA","448","NA","2","legacy","1024","2","48000","-16","experiment","SSHSS","4","even","4162","141589","NA","2205","140218","NA","155873","2197","142390","167280","166226","167382","167831","NA","167276","167381","Lab 2.1","93","49753","96","yes","1024"
"96.90721649484536","96.90721649484536","517.4639175257732","517.4639175257732","black","legacy","legacy","legacy","0","incongruent","uniform","1","undefined","1","h","0","0","0","0","0","0","96","0","96","96","96","96","96","0","96","96","Fri Sep 23 19:32:16 2022","600","The main experiment item","yes","lab_2.1.osexp","C:\Users\joey.knofczynski\Downloads","no","mono","no","18","no","white","no","yes","768","legacy","16","79","C:/Users/joey.knofczynski/Downloads/subject-4.csv","legacy","Lentiform Loewenfeld","3.3.12","yes","0","h","s","h","NA","h","NA","441","1955","1371","NA","441","NA","2","legacy","1024","2","48000","-16","experiment","SSHSS","4","even","4162","141589","NA","2205","140218","NA","155873","2197","142390","168892","167835","168994","169437","NA","168889","168994","Lab 2.1","94","50194","97","yes","1024"
"96.93877551020408","96.93877551020408","517.0918367346939","517.0918367346939","black","legacy","legacy","legacy","0","congruent","uniform","1","undefined","1","s","0","0","0","0","0","0","97","0","97","97","97","97","97","0","97","97","Fri Sep 23 19:32:16 2022","600","The main experiment item","yes","lab_2.1.osexp","C:\Users\joey.knofczynski\Downloads","no","mono","no","18","no","white","no","yes","768","legacy","17","79","C:/Users/joey.knofczynski/Downloads/subject-4.csv","legacy","Lentiform Loewenfeld","3.3.12","yes","0","s","s","h","NA","s","NA","481","1955","1371","NA","481","NA","2","legacy","1024","2","48000","-16","experiment","SSSSS","4","even","4162","141589","NA","2205","140218","NA","155873","2197","142390","170495","169441","170596","171078","NA","170492","170596","Lab 2.1","95","50675","98","yes","1024"
"96.96969696969697","96.96969696969697","516.3030303030303","516.3030303030303","black","legacy","legacy","legacy","0","congruent","uniform","1","undefined","1","h","0","0","0","0","0","0","98","0","98","98","98","98","98","0","98","98","Fri Sep 23 19:32:16 2022","600","The main experiment item","yes","lab_2.1.osexp","C:\Users\joey.knofczynski\Downloads","no","mono","no","18","no","white","no","yes","768","legacy","18","79","C:/Users/joey.knofczynski/Downloads/subject-4.csv","legacy","Lentiform Loewenfeld","3.3.12","yes","0","h","s","h","NA","h","NA","439","1955","1371","NA","439","NA","2","legacy","1024","2","48000","-16","experiment","HHHHH","4","even","4162","141589","NA","2205","140218","NA","155873","2197","142390","172134","171082","172235","172677","NA","172131","172235","Lab 2.1","96","51114","99","yes","1024"
"97","97","515.5","515.5","black","legacy","legacy","legacy","0","incongruent","uniform","1","undefined","1","h","0","0","0","0","0","0","99","0","99","99","99","99","99","0","99","99","Fri Sep 23 19:32:16 2022","600","The main experiment item","yes","lab_2.1.osexp","C:\Users\joey.knofczynski\Downloads","no","mono","no","18","no","white","no","yes","768","legacy","19","79","C:/Users/joey.knofczynski/Downloads/subject-4.csv","legacy","Lentiform Loewenfeld","3.3.12","yes","0","h","s","h","NA","h","NA","436","1955","1371","NA","436","NA","2","legacy","1024","2","48000","-16","experiment","SSHSS","4","even","4162","141589","NA","2205","140218","NA","155873","2197","142390","173733","172681","173834","174271","NA","173730","173834","Lab 2.1","97","51550","100","yes","1024"
"97.02970297029702","97.02970297029702","514.3366336633663","514.3366336633663","black","legacy","legacy","legacy","0","congruent","uniform","1","undefined","1","s","0","0","0","0","0","0","100","0","100","100","100","100","100","0","100","100","Fri Sep 23 19:32:16 2022","600","The main experiment item","yes","lab_2.1.osexp","C:\Users\joey.knofczynski\Downloads","no","mono","no","18","no","white","no","yes","768","legacy","20","79","C:/Users/joey.knofczynski/Downloads/subject-4.csv","legacy","Lentiform Loewenfeld","3.3.12","yes","0","s","s","h","NA","s","NA","398","1955","1371","NA","398","NA","2","legacy","1024","2","48000","-16","experiment","SSSSS","4","even","4162","141589","NA","2205","140218","NA","155873","2197","142390","175326","174275","175427","175826","NA","175323","175427","Lab 2.1","98","51948","101","yes","1024"
"97.05882352941177","97.05882352941177","514.3921568627451","514.3921568627451","black","legacy","legacy","legacy","0","incongruent","uniform","1","undefined","1","s","0","0","0","0","0","0","101","0","101","101","101","101","101","0","101","101","Fri Sep 23 19:32:16 2022","600","The main experiment item","yes","lab_2.1.osexp","C:\Users\joey.knofczynski\Downloads","no","mono","no","18","no","white","no","yes","768","legacy","21","79","C:/Users/joey.knofczynski/Downloads/subject-4.csv","legacy","Lentiform Loewenfeld","3.3.12","yes","0","s","s","h","NA","s","NA","520","1955","1371","NA","520","NA","2","legacy","1024","2","48000","-16","experiment","HHSHH","4","even","4162","141589","NA","2205","140218","NA","155873","2197","142390","176883","175830","176984","177505","NA","176880","176984","Lab 2.1","99","52468","102","yes","1024"
"97.0873786407767","97.0873786407767","513.6504854368932","513.6504854368932","black","legacy","legacy","legacy","0","incongruent","uniform","1","undefined","1","h","0","0","0","0","0","0","102","0","102","102","102","102","102","0","102","102","Fri Sep 23 19:32:16 2022","600","The main experiment item","yes","lab_2.1.osexp","C:\Users\joey.knofczynski\Downloads","no","mono","no","18","no","white","no","yes","768","legacy","22","79","C:/Users/joey.knofczynski/Downloads/subject-4.csv","legacy","Lentiform Loewenfeld","3.3.12","yes","0","h","s","h","NA","h","NA","438","1955","1371","NA","438","NA","2","legacy","1024","2","48000","-16","experiment","SSHSS","4","even","4162","141589","NA","2205","140218","NA","155873","2197","142390","178561","177508","178662","179100","NA","178558","178662","Lab 2.1","100","52906","103","yes","1024"
"97.11538461538461","97.11538461538461","512.4423076923077","512.4423076923077","black","legacy","legacy","legacy","0","congruent","uniform","1","undefined","1","h","0","0","0","0","0","0","103","0","103","103","103","103","103","0","103","103","Fri Sep 23 19:32:16 2022","600","The main experiment item","yes","lab_2.1.osexp","C:\Users\joey.knofczynski\Downloads","no","mono","no","18","no","white","no","yes","768","legacy","23","79","C:/Users/joey.knofczynski/Downloads/subject-4.csv","legacy","Lentiform Loewenfeld","3.3.12","yes","0","h","s","h","NA","h","NA","388","1955","1371","NA","388","NA","2","legacy","1024","2","48000","-16","experiment","HHHHH","4","even","4162","141589","NA","2205","140218","NA","155873","2197","142390","180163","179106","180265","180654","NA","180160","180264","Lab 2.1","101","53294","104","yes","1024"
"97.14285714285714","97.14285714285714","511.7809523809524","511.7809523809524","black","legacy","legacy","legacy","0","congruent","uniform","1","undefined","1","s","0","0","0","0","0","0","104","0","104","104","104","104","104","0","104","104","Fri Sep 23 19:32:16 2022","600","The main experiment item","yes","lab_2.1.osexp","C:\Users\joey.knofczynski\Downloads","no","mono","no","18","no","white","no","yes","768","legacy","24","79","C:/Users/joey.knofczynski/Downloads/subject-4.csv","legacy","Lentiform Loewenfeld","3.3.12","yes","0","s","s","h","NA","s","NA","443","1955","1371","NA","443","NA","2","legacy","1024","2","48000","-16","experiment","SSSSS","4","even","4162","141589","NA","2205","140218","NA","155873","2197","142390","181712","180659","181813","182257","NA","181710","181813","Lab 2.1","102","53737","105","yes","1024"
"97.16981132075472","97.16981132075472","511.3867924528302","511.3867924528302","black","legacy","legacy","legacy","0","congruent","uniform","1","undefined","1","h","0","0","0","0","0","0","105","0","105","105","105","105","105","0","105","105","Fri Sep 23 19:32:16 2022","600","The main experiment item","yes","lab_2.1.osexp","C:\Users\joey.knofczynski\Downloads","no","mono","no","18","no","white","no","yes","768","legacy","25","79","C:/Users/joey.knofczynski/Downloads/subject-4.csv","legacy","Lentiform Loewenfeld","3.3.12","yes","0","h","s","h","NA","h","NA","470","1955","1371","NA","470","NA","2","legacy","1024","2","48000","-16","experiment","HHHHH","4","even","4162","141589","NA","2205","140218","NA","155873","2197","142390","183314","182261","183416","183888","NA","183312","183416","Lab 2.1","103","54207","106","yes","1024"
"97.19626168224299","97.19626168224299","510.5607476635514","510.5607476635514","black","legacy","legacy","legacy","0","congruent","uniform","1","undefined","1","h","0","0","0","0","0","0","106","0","106","106","106","106","106","0","106","106","Fri Sep 23 19:32:16 2022","600","The main experiment item","yes","lab_2.1.osexp","C:\Users\joey.knofczynski\Downloads","no","mono","no","18","no","white","no","yes","768","legacy","26","79","C:/Users/joey.knofczynski/Downloads/subject-4.csv","legacy","Lentiform Loewenfeld","3.3.12","yes","0","h","s","h","NA","h","NA","423","1955","1371","NA","423","NA","2","legacy","1024","2","48000","-16","experiment","HHHHH","4","even","4162","141589","NA","2205","140218","NA","155873","2197","142390","184947","183893","185049","185473","NA","184944","185049","Lab 2.1","104","54630","107","yes","1024"
"97.22222222222223","97.22222222222223","510.01851851851853","510.01851851851853","black","legacy","legacy","legacy","0","incongruent","uniform","1","undefined","1","h","0","0","0","0","0","0","107","0","107","107","107","107","107","0","107","107","Fri Sep 23 19:32:16 2022","600","The main experiment item","yes","lab_2.1.osexp","C:\Users\joey.knofczynski\Downloads","no","mono","no","18","no","white","no","yes","768","legacy","27","79","C:/Users/joey.knofczynski/Downloads/subject-4.csv","legacy","Lentiform Loewenfeld","3.3.12","yes","0","h","s","h","NA","h","NA","452","1955","1371","NA","452","NA","2","legacy","1024","2","48000","-16","experiment","SSHSS","4","even","4162","141589","NA","2205","140218","NA","155873","2197","142390","186531","185478","186633","187086","NA","186528","186633","Lab 2.1","105","55082","108","yes","1024"
"97.24770642201835","97.24770642201835","509.8165137614679","509.8165137614679","black","legacy","legacy","legacy","0","incongruent","uniform","1","undefined","1","h","0","0","0","0","0","0","108","0","108","108","108","108","108","0","108","108","Fri Sep 23 19:32:16 2022","600","The main experiment item","yes","lab_2.1.osexp","C:\Users\joey.knofczynski\Downloads","no","mono","no","18","no","white","no","yes","768","legacy","28","79","C:/Users/joey.knofczynski/Downloads/subject-4.csv","legacy","Lentiform Loewenfeld","3.3.12","yes","0","h","s","h","NA","h","NA","488","1955","1371","NA","488","NA","2","legacy","1024","2","48000","-16","experiment","SSHSS","4","even","4162","141589","NA","2205","140218","NA","155873","2197","142390","188144","187090","188246","188735","NA","188141","188246","Lab 2.1","106","55570","109","yes","1024"
"97.27272727272727","97.27272727272727","509.6181818181818","509.6181818181818","black","legacy","legacy","legacy","0","incongruent","uniform","1","undefined","1","h","0","0","0","0","0","0","109","0","109","109","109","109","109","0","109","109","Fri Sep 23 19:32:16 2022","600","The main experiment item","yes","lab_2.1.osexp","C:\Users\joey.knofczynski\Downloads","no","mono","no","18","no","white","no","yes","768","legacy","29","79","C:/Users/joey.knofczynski/Downloads/subject-4.csv","legacy","Lentiform Loewenfeld","3.3.12","yes","0","h","s","h","NA","h","NA","488","1955","1371","NA","488","NA","2","legacy","1024","2","48000","-16","experiment","SSHSS","4","even","4162","141589","NA","2205","140218","NA","155873","2197","142390","189793","188739","189894","190383","NA","189789","189894","Lab 2.1","107","56058","110","yes","1024"
"97.29729729729729","97.29729729729729","508.86486486486484","508.86486486486484","black","legacy","legacy","legacy","0","incongruent","uniform","1","undefined","1","h","0","0","0","0","0","0","110","0","110","110","110","110","110","0","110","110","Fri Sep 23 19:32:16 2022","600","The main experiment item","yes","lab_2.1.osexp","C:\Users\joey.knofczynski\Downloads","no","mono","no","18","no","white","no","yes","768","legacy","30","79","C:/Users/joey.knofczynski/Downloads/subject-4.csv","legacy","Lentiform Loewenfeld","3.3.12","yes","0","h","s","h","NA","h","NA","426","1955","1371","NA","426","NA","2","legacy","1024","2","48000","-16","experiment","SSHSS","4","even","4162","141589","NA","2205","140218","NA","155873","2197","142390","191440","190387","191542","191969","NA","191437","191542","Lab 2.1","108","56484","111","yes","1024"
"97.32142857142857","97.32142857142857","508.6517857142857","508.6517857142857","black","legacy","legacy","legacy","0","congruent","uniform","1","undefined","1","s","0","0","0","0","0","0","111","0","111","111","111","111","111","0","111","111","Fri Sep 23 19:32:16 2022","600","The main experiment item","yes","lab_2.1.osexp","C:\Users\joey.knofczynski\Downloads","no","mono","no","18","no","white","no","yes","768","legacy","31","79","C:/Users/joey.knofczynski/Downloads/subject-4.csv","legacy","Lentiform Loewenfeld","3.3.12","yes","0","s","s","h","NA","s","NA","485","1955","1371","NA","485","NA","2","legacy","1024","2","48000","-16","experiment","SSSSS","4","even","4162","141589","NA","2205","140218","NA","155873","2197","142390","193027","191973","193129","193615","NA","193024","193129","Lab 2.1","109","56969","112","yes","1024"
"97.34513274336283","97.34513274336283","509.0265486725664","509.0265486725664","black","legacy","legacy","legacy","0","incongruent","uniform","1","undefined","1","h","0","0","0","0","0","0","112","0","112","112","112","112","112","0","112","112","Fri Sep 23 19:32:16 2022","600","The main experiment item","yes","lab_2.1.osexp","C:\Users\joey.knofczynski\Downloads","no","mono","no","18","no","white","no","yes","768","legacy","32","79","C:/Users/joey.knofczynski/Downloads/subject-4.csv","legacy","Lentiform Loewenfeld","3.3.12","yes","0","h","s","h","NA","h","NA","551","1955","1371","NA","551","NA","2","legacy","1024","2","48000","-16","experiment","SSHSS","4","even","4162","141589","NA","2205","140218","NA","155873","2197","142390","194682","193620","194783","195335","NA","194678","194783","Lab 2.1","110","57520","113","yes","1024"
"97.36842105263158","97.36842105263158","510.719298245614","510.719298245614","black","legacy","legacy","legacy","0","congruent","uniform","1","undefined","1","h","0","0","0","0","0","0","113","0","113","113","113","113","113","0","113","113","Fri Sep 23 19:32:16 2022","600","The main experiment item","yes","lab_2.1.osexp","C:\Users\joey.knofczynski\Downloads","no","mono","no","18","no","white","no","yes","768","legacy","33","79","C:/Users/joey.knofczynski/Downloads/subject-4.csv","legacy","Lentiform Loewenfeld","3.3.12","yes","0","h","s","h","NA","h","NA","702","1955","1371","NA","702","NA","2","legacy","1024","2","48000","-16","experiment","HHHHH","4","even","4162","141589","NA","2205","140218","NA","155873","2197","142390","196395","195339","196496","197199","NA","196391","196496","Lab 2.1","111","58222","114","yes","1024"
"97.3913043478261","97.3913043478261","510.9391304347826","510.9391304347826","black","legacy","legacy","legacy","0","incongruent","uniform","1","undefined","1","s","0","0","0","0","0","0","114","0","114","114","114","114","114","0","114","114","Fri Sep 23 19:32:16 2022","600","The main experiment item","yes","lab_2.1.osexp","C:\Users\joey.knofczynski\Downloads","no","mono","no","18","no","white","no","yes","768","legacy","34","79","C:/Users/joey.knofczynski/Downloads/subject-4.csv","legacy","Lentiform Loewenfeld","3.3.12","yes","0","s","s","h","NA","s","NA","536","1955","1371","NA","536","NA","2","legacy","1024","2","48000","-16","experiment","HHSHH","4","even","4162","141589","NA","2205","140218","NA","155873","2197","197203","198756","197704","198857","199394","NA","198754","198857","Lab 2.1","112","58758","115","yes","1024"
"97.41379310344827","97.41379310344827","510.9396551724138","510.9396551724138","black","legacy","legacy","legacy","0","congruent","uniform","1","undefined","1","h","0","0","0","0","0","0","115","0","115","115","115","115","115","0","115","115","Fri Sep 23 19:32:16 2022","600","The main experiment item","yes","lab_2.1.osexp","C:\Users\joey.knofczynski\Downloads","no","mono","no","18","no","white","no","yes","768","legacy","35","79","C:/Users/joey.knofczynski/Downloads/subject-4.csv","legacy","Lentiform Loewenfeld","3.3.12","yes","0","h","s","h","NA","h","NA","511","1955","1371","NA","511","NA","2","legacy","1024","2","48000","-16","experiment","HHHHH","4","even","4162","141589","NA","2205","140218","NA","155873","2197","197203","200452","199399","200555","201067","NA","200449","200555","Lab 2.1","113","59269","116","yes","1024"
"97.43589743589743","97.43589743589743","510.6837606837607","510.6837606837607","black","legacy","legacy","legacy","0","congruent","uniform","1","undefined","1","h","0","0","0","0","0","0","116","0","116","116","116","116","116","0","116","116","Fri Sep 23 19:32:16 2022","600","The main experiment item","yes","lab_2.1.osexp","C:\Users\joey.knofczynski\Downloads","no","mono","no","18","no","white","no","yes","768","legacy","36","79","C:/Users/joey.knofczynski/Downloads/subject-4.csv","legacy","Lentiform Loewenfeld","3.3.12","yes","0","h","s","h","NA","h","NA","481","1955","1371","NA","481","NA","2","legacy","1024","2","48000","-16","experiment","HHHHH","4","even","4162","141589","NA","2205","140218","NA","155873","2197","197203","202126","201071","202229","202712","NA","202123","202229","Lab 2.1","114","59750","117","yes","1024"
"97.45762711864407","97.45762711864407","509.8050847457627","509.8050847457627","black","legacy","legacy","legacy","0","congruent","uniform","1","undefined","1","h","0","0","0","0","0","0","117","0","117","117","117","117","117","0","117","117","Fri Sep 23 19:32:16 2022","600","The main experiment item","yes","lab_2.1.osexp","C:\Users\joey.knofczynski\Downloads","no","mono","no","18","no","white","no","yes","768","legacy","37","79","C:/Users/joey.knofczynski/Downloads/subject-4.csv","legacy","Lentiform Loewenfeld","3.3.12","yes","0","h","s","h","NA","h","NA","407","1955","1371","NA","407","NA","2","legacy","1024","2","48000","-16","experiment","HHHHH","4","even","4162","141589","NA","2205","140218","NA","155873","2197","197203","203772","202716","203874","204282","NA","203768","203874","Lab 2.1","115","60157","118","yes","1024"
"97.47899159663865","97.47899159663865","509.8487394957983","509.8487394957983","black","legacy","legacy","legacy","0","congruent","uniform","1","undefined","1","h","0","0","0","0","0","0","118","0","118","118","118","118","118","0","118","118","Fri Sep 23 19:32:16 2022","600","The main experiment item","yes","lab_2.1.osexp","C:\Users\joey.knofczynski\Downloads","no","mono","no","18","no","white","no","yes","768","legacy","38","79","C:/Users/joey.knofczynski/Downloads/subject-4.csv","legacy","Lentiform Loewenfeld","3.3.12","yes","0","h","s","h","NA","h","NA","515","1955","1371","NA","515","NA","2","legacy","1024","2","48000","-16","experiment","HHHHH","4","even","4162","141589","NA","2205","140218","NA","155873","2197","197203","205341","204287","205444","205960","NA","205339","205444","Lab 2.1","116","60672","119","yes","1024"
"97.5","97.5","510.43333333333334","510.43333333333334","black","legacy","legacy","legacy","0","incongruent","uniform","1","undefined","1","h","0","0","0","0","0","0","119","0","119","119","119","119","119","0","119","119","Fri Sep 23 19:32:16 2022","600","The main experiment item","yes","lab_2.1.osexp","C:\Users\joey.knofczynski\Downloads","no","mono","no","18","no","white","no","yes","768","legacy","39","79","C:/Users/joey.knofczynski/Downloads/subject-4.csv","legacy","Lentiform Loewenfeld","3.3.12","yes","0","h","s","h","NA","h","NA","580","1955","1371","NA","580","NA","2","legacy","1024","2","48000","-16","experiment","SSHSS","4","even","4162","141589","NA","2205","140218","NA","155873","2197","197203","207018","205964","207119","207700","NA","207015","207119","Lab 2.1","117","61252","120","yes","1024"
