"acc","accuracy","average_response_time","avg_rt","background","canvas_backend","clock_backend","color_backend","compensation","condition","coordinates","correct","correct_instructions1","correct_keyboard_response","correct_response","count_ISI","count_Sequence","count_block1","count_block2","count_block3","count_errorFeedback","count_experiment","count_faster","count_finish","count_fixation","count_instructions1","count_instructions2","count_instructions3","count_keyboard_response","count_logger","count_stimulus","datetime","deadline","description","disable_garbage_collection","experiment_file","experiment_path","font_bold","font_family","font_italic","font_size","font_underline","foreground","form_clicks","fullscreen","height","keyboard_backend","live_row","live_row_block1","logfile","mouse_backend","opensesame_codename","opensesame_version","repeat_cycle","response","response_finish","response_instructions1","response_instructions2","response_instructions3","response_keyboard_response","response_time","response_time_finish","response_time_instructions1","response_time_instructions2","response_time_instructions3","response_time_keyboard_response","round_decimals","sampler_backend","sound_buf_size","sound_channels","sound_freq","sound_sample_size","start","stimulus","subject_nr","subject_parity","time_ISI","time_Sequence","time_block1","time_block2","time_block3","time_errorFeedback","time_experiment","time_faster","time_finish","time_fixation","time_instructions1","time_instructions2","time_instructions3","time_keyboard_response","time_logger","time_stimulus","title","total_correct","total_response_time","total_responses","uniform_coordinates","width"
"100","100","633","633","black","legacy","legacy","legacy","0","incongruent","uniform","1","undefined","1","h","0","0","0","0","0","0","0","0","0","0","0","0","0","0","0","0","Sun Sep 26 16:54:32 2021","1500","The main experiment item","yes","FlankerTask.osexp","C:/Users/User/Desktop/School/Research Methods","no","mono","no","18","no","white","no","yes","768","legacy","0","0","C:/Users/User/Desktop/School/Research Methods/LW-subject-4.csv","legacy","Lentiform Loewenfeld","3.3.9","0","h","NA","h","NA","NA","h","633","NA","99243","NA","NA","633","2","legacy","1024","2","48000","-16","experiment","SSHSS","4","even","NA","101429","101317","NA","NA","NA","2066","NA","NA","101432","2072","NA","NA","101534","102168","101534","Flanker Task","1","633","1","yes","1024"
"100","100","520.5","520.5","black","legacy","legacy","legacy","0","congruent","uniform","1","undefined","1","h","1","1","0","0","0","1","0","1","0","1","0","0","0","1","1","1","Sun Sep 26 16:54:32 2021","1500","The main experiment item","yes","FlankerTask.osexp","C:/Users/User/Desktop/School/Research Methods","no","mono","no","18","no","white","no","yes","768","legacy","1","1","C:/Users/User/Desktop/School/Research Methods/LW-subject-4.csv","legacy","Lentiform Loewenfeld","3.3.9","0","h","NA","h","NA","NA","h","408","NA","99243","NA","NA","408","2","legacy","1024","2","48000","-16","experiment","HHHHH","4","even","102176","103254","101317","NA","NA","NA","2066","NA","NA","103256","2072","NA","NA","103358","103767","103358","Flanker Task","2","1041","2","yes","1024"
"100","100","505.3333333333333","505.3333333333333","black","legacy","legacy","legacy","0","incongruent","uniform","1","undefined","1","h","2","2","0","0","0","2","0","2","0","2","0","0","0","2","2","2","Sun Sep 26 16:54:32 2021","1500","The main experiment item","yes","FlankerTask.osexp","C:/Users/User/Desktop/School/Research Methods","no","mono","no","18","no","white","no","yes","768","legacy","2","2","C:/Users/User/Desktop/School/Research Methods/LW-subject-4.csv","legacy","Lentiform Loewenfeld","3.3.9","0","h","NA","h","NA","NA","h","475","NA","99243","NA","NA","475","2","legacy","1024","2","48000","-16","experiment","SSHSS","4","even","103771","104851","101317","NA","NA","NA","2066","NA","NA","104854","2072","NA","NA","104956","105432","104956","Flanker Task","3","1516","3","yes","1024"
"100","100","463.5","463.5","black","legacy","legacy","legacy","0","congruent","uniform","1","undefined","1","s","3","3","0","0","0","3","0","3","0","3","0","0","0","3","3","3","Sun Sep 26 16:54:32 2021","1500","The main experiment item","yes","FlankerTask.osexp","C:/Users/User/Desktop/School/Research Methods","no","mono","no","18","no","white","no","yes","768","legacy","3","3","C:/Users/User/Desktop/School/Research Methods/LW-subject-4.csv","legacy","Lentiform Loewenfeld","3.3.9","0","s","NA","h","NA","NA","s","338","NA","99243","NA","NA","338","2","legacy","1024","2","48000","-16","experiment","SSSSS","4","even","105436","106509","101317","NA","NA","NA","2066","NA","NA","106512","2072","NA","NA","106614","106952","106614","Flanker Task","4","1854","4","yes","1024"
"100","100","441.6","441.6","black","legacy","legacy","legacy","0","congruent","uniform","1","undefined","1","h","4","4","0","0","0","4","0","4","0","4","0","0","0","4","4","4","Sun Sep 26 16:54:32 2021","1500","The main experiment item","yes","FlankerTask.osexp","C:/Users/User/Desktop/School/Research Methods","no","mono","no","18","no","white","no","yes","768","legacy","4","4","C:/Users/User/Desktop/School/Research Methods/LW-subject-4.csv","legacy","Lentiform Loewenfeld","3.3.9","0","h","NA","h","NA","NA","h","354","NA","99243","NA","NA","354","2","legacy","1024","2","48000","-16","experiment","HHHHH","4","even","106957","108034","101317","NA","NA","NA","2066","NA","NA","108037","2072","NA","NA","108139","108493","108139","Flanker Task","5","2208","5","yes","1024"
"100","100","449.3333333333333","449.3333333333333","black","legacy","legacy","legacy","0","incongruent","uniform","1","undefined","1","h","5","5","0","0","0","5","0","5","0","5","0","0","0","5","5","5","Sun Sep 26 16:54:32 2021","1500","The main experiment item","yes","FlankerTask.osexp","C:/Users/User/Desktop/School/Research Methods","no","mono","no","18","no","white","no","yes","768","legacy","5","5","C:/Users/User/Desktop/School/Research Methods/LW-subject-4.csv","legacy","Lentiform Loewenfeld","3.3.9","0","h","NA","h","NA","NA","h","488","NA","99243","NA","NA","488","2","legacy","1024","2","48000","-16","experiment","SSHSS","4","even","108498","109574","101317","NA","NA","NA","2066","NA","NA","109577","2072","NA","NA","109679","110168","109679","Flanker Task","6","2696","6","yes","1024"
"85.71428571428571","85.71428571428571","437.85714285714283","437.85714285714283","black","legacy","legacy","legacy","0","incongruent","uniform","0","undefined","0","s","6","6","0","0","0","6","0","6","0","6","0","0","0","6","6","6","Sun Sep 26 16:54:32 2021","1500","The main experiment item","yes","FlankerTask.osexp","C:/Users/User/Desktop/School/Research Methods","no","mono","no","18","no","white","no","yes","768","legacy","6","6","C:/Users/User/Desktop/School/Research Methods/LW-subject-4.csv","legacy","Lentiform Loewenfeld","3.3.9","0","h","NA","h","NA","NA","h","369","NA","99243","NA","NA","369","2","legacy","1024","2","48000","-16","experiment","HHSHH","4","even","110172","111247","101317","NA","NA","NA","2066","NA","NA","111249","2072","NA","NA","111351","111721","111351","Flanker Task","6","3065","7","yes","1024"
"87.5","87.5","437.75","437.75","black","legacy","legacy","legacy","0","congruent","uniform","1","undefined","1","s","7","7","0","0","0","7","0","7","0","7","0","0","0","7","7","7","Sun Sep 26 16:54:32 2021","1500","The main experiment item","yes","FlankerTask.osexp","C:/Users/User/Desktop/School/Research Methods","no","mono","no","18","no","white","no","yes","768","legacy","7","7","C:/Users/User/Desktop/School/Research Methods/LW-subject-4.csv","legacy","Lentiform Loewenfeld","3.3.9","0","s","NA","h","NA","NA","s","437","NA","99243","NA","NA","437","2","legacy","1024","2","48000","-16","experiment","SSSSS","4","even","112227","113302","101317","NA","NA","111724","2066","NA","NA","113305","2072","NA","NA","113407","113845","113407","Flanker Task","7","3502","8","yes","1024"
"88.88888888888889","88.88888888888889","440.6666666666667","440.6666666666667","black","legacy","legacy","legacy","0","incongruent","uniform","1","undefined","1","s","8","8","0","0","0","8","0","8","0","8","0","0","0","8","8","8","Sun Sep 26 16:54:32 2021","1500","The main experiment item","yes","FlankerTask.osexp","C:/Users/User/Desktop/School/Research Methods","no","mono","no","18","no","white","no","yes","768","legacy","8","8","C:/Users/User/Desktop/School/Research Methods/LW-subject-4.csv","legacy","Lentiform Loewenfeld","3.3.9","0","s","NA","h","NA","NA","s","464","NA","99243","NA","NA","464","2","legacy","1024","2","48000","-16","experiment","HHSHH","4","even","113849","114925","101317","NA","NA","111724","2066","NA","NA","114928","2072","NA","NA","115030","115495","115030","Flanker Task","8","3966","9","yes","1024"
"90","90","426.8","426.8","black","legacy","legacy","legacy","0","congruent","uniform","1","undefined","1","s","9","9","0","0","0","9","0","9","0","9","0","0","0","9","9","9","Sun Sep 26 16:54:32 2021","1500","The main experiment item","yes","FlankerTask.osexp","C:/Users/User/Desktop/School/Research Methods","no","mono","no","18","no","white","no","yes","768","legacy","9","9","C:/Users/User/Desktop/School/Research Methods/LW-subject-4.csv","legacy","Lentiform Loewenfeld","3.3.9","0","s","NA","h","NA","NA","s","302","NA","99243","NA","NA","302","2","legacy","1024","2","48000","-16","experiment","SSSSS","4","even","115499","116574","101317","NA","NA","111724","2066","NA","NA","116577","2072","NA","NA","116679","116982","116679","Flanker Task","9","4268","10","yes","1024"
"90.9090909090909","90.9090909090909","413.6363636363636","413.6363636363636","black","legacy","legacy","legacy","0","congruent","uniform","1","undefined","1","s","10","10","0","0","0","10","0","10","0","10","0","0","0","10","10","10","Sun Sep 26 16:54:32 2021","1500","The main experiment item","yes","FlankerTask.osexp","C:/Users/User/Desktop/School/Research Methods","no","mono","no","18","no","white","no","yes","768","legacy","10","10","C:/Users/User/Desktop/School/Research Methods/LW-subject-4.csv","legacy","Lentiform Loewenfeld","3.3.9","0","s","NA","h","NA","NA","s","282","NA","99243","NA","NA","282","2","legacy","1024","2","48000","-16","experiment","SSSSS","4","even","116986","118061","101317","NA","NA","111724","2066","NA","NA","118063","2072","NA","NA","118165","118447","118165","Flanker Task","10","4550","11","yes","1024"
"91.66666666666667","91.66666666666667","408.5","408.5","black","legacy","legacy","legacy","0","congruent","uniform","1","undefined","1","h","11","11","0","0","0","11","0","11","0","11","0","0","0","11","11","11","Sun Sep 26 16:54:32 2021","1500","The main experiment item","yes","FlankerTask.osexp","C:/Users/User/Desktop/School/Research Methods","no","mono","no","18","no","white","no","yes","768","legacy","11","11","C:/Users/User/Desktop/School/Research Methods/LW-subject-4.csv","legacy","Lentiform Loewenfeld","3.3.9","0","h","NA","h","NA","NA","h","352","NA","99243","NA","NA","352","2","legacy","1024","2","48000","-16","experiment","HHHHH","4","even","118451","119527","101317","NA","NA","111724","2066","NA","NA","119529","2072","NA","NA","119631","119984","119631","Flanker Task","11","4902","12","yes","1024"
"92.3076923076923","92.3076923076923","401.3076923076923","401.3076923076923","black","legacy","legacy","legacy","0","incongruent","uniform","1","undefined","1","h","12","12","0","0","0","12","0","12","0","12","0","0","0","12","12","12","Sun Sep 26 16:54:32 2021","1500","The main experiment item","yes","FlankerTask.osexp","C:/Users/User/Desktop/School/Research Methods","no","mono","no","18","no","white","no","yes","768","legacy","12","12","C:/Users/User/Desktop/School/Research Methods/LW-subject-4.csv","legacy","Lentiform Loewenfeld","3.3.9","0","h","NA","h","NA","NA","h","315","NA","99243","NA","NA","315","2","legacy","1024","2","48000","-16","experiment","SSHSS","4","even","119988","121066","101317","NA","NA","111724","2066","NA","NA","121069","2072","NA","NA","121171","121487","121171","Flanker Task","12","5217","13","yes","1024"
"92.85714285714286","92.85714285714286","398.2142857142857","398.2142857142857","black","legacy","legacy","legacy","0","congruent","uniform","1","undefined","1","s","13","13","0","0","0","13","0","13","0","13","0","0","0","13","13","13","Sun Sep 26 16:54:32 2021","1500","The main experiment item","yes","FlankerTask.osexp","C:/Users/User/Desktop/School/Research Methods","no","mono","no","18","no","white","no","yes","768","legacy","13","13","C:/Users/User/Desktop/School/Research Methods/LW-subject-4.csv","legacy","Lentiform Loewenfeld","3.3.9","0","s","NA","h","NA","NA","s","358","NA","99243","NA","NA","358","2","legacy","1024","2","48000","-16","experiment","SSSSS","4","even","121491","122567","101317","NA","NA","111724","2066","NA","NA","122569","2072","NA","NA","122671","123030","122671","Flanker Task","13","5575","14","yes","1024"
"93.33333333333333","93.33333333333333","396.6666666666667","396.6666666666667","black","legacy","legacy","legacy","0","congruent","uniform","1","undefined","1","h","14","14","0","0","0","14","0","14","0","14","0","0","0","14","14","14","Sun Sep 26 16:54:32 2021","1500","The main experiment item","yes","FlankerTask.osexp","C:/Users/User/Desktop/School/Research Methods","no","mono","no","18","no","white","no","yes","768","legacy","14","14","C:/Users/User/Desktop/School/Research Methods/LW-subject-4.csv","legacy","Lentiform Loewenfeld","3.3.9","0","h","NA","h","NA","NA","h","375","NA","99243","NA","NA","375","2","legacy","1024","2","48000","-16","experiment","HHHHH","4","even","123035","124112","101317","NA","NA","111724","2066","NA","NA","124114","2072","NA","NA","124216","124592","124216","Flanker Task","14","5950","15","yes","1024"
"93.75","93.75","394.6875","394.6875","black","legacy","legacy","legacy","0","congruent","uniform","1","undefined","1","h","15","15","0","0","0","15","0","15","0","15","0","0","0","15","15","15","Sun Sep 26 16:54:32 2021","1500","The main experiment item","yes","FlankerTask.osexp","C:/Users/User/Desktop/School/Research Methods","no","mono","no","18","no","white","no","yes","768","legacy","15","15","C:/Users/User/Desktop/School/Research Methods/LW-subject-4.csv","legacy","Lentiform Loewenfeld","3.3.9","0","h","NA","h","NA","NA","h","365","NA","99243","NA","NA","365","2","legacy","1024","2","48000","-16","experiment","HHHHH","4","even","124596","125670","101317","NA","NA","111724","2066","NA","NA","125672","2072","NA","NA","125774","126139","125774","Flanker Task","15","6315","16","yes","1024"
"94.11764705882354","94.11764705882354","395.1764705882353","395.1764705882353","black","legacy","legacy","legacy","0","incongruent","uniform","1","undefined","1","s","16","16","0","0","0","16","0","16","0","16","0","0","0","16","16","16","Sun Sep 26 16:54:32 2021","1500","The main experiment item","yes","FlankerTask.osexp","C:/Users/User/Desktop/School/Research Methods","no","mono","no","18","no","white","no","yes","768","legacy","16","16","C:/Users/User/Desktop/School/Research Methods/LW-subject-4.csv","legacy","Lentiform Loewenfeld","3.3.9","0","s","NA","h","NA","NA","s","403","NA","99243","NA","NA","403","2","legacy","1024","2","48000","-16","experiment","HHSHH","4","even","126144","127219","101317","NA","NA","111724","2066","NA","NA","127221","2072","NA","NA","127323","127727","127323","Flanker Task","16","6718","17","yes","1024"
"94.44444444444444","94.44444444444444","394","394","black","legacy","legacy","legacy","0","congruent","uniform","1","undefined","1","s","17","17","0","0","0","17","0","17","0","17","0","0","0","17","17","17","Sun Sep 26 16:54:32 2021","1500","The main experiment item","yes","FlankerTask.osexp","C:/Users/User/Desktop/School/Research Methods","no","mono","no","18","no","white","no","yes","768","legacy","17","17","C:/Users/User/Desktop/School/Research Methods/LW-subject-4.csv","legacy","Lentiform Loewenfeld","3.3.9","0","s","NA","h","NA","NA","s","374","NA","99243","NA","NA","374","2","legacy","1024","2","48000","-16","experiment","SSSSS","4","even","127731","128807","101317","NA","NA","111724","2066","NA","NA","128810","2072","NA","NA","128912","129287","128911","Flanker Task","17","7092","18","yes","1024"
"94.73684210526316","94.73684210526316","395.7894736842105","395.7894736842105","black","legacy","legacy","legacy","0","incongruent","uniform","1","undefined","1","h","18","18","0","0","0","18","0","18","0","18","0","0","0","18","18","18","Sun Sep 26 16:54:32 2021","1500","The main experiment item","yes","FlankerTask.osexp","C:/Users/User/Desktop/School/Research Methods","no","mono","no","18","no","white","no","yes","768","legacy","18","18","C:/Users/User/Desktop/School/Research Methods/LW-subject-4.csv","legacy","Lentiform Loewenfeld","3.3.9","0","h","NA","h","NA","NA","h","428","NA","99243","NA","NA","428","2","legacy","1024","2","48000","-16","experiment","SSHSS","4","even","129291","130365","101317","NA","NA","111724","2066","NA","NA","130367","2072","NA","NA","130469","130898","130469","Flanker Task","18","7520","19","yes","1024"
"95","95","398.85","398.85","black","legacy","legacy","legacy","0","incongruent","uniform","1","undefined","1","h","19","19","0","0","0","19","0","19","0","19","0","0","0","19","19","19","Sun Sep 26 16:54:32 2021","1500","The main experiment item","yes","FlankerTask.osexp","C:/Users/User/Desktop/School/Research Methods","no","mono","no","18","no","white","no","yes","768","legacy","19","19","C:/Users/User/Desktop/School/Research Methods/LW-subject-4.csv","legacy","Lentiform Loewenfeld","3.3.9","0","h","NA","h","NA","NA","h","457","NA","99243","NA","NA","457","2","legacy","1024","2","48000","-16","experiment","SSHSS","4","even","130902","131976","101317","NA","NA","111724","2066","NA","NA","131979","2072","NA","NA","132081","132539","132081","Flanker Task","19","7977","20","yes","1024"
"95.23809523809524","95.23809523809524","397.04761904761904","397.04761904761904","black","legacy","legacy","legacy","0","congruent","uniform","1","undefined","1","h","20","20","0","0","0","20","0","20","0","20","0","0","0","20","20","20","Sun Sep 26 16:54:32 2021","1500","The main experiment item","yes","FlankerTask.osexp","C:/Users/User/Desktop/School/Research Methods","no","mono","no","18","no","white","no","yes","768","legacy","20","20","C:/Users/User/Desktop/School/Research Methods/LW-subject-4.csv","legacy","Lentiform Loewenfeld","3.3.9","0","h","NA","h","NA","NA","h","361","NA","99243","NA","NA","361","2","legacy","1024","2","48000","-16","experiment","HHHHH","4","even","132543","133622","101317","NA","NA","111724","2066","NA","NA","133624","2072","NA","NA","133726","134088","133726","Flanker Task","20","8338","21","yes","1024"
"95.45454545454545","95.45454545454545","394.77272727272725","394.77272727272725","black","legacy","legacy","legacy","0","congruent","uniform","1","undefined","1","h","21","21","0","0","0","21","0","21","0","21","0","0","0","21","21","21","Sun Sep 26 16:54:32 2021","1500","The main experiment item","yes","FlankerTask.osexp","C:/Users/User/Desktop/School/Research Methods","no","mono","no","18","no","white","no","yes","768","legacy","21","21","C:/Users/User/Desktop/School/Research Methods/LW-subject-4.csv","legacy","Lentiform Loewenfeld","3.3.9","0","h","NA","h","NA","NA","h","347","NA","99243","NA","NA","347","2","legacy","1024","2","48000","-16","experiment","HHHHH","4","even","134092","135166","101317","NA","NA","111724","2066","NA","NA","135168","2072","NA","NA","135271","135619","135271","Flanker Task","21","8685","22","yes","1024"
"95.65217391304348","95.65217391304348","392","392","black","legacy","legacy","legacy","0","congruent","uniform","1","undefined","1","s","22","22","0","0","0","22","0","22","0","22","0","0","0","22","22","22","Sun Sep 26 16:54:32 2021","1500","The main experiment item","yes","FlankerTask.osexp","C:/Users/User/Desktop/School/Research Methods","no","mono","no","18","no","white","no","yes","768","legacy","22","22","C:/Users/User/Desktop/School/Research Methods/LW-subject-4.csv","legacy","Lentiform Loewenfeld","3.3.9","0","s","NA","h","NA","NA","s","331","NA","99243","NA","NA","331","2","legacy","1024","2","48000","-16","experiment","SSSSS","4","even","135623","136701","101317","NA","NA","111724","2066","NA","NA","136703","2072","NA","NA","136805","137137","136805","Flanker Task","22","9016","23","yes","1024"
"95.83333333333333","95.83333333333333","390.4583333333333","390.4583333333333","black","legacy","legacy","legacy","0","congruent","uniform","1","undefined","1","s","23","23","0","0","0","23","0","23","0","23","0","0","0","23","23","23","Sun Sep 26 16:54:32 2021","1500","The main experiment item","yes","FlankerTask.osexp","C:/Users/User/Desktop/School/Research Methods","no","mono","no","18","no","white","no","yes","768","legacy","23","23","C:/Users/User/Desktop/School/Research Methods/LW-subject-4.csv","legacy","Lentiform Loewenfeld","3.3.9","0","s","NA","h","NA","NA","s","355","NA","99243","NA","NA","355","2","legacy","1024","2","48000","-16","experiment","SSSSS","4","even","137141","138215","101317","NA","NA","111724","2066","NA","NA","138217","2072","NA","NA","138319","138675","138319","Flanker Task","23","9371","24","yes","1024"
"96","96","391.28","391.28","black","legacy","legacy","legacy","0","incongruent","uniform","1","undefined","1","h","24","24","0","0","0","24","0","24","0","24","0","0","0","24","24","24","Sun Sep 26 16:54:32 2021","1500","The main experiment item","yes","FlankerTask.osexp","C:/Users/User/Desktop/School/Research Methods","no","mono","no","18","no","white","no","yes","768","legacy","24","24","C:/Users/User/Desktop/School/Research Methods/LW-subject-4.csv","legacy","Lentiform Loewenfeld","3.3.9","0","h","NA","h","NA","NA","h","411","NA","99243","NA","NA","411","2","legacy","1024","2","48000","-16","experiment","SSHSS","4","even","138679","139755","101317","NA","NA","111724","2066","NA","NA","139758","2072","NA","NA","139860","140272","139860","Flanker Task","24","9782","25","yes","1024"
"96.15384615384616","96.15384615384616","394.0769230769231","394.0769230769231","black","legacy","legacy","legacy","0","incongruent","uniform","1","undefined","1","h","25","25","0","0","0","25","0","25","0","25","0","0","0","25","25","25","Sun Sep 26 16:54:32 2021","1500","The main experiment item","yes","FlankerTask.osexp","C:/Users/User/Desktop/School/Research Methods","no","mono","no","18","no","white","no","yes","768","legacy","25","25","C:/Users/User/Desktop/School/Research Methods/LW-subject-4.csv","legacy","Lentiform Loewenfeld","3.3.9","0","h","NA","h","NA","NA","h","464","NA","99243","NA","NA","464","2","legacy","1024","2","48000","-16","experiment","SSHSS","4","even","140276","141350","101317","NA","NA","111724","2066","NA","NA","141353","2072","NA","NA","141455","141919","141455","Flanker Task","25","10246","26","yes","1024"
"96.29629629629629","96.29629629629629","397.1111111111111","397.1111111111111","black","legacy","legacy","legacy","0","incongruent","uniform","1","undefined","1","s","26","26","0","0","0","26","0","26","0","26","0","0","0","26","26","26","Sun Sep 26 16:54:32 2021","1500","The main experiment item","yes","FlankerTask.osexp","C:/Users/User/Desktop/School/Research Methods","no","mono","no","18","no","white","no","yes","768","legacy","26","26","C:/Users/User/Desktop/School/Research Methods/LW-subject-4.csv","legacy","Lentiform Loewenfeld","3.3.9","0","s","NA","h","NA","NA","s","476","NA","99243","NA","NA","476","2","legacy","1024","2","48000","-16","experiment","HHSHH","4","even","141923","142999","101317","NA","NA","111724","2066","NA","NA","143001","2072","NA","NA","143103","143580","143103","Flanker Task","26","10722","27","yes","1024"
"96.42857142857143","96.42857142857143","399.14285714285717","399.14285714285717","black","legacy","legacy","legacy","0","incongruent","uniform","1","undefined","1","s","27","27","0","0","0","27","0","27","0","27","0","0","0","27","27","27","Sun Sep 26 16:54:32 2021","1500","The main experiment item","yes","FlankerTask.osexp","C:/Users/User/Desktop/School/Research Methods","no","mono","no","18","no","white","no","yes","768","legacy","27","27","C:/Users/User/Desktop/School/Research Methods/LW-subject-4.csv","legacy","Lentiform Loewenfeld","3.3.9","0","s","NA","h","NA","NA","s","454","NA","99243","NA","NA","454","2","legacy","1024","2","48000","-16","experiment","HHSHH","4","even","143584","144659","101317","NA","NA","111724","2066","NA","NA","144661","2072","NA","NA","144763","145218","144763","Flanker Task","27","11176","28","yes","1024"
"96.55172413793103","96.55172413793103","395.9655172413793","395.9655172413793","black","legacy","legacy","legacy","0","congruent","uniform","1","undefined","1","s","28","28","0","0","0","28","0","28","0","28","0","0","0","28","28","28","Sun Sep 26 16:54:32 2021","1500","The main experiment item","yes","FlankerTask.osexp","C:/Users/User/Desktop/School/Research Methods","no","mono","no","18","no","white","no","yes","768","legacy","28","28","C:/Users/User/Desktop/School/Research Methods/LW-subject-4.csv","legacy","Lentiform Loewenfeld","3.3.9","0","s","NA","h","NA","NA","s","307","NA","99243","NA","NA","307","2","legacy","1024","2","48000","-16","experiment","SSSSS","4","even","145222","146298","101317","NA","NA","111724","2066","NA","NA","146300","2072","NA","NA","146402","146710","146402","Flanker Task","28","11483","29","yes","1024"
"96.66666666666667","96.66666666666667","395.3666666666667","395.3666666666667","black","legacy","legacy","legacy","0","congruent","uniform","1","undefined","1","h","29","29","0","0","0","29","0","29","0","29","0","0","0","29","29","29","Sun Sep 26 16:54:32 2021","1500","The main experiment item","yes","FlankerTask.osexp","C:/Users/User/Desktop/School/Research Methods","no","mono","no","18","no","white","no","yes","768","legacy","29","29","C:/Users/User/Desktop/School/Research Methods/LW-subject-4.csv","legacy","Lentiform Loewenfeld","3.3.9","0","h","NA","h","NA","NA","h","378","NA","99243","NA","NA","378","2","legacy","1024","2","48000","-16","experiment","HHHHH","4","even","146714","147788","101317","NA","NA","111724","2066","NA","NA","147790","2072","NA","NA","147892","148271","147892","Flanker Task","29","11861","30","yes","1024"
"96.7741935483871","96.7741935483871","393.4516129032258","393.4516129032258","black","legacy","legacy","legacy","0","incongruent","uniform","1","undefined","1","s","30","30","0","0","0","30","0","30","0","30","0","0","0","30","30","30","Sun Sep 26 16:54:32 2021","1500","The main experiment item","yes","FlankerTask.osexp","C:/Users/User/Desktop/School/Research Methods","no","mono","no","18","no","white","no","yes","768","legacy","30","30","C:/Users/User/Desktop/School/Research Methods/LW-subject-4.csv","legacy","Lentiform Loewenfeld","3.3.9","0","s","NA","h","NA","NA","s","336","NA","99243","NA","NA","336","2","legacy","1024","2","48000","-16","experiment","HHSHH","4","even","148275","149352","101317","NA","NA","111724","2066","NA","NA","149355","2072","NA","NA","149457","149794","149457","Flanker Task","30","12197","31","yes","1024"
"96.875","96.875","393.375","393.375","black","legacy","legacy","legacy","0","incongruent","uniform","1","undefined","1","h","31","31","0","0","0","31","0","31","0","31","0","0","0","31","31","31","Sun Sep 26 16:54:32 2021","1500","The main experiment item","yes","FlankerTask.osexp","C:/Users/User/Desktop/School/Research Methods","no","mono","no","18","no","white","no","yes","768","legacy","31","31","C:/Users/User/Desktop/School/Research Methods/LW-subject-4.csv","legacy","Lentiform Loewenfeld","3.3.9","0","h","NA","h","NA","NA","h","391","NA","99243","NA","NA","391","2","legacy","1024","2","48000","-16","experiment","SSHSS","4","even","149798","150875","101317","NA","NA","111724","2066","NA","NA","150877","2072","NA","NA","150979","151371","150979","Flanker Task","31","12588","32","yes","1024"
"96.96969696969697","96.96969696969697","389.93939393939394","389.93939393939394","black","legacy","legacy","legacy","0","incongruent","uniform","1","undefined","1","s","32","32","0","0","0","32","0","32","0","32","0","0","0","32","32","32","Sun Sep 26 16:54:32 2021","1500","The main experiment item","yes","FlankerTask.osexp","C:/Users/User/Desktop/School/Research Methods","no","mono","no","18","no","white","no","yes","768","legacy","32","32","C:/Users/User/Desktop/School/Research Methods/LW-subject-4.csv","legacy","Lentiform Loewenfeld","3.3.9","0","s","NA","h","NA","NA","s","280","NA","99243","NA","NA","280","2","legacy","1024","2","48000","-16","experiment","HHSHH","4","even","151375","152452","101317","NA","NA","111724","2066","NA","NA","152454","2072","NA","NA","152556","152837","152556","Flanker Task","32","12868","33","yes","1024"
"97.05882352941177","97.05882352941177","386.88235294117646","386.88235294117646","black","legacy","legacy","legacy","0","congruent","uniform","1","undefined","1","h","33","33","0","0","0","33","0","33","0","33","0","0","0","33","33","33","Sun Sep 26 16:54:32 2021","1500","The main experiment item","yes","FlankerTask.osexp","C:/Users/User/Desktop/School/Research Methods","no","mono","no","18","no","white","no","yes","768","legacy","33","33","C:/Users/User/Desktop/School/Research Methods/LW-subject-4.csv","legacy","Lentiform Loewenfeld","3.3.9","0","h","NA","h","NA","NA","h","286","NA","99243","NA","NA","286","2","legacy","1024","2","48000","-16","experiment","HHHHH","4","even","152842","153918","101317","NA","NA","111724","2066","NA","NA","153921","2072","NA","NA","154023","154310","154023","Flanker Task","33","13154","34","yes","1024"
"97.14285714285714","97.14285714285714","381.6","381.6","black","legacy","legacy","legacy","0","congruent","uniform","1","undefined","1","s","34","34","0","0","0","34","0","34","0","34","0","0","0","34","34","34","Sun Sep 26 16:54:32 2021","1500","The main experiment item","yes","FlankerTask.osexp","C:/Users/User/Desktop/School/Research Methods","no","mono","no","18","no","white","no","yes","768","legacy","34","34","C:/Users/User/Desktop/School/Research Methods/LW-subject-4.csv","legacy","Lentiform Loewenfeld","3.3.9","0","s","NA","h","NA","NA","s","202","NA","99243","NA","NA","202","2","legacy","1024","2","48000","-16","experiment","SSSSS","4","even","154314","155388","101317","NA","NA","111724","2066","NA","NA","155390","2072","NA","NA","155492","155695","155492","Flanker Task","34","13356","35","yes","1024"
"97.22222222222223","97.22222222222223","380","380","black","legacy","legacy","legacy","0","congruent","uniform","1","undefined","1","h","35","35","0","0","0","35","0","35","0","35","0","0","0","35","35","35","Sun Sep 26 16:54:32 2021","1500","The main experiment item","yes","FlankerTask.osexp","C:/Users/User/Desktop/School/Research Methods","no","mono","no","18","no","white","no","yes","768","legacy","35","35","C:/Users/User/Desktop/School/Research Methods/LW-subject-4.csv","legacy","Lentiform Loewenfeld","3.3.9","0","h","NA","h","NA","NA","h","324","NA","99243","NA","NA","324","2","legacy","1024","2","48000","-16","experiment","HHHHH","4","even","155699","156773","101317","NA","NA","111724","2066","NA","NA","156775","2072","NA","NA","156877","157202","156876","Flanker Task","35","13680","36","yes","1024"
"97.29729729729729","97.29729729729729","378.5405405405405","378.5405405405405","black","legacy","legacy","legacy","0","congruent","uniform","1","undefined","1","h","36","36","0","0","0","36","0","36","0","36","0","0","0","36","36","36","Sun Sep 26 16:54:32 2021","1500","The main experiment item","yes","FlankerTask.osexp","C:/Users/User/Desktop/School/Research Methods","no","mono","no","18","no","white","no","yes","768","legacy","36","36","C:/Users/User/Desktop/School/Research Methods/LW-subject-4.csv","legacy","Lentiform Loewenfeld","3.3.9","0","h","NA","h","NA","NA","h","326","NA","99243","NA","NA","326","2","legacy","1024","2","48000","-16","experiment","HHHHH","4","even","157206","158284","101317","NA","NA","111724","2066","NA","NA","158287","2072","NA","NA","158389","158717","158389","Flanker Task","36","14006","37","yes","1024"
"97.36842105263158","97.36842105263158","378.13157894736844","378.13157894736844","black","legacy","legacy","legacy","0","incongruent","uniform","1","undefined","1","h","37","37","0","0","0","37","0","37","0","37","0","0","0","37","37","37","Sun Sep 26 16:54:32 2021","1500","The main experiment item","yes","FlankerTask.osexp","C:/Users/User/Desktop/School/Research Methods","no","mono","no","18","no","white","no","yes","768","legacy","37","37","C:/Users/User/Desktop/School/Research Methods/LW-subject-4.csv","legacy","Lentiform Loewenfeld","3.3.9","0","h","NA","h","NA","NA","h","363","NA","99243","NA","NA","363","2","legacy","1024","2","48000","-16","experiment","SSHSS","4","even","158721","159798","101317","NA","NA","111724","2066","NA","NA","159800","2072","NA","NA","159902","160266","159902","Flanker Task","37","14369","38","yes","1024"
"94.87179487179488","94.87179487179488","376.38461538461536","376.38461538461536","black","legacy","legacy","legacy","0","incongruent","uniform","0","undefined","0","h","38","38","0","0","0","38","0","38","0","38","0","0","0","38","38","38","Sun Sep 26 16:54:32 2021","1500","The main experiment item","yes","FlankerTask.osexp","C:/Users/User/Desktop/School/Research Methods","no","mono","no","18","no","white","no","yes","768","legacy","38","38","C:/Users/User/Desktop/School/Research Methods/LW-subject-4.csv","legacy","Lentiform Loewenfeld","3.3.9","0","s","NA","h","NA","NA","s","310","NA","99243","NA","NA","310","2","legacy","1024","2","48000","-16","experiment","SSHSS","4","even","160271","161348","101317","NA","NA","111724","2066","NA","NA","161351","2072","NA","NA","161453","161764","161453","Flanker Task","37","14679","39","yes","1024"
"95","95","377.7","377.7","black","legacy","legacy","legacy","0","incongruent","uniform","1","undefined","1","h","39","39","0","0","0","39","0","39","0","39","0","0","0","39","39","39","Sun Sep 26 16:54:32 2021","1500","The main experiment item","yes","FlankerTask.osexp","C:/Users/User/Desktop/School/Research Methods","no","mono","no","18","no","white","no","yes","768","legacy","39","39","C:/Users/User/Desktop/School/Research Methods/LW-subject-4.csv","legacy","Lentiform Loewenfeld","3.3.9","0","h","NA","h","NA","NA","h","429","NA","99243","NA","NA","429","2","legacy","1024","2","48000","-16","experiment","SSHSS","4","even","162270","163344","101317","NA","NA","161768","2066","NA","NA","163347","2072","NA","NA","163449","163879","163449","Flanker Task","38","15108","40","yes","1024"
"95.1219512195122","95.1219512195122","377.2682926829268","377.2682926829268","black","legacy","legacy","legacy","0","congruent","uniform","1","undefined","1","s","40","40","0","0","0","40","0","40","0","40","0","0","0","40","40","40","Sun Sep 26 16:54:32 2021","1500","The main experiment item","yes","FlankerTask.osexp","C:/Users/User/Desktop/School/Research Methods","no","mono","no","18","no","white","no","yes","768","legacy","40","40","C:/Users/User/Desktop/School/Research Methods/LW-subject-4.csv","legacy","Lentiform Loewenfeld","3.3.9","0","s","NA","h","NA","NA","s","360","NA","99243","NA","NA","360","2","legacy","1024","2","48000","-16","experiment","SSSSS","4","even","163883","164962","101317","NA","NA","161768","2066","NA","NA","164965","2072","NA","NA","165067","165428","165067","Flanker Task","39","15468","41","yes","1024"
"95.23809523809524","95.23809523809524","375.95238095238096","375.95238095238096","black","legacy","legacy","legacy","0","congruent","uniform","1","undefined","1","s","41","41","0","0","0","41","0","41","0","41","0","0","0","41","41","41","Sun Sep 26 16:54:32 2021","1500","The main experiment item","yes","FlankerTask.osexp","C:/Users/User/Desktop/School/Research Methods","no","mono","no","18","no","white","no","yes","768","legacy","41","41","C:/Users/User/Desktop/School/Research Methods/LW-subject-4.csv","legacy","Lentiform Loewenfeld","3.3.9","0","s","NA","h","NA","NA","s","322","NA","99243","NA","NA","322","2","legacy","1024","2","48000","-16","experiment","SSSSS","4","even","165432","166508","101317","NA","NA","161768","2066","NA","NA","166510","2072","NA","NA","166612","166935","166612","Flanker Task","40","15790","42","yes","1024"
"95.34883720930233","95.34883720930233","378.06976744186045","378.06976744186045","black","legacy","legacy","legacy","0","incongruent","uniform","1","undefined","1","h","42","42","0","0","0","42","0","42","0","42","0","0","0","42","42","42","Sun Sep 26 16:54:32 2021","1500","The main experiment item","yes","FlankerTask.osexp","C:/Users/User/Desktop/School/Research Methods","no","mono","no","18","no","white","no","yes","768","legacy","42","42","C:/Users/User/Desktop/School/Research Methods/LW-subject-4.csv","legacy","Lentiform Loewenfeld","3.3.9","0","h","NA","h","NA","NA","h","467","NA","99243","NA","NA","467","2","legacy","1024","2","48000","-16","experiment","SSHSS","4","even","166939","168016","101317","NA","NA","161768","2066","NA","NA","168019","2072","NA","NA","168121","168589","168121","Flanker Task","41","16257","43","yes","1024"
"95.45454545454545","95.45454545454545","380.52272727272725","380.52272727272725","black","legacy","legacy","legacy","0","incongruent","uniform","1","undefined","1","s","43","43","0","0","0","43","0","43","0","43","0","0","0","43","43","43","Sun Sep 26 16:54:32 2021","1500","The main experiment item","yes","FlankerTask.osexp","C:/Users/User/Desktop/School/Research Methods","no","mono","no","18","no","white","no","yes","768","legacy","43","43","C:/Users/User/Desktop/School/Research Methods/LW-subject-4.csv","legacy","Lentiform Loewenfeld","3.3.9","0","s","NA","h","NA","NA","s","486","NA","99243","NA","NA","486","2","legacy","1024","2","48000","-16","experiment","HHSHH","4","even","168593","169667","101317","NA","NA","161768","2066","NA","NA","169669","2072","NA","NA","169771","170258","169771","Flanker Task","42","16743","44","yes","1024"
"93.33333333333333","93.33333333333333","379.53333333333336","379.53333333333336","black","legacy","legacy","legacy","0","incongruent","uniform","0","undefined","0","s","44","44","0","0","0","44","0","44","0","44","0","0","0","44","44","44","Sun Sep 26 16:54:32 2021","1500","The main experiment item","yes","FlankerTask.osexp","C:/Users/User/Desktop/School/Research Methods","no","mono","no","18","no","white","no","yes","768","legacy","44","44","C:/Users/User/Desktop/School/Research Methods/LW-subject-4.csv","legacy","Lentiform Loewenfeld","3.3.9","0","h","NA","h","NA","NA","h","336","NA","99243","NA","NA","336","2","legacy","1024","2","48000","-16","experiment","HHSHH","4","even","170262","171339","101317","NA","NA","161768","2066","NA","NA","171342","2072","NA","NA","171444","171781","171444","Flanker Task","42","17079","45","yes","1024"
"93.47826086956522","93.47826086956522","382.9782608695652","382.9782608695652","black","legacy","legacy","legacy","0","incongruent","uniform","1","undefined","1","s","45","45","0","0","0","45","0","45","0","45","0","0","0","45","45","45","Sun Sep 26 16:54:32 2021","1500","The main experiment item","yes","FlankerTask.osexp","C:/Users/User/Desktop/School/Research Methods","no","mono","no","18","no","white","no","yes","768","legacy","45","45","C:/Users/User/Desktop/School/Research Methods/LW-subject-4.csv","legacy","Lentiform Loewenfeld","3.3.9","0","s","NA","h","NA","NA","s","538","NA","99243","NA","NA","538","2","legacy","1024","2","48000","-16","experiment","HHSHH","4","even","172288","173361","101317","NA","NA","171786","2066","NA","NA","173364","2072","NA","NA","173466","174005","173466","Flanker Task","43","17617","46","yes","1024"
"93.61702127659575","93.61702127659575","382.9148936170213","382.9148936170213","black","legacy","legacy","legacy","0","congruent","uniform","1","undefined","1","h","46","46","0","0","0","46","0","46","0","46","0","0","0","46","46","46","Sun Sep 26 16:54:32 2021","1500","The main experiment item","yes","FlankerTask.osexp","C:/Users/User/Desktop/School/Research Methods","no","mono","no","18","no","white","no","yes","768","legacy","46","46","C:/Users/User/Desktop/School/Research Methods/LW-subject-4.csv","legacy","Lentiform Loewenfeld","3.3.9","0","h","NA","h","NA","NA","h","380","NA","99243","NA","NA","380","2","legacy","1024","2","48000","-16","experiment","HHHHH","4","even","174009","175085","101317","NA","NA","171786","2066","NA","NA","175088","2072","NA","NA","175190","175571","175190","Flanker Task","44","17997","47","yes","1024"
"93.75","93.75","381.9375","381.9375","black","legacy","legacy","legacy","0","incongruent","uniform","1","undefined","1","s","47","47","0","0","0","47","0","47","0","47","0","0","0","47","47","47","Sun Sep 26 16:54:32 2021","1500","The main experiment item","yes","FlankerTask.osexp","C:/Users/User/Desktop/School/Research Methods","no","mono","no","18","no","white","no","yes","768","legacy","47","47","C:/Users/User/Desktop/School/Research Methods/LW-subject-4.csv","legacy","Lentiform Loewenfeld","3.3.9","0","s","NA","h","NA","NA","s","336","NA","99243","NA","NA","336","2","legacy","1024","2","48000","-16","experiment","HHSHH","4","even","175575","176651","101317","NA","NA","171786","2066","NA","NA","176654","2072","NA","NA","176756","177094","176756","Flanker Task","45","18333","48","yes","1024"
"91.83673469387755","91.83673469387755","380.9795918367347","380.9795918367347","black","legacy","legacy","legacy","0","incongruent","uniform","0","undefined","0","s","48","48","0","0","0","48","0","48","0","48","0","0","0","48","48","48","Sun Sep 26 16:54:32 2021","1500","The main experiment item","yes","FlankerTask.osexp","C:/Users/User/Desktop/School/Research Methods","no","mono","no","18","no","white","no","yes","768","legacy","48","48","C:/Users/User/Desktop/School/Research Methods/LW-subject-4.csv","legacy","Lentiform Loewenfeld","3.3.9","0","h","NA","h","NA","NA","h","335","NA","99243","NA","NA","335","2","legacy","1024","2","48000","-16","experiment","HHSHH","4","even","177098","178174","101317","NA","NA","171786","2066","NA","NA","178177","2072","NA","NA","178279","178615","178279","Flanker Task","45","18668","49","yes","1024"
"92","92","380.46","380.46","black","legacy","legacy","legacy","0","incongruent","uniform","1","undefined","1","s","49","49","0","0","0","49","0","49","0","49","0","0","0","49","49","49","Sun Sep 26 16:54:32 2021","1500","The main experiment item","yes","FlankerTask.osexp","C:/Users/User/Desktop/School/Research Methods","no","mono","no","18","no","white","no","yes","768","legacy","49","49","C:/Users/User/Desktop/School/Research Methods/LW-subject-4.csv","legacy","Lentiform Loewenfeld","3.3.9","0","s","NA","h","NA","NA","s","355","NA","99243","NA","NA","355","2","legacy","1024","2","48000","-16","experiment","HHSHH","4","even","179121","180196","101317","NA","NA","178619","2066","NA","NA","180199","2072","NA","NA","180301","180658","180301","Flanker Task","46","19023","50","yes","1024"
"92.15686274509804","92.15686274509804","379","379","black","legacy","legacy","legacy","0","congruent","uniform","1","undefined","1","s","50","50","0","0","0","50","0","50","0","50","0","0","0","50","50","50","Sun Sep 26 16:54:32 2021","1500","The main experiment item","yes","FlankerTask.osexp","C:/Users/User/Desktop/School/Research Methods","no","mono","no","18","no","white","no","yes","768","legacy","50","50","C:/Users/User/Desktop/School/Research Methods/LW-subject-4.csv","legacy","Lentiform Loewenfeld","3.3.9","0","s","NA","h","NA","NA","s","306","NA","99243","NA","NA","306","2","legacy","1024","2","48000","-16","experiment","SSSSS","4","even","180662","181738","101317","NA","NA","178619","2066","NA","NA","181740","2072","NA","NA","181842","182149","181842","Flanker Task","47","19329","51","yes","1024"
"92.3076923076923","92.3076923076923","379.2692307692308","379.2692307692308","black","legacy","legacy","legacy","0","incongruent","uniform","1","undefined","1","s","51","51","0","0","0","51","0","51","0","51","0","0","0","51","51","51","Sun Sep 26 16:54:32 2021","1500","The main experiment item","yes","FlankerTask.osexp","C:/Users/User/Desktop/School/Research Methods","no","mono","no","18","no","white","no","yes","768","legacy","51","51","C:/Users/User/Desktop/School/Research Methods/LW-subject-4.csv","legacy","Lentiform Loewenfeld","3.3.9","0","s","NA","h","NA","NA","s","393","NA","99243","NA","NA","393","2","legacy","1024","2","48000","-16","experiment","HHSHH","4","even","182154","183228","101317","NA","NA","178619","2066","NA","NA","183230","2072","NA","NA","183333","183727","183332","Flanker Task","48","19722","52","yes","1024"
"92.45283018867924","92.45283018867924","378.188679245283","378.188679245283","black","legacy","legacy","legacy","0","incongruent","uniform","1","undefined","1","s","52","52","0","0","0","52","0","52","0","52","0","0","0","52","52","52","Sun Sep 26 16:54:32 2021","1500","The main experiment item","yes","FlankerTask.osexp","C:/Users/User/Desktop/School/Research Methods","no","mono","no","18","no","white","no","yes","768","legacy","52","52","C:/Users/User/Desktop/School/Research Methods/LW-subject-4.csv","legacy","Lentiform Loewenfeld","3.3.9","0","s","NA","h","NA","NA","s","322","NA","99243","NA","NA","322","2","legacy","1024","2","48000","-16","experiment","HHSHH","4","even","183731","184806","101317","NA","NA","178619","2066","NA","NA","184808","2072","NA","NA","184910","185233","184910","Flanker Task","49","20044","53","yes","1024"
"92.5925925925926","92.5925925925926","377.0740740740741","377.0740740740741","black","legacy","legacy","legacy","0","incongruent","uniform","1","undefined","1","s","53","53","0","0","0","53","0","53","0","53","0","0","0","53","53","53","Sun Sep 26 16:54:32 2021","1500","The main experiment item","yes","FlankerTask.osexp","C:/Users/User/Desktop/School/Research Methods","no","mono","no","18","no","white","no","yes","768","legacy","53","53","C:/Users/User/Desktop/School/Research Methods/LW-subject-4.csv","legacy","Lentiform Loewenfeld","3.3.9","0","s","NA","h","NA","NA","s","318","NA","99243","NA","NA","318","2","legacy","1024","2","48000","-16","experiment","HHSHH","4","even","185237","186314","101317","NA","NA","178619","2066","NA","NA","186317","2072","NA","NA","186419","186738","186419","Flanker Task","50","20362","54","yes","1024"
"92.72727272727273","92.72727272727273","375.4909090909091","375.4909090909091","black","legacy","legacy","legacy","0","congruent","uniform","1","undefined","1","s","54","54","0","0","0","54","0","54","0","54","0","0","0","54","54","54","Sun Sep 26 16:54:32 2021","1500","The main experiment item","yes","FlankerTask.osexp","C:/Users/User/Desktop/School/Research Methods","no","mono","no","18","no","white","no","yes","768","legacy","54","54","C:/Users/User/Desktop/School/Research Methods/LW-subject-4.csv","legacy","Lentiform Loewenfeld","3.3.9","0","s","NA","h","NA","NA","s","290","NA","99243","NA","NA","290","2","legacy","1024","2","48000","-16","experiment","SSSSS","4","even","186743","187819","101317","NA","NA","178619","2066","NA","NA","187822","2072","NA","NA","187924","188215","187924","Flanker Task","51","20652","55","yes","1024"
"92.85714285714286","92.85714285714286","374.89285714285717","374.89285714285717","black","legacy","legacy","legacy","0","incongruent","uniform","1","undefined","1","s","55","55","0","0","0","55","0","55","0","55","0","0","0","55","55","55","Sun Sep 26 16:54:32 2021","1500","The main experiment item","yes","FlankerTask.osexp","C:/Users/User/Desktop/School/Research Methods","no","mono","no","18","no","white","no","yes","768","legacy","55","55","C:/Users/User/Desktop/School/Research Methods/LW-subject-4.csv","legacy","Lentiform Loewenfeld","3.3.9","0","s","NA","h","NA","NA","s","342","NA","99243","NA","NA","342","2","legacy","1024","2","48000","-16","experiment","HHSHH","4","even","188219","189294","101317","NA","NA","178619","2066","NA","NA","189296","2072","NA","NA","189398","189742","189398","Flanker Task","52","20994","56","yes","1024"
"92.98245614035088","92.98245614035088","374.57894736842104","374.57894736842104","black","legacy","legacy","legacy","0","congruent","uniform","1","undefined","1","s","56","56","0","0","0","56","0","56","0","56","0","0","0","56","56","56","Sun Sep 26 16:54:32 2021","1500","The main experiment item","yes","FlankerTask.osexp","C:/Users/User/Desktop/School/Research Methods","no","mono","no","18","no","white","no","yes","768","legacy","56","56","C:/Users/User/Desktop/School/Research Methods/LW-subject-4.csv","legacy","Lentiform Loewenfeld","3.3.9","0","s","NA","h","NA","NA","s","357","NA","99243","NA","NA","357","2","legacy","1024","2","48000","-16","experiment","SSSSS","4","even","189746","190822","101317","NA","NA","178619","2066","NA","NA","190824","2072","NA","NA","190927","191285","190927","Flanker Task","53","21351","57","yes","1024"
"93.10344827586206","93.10344827586206","374.7758620689655","374.7758620689655","black","legacy","legacy","legacy","0","congruent","uniform","1","undefined","1","h","57","57","0","0","0","57","0","57","0","57","0","0","0","57","57","57","Sun Sep 26 16:54:32 2021","1500","The main experiment item","yes","FlankerTask.osexp","C:/Users/User/Desktop/School/Research Methods","no","mono","no","18","no","white","no","yes","768","legacy","57","57","C:/Users/User/Desktop/School/Research Methods/LW-subject-4.csv","legacy","Lentiform Loewenfeld","3.3.9","0","h","NA","h","NA","NA","h","386","NA","99243","NA","NA","386","2","legacy","1024","2","48000","-16","experiment","HHHHH","4","even","191289","192364","101317","NA","NA","178619","2066","NA","NA","192366","2072","NA","NA","192468","192855","192468","Flanker Task","54","21737","58","yes","1024"
"93.22033898305085","93.22033898305085","374.8813559322034","374.8813559322034","black","legacy","legacy","legacy","0","incongruent","uniform","1","undefined","1","s","58","58","0","0","0","58","0","58","0","58","0","0","0","58","58","58","Sun Sep 26 16:54:32 2021","1500","The main experiment item","yes","FlankerTask.osexp","C:/Users/User/Desktop/School/Research Methods","no","mono","no","18","no","white","no","yes","768","legacy","58","58","C:/Users/User/Desktop/School/Research Methods/LW-subject-4.csv","legacy","Lentiform Loewenfeld","3.3.9","0","s","NA","h","NA","NA","s","381","NA","99243","NA","NA","381","2","legacy","1024","2","48000","-16","experiment","HHSHH","4","even","192859","193933","101317","NA","NA","178619","2066","NA","NA","193936","2072","NA","NA","194038","194420","194038","Flanker Task","55","22118","59","yes","1024"
"93.33333333333333","93.33333333333333","374.7","374.7","black","legacy","legacy","legacy","0","incongruent","uniform","1","undefined","1","h","59","59","0","0","0","59","0","59","0","59","0","0","0","59","59","59","Sun Sep 26 16:54:32 2021","1500","The main experiment item","yes","FlankerTask.osexp","C:/Users/User/Desktop/School/Research Methods","no","mono","no","18","no","white","no","yes","768","legacy","59","59","C:/Users/User/Desktop/School/Research Methods/LW-subject-4.csv","legacy","Lentiform Loewenfeld","3.3.9","0","h","NA","h","NA","NA","h","364","NA","99243","NA","NA","364","2","legacy","1024","2","48000","-16","experiment","SSHSS","4","even","194424","195502","101317","NA","NA","178619","2066","NA","NA","195505","2072","NA","NA","195607","195972","195606","Flanker Task","56","22482","60","yes","1024"
"91.80327868852459","91.80327868852459","371.9672131147541","371.9672131147541","black","legacy","legacy","legacy","0","incongruent","uniform","0","undefined","0","h","60","60","0","0","0","60","0","60","0","60","0","0","0","60","60","60","Sun Sep 26 16:54:32 2021","1500","The main experiment item","yes","FlankerTask.osexp","C:/Users/User/Desktop/School/Research Methods","no","mono","no","18","no","white","no","yes","768","legacy","60","60","C:/Users/User/Desktop/School/Research Methods/LW-subject-4.csv","legacy","Lentiform Loewenfeld","3.3.9","0","s","NA","h","NA","NA","s","208","NA","99243","NA","NA","208","2","legacy","1024","2","48000","-16","experiment","SSHSS","4","even","195976","197050","101317","NA","NA","178619","2066","NA","NA","197053","2072","NA","NA","197155","197364","197155","Flanker Task","56","22690","61","yes","1024"
"91.93548387096774","91.93548387096774","371.8709677419355","371.8709677419355","black","legacy","legacy","legacy","0","congruent","uniform","1","undefined","1","h","61","61","0","0","0","61","0","61","0","61","0","0","0","61","61","61","Sun Sep 26 16:54:32 2021","1500","The main experiment item","yes","FlankerTask.osexp","C:/Users/User/Desktop/School/Research Methods","no","mono","no","18","no","white","no","yes","768","legacy","61","61","C:/Users/User/Desktop/School/Research Methods/LW-subject-4.csv","legacy","Lentiform Loewenfeld","3.3.9","0","h","NA","h","NA","NA","h","366","NA","99243","NA","NA","366","2","legacy","1024","2","48000","-16","experiment","HHHHH","4","even","197870","198942","101317","NA","NA","197368","2066","NA","NA","198945","2072","NA","NA","199047","199414","199046","Flanker Task","57","23056","62","yes","1024"
"92.06349206349206","92.06349206349206","372.12698412698415","372.12698412698415","black","legacy","legacy","legacy","0","congruent","uniform","1","undefined","1","h","62","62","0","0","0","62","0","62","0","62","0","0","0","62","62","62","Sun Sep 26 16:54:32 2021","1500","The main experiment item","yes","FlankerTask.osexp","C:/Users/User/Desktop/School/Research Methods","no","mono","no","18","no","white","no","yes","768","legacy","62","62","C:/Users/User/Desktop/School/Research Methods/LW-subject-4.csv","legacy","Lentiform Loewenfeld","3.3.9","0","h","NA","h","NA","NA","h","388","NA","99243","NA","NA","388","2","legacy","1024","2","48000","-16","experiment","HHHHH","4","even","199418","200496","101317","NA","NA","197368","2066","NA","NA","200498","2072","NA","NA","200600","200989","200600","Flanker Task","58","23444","63","yes","1024"
"92.1875","92.1875","371.234375","371.234375","black","legacy","legacy","legacy","0","congruent","uniform","1","undefined","1","h","63","63","0","0","0","63","0","63","0","63","0","0","0","63","63","63","Sun Sep 26 16:54:32 2021","1500","The main experiment item","yes","FlankerTask.osexp","C:/Users/User/Desktop/School/Research Methods","no","mono","no","18","no","white","no","yes","768","legacy","63","63","C:/Users/User/Desktop/School/Research Methods/LW-subject-4.csv","legacy","Lentiform Loewenfeld","3.3.9","0","h","NA","h","NA","NA","h","315","NA","99243","NA","NA","315","2","legacy","1024","2","48000","-16","experiment","HHHHH","4","even","200993","202067","101317","NA","NA","197368","2066","NA","NA","202070","2072","NA","NA","202172","202489","202172","Flanker Task","59","23759","64","yes","1024"
"92.3076923076923","92.3076923076923","371.46153846153845","371.46153846153845","black","legacy","legacy","legacy","0","incongruent","uniform","1","undefined","1","h","64","64","0","0","0","64","0","64","0","64","0","0","0","64","64","64","Sun Sep 26 16:54:32 2021","1500","The main experiment item","yes","FlankerTask.osexp","C:/Users/User/Desktop/School/Research Methods","no","mono","no","18","no","white","no","yes","768","legacy","64","64","C:/Users/User/Desktop/School/Research Methods/LW-subject-4.csv","legacy","Lentiform Loewenfeld","3.3.9","0","h","NA","h","NA","NA","h","386","NA","99243","NA","NA","386","2","legacy","1024","2","48000","-16","experiment","SSHSS","4","even","202493","203568","101317","NA","NA","197368","2066","NA","NA","203570","2072","NA","NA","203672","204059","203672","Flanker Task","60","24145","65","yes","1024"
"90.9090909090909","90.9090909090909","371","371","black","legacy","legacy","legacy","0","incongruent","uniform","0","undefined","0","h","65","65","0","0","0","65","0","65","0","65","0","0","0","65","65","65","Sun Sep 26 16:54:32 2021","1500","The main experiment item","yes","FlankerTask.osexp","C:/Users/User/Desktop/School/Research Methods","no","mono","no","18","no","white","no","yes","768","legacy","65","65","C:/Users/User/Desktop/School/Research Methods/LW-subject-4.csv","legacy","Lentiform Loewenfeld","3.3.9","0","s","NA","h","NA","NA","s","341","NA","99243","NA","NA","341","2","legacy","1024","2","48000","-16","experiment","SSHSS","4","even","204064","205138","101317","NA","NA","197368","2066","NA","NA","205140","2072","NA","NA","205243","205585","205243","Flanker Task","60","24486","66","yes","1024"
"91.04477611940298","91.04477611940298","370.3134328358209","370.3134328358209","black","legacy","legacy","legacy","0","congruent","uniform","1","undefined","1","s","66","66","0","0","0","66","0","66","0","66","0","0","0","66","66","66","Sun Sep 26 16:54:32 2021","1500","The main experiment item","yes","FlankerTask.osexp","C:/Users/User/Desktop/School/Research Methods","no","mono","no","18","no","white","no","yes","768","legacy","66","66","C:/Users/User/Desktop/School/Research Methods/LW-subject-4.csv","legacy","Lentiform Loewenfeld","3.3.9","0","s","NA","h","NA","NA","s","325","NA","99243","NA","NA","325","2","legacy","1024","2","48000","-16","experiment","SSSSS","4","even","206091","207164","101317","NA","NA","205589","2066","NA","NA","207167","2072","NA","NA","207269","207595","207269","Flanker Task","61","24811","67","yes","1024"
"91.17647058823529","91.17647058823529","369.27941176470586","369.27941176470586","black","legacy","legacy","legacy","0","congruent","uniform","1","undefined","1","s","67","67","0","0","0","67","0","67","0","67","0","0","0","67","67","67","Sun Sep 26 16:54:32 2021","1500","The main experiment item","yes","FlankerTask.osexp","C:/Users/User/Desktop/School/Research Methods","no","mono","no","18","no","white","no","yes","768","legacy","67","67","C:/Users/User/Desktop/School/Research Methods/LW-subject-4.csv","legacy","Lentiform Loewenfeld","3.3.9","0","s","NA","h","NA","NA","s","300","NA","99243","NA","NA","300","2","legacy","1024","2","48000","-16","experiment","SSSSS","4","even","207599","208672","101317","NA","NA","205589","2066","NA","NA","208675","2072","NA","NA","208777","209078","208777","Flanker Task","62","25111","68","yes","1024"
"89.85507246376811","89.85507246376811","369.5217391304348","369.5217391304348","black","legacy","legacy","legacy","0","incongruent","uniform","0","undefined","0","s","68","68","0","0","0","68","0","68","0","68","0","0","0","68","68","68","Sun Sep 26 16:54:32 2021","1500","The main experiment item","yes","FlankerTask.osexp","C:/Users/User/Desktop/School/Research Methods","no","mono","no","18","no","white","no","yes","768","legacy","68","68","C:/Users/User/Desktop/School/Research Methods/LW-subject-4.csv","legacy","Lentiform Loewenfeld","3.3.9","0","h","NA","h","NA","NA","h","386","NA","99243","NA","NA","386","2","legacy","1024","2","48000","-16","experiment","HHSHH","4","even","209082","210155","101317","NA","NA","205589","2066","NA","NA","210158","2072","NA","NA","210260","210648","210260","Flanker Task","62","25497","69","yes","1024"
"90","90","371.0857142857143","371.0857142857143","black","legacy","legacy","legacy","0","incongruent","uniform","1","undefined","1","h","69","69","0","0","0","69","0","69","0","69","0","0","0","69","69","69","Sun Sep 26 16:54:32 2021","1500","The main experiment item","yes","FlankerTask.osexp","C:/Users/User/Desktop/School/Research Methods","no","mono","no","18","no","white","no","yes","768","legacy","69","69","C:/Users/User/Desktop/School/Research Methods/LW-subject-4.csv","legacy","Lentiform Loewenfeld","3.3.9","0","h","NA","h","NA","NA","h","479","NA","99243","NA","NA","479","2","legacy","1024","2","48000","-16","experiment","SSHSS","4","even","211154","212228","101317","NA","NA","210651","2066","NA","NA","212230","2072","NA","NA","212332","212812","212332","Flanker Task","63","25976","70","yes","1024"
"90.14084507042253","90.14084507042253","370.7323943661972","370.7323943661972","black","legacy","legacy","legacy","0","congruent","uniform","1","undefined","1","s","70","70","0","0","0","70","0","70","0","70","0","0","0","70","70","70","Sun Sep 26 16:54:32 2021","1500","The main experiment item","yes","FlankerTask.osexp","C:/Users/User/Desktop/School/Research Methods","no","mono","no","18","no","white","no","yes","768","legacy","70","70","C:/Users/User/Desktop/School/Research Methods/LW-subject-4.csv","legacy","Lentiform Loewenfeld","3.3.9","0","s","NA","h","NA","NA","s","346","NA","99243","NA","NA","346","2","legacy","1024","2","48000","-16","experiment","SSSSS","4","even","212816","213890","101317","NA","NA","210651","2066","NA","NA","213892","2072","NA","NA","213994","214342","213993","Flanker Task","64","26322","71","yes","1024"
"90.27777777777777","90.27777777777777","370.97222222222223","370.97222222222223","black","legacy","legacy","legacy","0","congruent","uniform","1","undefined","1","s","71","71","0","0","0","71","0","71","0","71","0","0","0","71","71","71","Sun Sep 26 16:54:32 2021","1500","The main experiment item","yes","FlankerTask.osexp","C:/Users/User/Desktop/School/Research Methods","no","mono","no","18","no","white","no","yes","768","legacy","71","71","C:/Users/User/Desktop/School/Research Methods/LW-subject-4.csv","legacy","Lentiform Loewenfeld","3.3.9","0","s","NA","h","NA","NA","s","388","NA","99243","NA","NA","388","2","legacy","1024","2","48000","-16","experiment","SSSSS","4","even","214346","215420","101317","NA","NA","210651","2066","NA","NA","215422","2072","NA","NA","215524","215913","215524","Flanker Task","65","26710","72","yes","1024"
"90.41095890410959","90.41095890410959","370.82191780821915","370.82191780821915","black","legacy","legacy","legacy","0","congruent","uniform","1","undefined","1","h","72","72","0","0","0","72","0","72","0","72","0","0","0","72","72","72","Sun Sep 26 16:54:32 2021","1500","The main experiment item","yes","FlankerTask.osexp","C:/Users/User/Desktop/School/Research Methods","no","mono","no","18","no","white","no","yes","768","legacy","72","72","C:/Users/User/Desktop/School/Research Methods/LW-subject-4.csv","legacy","Lentiform Loewenfeld","3.3.9","0","h","NA","h","NA","NA","h","360","NA","99243","NA","NA","360","2","legacy","1024","2","48000","-16","experiment","HHHHH","4","even","215917","216992","101317","NA","NA","210651","2066","NA","NA","216994","2072","NA","NA","217096","217457","217095","Flanker Task","66","27070","73","yes","1024"
"90.54054054054055","90.54054054054055","371.77027027027026","371.77027027027026","black","legacy","legacy","legacy","0","incongruent","uniform","1","undefined","1","h","73","73","0","0","0","73","0","73","0","73","0","0","0","73","73","73","Sun Sep 26 16:54:32 2021","1500","The main experiment item","yes","FlankerTask.osexp","C:/Users/User/Desktop/School/Research Methods","no","mono","no","18","no","white","no","yes","768","legacy","73","73","C:/Users/User/Desktop/School/Research Methods/LW-subject-4.csv","legacy","Lentiform Loewenfeld","3.3.9","0","h","NA","h","NA","NA","h","441","NA","99243","NA","NA","441","2","legacy","1024","2","48000","-16","experiment","SSHSS","4","even","217461","218535","101317","NA","NA","210651","2066","NA","NA","218537","2072","NA","NA","218639","219082","218638","Flanker Task","67","27511","74","yes","1024"
"90.66666666666667","90.66666666666667","372.0933333333333","372.0933333333333","black","legacy","legacy","legacy","0","congruent","uniform","1","undefined","1","s","74","74","0","0","0","74","0","74","0","74","0","0","0","74","74","74","Sun Sep 26 16:54:32 2021","1500","The main experiment item","yes","FlankerTask.osexp","C:/Users/User/Desktop/School/Research Methods","no","mono","no","18","no","white","no","yes","768","legacy","74","74","C:/Users/User/Desktop/School/Research Methods/LW-subject-4.csv","legacy","Lentiform Loewenfeld","3.3.9","0","s","NA","h","NA","NA","s","396","NA","99243","NA","NA","396","2","legacy","1024","2","48000","-16","experiment","SSSSS","4","even","219086","220161","101317","NA","NA","210651","2066","NA","NA","220164","2072","NA","NA","220266","220663","220266","Flanker Task","68","27907","75","yes","1024"
"90.78947368421052","90.78947368421052","372.7763157894737","372.7763157894737","black","legacy","legacy","legacy","0","incongruent","uniform","1","undefined","1","h","75","75","0","0","0","75","0","75","0","75","0","0","0","75","75","75","Sun Sep 26 16:54:32 2021","1500","The main experiment item","yes","FlankerTask.osexp","C:/Users/User/Desktop/School/Research Methods","no","mono","no","18","no","white","no","yes","768","legacy","75","75","C:/Users/User/Desktop/School/Research Methods/LW-subject-4.csv","legacy","Lentiform Loewenfeld","3.3.9","0","h","NA","h","NA","NA","h","424","NA","99243","NA","NA","424","2","legacy","1024","2","48000","-16","experiment","SSHSS","4","even","220667","221741","101317","NA","NA","210651","2066","NA","NA","221743","2072","NA","NA","221846","222271","221846","Flanker Task","69","28331","76","yes","1024"
"90.9090909090909","90.9090909090909","373.1818181818182","373.1818181818182","black","legacy","legacy","legacy","0","congruent","uniform","1","undefined","1","h","76","76","0","0","0","76","0","76","0","76","0","0","0","76","76","76","Sun Sep 26 16:54:32 2021","1500","The main experiment item","yes","FlankerTask.osexp","C:/Users/User/Desktop/School/Research Methods","no","mono","no","18","no","white","no","yes","768","legacy","76","76","C:/Users/User/Desktop/School/Research Methods/LW-subject-4.csv","legacy","Lentiform Loewenfeld","3.3.9","0","h","NA","h","NA","NA","h","404","NA","99243","NA","NA","404","2","legacy","1024","2","48000","-16","experiment","HHHHH","4","even","222275","223350","101317","NA","NA","210651","2066","NA","NA","223353","2072","NA","NA","223455","223861","223455","Flanker Task","70","28735","77","yes","1024"
"91.02564102564102","91.02564102564102","372.2435897435897","372.2435897435897","black","legacy","legacy","legacy","0","congruent","uniform","1","undefined","1","h","77","77","0","0","0","77","0","77","0","77","0","0","0","77","77","77","Sun Sep 26 16:54:32 2021","1500","The main experiment item","yes","FlankerTask.osexp","C:/Users/User/Desktop/School/Research Methods","no","mono","no","18","no","white","no","yes","768","legacy","77","77","C:/Users/User/Desktop/School/Research Methods/LW-subject-4.csv","legacy","Lentiform Loewenfeld","3.3.9","0","h","NA","h","NA","NA","h","300","NA","99243","NA","NA","300","2","legacy","1024","2","48000","-16","experiment","HHHHH","4","even","223865","224940","101317","NA","NA","210651","2066","NA","NA","224943","2072","NA","NA","225045","225346","225044","Flanker Task","71","29035","78","yes","1024"
"89.87341772151899","89.87341772151899","371.60759493670884","371.60759493670884","black","legacy","legacy","legacy","0","incongruent","uniform","0","undefined","0","s","78","78","0","0","0","78","0","78","0","78","0","0","0","78","78","78","Sun Sep 26 16:54:32 2021","1500","The main experiment item","yes","FlankerTask.osexp","C:/Users/User/Desktop/School/Research Methods","no","mono","no","18","no","white","no","yes","768","legacy","78","78","C:/Users/User/Desktop/School/Research Methods/LW-subject-4.csv","legacy","Lentiform Loewenfeld","3.3.9","0","h","NA","h","NA","NA","h","322","NA","99243","NA","NA","322","2","legacy","1024","2","48000","-16","experiment","HHSHH","4","even","225351","226434","101317","NA","NA","210651","2066","NA","NA","226437","2072","NA","NA","226539","226862","226539","Flanker Task","71","29357","79","yes","1024"
"90","90","372.4625","372.4625","black","legacy","legacy","legacy","0","congruent","uniform","1","undefined","1","h","79","79","0","0","0","79","0","79","0","79","0","0","0","79","79","79","Sun Sep 26 16:54:32 2021","1500","The main experiment item","yes","FlankerTask.osexp","C:/Users/User/Desktop/School/Research Methods","no","mono","no","18","no","white","no","yes","768","legacy","79","79","C:/Users/User/Desktop/School/Research Methods/LW-subject-4.csv","legacy","Lentiform Loewenfeld","3.3.9","0","h","NA","h","NA","NA","h","440","NA","99243","NA","NA","440","2","legacy","1024","2","48000","-16","experiment","HHHHH","4","even","227368","228446","101317","NA","NA","226866","2066","NA","NA","228448","2072","NA","NA","228550","228992","228550","Flanker Task","72","29797","80","yes","1024"
"90.12345679012346","90.12345679012346","372.85185185185185","372.85185185185185","black","legacy","legacy","legacy","0","congruent","uniform","1","undefined","1","h","80","80","0","0","0","80","0","80","0","80","0","0","0","80","80","80","Sun Sep 26 16:54:32 2021","600","The main experiment item","yes","FlankerTask.osexp","C:/Users/User/Desktop/School/Research Methods","no","mono","no","18","no","white","no","yes","768","legacy","0","79","C:/Users/User/Desktop/School/Research Methods/LW-subject-4.csv","legacy","Lentiform Loewenfeld","3.3.9","0","h","NA","h","h","NA","h","404","NA","99243","14543","NA","404","2","legacy","1024","2","48000","-16","experiment","HHHHH","4","even","228996","244630","101317","244567","NA","226866","2066","NA","NA","244632","2072","230022","NA","244735","245141","244734","Flanker Task","73","30201","81","yes","1024"
"90.2439024390244","90.2439024390244","372.5365853658537","372.5365853658537","black","legacy","legacy","legacy","0","congruent","uniform","1","undefined","1","h","81","81","0","0","0","81","0","81","0","81","0","0","0","81","81","81","Sun Sep 26 16:54:32 2021","600","The main experiment item","yes","FlankerTask.osexp","C:/Users/User/Desktop/School/Research Methods","no","mono","no","18","no","white","no","yes","768","legacy","1","79","C:/Users/User/Desktop/School/Research Methods/LW-subject-4.csv","legacy","Lentiform Loewenfeld","3.3.9","0","h","NA","h","h","NA","h","347","NA","99243","14543","NA","347","2","legacy","1024","2","48000","-16","experiment","HHHHH","4","even","245145","246221","101317","244567","NA","226866","2066","NA","NA","246223","2072","230022","NA","246325","246674","246325","Flanker Task","74","30548","82","yes","1024"
"90.36144578313252","90.36144578313252","372.3855421686747","372.3855421686747","black","legacy","legacy","legacy","0","congruent","uniform","1","undefined","1","s","82","82","0","0","0","82","0","82","0","82","0","0","0","82","82","82","Sun Sep 26 16:54:32 2021","600","The main experiment item","yes","FlankerTask.osexp","C:/Users/User/Desktop/School/Research Methods","no","mono","no","18","no","white","no","yes","768","legacy","2","79","C:/Users/User/Desktop/School/Research Methods/LW-subject-4.csv","legacy","Lentiform Loewenfeld","3.3.9","0","s","NA","h","h","NA","s","360","NA","99243","14543","NA","360","2","legacy","1024","2","48000","-16","experiment","SSSSS","4","even","246677","247752","101317","244567","NA","226866","2066","NA","NA","247755","2072","230022","NA","247857","248218","247857","Flanker Task","75","30908","83","yes","1024"
"90.47619047619048","90.47619047619048","371.98809523809524","371.98809523809524","black","legacy","legacy","legacy","0","congruent","uniform","1","undefined","1","h","83","83","0","0","0","83","0","83","0","83","0","0","0","83","83","83","Sun Sep 26 16:54:32 2021","600","The main experiment item","yes","FlankerTask.osexp","C:/Users/User/Desktop/School/Research Methods","no","mono","no","18","no","white","no","yes","768","legacy","3","79","C:/Users/User/Desktop/School/Research Methods/LW-subject-4.csv","legacy","Lentiform Loewenfeld","3.3.9","0","h","NA","h","h","NA","h","339","NA","99243","14543","NA","339","2","legacy","1024","2","48000","-16","experiment","HHHHH","4","even","248222","249297","101317","244567","NA","226866","2066","NA","NA","249300","2072","230022","NA","249402","249743","249402","Flanker Task","76","31247","84","yes","1024"
"90.58823529411765","90.58823529411765","372.25882352941176","372.25882352941176","black","legacy","legacy","legacy","0","incongruent","uniform","1","undefined","1","s","84","84","0","0","0","84","0","84","0","84","0","0","0","84","84","84","Sun Sep 26 16:54:32 2021","600","The main experiment item","yes","FlankerTask.osexp","C:/Users/User/Desktop/School/Research Methods","no","mono","no","18","no","white","no","yes","768","legacy","4","79","C:/Users/User/Desktop/School/Research Methods/LW-subject-4.csv","legacy","Lentiform Loewenfeld","3.3.9","0","s","NA","h","h","NA","s","395","NA","99243","14543","NA","395","2","legacy","1024","2","48000","-16","experiment","HHSHH","4","even","249747","250821","101317","244567","NA","226866","2066","NA","NA","250824","2072","230022","NA","250926","251322","250926","Flanker Task","77","31642","85","yes","1024"
"90.69767441860465","90.69767441860465","371.8255813953488","371.8255813953488","black","legacy","legacy","legacy","0","congruent","uniform","1","undefined","1","h","85","85","0","0","0","85","0","85","0","85","0","0","0","85","85","85","Sun Sep 26 16:54:32 2021","600","The main experiment item","yes","FlankerTask.osexp","C:/Users/User/Desktop/School/Research Methods","no","mono","no","18","no","white","no","yes","768","legacy","5","79","C:/Users/User/Desktop/School/Research Methods/LW-subject-4.csv","legacy","Lentiform Loewenfeld","3.3.9","0","h","NA","h","h","NA","h","335","NA","99243","14543","NA","335","2","legacy","1024","2","48000","-16","experiment","HHHHH","4","even","251326","252400","101317","244567","NA","226866","2066","NA","NA","252403","2072","230022","NA","252505","252841","252505","Flanker Task","78","31977","86","yes","1024"
"90.80459770114942","90.80459770114942","370.9080459770115","370.9080459770115","black","legacy","legacy","legacy","0","congruent","uniform","1","undefined","1","h","86","86","0","0","0","86","0","86","0","86","0","0","0","86","86","86","Sun Sep 26 16:54:32 2021","600","The main experiment item","yes","FlankerTask.osexp","C:/Users/User/Desktop/School/Research Methods","no","mono","no","18","no","white","no","yes","768","legacy","6","79","C:/Users/User/Desktop/School/Research Methods/LW-subject-4.csv","legacy","Lentiform Loewenfeld","3.3.9","0","h","NA","h","h","NA","h","292","NA","99243","14543","NA","292","2","legacy","1024","2","48000","-16","experiment","HHHHH","4","even","252845","253919","101317","244567","NA","226866","2066","NA","NA","253922","2072","230022","NA","254024","254318","254024","Flanker Task","79","32269","87","yes","1024"
"90.9090909090909","90.9090909090909","369.92045454545456","369.92045454545456","black","legacy","legacy","legacy","0","congruent","uniform","1","undefined","1","s","87","87","0","0","0","87","0","87","0","87","0","0","0","87","87","87","Sun Sep 26 16:54:32 2021","600","The main experiment item","yes","FlankerTask.osexp","C:/Users/User/Desktop/School/Research Methods","no","mono","no","18","no","white","no","yes","768","legacy","7","79","C:/Users/User/Desktop/School/Research Methods/LW-subject-4.csv","legacy","Lentiform Loewenfeld","3.3.9","0","s","NA","h","h","NA","s","284","NA","99243","14543","NA","284","2","legacy","1024","2","48000","-16","experiment","SSSSS","4","even","254322","255396","101317","244567","NA","226866","2066","NA","NA","255398","2072","230022","NA","255500","255786","255500","Flanker Task","80","32553","88","yes","1024"
"89.88764044943821","89.88764044943821","369.8314606741573","369.8314606741573","black","legacy","legacy","legacy","0","incongruent","uniform","0","undefined","0","s","88","88","0","0","0","88","0","88","0","88","0","0","0","88","88","88","Sun Sep 26 16:54:32 2021","600","The main experiment item","yes","FlankerTask.osexp","C:/Users/User/Desktop/School/Research Methods","no","mono","no","18","no","white","no","yes","768","legacy","8","79","C:/Users/User/Desktop/School/Research Methods/LW-subject-4.csv","legacy","Lentiform Loewenfeld","3.3.9","0","h","NA","h","h","NA","h","362","NA","99243","14543","NA","362","2","legacy","1024","2","48000","-16","experiment","HHSHH","4","even","255790","256867","101317","244567","NA","226866","2066","NA","NA","256869","2072","230022","NA","256971","257335","256971","Flanker Task","80","32915","89","yes","1024"
"90","90","369.75555555555553","369.75555555555553","black","legacy","legacy","legacy","0","incongruent","uniform","1","undefined","1","s","89","89","0","0","0","89","0","89","0","89","0","0","0","89","89","89","Sun Sep 26 16:54:32 2021","600","The main experiment item","yes","FlankerTask.osexp","C:/Users/User/Desktop/School/Research Methods","no","mono","no","18","no","white","no","yes","768","legacy","9","79","C:/Users/User/Desktop/School/Research Methods/LW-subject-4.csv","legacy","Lentiform Loewenfeld","3.3.9","0","s","NA","h","h","NA","s","363","NA","99243","14543","NA","363","2","legacy","1024","2","48000","-16","experiment","HHSHH","4","even","257841","258914","101317","244567","NA","257339","2066","NA","NA","258917","2072","230022","NA","259019","259384","259018","Flanker Task","81","33278","90","yes","1024"
"90.10989010989012","90.10989010989012","369.4175824175824","369.4175824175824","black","legacy","legacy","legacy","0","congruent","uniform","1","undefined","1","s","90","90","0","0","0","90","0","90","0","90","0","0","0","90","90","90","Sun Sep 26 16:54:32 2021","600","The main experiment item","yes","FlankerTask.osexp","C:/Users/User/Desktop/School/Research Methods","no","mono","no","18","no","white","no","yes","768","legacy","10","79","C:/Users/User/Desktop/School/Research Methods/LW-subject-4.csv","legacy","Lentiform Loewenfeld","3.3.9","0","s","NA","h","h","NA","s","339","NA","99243","14543","NA","339","2","legacy","1024","2","48000","-16","experiment","SSSSS","4","even","259388","260467","101317","244567","NA","257339","2066","NA","NA","260469","2072","230022","NA","260571","260911","260571","Flanker Task","82","33617","91","yes","1024"
"90.21739130434783","90.21739130434783","368.7717391304348","368.7717391304348","black","legacy","legacy","legacy","0","congruent","uniform","1","undefined","1","s","91","91","0","0","0","91","0","91","0","91","0","0","0","91","91","91","Sun Sep 26 16:54:32 2021","600","The main experiment item","yes","FlankerTask.osexp","C:/Users/User/Desktop/School/Research Methods","no","mono","no","18","no","white","no","yes","768","legacy","11","79","C:/Users/User/Desktop/School/Research Methods/LW-subject-4.csv","legacy","Lentiform Loewenfeld","3.3.9","0","s","NA","h","h","NA","s","310","NA","99243","14543","NA","310","2","legacy","1024","2","48000","-16","experiment","SSSSS","4","even","260915","261996","101317","244567","NA","257339","2066","NA","NA","261999","2072","230022","NA","262101","262413","262101","Flanker Task","83","33927","92","yes","1024"
"90.3225806451613","90.3225806451613","368.39784946236557","368.39784946236557","black","legacy","legacy","legacy","0","congruent","uniform","1","undefined","1","h","92","92","0","0","0","92","0","92","0","92","0","0","0","92","92","92","Sun Sep 26 16:54:32 2021","600","The main experiment item","yes","FlankerTask.osexp","C:/Users/User/Desktop/School/Research Methods","no","mono","no","18","no","white","no","yes","768","legacy","12","79","C:/Users/User/Desktop/School/Research Methods/LW-subject-4.csv","legacy","Lentiform Loewenfeld","3.3.9","0","h","NA","h","h","NA","h","334","NA","99243","14543","NA","334","2","legacy","1024","2","48000","-16","experiment","HHHHH","4","even","262417","263496","101317","244567","NA","257339","2066","NA","NA","263498","2072","230022","NA","263600","263936","263600","Flanker Task","84","34261","93","yes","1024"
"90.42553191489361","90.42553191489361","368.8404255319149","368.8404255319149","black","legacy","legacy","legacy","0","incongruent","uniform","1","undefined","1","h","93","93","0","0","0","93","0","93","0","93","0","0","0","93","93","93","Sun Sep 26 16:54:32 2021","600","The main experiment item","yes","FlankerTask.osexp","C:/Users/User/Desktop/School/Research Methods","no","mono","no","18","no","white","no","yes","768","legacy","13","79","C:/Users/User/Desktop/School/Research Methods/LW-subject-4.csv","legacy","Lentiform Loewenfeld","3.3.9","0","h","NA","h","h","NA","h","410","NA","99243","14543","NA","410","2","legacy","1024","2","48000","-16","experiment","SSHSS","4","even","263940","265014","101317","244567","NA","257339","2066","NA","NA","265017","2072","230022","NA","265119","265530","265119","Flanker Task","85","34671","94","yes","1024"
"90.52631578947368","90.52631578947368","368.22105263157897","368.22105263157897","black","legacy","legacy","legacy","0","congruent","uniform","1","undefined","1","h","94","94","0","0","0","94","0","94","0","94","0","0","0","94","94","94","Sun Sep 26 16:54:32 2021","600","The main experiment item","yes","FlankerTask.osexp","C:/Users/User/Desktop/School/Research Methods","no","mono","no","18","no","white","no","yes","768","legacy","14","79","C:/Users/User/Desktop/School/Research Methods/LW-subject-4.csv","legacy","Lentiform Loewenfeld","3.3.9","0","h","NA","h","h","NA","h","310","NA","99243","14543","NA","310","2","legacy","1024","2","48000","-16","experiment","HHHHH","4","even","265535","266608","101317","244567","NA","257339","2066","NA","NA","266611","2072","230022","NA","266713","267025","266713","Flanker Task","86","34981","95","yes","1024"
"90.625","90.625","367.4166666666667","367.4166666666667","black","legacy","legacy","legacy","0","congruent","uniform","1","undefined","1","h","95","95","0","0","0","95","0","95","0","95","0","0","0","95","95","95","Sun Sep 26 16:54:32 2021","600","The main experiment item","yes","FlankerTask.osexp","C:/Users/User/Desktop/School/Research Methods","no","mono","no","18","no","white","no","yes","768","legacy","15","79","C:/Users/User/Desktop/School/Research Methods/LW-subject-4.csv","legacy","Lentiform Loewenfeld","3.3.9","0","h","NA","h","h","NA","h","291","NA","99243","14543","NA","291","2","legacy","1024","2","48000","-16","experiment","HHHHH","4","even","267029","268106","101317","244567","NA","257339","2066","NA","NA","268108","2072","230022","NA","268210","268503","268210","Flanker Task","87","35272","96","yes","1024"
"89.69072164948453","89.69072164948453","366.7319587628866","366.7319587628866","black","legacy","legacy","legacy","0","incongruent","uniform","0","undefined","0","h","96","96","0","0","0","96","0","96","0","96","0","0","0","96","96","96","Sun Sep 26 16:54:32 2021","600","The main experiment item","yes","FlankerTask.osexp","C:/Users/User/Desktop/School/Research Methods","no","mono","no","18","no","white","no","yes","768","legacy","16","79","C:/Users/User/Desktop/School/Research Methods/LW-subject-4.csv","legacy","Lentiform Loewenfeld","3.3.9","0","s","NA","h","h","NA","s","301","NA","99243","14543","NA","301","2","legacy","1024","2","48000","-16","experiment","SSHSS","4","even","268507","269585","101317","244567","NA","257339","2066","NA","NA","269588","2072","230022","NA","269690","269993","269690","Flanker Task","87","35573","97","yes","1024"
"89.79591836734694","89.79591836734694","366.9183673469388","366.9183673469388","black","legacy","legacy","legacy","0","incongruent","uniform","1","undefined","1","s","97","97","0","0","0","97","0","97","0","97","0","0","0","97","97","97","Sun Sep 26 16:54:32 2021","600","The main experiment item","yes","FlankerTask.osexp","C:/Users/User/Desktop/School/Research Methods","no","mono","no","18","no","white","no","yes","768","legacy","17","79","C:/Users/User/Desktop/School/Research Methods/LW-subject-4.csv","legacy","Lentiform Loewenfeld","3.3.9","0","s","NA","h","h","NA","s","385","NA","99243","14543","NA","385","2","legacy","1024","2","48000","-16","experiment","HHSHH","4","even","270499","271576","101317","244567","NA","269997","2066","NA","NA","271578","2072","230022","NA","271680","272066","271680","Flanker Task","88","35958","98","yes","1024"
"89.8989898989899","89.8989898989899","369.2929292929293","369.2929292929293","black","legacy","legacy","legacy","0","congruent","uniform","1","undefined","1","h","98","98","0","0","0","98","0","98","0","98","0","0","0","98","98","98","Sun Sep 26 16:54:32 2021","600","The main experiment item","yes","FlankerTask.osexp","C:/Users/User/Desktop/School/Research Methods","no","mono","no","18","no","white","no","yes","768","legacy","18","79","C:/Users/User/Desktop/School/Research Methods/LW-subject-4.csv","legacy","Lentiform Loewenfeld","3.3.9","0","h","NA","h","h","NA","h","602","NA","99243","14543","NA","602","2","legacy","1024","2","48000","-16","experiment","HHHHH","4","even","272070","273148","101317","244567","NA","269997","2066","NA","NA","273151","2072","230022","NA","273253","273857","273253","Flanker Task","89","36560","99","yes","1024"
"90","90","369.55","369.55","black","legacy","legacy","legacy","0","incongruent","uniform","1","undefined","1","h","99","99","0","0","0","99","0","99","0","99","0","0","0","99","99","99","Sun Sep 26 16:54:32 2021","600","The main experiment item","yes","FlankerTask.osexp","C:/Users/User/Desktop/School/Research Methods","no","mono","no","18","no","white","no","yes","768","legacy","19","79","C:/Users/User/Desktop/School/Research Methods/LW-subject-4.csv","legacy","Lentiform Loewenfeld","3.3.9","0","h","NA","h","h","NA","h","395","NA","99243","14543","NA","395","2","legacy","1024","2","48000","-16","experiment","SSHSS","4","even","274363","275443","101317","244567","NA","269997","2066","273861","NA","275446","2072","230022","NA","275548","275945","275548","Flanker Task","90","36955","100","yes","1024"
"90.0990099009901","90.0990099009901","369.4752475247525","369.4752475247525","black","legacy","legacy","legacy","0","incongruent","uniform","1","undefined","1","h","100","100","0","0","0","100","0","100","0","100","0","0","0","100","100","100","Sun Sep 26 16:54:32 2021","600","The main experiment item","yes","FlankerTask.osexp","C:/Users/User/Desktop/School/Research Methods","no","mono","no","18","no","white","no","yes","768","legacy","20","79","C:/Users/User/Desktop/School/Research Methods/LW-subject-4.csv","legacy","Lentiform Loewenfeld","3.3.9","0","h","NA","h","h","NA","h","362","NA","99243","14543","NA","362","2","legacy","1024","2","48000","-16","experiment","SSHSS","4","even","275949","277030","101317","244567","NA","269997","2066","273861","NA","277033","2072","230022","NA","277135","277499","277135","Flanker Task","91","37317","101","yes","1024"
"90.19607843137256","90.19607843137256","368.3921568627451","368.3921568627451","black","legacy","legacy","legacy","0","incongruent","uniform","1","undefined","1","h","101","101","0","0","0","101","0","101","0","101","0","0","0","101","101","101","Sun Sep 26 16:54:32 2021","600","The main experiment item","yes","FlankerTask.osexp","C:/Users/User/Desktop/School/Research Methods","no","mono","no","18","no","white","no","yes","768","legacy","21","79","C:/Users/User/Desktop/School/Research Methods/LW-subject-4.csv","legacy","Lentiform Loewenfeld","3.3.9","0","h","NA","h","h","NA","h","259","NA","99243","14543","NA","259","2","legacy","1024","2","48000","-16","experiment","SSHSS","4","even","277503","278579","101317","244567","NA","269997","2066","273861","NA","278582","2072","230022","NA","278684","278945","278684","Flanker Task","92","37576","102","yes","1024"
"90.29126213592232","90.29126213592232","367.4660194174757","367.4660194174757","black","legacy","legacy","legacy","0","congruent","uniform","1","undefined","1","h","102","102","0","0","0","102","0","102","0","102","0","0","0","102","102","102","Sun Sep 26 16:54:32 2021","600","The main experiment item","yes","FlankerTask.osexp","C:/Users/User/Desktop/School/Research Methods","no","mono","no","18","no","white","no","yes","768","legacy","22","79","C:/Users/User/Desktop/School/Research Methods/LW-subject-4.csv","legacy","Lentiform Loewenfeld","3.3.9","0","h","NA","h","h","NA","h","273","NA","99243","14543","NA","273","2","legacy","1024","2","48000","-16","experiment","HHHHH","4","even","278949","280025","101317","244567","NA","269997","2066","273861","NA","280028","2072","230022","NA","280130","280405","280130","Flanker Task","93","37849","103","yes","1024"
"89.42307692307692","89.42307692307692","366.8173076923077","366.8173076923077","black","legacy","legacy","legacy","0","incongruent","uniform","0","undefined","0","s","103","103","0","0","0","103","0","103","0","103","0","0","0","103","103","103","Sun Sep 26 16:54:32 2021","600","The main experiment item","yes","FlankerTask.osexp","C:/Users/User/Desktop/School/Research Methods","no","mono","no","18","no","white","no","yes","768","legacy","23","79","C:/Users/User/Desktop/School/Research Methods/LW-subject-4.csv","legacy","Lentiform Loewenfeld","3.3.9","0","h","NA","h","h","NA","h","300","NA","99243","14543","NA","300","2","legacy","1024","2","48000","-16","experiment","HHSHH","4","even","280409","281485","101317","244567","NA","269997","2066","273861","NA","281488","2072","230022","NA","281590","281892","281590","Flanker Task","93","38149","104","yes","1024"
"89.52380952380952","89.52380952380952","366.77142857142854","366.77142857142854","black","legacy","legacy","legacy","0","congruent","uniform","1","undefined","1","s","104","104","0","0","0","104","0","104","0","104","0","0","0","104","104","104","Sun Sep 26 16:54:32 2021","600","The main experiment item","yes","FlankerTask.osexp","C:/Users/User/Desktop/School/Research Methods","no","mono","no","18","no","white","no","yes","768","legacy","24","79","C:/Users/User/Desktop/School/Research Methods/LW-subject-4.csv","legacy","Lentiform Loewenfeld","3.3.9","0","s","NA","h","h","NA","s","362","NA","99243","14543","NA","362","2","legacy","1024","2","48000","-16","experiment","SSSSS","4","even","282398","283473","101317","244567","NA","281896","2066","273861","NA","283476","2072","230022","NA","283578","283942","283578","Flanker Task","94","38511","105","yes","1024"
"89.62264150943396","89.62264150943396","366.70754716981133","366.70754716981133","black","legacy","legacy","legacy","0","congruent","uniform","1","undefined","1","s","105","105","0","0","0","105","0","105","0","105","0","0","0","105","105","105","Sun Sep 26 16:54:32 2021","600","The main experiment item","yes","FlankerTask.osexp","C:/Users/User/Desktop/School/Research Methods","no","mono","no","18","no","white","no","yes","768","legacy","25","79","C:/Users/User/Desktop/School/Research Methods/LW-subject-4.csv","legacy","Lentiform Loewenfeld","3.3.9","0","s","NA","h","h","NA","s","360","NA","99243","14543","NA","360","2","legacy","1024","2","48000","-16","experiment","SSSSS","4","even","284062","285135","101317","244567","NA","281896","2066","273861","NA","285137","2072","230022","NA","285240","285602","285240","Flanker Task","95","38871","106","yes","1024"
"89.7196261682243","89.7196261682243","368.7102803738318","368.7102803738318","black","legacy","legacy","legacy","0","incongruent","uniform","1","undefined","1","s","106","106","0","0","0","106","0","106","0","106","0","0","0","106","106","106","Sun Sep 26 16:54:32 2021","600","The main experiment item","yes","FlankerTask.osexp","C:/Users/User/Desktop/School/Research Methods","no","mono","no","18","no","white","no","yes","768","legacy","26","79","C:/Users/User/Desktop/School/Research Methods/LW-subject-4.csv","legacy","Lentiform Loewenfeld","3.3.9","0","s","NA","h","h","NA","s","581","NA","99243","14543","NA","581","2","legacy","1024","2","48000","-16","experiment","HHSHH","4","even","285701","286776","101317","244567","NA","281896","2066","273861","NA","286779","2072","230022","NA","286881","287464","286881","Flanker Task","96","39452","107","yes","1024"
"89.81481481481481","89.81481481481481","369.287037037037","369.287037037037","black","legacy","legacy","legacy","0","incongruent","uniform","1","undefined","1","s","107","107","0","0","0","107","0","107","0","107","0","0","0","107","107","107","Sun Sep 26 16:54:32 2021","600","The main experiment item","yes","FlankerTask.osexp","C:/Users/User/Desktop/School/Research Methods","no","mono","no","18","no","white","no","yes","768","legacy","27","79","C:/Users/User/Desktop/School/Research Methods/LW-subject-4.csv","legacy","Lentiform Loewenfeld","3.3.9","0","s","NA","h","h","NA","s","431","NA","99243","14543","NA","431","2","legacy","1024","2","48000","-16","experiment","HHSHH","4","even","287561","288637","101317","244567","NA","281896","2066","273861","NA","288639","2072","230022","NA","288741","289174","288741","Flanker Task","97","39883","108","yes","1024"
"89.90825688073394","89.90825688073394","368.60550458715596","368.60550458715596","black","legacy","legacy","legacy","0","congruent","uniform","1","undefined","1","s","108","108","0","0","0","108","0","108","0","108","0","0","0","108","108","108","Sun Sep 26 16:54:32 2021","600","The main experiment item","yes","FlankerTask.osexp","C:/Users/User/Desktop/School/Research Methods","no","mono","no","18","no","white","no","yes","768","legacy","28","79","C:/Users/User/Desktop/School/Research Methods/LW-subject-4.csv","legacy","Lentiform Loewenfeld","3.3.9","0","s","NA","h","h","NA","s","295","NA","99243","14543","NA","295","2","legacy","1024","2","48000","-16","experiment","SSSSS","4","even","289273","290348","101317","244567","NA","281896","2066","273861","NA","290350","2072","230022","NA","290452","290749","290452","Flanker Task","98","40178","109","yes","1024"
"90","90","367.7","367.7","black","legacy","legacy","legacy","0","congruent","uniform","1","undefined","1","s","109","109","0","0","0","109","0","109","0","109","0","0","0","109","109","109","Sun Sep 26 16:54:32 2021","600","The main experiment item","yes","FlankerTask.osexp","C:/Users/User/Desktop/School/Research Methods","no","mono","no","18","no","white","no","yes","768","legacy","29","79","C:/Users/User/Desktop/School/Research Methods/LW-subject-4.csv","legacy","Lentiform Loewenfeld","3.3.9","0","s","NA","h","h","NA","s","269","NA","99243","14543","NA","269","2","legacy","1024","2","48000","-16","experiment","SSSSS","4","even","290846","291921","101317","244567","NA","281896","2066","273861","NA","291923","2072","230022","NA","292025","292296","292025","Flanker Task","99","40447","110","yes","1024"
"90.09009009009009","90.09009009009009","367.9189189189189","367.9189189189189","black","legacy","legacy","legacy","0","incongruent","uniform","1","undefined","1","h","110","110","0","0","0","110","0","110","0","110","0","0","0","110","110","110","Sun Sep 26 16:54:32 2021","600","The main experiment item","yes","FlankerTask.osexp","C:/Users/User/Desktop/School/Research Methods","no","mono","no","18","no","white","no","yes","768","legacy","30","79","C:/Users/User/Desktop/School/Research Methods/LW-subject-4.csv","legacy","Lentiform Loewenfeld","3.3.9","0","h","NA","h","h","NA","h","392","NA","99243","14543","NA","392","2","legacy","1024","2","48000","-16","experiment","SSHSS","4","even","292396","293472","101317","244567","NA","281896","2066","273861","NA","293474","2072","230022","NA","293576","293970","293576","Flanker Task","100","40839","111","yes","1024"
"90.17857142857143","90.17857142857143","368.16964285714283","368.16964285714283","black","legacy","legacy","legacy","0","incongruent","uniform","1","undefined","1","s","111","111","0","0","0","111","0","111","0","111","0","0","0","111","111","111","Sun Sep 26 16:54:32 2021","600","The main experiment item","yes","FlankerTask.osexp","C:/Users/User/Desktop/School/Research Methods","no","mono","no","18","no","white","no","yes","768","legacy","31","79","C:/Users/User/Desktop/School/Research Methods/LW-subject-4.csv","legacy","Lentiform Loewenfeld","3.3.9","0","s","NA","h","h","NA","s","396","NA","99243","14543","NA","396","2","legacy","1024","2","48000","-16","experiment","HHSHH","4","even","293974","295051","101317","244567","NA","281896","2066","273861","NA","295053","2072","230022","NA","295155","295553","295155","Flanker Task","101","41235","112","yes","1024"
"90.26548672566372","90.26548672566372","367.7699115044248","367.7699115044248","black","legacy","legacy","legacy","0","congruent","uniform","1","undefined","1","s","112","112","0","0","0","112","0","112","0","112","0","0","0","112","112","112","Sun Sep 26 16:54:32 2021","600","The main experiment item","yes","FlankerTask.osexp","C:/Users/User/Desktop/School/Research Methods","no","mono","no","18","no","white","no","yes","768","legacy","32","79","C:/Users/User/Desktop/School/Research Methods/LW-subject-4.csv","legacy","Lentiform Loewenfeld","3.3.9","0","s","NA","h","h","NA","s","323","NA","99243","14543","NA","323","2","legacy","1024","2","48000","-16","experiment","SSSSS","4","even","295557","296633","101317","244567","NA","281896","2066","273861","NA","296636","2072","230022","NA","296738","297063","296738","Flanker Task","102","41558","113","yes","1024"
"90.35087719298245","90.35087719298245","367.1666666666667","367.1666666666667","black","legacy","legacy","legacy","0","congruent","uniform","1","undefined","1","s","113","113","0","0","0","113","0","113","0","113","0","0","0","113","113","113","Sun Sep 26 16:54:32 2021","600","The main experiment item","yes","FlankerTask.osexp","C:/Users/User/Desktop/School/Research Methods","no","mono","no","18","no","white","no","yes","768","legacy","33","79","C:/Users/User/Desktop/School/Research Methods/LW-subject-4.csv","legacy","Lentiform Loewenfeld","3.3.9","0","s","NA","h","h","NA","s","299","NA","99243","14543","NA","299","2","legacy","1024","2","48000","-16","experiment","SSSSS","4","even","297067","298145","101317","244567","NA","281896","2066","273861","NA","298147","2072","230022","NA","298249","298550","298249","Flanker Task","103","41857","114","yes","1024"
"89.56521739130434","89.56521739130434","365.9826086956522","365.9826086956522","black","legacy","legacy","legacy","0","incongruent","uniform","0","undefined","0","h","114","114","0","0","0","114","0","114","0","114","0","0","0","114","114","114","Sun Sep 26 16:54:32 2021","600","The main experiment item","yes","FlankerTask.osexp","C:/Users/User/Desktop/School/Research Methods","no","mono","no","18","no","white","no","yes","768","legacy","34","79","C:/Users/User/Desktop/School/Research Methods/LW-subject-4.csv","legacy","Lentiform Loewenfeld","3.3.9","0","s","NA","h","h","NA","s","231","NA","99243","14543","NA","231","2","legacy","1024","2","48000","-16","experiment","SSHSS","4","even","298553","299627","101317","244567","NA","281896","2066","273861","NA","299630","2072","230022","NA","299732","299965","299731","Flanker Task","103","42088","115","yes","1024"
"89.65517241379311","89.65517241379311","365.3448275862069","365.3448275862069","black","legacy","legacy","legacy","0","congruent","uniform","1","undefined","1","s","115","115","0","0","0","115","0","115","0","115","0","0","0","115","115","115","Sun Sep 26 16:54:32 2021","600","The main experiment item","yes","FlankerTask.osexp","C:/Users/User/Desktop/School/Research Methods","no","mono","no","18","no","white","no","yes","768","legacy","35","79","C:/Users/User/Desktop/School/Research Methods/LW-subject-4.csv","legacy","Lentiform Loewenfeld","3.3.9","0","s","NA","h","h","NA","s","292","NA","99243","14543","NA","292","2","legacy","1024","2","48000","-16","experiment","SSSSS","4","even","300471","301544","101317","244567","NA","299969","2066","273861","NA","301547","2072","230022","NA","301649","301943","301649","Flanker Task","104","42380","116","yes","1024"
