"acc","accuracy","average_response_time","avg_rt","background","canvas_backend","clock_backend","color_backend","compensation","condition","coordinates","correct","correct_instructions1","correct_keyboard_response","correct_response","count_Block1","count_Block2","count_Block3","count_ISI","count_errorfeedback","count_experiment","count_faster","count_finish","count_fixation","count_instructions1","count_instructions2","count_instructions3","count_keyboard_response","count_logger","count_sequence","count_stimulus","datetime","deadline","description","disable_garbage_collection","experiment_file","experiment_path","font_bold","font_family","font_italic","font_size","font_underline","foreground","form_clicks","fullscreen","height","keyboard_backend","live_row","live_row_Block1","logfile","mouse_backend","opensesame_codename","opensesame_version","repeat_cycle","response","response_finish","response_instructions1","response_instructions2","response_instructions3","response_keyboard_response","response_time","response_time_finish","response_time_instructions1","response_time_instructions2","response_time_instructions3","response_time_keyboard_response","round_decimals","sampler_backend","sound_buf_size","sound_channels","sound_freq","sound_sample_size","start","stimulus","subject_nr","subject_parity","time_Block1","time_Block2","time_Block3","time_ISI","time_errorfeedback","time_experiment","time_faster","time_finish","time_fixation","time_instructions1","time_instructions2","time_instructions3","time_keyboard_response","time_logger","time_sequence","time_stimulus","title","total_correct","total_response_time","total_responses","uniform_coordinates","width"
"100","100","1392","1392","black","legacy","legacy","legacy","0","incongruent","uniform","1","undefined","1","h","0","0","0","0","0","0","0","0","0","0","0","0","0","0","0","0","Sun Sep 18 22:58:16 2022","1500","The main experiment item","yes","FlankerTask.osexp","C:/Users/lil_p/OneDrive/Documents/School/Advanced Quantitative Analysis/Lab 2.1","no","mono","no","18","no","white","no","no","768","legacy","0","0","C:/Users/lil_p/OneDrive/Documents/School/Advanced Quantitative Analysis/Lab 2.1/ap-subject-0.csv","legacy","Lentiform Loewenfeld","3.3.12","0","h","NA","h","NA","NA","h","1392","NA","14572","NA","NA","1392","2","legacy","1024","2","48000","-16","experiment","SSHSS","0","even","18149","NA","NA","NA","NA","3570","NA","NA","18316","3575","NA","NA","18419","19812","18312","18419","Flanker Task","1","1392","1","yes","1024"
"100","100","1108","1108","black","legacy","legacy","legacy","0","incongruent","uniform","1","undefined","1","h","0","0","0","1","1","0","1","0","1","0","0","0","1","1","1","1","Sun Sep 18 22:58:16 2022","1500","The main experiment item","yes","FlankerTask.osexp","C:/Users/lil_p/OneDrive/Documents/School/Advanced Quantitative Analysis/Lab 2.1","no","mono","no","18","no","white","no","no","768","legacy","1","1","C:/Users/lil_p/OneDrive/Documents/School/Advanced Quantitative Analysis/Lab 2.1/ap-subject-0.csv","legacy","Lentiform Loewenfeld","3.3.12","0","h","NA","h","NA","NA","h","824","NA","14572","NA","NA","824","2","legacy","1024","2","48000","-16","experiment","SSHSS","0","even","18149","NA","NA","19824","NA","3570","NA","NA","21001","3575","NA","NA","21109","21934","20997","21109","Flanker Task","2","2216","2","yes","1024"
"100","100","948","948","black","legacy","legacy","legacy","0","congruent","uniform","1","undefined","1","s","0","0","0","2","2","0","2","0","2","0","0","0","2","2","2","2","Sun Sep 18 22:58:16 2022","1500","The main experiment item","yes","FlankerTask.osexp","C:/Users/lil_p/OneDrive/Documents/School/Advanced Quantitative Analysis/Lab 2.1","no","mono","no","18","no","white","no","no","768","legacy","2","2","C:/Users/lil_p/OneDrive/Documents/School/Advanced Quantitative Analysis/Lab 2.1/ap-subject-0.csv","legacy","Lentiform Loewenfeld","3.3.12","0","s","NA","h","NA","NA","s","628","NA","14572","NA","NA","628","2","legacy","1024","2","48000","-16","experiment","SSSSS","0","even","18149","NA","NA","21942","NA","3570","NA","NA","23104","3575","NA","NA","23207","23836","23100","23207","Flanker Task","3","2844","3","yes","1024"
"100","100","842.25","842.25","black","legacy","legacy","legacy","0","congruent","uniform","1","undefined","1","s","0","0","0","3","3","0","3","0","3","0","0","0","3","3","3","3","Sun Sep 18 22:58:16 2022","1500","The main experiment item","yes","FlankerTask.osexp","C:/Users/lil_p/OneDrive/Documents/School/Advanced Quantitative Analysis/Lab 2.1","no","mono","no","18","no","white","no","no","768","legacy","3","3","C:/Users/lil_p/OneDrive/Documents/School/Advanced Quantitative Analysis/Lab 2.1/ap-subject-0.csv","legacy","Lentiform Loewenfeld","3.3.12","0","s","NA","h","NA","NA","s","525","NA","14572","NA","NA","525","2","legacy","1024","2","48000","-16","experiment","SSSSS","0","even","18149","NA","NA","23845","NA","3570","NA","NA","25009","3575","NA","NA","25113","25639","25005","25113","Flanker Task","4","3369","4","yes","1024"
"100","100","834.4","834.4","black","legacy","legacy","legacy","0","inconguent","uniform","1","undefined","1","s","0","0","0","4","4","0","4","0","4","0","0","0","4","4","4","4","Sun Sep 18 22:58:16 2022","1500","The main experiment item","yes","FlankerTask.osexp","C:/Users/lil_p/OneDrive/Documents/School/Advanced Quantitative Analysis/Lab 2.1","no","mono","no","18","no","white","no","no","768","legacy","4","4","C:/Users/lil_p/OneDrive/Documents/School/Advanced Quantitative Analysis/Lab 2.1/ap-subject-0.csv","legacy","Lentiform Loewenfeld","3.3.12","0","s","NA","h","NA","NA","s","803","NA","14572","NA","NA","803","2","legacy","1024","2","48000","-16","experiment","HHSHH","0","even","18149","NA","NA","25648","NA","3570","NA","NA","26809","3575","NA","NA","26912","27716","26805","26912","Flanker Task","5","4172","5","yes","1024"
"100","100","802.5","802.5","black","legacy","legacy","legacy","0","inconguent","uniform","1","undefined","1","s","0","0","0","5","5","0","5","0","5","0","0","0","5","5","5","5","Sun Sep 18 22:58:16 2022","1500","The main experiment item","yes","FlankerTask.osexp","C:/Users/lil_p/OneDrive/Documents/School/Advanced Quantitative Analysis/Lab 2.1","no","mono","no","18","no","white","no","no","768","legacy","5","5","C:/Users/lil_p/OneDrive/Documents/School/Advanced Quantitative Analysis/Lab 2.1/ap-subject-0.csv","legacy","Lentiform Loewenfeld","3.3.12","0","s","NA","h","NA","NA","s","643","NA","14572","NA","NA","643","2","legacy","1024","2","48000","-16","experiment","HHSHH","0","even","18149","NA","NA","27724","NA","3570","NA","NA","28884","3575","NA","NA","28987","29631","28879","28987","Flanker Task","6","4815","6","yes","1024"
"100","100","771","771","black","legacy","legacy","legacy","0","congruent","uniform","1","undefined","1","h","0","0","0","6","6","0","6","0","6","0","0","0","6","6","6","6","Sun Sep 18 22:58:16 2022","1500","The main experiment item","yes","FlankerTask.osexp","C:/Users/lil_p/OneDrive/Documents/School/Advanced Quantitative Analysis/Lab 2.1","no","mono","no","18","no","white","no","no","768","legacy","6","6","C:/Users/lil_p/OneDrive/Documents/School/Advanced Quantitative Analysis/Lab 2.1/ap-subject-0.csv","legacy","Lentiform Loewenfeld","3.3.12","0","h","NA","h","NA","NA","h","582","NA","14572","NA","NA","582","2","legacy","1024","2","48000","-16","experiment","HHHHH","0","even","18149","NA","NA","29639","NA","3570","NA","NA","30794","3575","NA","NA","30897","31479","30791","30897","Flanker Task","7","5397","7","yes","1024"
"100","100","737.5","737.5","black","legacy","legacy","legacy","0","congruent","uniform","1","undefined","1","s","0","0","0","7","7","0","7","0","7","0","0","0","7","7","7","7","Sun Sep 18 22:58:16 2022","1500","The main experiment item","yes","FlankerTask.osexp","C:/Users/lil_p/OneDrive/Documents/School/Advanced Quantitative Analysis/Lab 2.1","no","mono","no","18","no","white","no","no","768","legacy","7","7","C:/Users/lil_p/OneDrive/Documents/School/Advanced Quantitative Analysis/Lab 2.1/ap-subject-0.csv","legacy","Lentiform Loewenfeld","3.3.12","0","s","NA","h","NA","NA","s","503","NA","14572","NA","NA","503","2","legacy","1024","2","48000","-16","experiment","SSSSS","0","even","18149","NA","NA","31505","NA","3570","NA","NA","32729","3575","NA","NA","32832","33336","32725","32832","Flanker Task","8","5900","8","yes","1024"
"100","100","706","706","black","legacy","legacy","legacy","0","congruent","uniform","1","undefined","1","s","0","0","0","8","8","0","8","0","8","0","0","0","8","8","8","8","Sun Sep 18 22:58:16 2022","1500","The main experiment item","yes","FlankerTask.osexp","C:/Users/lil_p/OneDrive/Documents/School/Advanced Quantitative Analysis/Lab 2.1","no","mono","no","18","no","white","no","no","768","legacy","8","8","C:/Users/lil_p/OneDrive/Documents/School/Advanced Quantitative Analysis/Lab 2.1/ap-subject-0.csv","legacy","Lentiform Loewenfeld","3.3.12","0","s","NA","h","NA","NA","s","454","NA","14572","NA","NA","454","2","legacy","1024","2","48000","-16","experiment","SSSSS","0","even","18149","NA","NA","33344","NA","3570","NA","NA","34512","3575","NA","NA","34615","35070","34508","34615","Flanker Task","9","6354","9","yes","1024"
"100","100","675.7","675.7","black","legacy","legacy","legacy","0","inconguent","uniform","1","undefined","1","s","0","0","0","9","9","0","9","0","9","0","0","0","9","9","9","9","Sun Sep 18 22:58:16 2022","1500","The main experiment item","yes","FlankerTask.osexp","C:/Users/lil_p/OneDrive/Documents/School/Advanced Quantitative Analysis/Lab 2.1","no","mono","no","18","no","white","no","no","768","legacy","9","9","C:/Users/lil_p/OneDrive/Documents/School/Advanced Quantitative Analysis/Lab 2.1/ap-subject-0.csv","legacy","Lentiform Loewenfeld","3.3.12","0","s","NA","h","NA","NA","s","403","NA","14572","NA","NA","403","2","legacy","1024","2","48000","-16","experiment","HHSHH","0","even","18149","NA","NA","35077","NA","3570","NA","NA","36243","3575","NA","NA","36346","36749","36239","36346","Flanker Task","10","6757","10","yes","1024"
"100","100","673.1818181818181","673.1818181818181","black","legacy","legacy","legacy","0","incongruent","uniform","1","undefined","1","h","0","0","0","10","10","0","10","0","10","0","0","0","10","10","10","10","Sun Sep 18 22:58:16 2022","1500","The main experiment item","yes","FlankerTask.osexp","C:/Users/lil_p/OneDrive/Documents/School/Advanced Quantitative Analysis/Lab 2.1","no","mono","no","18","no","white","no","no","768","legacy","10","10","C:/Users/lil_p/OneDrive/Documents/School/Advanced Quantitative Analysis/Lab 2.1/ap-subject-0.csv","legacy","Lentiform Loewenfeld","3.3.12","0","h","NA","h","NA","NA","h","648","NA","14572","NA","NA","648","2","legacy","1024","2","48000","-16","experiment","SSHSS","0","even","18149","NA","NA","36776","NA","3570","NA","NA","37968","3575","NA","NA","38072","38721","37964","38072","Flanker Task","11","7405","11","yes","1024"
"100","100","679.0833333333334","679.0833333333334","black","legacy","legacy","legacy","0","inconguent","uniform","1","undefined","1","s","0","0","0","11","11","0","11","0","11","0","0","0","11","11","11","11","Sun Sep 18 22:58:16 2022","1500","The main experiment item","yes","FlankerTask.osexp","C:/Users/lil_p/OneDrive/Documents/School/Advanced Quantitative Analysis/Lab 2.1","no","mono","no","18","no","white","no","no","768","legacy","11","11","C:/Users/lil_p/OneDrive/Documents/School/Advanced Quantitative Analysis/Lab 2.1/ap-subject-0.csv","legacy","Lentiform Loewenfeld","3.3.12","0","s","NA","h","NA","NA","s","744","NA","14572","NA","NA","744","2","legacy","1024","2","48000","-16","experiment","HHSHH","0","even","18149","NA","NA","38729","NA","3570","NA","NA","39887","3575","NA","NA","39990","40735","39883","39990","Flanker Task","12","8149","12","yes","1024"
"100","100","678","678","black","legacy","legacy","legacy","0","inconguent","uniform","1","undefined","1","s","0","0","0","12","12","0","12","0","12","0","0","0","12","12","12","12","Sun Sep 18 22:58:16 2022","1500","The main experiment item","yes","FlankerTask.osexp","C:/Users/lil_p/OneDrive/Documents/School/Advanced Quantitative Analysis/Lab 2.1","no","mono","no","18","no","white","no","no","768","legacy","12","12","C:/Users/lil_p/OneDrive/Documents/School/Advanced Quantitative Analysis/Lab 2.1/ap-subject-0.csv","legacy","Lentiform Loewenfeld","3.3.12","0","s","NA","h","NA","NA","s","665","NA","14572","NA","NA","665","2","legacy","1024","2","48000","-16","experiment","HHSHH","0","even","18149","NA","NA","40745","NA","3570","NA","NA","41904","3575","NA","NA","42007","42674","41900","42007","Flanker Task","13","8814","13","yes","1024"
"100","100","672","672","black","legacy","legacy","legacy","0","inconguent","uniform","1","undefined","1","s","0","0","0","13","13","0","13","0","13","0","0","0","13","13","13","13","Sun Sep 18 22:58:16 2022","1500","The main experiment item","yes","FlankerTask.osexp","C:/Users/lil_p/OneDrive/Documents/School/Advanced Quantitative Analysis/Lab 2.1","no","mono","no","18","no","white","no","no","768","legacy","13","13","C:/Users/lil_p/OneDrive/Documents/School/Advanced Quantitative Analysis/Lab 2.1/ap-subject-0.csv","legacy","Lentiform Loewenfeld","3.3.12","0","s","NA","h","NA","NA","s","594","NA","14572","NA","NA","594","2","legacy","1024","2","48000","-16","experiment","HHSHH","0","even","18149","NA","NA","42681","NA","3570","NA","NA","43841","3575","NA","NA","43946","44541","43838","43946","Flanker Task","14","9408","14","yes","1024"
"93.33333333333333","93.33333333333333","677.2","677.2","black","legacy","legacy","legacy","0","congruent","uniform","0","undefined","0","s","0","0","0","14","14","0","14","0","14","0","0","0","14","14","14","14","Sun Sep 18 22:58:16 2022","1500","The main experiment item","yes","FlankerTask.osexp","C:/Users/lil_p/OneDrive/Documents/School/Advanced Quantitative Analysis/Lab 2.1","no","mono","no","18","no","white","no","no","768","legacy","14","14","C:/Users/lil_p/OneDrive/Documents/School/Advanced Quantitative Analysis/Lab 2.1/ap-subject-0.csv","legacy","Lentiform Loewenfeld","3.3.12","0","h","NA","h","NA","NA","h","750","NA","14572","NA","NA","750","2","legacy","1024","2","48000","-16","experiment","SSSSS","0","even","18149","NA","NA","44550","46576","3570","NA","NA","45720","3575","NA","NA","45823","47076","45715","45823","Flanker Task","14","10158","15","yes","1024"
"93.75","93.75","691.1875","691.1875","black","legacy","legacy","legacy","0","incongruent","uniform","1","undefined","1","h","0","0","0","15","15","0","15","0","15","0","0","0","15","15","15","15","Sun Sep 18 22:58:16 2022","1500","The main experiment item","yes","FlankerTask.osexp","C:/Users/lil_p/OneDrive/Documents/School/Advanced Quantitative Analysis/Lab 2.1","no","mono","no","18","no","white","no","no","768","legacy","15","15","C:/Users/lil_p/OneDrive/Documents/School/Advanced Quantitative Analysis/Lab 2.1/ap-subject-0.csv","legacy","Lentiform Loewenfeld","3.3.12","0","h","NA","h","NA","NA","h","901","NA","14572","NA","NA","901","2","legacy","1024","2","48000","-16","experiment","SSHSS","0","even","18149","NA","NA","47085","46576","3570","NA","NA","48266","3575","NA","NA","48370","49272","48263","48370","Flanker Task","15","11059","16","yes","1024"
"94.11764705882354","94.11764705882354","685.0588235294117","685.0588235294117","black","legacy","legacy","legacy","0","congruent","uniform","1","undefined","1","h","0","0","0","16","16","0","16","0","16","0","0","0","16","16","16","16","Sun Sep 18 22:58:16 2022","1500","The main experiment item","yes","FlankerTask.osexp","C:/Users/lil_p/OneDrive/Documents/School/Advanced Quantitative Analysis/Lab 2.1","no","mono","no","18","no","white","no","no","768","legacy","16","16","C:/Users/lil_p/OneDrive/Documents/School/Advanced Quantitative Analysis/Lab 2.1/ap-subject-0.csv","legacy","Lentiform Loewenfeld","3.3.12","0","h","NA","h","NA","NA","h","587","NA","14572","NA","NA","587","2","legacy","1024","2","48000","-16","experiment","HHHHH","0","even","18149","NA","NA","49281","46576","3570","NA","NA","50473","3575","NA","NA","50576","51164","50469","50576","Flanker Task","16","11646","17","yes","1024"
"94.44444444444444","94.44444444444444","681.7777777777778","681.7777777777778","black","legacy","legacy","legacy","0","inconguent","uniform","1","undefined","1","s","0","0","0","17","17","0","17","0","17","0","0","0","17","17","17","17","Sun Sep 18 22:58:16 2022","1500","The main experiment item","yes","FlankerTask.osexp","C:/Users/lil_p/OneDrive/Documents/School/Advanced Quantitative Analysis/Lab 2.1","no","mono","no","18","no","white","no","no","768","legacy","17","17","C:/Users/lil_p/OneDrive/Documents/School/Advanced Quantitative Analysis/Lab 2.1/ap-subject-0.csv","legacy","Lentiform Loewenfeld","3.3.12","0","s","NA","h","NA","NA","s","626","NA","14572","NA","NA","626","2","legacy","1024","2","48000","-16","experiment","HHSHH","0","even","18149","NA","NA","51173","46576","3570","NA","NA","52351","3575","NA","NA","52454","53081","52347","52454","Flanker Task","17","12272","18","yes","1024"
"94.73684210526316","94.73684210526316","680.2105263157895","680.2105263157895","black","legacy","legacy","legacy","0","incongruent","uniform","1","undefined","1","h","0","0","0","18","18","0","18","0","18","0","0","0","18","18","18","18","Sun Sep 18 22:58:16 2022","1500","The main experiment item","yes","FlankerTask.osexp","C:/Users/lil_p/OneDrive/Documents/School/Advanced Quantitative Analysis/Lab 2.1","no","mono","no","18","no","white","no","no","768","legacy","18","18","C:/Users/lil_p/OneDrive/Documents/School/Advanced Quantitative Analysis/Lab 2.1/ap-subject-0.csv","legacy","Lentiform Loewenfeld","3.3.12","0","h","NA","h","NA","NA","h","652","NA","14572","NA","NA","652","2","legacy","1024","2","48000","-16","experiment","SSHSS","0","even","18149","NA","NA","53090","46576","3570","NA","NA","54241","3575","NA","NA","54345","54998","54238","54345","Flanker Task","18","12924","19","yes","1024"
"95","95","682.7","682.7","black","legacy","legacy","legacy","0","incongruent","uniform","1","undefined","1","h","0","0","0","19","19","0","19","0","19","0","0","0","19","19","19","19","Sun Sep 18 22:58:16 2022","1500","The main experiment item","yes","FlankerTask.osexp","C:/Users/lil_p/OneDrive/Documents/School/Advanced Quantitative Analysis/Lab 2.1","no","mono","no","18","no","white","no","no","768","legacy","19","19","C:/Users/lil_p/OneDrive/Documents/School/Advanced Quantitative Analysis/Lab 2.1/ap-subject-0.csv","legacy","Lentiform Loewenfeld","3.3.12","0","h","NA","h","NA","NA","h","730","NA","14572","NA","NA","730","2","legacy","1024","2","48000","-16","experiment","SSHSS","0","even","18149","NA","NA","55006","46576","3570","NA","NA","56161","3575","NA","NA","56264","56995","56157","56264","Flanker Task","19","13654","20","yes","1024"
"95.23809523809524","95.23809523809524","701.4761904761905","701.4761904761905","black","legacy","legacy","legacy","0","congruent","uniform","1","undefined","1","h","0","0","0","20","20","0","20","0","20","0","0","0","20","20","20","20","Sun Sep 18 22:58:16 2022","1500","The main experiment item","yes","FlankerTask.osexp","C:/Users/lil_p/OneDrive/Documents/School/Advanced Quantitative Analysis/Lab 2.1","no","mono","no","18","no","white","no","no","768","legacy","20","20","C:/Users/lil_p/OneDrive/Documents/School/Advanced Quantitative Analysis/Lab 2.1/ap-subject-0.csv","legacy","Lentiform Loewenfeld","3.3.12","0","h","NA","h","NA","NA","h","1077","NA","14572","NA","NA","1077","2","legacy","1024","2","48000","-16","experiment","HHHHH","0","even","18149","NA","NA","57003","46576","3570","NA","NA","58164","3575","NA","NA","58268","59346","58160","58268","Flanker Task","20","14731","21","yes","1024"
"95.45454545454545","95.45454545454545","703","703","black","legacy","legacy","legacy","0","inconguent","uniform","1","undefined","1","s","0","0","0","21","21","0","21","0","21","0","0","0","21","21","21","21","Sun Sep 18 22:58:16 2022","1500","The main experiment item","yes","FlankerTask.osexp","C:/Users/lil_p/OneDrive/Documents/School/Advanced Quantitative Analysis/Lab 2.1","no","mono","no","18","no","white","no","no","768","legacy","21","21","C:/Users/lil_p/OneDrive/Documents/School/Advanced Quantitative Analysis/Lab 2.1/ap-subject-0.csv","legacy","Lentiform Loewenfeld","3.3.12","0","s","NA","h","NA","NA","s","735","NA","14572","NA","NA","735","2","legacy","1024","2","48000","-16","experiment","HHSHH","0","even","18149","NA","NA","59354","46576","3570","NA","NA","60529","3575","NA","NA","60632","61368","60526","60632","Flanker Task","21","15466","22","yes","1024"
"95.65217391304348","95.65217391304348","702.8695652173913","702.8695652173913","black","legacy","legacy","legacy","0","incongruent","uniform","1","undefined","1","h","0","0","0","22","22","0","22","0","22","0","0","0","22","22","22","22","Sun Sep 18 22:58:16 2022","1500","The main experiment item","yes","FlankerTask.osexp","C:/Users/lil_p/OneDrive/Documents/School/Advanced Quantitative Analysis/Lab 2.1","no","mono","no","18","no","white","no","no","768","legacy","22","22","C:/Users/lil_p/OneDrive/Documents/School/Advanced Quantitative Analysis/Lab 2.1/ap-subject-0.csv","legacy","Lentiform Loewenfeld","3.3.12","0","h","NA","h","NA","NA","h","700","NA","14572","NA","NA","700","2","legacy","1024","2","48000","-16","experiment","SSHSS","0","even","18149","NA","NA","61376","46576","3570","NA","NA","62537","3575","NA","NA","62639","63340","62534","62639","Flanker Task","22","16166","23","yes","1024"
"95.83333333333333","95.83333333333333","699.4583333333334","699.4583333333334","black","legacy","legacy","legacy","0","congruent","uniform","1","undefined","1","h","0","0","0","23","23","0","23","0","23","0","0","0","23","23","23","23","Sun Sep 18 22:58:16 2022","1500","The main experiment item","yes","FlankerTask.osexp","C:/Users/lil_p/OneDrive/Documents/School/Advanced Quantitative Analysis/Lab 2.1","no","mono","no","18","no","white","no","no","768","legacy","23","23","C:/Users/lil_p/OneDrive/Documents/School/Advanced Quantitative Analysis/Lab 2.1/ap-subject-0.csv","legacy","Lentiform Loewenfeld","3.3.12","0","h","NA","h","NA","NA","h","621","NA","14572","NA","NA","621","2","legacy","1024","2","48000","-16","experiment","HHHHH","0","even","18149","NA","NA","63348","46576","3570","NA","NA","64523","3575","NA","NA","64626","65248","64519","64626","Flanker Task","23","16787","24","yes","1024"
"96","96","690.36","690.36","black","legacy","legacy","legacy","0","congruent","uniform","1","undefined","1","h","0","0","0","24","24","0","24","0","24","0","0","0","24","24","24","24","Sun Sep 18 22:58:16 2022","1500","The main experiment item","yes","FlankerTask.osexp","C:/Users/lil_p/OneDrive/Documents/School/Advanced Quantitative Analysis/Lab 2.1","no","mono","no","18","no","white","no","no","768","legacy","24","24","C:/Users/lil_p/OneDrive/Documents/School/Advanced Quantitative Analysis/Lab 2.1/ap-subject-0.csv","legacy","Lentiform Loewenfeld","3.3.12","0","h","NA","h","NA","NA","h","472","NA","14572","NA","NA","472","2","legacy","1024","2","48000","-16","experiment","HHHHH","0","even","18149","NA","NA","65257","46576","3570","NA","NA","66435","3575","NA","NA","66538","67012","66432","66538","Flanker Task","24","17259","25","yes","1024"
"96.15384615384616","96.15384615384616","683.3076923076923","683.3076923076923","black","legacy","legacy","legacy","0","incongruent","uniform","1","undefined","1","h","0","0","0","25","25","0","25","0","25","0","0","0","25","25","25","25","Sun Sep 18 22:58:16 2022","1500","The main experiment item","yes","FlankerTask.osexp","C:/Users/lil_p/OneDrive/Documents/School/Advanced Quantitative Analysis/Lab 2.1","no","mono","no","18","no","white","no","no","768","legacy","25","25","C:/Users/lil_p/OneDrive/Documents/School/Advanced Quantitative Analysis/Lab 2.1/ap-subject-0.csv","legacy","Lentiform Loewenfeld","3.3.12","0","h","NA","h","NA","NA","h","507","NA","14572","NA","NA","507","2","legacy","1024","2","48000","-16","experiment","SSHSS","0","even","18149","NA","NA","67020","46576","3570","NA","NA","68188","3575","NA","NA","68291","68800","68184","68291","Flanker Task","25","17766","26","yes","1024"
"96.29629629629629","96.29629629629629","681.3703703703703","681.3703703703703","black","legacy","legacy","legacy","0","inconguent","uniform","1","undefined","1","s","0","0","0","26","26","0","26","0","26","0","0","0","26","26","26","26","Sun Sep 18 22:58:16 2022","1500","The main experiment item","yes","FlankerTask.osexp","C:/Users/lil_p/OneDrive/Documents/School/Advanced Quantitative Analysis/Lab 2.1","no","mono","no","18","no","white","no","no","768","legacy","26","26","C:/Users/lil_p/OneDrive/Documents/School/Advanced Quantitative Analysis/Lab 2.1/ap-subject-0.csv","legacy","Lentiform Loewenfeld","3.3.12","0","s","NA","h","NA","NA","s","631","NA","14572","NA","NA","631","2","legacy","1024","2","48000","-16","experiment","HHSHH","0","even","18149","NA","NA","68809","46576","3570","NA","NA","69980","3575","NA","NA","70082","70715","69977","70082","Flanker Task","26","18397","27","yes","1024"
"96.42857142857143","96.42857142857143","674.9642857142857","674.9642857142857","black","legacy","legacy","legacy","0","incongruent","uniform","1","undefined","1","h","0","0","0","27","27","0","27","0","27","0","0","0","27","27","27","27","Sun Sep 18 22:58:16 2022","1500","The main experiment item","yes","FlankerTask.osexp","C:/Users/lil_p/OneDrive/Documents/School/Advanced Quantitative Analysis/Lab 2.1","no","mono","no","18","no","white","no","no","768","legacy","27","27","C:/Users/lil_p/OneDrive/Documents/School/Advanced Quantitative Analysis/Lab 2.1/ap-subject-0.csv","legacy","Lentiform Loewenfeld","3.3.12","0","h","NA","h","NA","NA","h","502","NA","14572","NA","NA","502","2","legacy","1024","2","48000","-16","experiment","SSHSS","0","even","18149","NA","NA","70724","46576","3570","NA","NA","71895","3575","NA","NA","71998","72501","71891","71998","Flanker Task","27","18899","28","yes","1024"
"96.55172413793103","96.55172413793103","672.1379310344828","672.1379310344828","black","legacy","legacy","legacy","0","inconguent","uniform","1","undefined","1","s","0","0","0","28","28","0","28","0","28","0","0","0","28","28","28","28","Sun Sep 18 22:58:16 2022","1500","The main experiment item","yes","FlankerTask.osexp","C:/Users/lil_p/OneDrive/Documents/School/Advanced Quantitative Analysis/Lab 2.1","no","mono","no","18","no","white","no","no","768","legacy","28","28","C:/Users/lil_p/OneDrive/Documents/School/Advanced Quantitative Analysis/Lab 2.1/ap-subject-0.csv","legacy","Lentiform Loewenfeld","3.3.12","0","s","NA","h","NA","NA","s","593","NA","14572","NA","NA","593","2","legacy","1024","2","48000","-16","experiment","HHSHH","0","even","18149","NA","NA","72507","46576","3570","NA","NA","73669","3575","NA","NA","73772","74366","73665","73772","Flanker Task","28","19492","29","yes","1024"
"96.66666666666667","96.66666666666667","671","671","black","legacy","legacy","legacy","0","congruent","uniform","1","undefined","1","s","0","0","0","29","29","0","29","0","29","0","0","0","29","29","29","29","Sun Sep 18 22:58:16 2022","1500","The main experiment item","yes","FlankerTask.osexp","C:/Users/lil_p/OneDrive/Documents/School/Advanced Quantitative Analysis/Lab 2.1","no","mono","no","18","no","white","no","no","768","legacy","29","29","C:/Users/lil_p/OneDrive/Documents/School/Advanced Quantitative Analysis/Lab 2.1/ap-subject-0.csv","legacy","Lentiform Loewenfeld","3.3.12","0","s","NA","h","NA","NA","s","638","NA","14572","NA","NA","638","2","legacy","1024","2","48000","-16","experiment","SSSSS","0","even","18149","NA","NA","74374","46576","3570","NA","NA","75541","3575","NA","NA","75645","76285","75537","75645","Flanker Task","29","20130","30","yes","1024"
"96.7741935483871","96.7741935483871","665.5483870967741","665.5483870967741","black","legacy","legacy","legacy","0","congruent","uniform","1","undefined","1","h","0","0","0","30","30","0","30","0","30","0","0","0","30","30","30","30","Sun Sep 18 22:58:16 2022","1500","The main experiment item","yes","FlankerTask.osexp","C:/Users/lil_p/OneDrive/Documents/School/Advanced Quantitative Analysis/Lab 2.1","no","mono","no","18","no","white","no","no","768","legacy","30","30","C:/Users/lil_p/OneDrive/Documents/School/Advanced Quantitative Analysis/Lab 2.1/ap-subject-0.csv","legacy","Lentiform Loewenfeld","3.3.12","0","h","NA","h","NA","NA","h","502","NA","14572","NA","NA","502","2","legacy","1024","2","48000","-16","experiment","HHHHH","0","even","18149","NA","NA","76300","46576","3570","NA","NA","77515","3575","NA","NA","77618","78121","77510","77618","Flanker Task","30","20632","31","yes","1024"
"96.875","96.875","665.09375","665.09375","black","legacy","legacy","legacy","0","inconguent","uniform","1","undefined","1","s","0","0","0","31","31","0","31","0","31","0","0","0","31","31","31","31","Sun Sep 18 22:58:16 2022","1500","The main experiment item","yes","FlankerTask.osexp","C:/Users/lil_p/OneDrive/Documents/School/Advanced Quantitative Analysis/Lab 2.1","no","mono","no","18","no","white","no","no","768","legacy","31","31","C:/Users/lil_p/OneDrive/Documents/School/Advanced Quantitative Analysis/Lab 2.1/ap-subject-0.csv","legacy","Lentiform Loewenfeld","3.3.12","0","s","NA","h","NA","NA","s","651","NA","14572","NA","NA","651","2","legacy","1024","2","48000","-16","experiment","HHSHH","0","even","18149","NA","NA","78129","46576","3570","NA","NA","79316","3575","NA","NA","79420","80072","79312","79420","Flanker Task","31","21283","32","yes","1024"
"96.96969696969697","96.96969696969697","665.4242424242424","665.4242424242424","black","legacy","legacy","legacy","0","incongruent","uniform","1","undefined","1","h","0","0","0","32","32","0","32","0","32","0","0","0","32","32","32","32","Sun Sep 18 22:58:16 2022","1500","The main experiment item","yes","FlankerTask.osexp","C:/Users/lil_p/OneDrive/Documents/School/Advanced Quantitative Analysis/Lab 2.1","no","mono","no","18","no","white","no","no","768","legacy","32","32","C:/Users/lil_p/OneDrive/Documents/School/Advanced Quantitative Analysis/Lab 2.1/ap-subject-0.csv","legacy","Lentiform Loewenfeld","3.3.12","0","h","NA","h","NA","NA","h","676","NA","14572","NA","NA","676","2","legacy","1024","2","48000","-16","experiment","SSHSS","0","even","18149","NA","NA","80079","46576","3570","NA","NA","81232","3575","NA","NA","81335","82012","81227","81334","Flanker Task","32","21959","33","yes","1024"
"97.05882352941177","97.05882352941177","662.4117647058823","662.4117647058823","black","legacy","legacy","legacy","0","congruent","uniform","1","undefined","1","s","0","0","0","33","33","0","33","0","33","0","0","0","33","33","33","33","Sun Sep 18 22:58:16 2022","1500","The main experiment item","yes","FlankerTask.osexp","C:/Users/lil_p/OneDrive/Documents/School/Advanced Quantitative Analysis/Lab 2.1","no","mono","no","18","no","white","no","no","768","legacy","33","33","C:/Users/lil_p/OneDrive/Documents/School/Advanced Quantitative Analysis/Lab 2.1/ap-subject-0.csv","legacy","Lentiform Loewenfeld","3.3.12","0","s","NA","h","NA","NA","s","563","NA","14572","NA","NA","563","2","legacy","1024","2","48000","-16","experiment","SSSSS","0","even","18149","NA","NA","82020","46576","3570","NA","NA","83183","3575","NA","NA","83286","83850","83179","83286","Flanker Task","33","22522","34","yes","1024"
"97.14285714285714","97.14285714285714","662.9428571428572","662.9428571428572","black","legacy","legacy","legacy","0","congruent","uniform","1","undefined","1","h","0","0","0","34","34","0","34","0","34","0","0","0","34","34","34","34","Sun Sep 18 22:58:16 2022","1500","The main experiment item","yes","FlankerTask.osexp","C:/Users/lil_p/OneDrive/Documents/School/Advanced Quantitative Analysis/Lab 2.1","no","mono","no","18","no","white","no","no","768","legacy","34","34","C:/Users/lil_p/OneDrive/Documents/School/Advanced Quantitative Analysis/Lab 2.1/ap-subject-0.csv","legacy","Lentiform Loewenfeld","3.3.12","0","h","NA","h","NA","NA","h","681","NA","14572","NA","NA","681","2","legacy","1024","2","48000","-16","experiment","HHHHH","0","even","18149","NA","NA","83858","46576","3570","NA","NA","85031","3575","NA","NA","85134","85816","85027","85134","Flanker Task","34","23203","35","yes","1024"
"94.44444444444444","94.44444444444444","655.25","655.25","black","legacy","legacy","legacy","0","incongruent","uniform","0","undefined","0","h","0","0","0","35","35","0","35","0","35","0","0","0","35","35","35","35","Sun Sep 18 22:58:16 2022","1500","The main experiment item","yes","FlankerTask.osexp","C:/Users/lil_p/OneDrive/Documents/School/Advanced Quantitative Analysis/Lab 2.1","no","mono","no","18","no","white","no","no","768","legacy","35","35","C:/Users/lil_p/OneDrive/Documents/School/Advanced Quantitative Analysis/Lab 2.1/ap-subject-0.csv","legacy","Lentiform Loewenfeld","3.3.12","0","s","NA","h","NA","NA","s","386","NA","14572","NA","NA","386","2","legacy","1024","2","48000","-16","experiment","SSHSS","0","even","18149","NA","NA","85825","87497","3570","NA","NA","87004","3575","NA","NA","87107","87998","87000","87107","Flanker Task","34","23589","36","yes","1024"
"94.5945945945946","94.5945945945946","656.5135135135135","656.5135135135135","black","legacy","legacy","legacy","0","incongruent","uniform","1","undefined","1","h","0","0","0","36","36","0","36","0","36","0","0","0","36","36","36","36","Sun Sep 18 22:58:16 2022","1500","The main experiment item","yes","FlankerTask.osexp","C:/Users/lil_p/OneDrive/Documents/School/Advanced Quantitative Analysis/Lab 2.1","no","mono","no","18","no","white","no","no","768","legacy","36","36","C:/Users/lil_p/OneDrive/Documents/School/Advanced Quantitative Analysis/Lab 2.1/ap-subject-0.csv","legacy","Lentiform Loewenfeld","3.3.12","0","h","NA","h","NA","NA","h","702","NA","14572","NA","NA","702","2","legacy","1024","2","48000","-16","experiment","SSHSS","0","even","18149","NA","NA","88007","87497","3570","NA","NA","89177","3575","NA","NA","89280","89984","89172","89280","Flanker Task","35","24291","37","yes","1024"
"94.73684210526316","94.73684210526316","657.5","657.5","black","legacy","legacy","legacy","0","congruent","uniform","1","undefined","1","h","0","0","0","37","37","0","37","0","37","0","0","0","37","37","37","37","Sun Sep 18 22:58:16 2022","1500","The main experiment item","yes","FlankerTask.osexp","C:/Users/lil_p/OneDrive/Documents/School/Advanced Quantitative Analysis/Lab 2.1","no","mono","no","18","no","white","no","no","768","legacy","37","37","C:/Users/lil_p/OneDrive/Documents/School/Advanced Quantitative Analysis/Lab 2.1/ap-subject-0.csv","legacy","Lentiform Loewenfeld","3.3.12","0","h","NA","h","NA","NA","h","694","NA","14572","NA","NA","694","2","legacy","1024","2","48000","-16","experiment","HHHHH","0","even","18149","NA","NA","90009","87497","3570","NA","NA","91234","3575","NA","NA","91337","92032","91230","91337","Flanker Task","36","24985","38","yes","1024"
"94.87179487179488","94.87179487179488","656.0769230769231","656.0769230769231","black","legacy","legacy","legacy","0","congruent","uniform","1","undefined","1","h","0","0","0","38","38","0","38","0","38","0","0","0","38","38","38","38","Sun Sep 18 22:58:16 2022","1500","The main experiment item","yes","FlankerTask.osexp","C:/Users/lil_p/OneDrive/Documents/School/Advanced Quantitative Analysis/Lab 2.1","no","mono","no","18","no","white","no","no","768","legacy","38","38","C:/Users/lil_p/OneDrive/Documents/School/Advanced Quantitative Analysis/Lab 2.1/ap-subject-0.csv","legacy","Lentiform Loewenfeld","3.3.12","0","h","NA","h","NA","NA","h","602","NA","14572","NA","NA","602","2","legacy","1024","2","48000","-16","experiment","HHHHH","0","even","18149","NA","NA","92040","87497","3570","NA","NA","93264","3575","NA","NA","93367","93971","93260","93367","Flanker Task","37","25587","39","yes","1024"
"95","95","655.05","655.05","black","legacy","legacy","legacy","0","inconguent","uniform","1","undefined","1","s","0","0","0","39","39","0","39","0","39","0","0","0","39","39","39","39","Sun Sep 18 22:58:16 2022","1500","The main experiment item","yes","FlankerTask.osexp","C:/Users/lil_p/OneDrive/Documents/School/Advanced Quantitative Analysis/Lab 2.1","no","mono","no","18","no","white","no","no","768","legacy","39","39","C:/Users/lil_p/OneDrive/Documents/School/Advanced Quantitative Analysis/Lab 2.1/ap-subject-0.csv","legacy","Lentiform Loewenfeld","3.3.12","0","s","NA","h","NA","NA","s","615","NA","14572","NA","NA","615","2","legacy","1024","2","48000","-16","experiment","HHSHH","0","even","18149","NA","NA","93978","87497","3570","NA","NA","95135","3575","NA","NA","95242","95859","95131","95241","Flanker Task","38","26202","40","yes","1024"
"95.1219512195122","95.1219512195122","652.9024390243902","652.9024390243902","black","legacy","legacy","legacy","0","congruent","uniform","1","undefined","1","s","0","0","0","40","40","0","40","0","40","0","0","0","40","40","40","40","Sun Sep 18 22:58:16 2022","1500","The main experiment item","yes","FlankerTask.osexp","C:/Users/lil_p/OneDrive/Documents/School/Advanced Quantitative Analysis/Lab 2.1","no","mono","no","18","no","white","no","no","768","legacy","40","40","C:/Users/lil_p/OneDrive/Documents/School/Advanced Quantitative Analysis/Lab 2.1/ap-subject-0.csv","legacy","Lentiform Loewenfeld","3.3.12","0","s","NA","h","NA","NA","s","567","NA","14572","NA","NA","567","2","legacy","1024","2","48000","-16","experiment","SSSSS","0","even","18149","NA","NA","95867","87497","3570","NA","NA","97044","3575","NA","NA","97147","97716","97039","97147","Flanker Task","39","26769","41","yes","1024"
"95.23809523809524","95.23809523809524","651.8095238095239","651.8095238095239","black","legacy","legacy","legacy","0","inconguent","uniform","1","undefined","1","s","0","0","0","41","41","0","41","0","41","0","0","0","41","41","41","41","Sun Sep 18 22:58:16 2022","1500","The main experiment item","yes","FlankerTask.osexp","C:/Users/lil_p/OneDrive/Documents/School/Advanced Quantitative Analysis/Lab 2.1","no","mono","no","18","no","white","no","no","768","legacy","41","41","C:/Users/lil_p/OneDrive/Documents/School/Advanced Quantitative Analysis/Lab 2.1/ap-subject-0.csv","legacy","Lentiform Loewenfeld","3.3.12","0","s","NA","h","NA","NA","s","607","NA","14572","NA","NA","607","2","legacy","1024","2","48000","-16","experiment","HHSHH","0","even","18149","NA","NA","97723","87497","3570","NA","NA","98876","3575","NA","NA","98979","99588","98872","98979","Flanker Task","40","27376","42","yes","1024"
"95.34883720930233","95.34883720930233","649.4883720930233","649.4883720930233","black","legacy","legacy","legacy","0","congruent","uniform","1","undefined","1","h","0","0","0","42","42","0","42","0","42","0","0","0","42","42","42","42","Sun Sep 18 22:58:16 2022","1500","The main experiment item","yes","FlankerTask.osexp","C:/Users/lil_p/OneDrive/Documents/School/Advanced Quantitative Analysis/Lab 2.1","no","mono","no","18","no","white","no","no","768","legacy","42","42","C:/Users/lil_p/OneDrive/Documents/School/Advanced Quantitative Analysis/Lab 2.1/ap-subject-0.csv","legacy","Lentiform Loewenfeld","3.3.12","0","h","NA","h","NA","NA","h","552","NA","14572","NA","NA","552","2","legacy","1024","2","48000","-16","experiment","HHHHH","0","even","18149","NA","NA","99596","87497","3570","NA","NA","100786","3575","NA","NA","100889","101442","100782","100889","Flanker Task","41","27928","43","yes","1024"
"95.45454545454545","95.45454545454545","646.7727272727273","646.7727272727273","black","legacy","legacy","legacy","0","inconguent","uniform","1","undefined","1","s","0","0","0","43","43","0","43","0","43","0","0","0","43","43","43","43","Sun Sep 18 22:58:16 2022","1500","The main experiment item","yes","FlankerTask.osexp","C:/Users/lil_p/OneDrive/Documents/School/Advanced Quantitative Analysis/Lab 2.1","no","mono","no","18","no","white","no","no","768","legacy","43","43","C:/Users/lil_p/OneDrive/Documents/School/Advanced Quantitative Analysis/Lab 2.1/ap-subject-0.csv","legacy","Lentiform Loewenfeld","3.3.12","0","s","NA","h","NA","NA","s","530","NA","14572","NA","NA","530","2","legacy","1024","2","48000","-16","experiment","HHSHH","0","even","18149","NA","NA","101468","87497","3570","NA","NA","102673","3575","NA","NA","102776","103308","102669","102776","Flanker Task","42","28458","44","yes","1024"
"95.55555555555556","95.55555555555556","653.9555555555555","653.9555555555555","black","legacy","legacy","legacy","0","incongruent","uniform","1","undefined","1","h","0","0","0","44","44","0","44","0","44","0","0","0","44","44","44","44","Sun Sep 18 22:58:16 2022","1500","The main experiment item","yes","FlankerTask.osexp","C:/Users/lil_p/OneDrive/Documents/School/Advanced Quantitative Analysis/Lab 2.1","no","mono","no","18","no","white","no","no","768","legacy","44","44","C:/Users/lil_p/OneDrive/Documents/School/Advanced Quantitative Analysis/Lab 2.1/ap-subject-0.csv","legacy","Lentiform Loewenfeld","3.3.12","0","h","NA","h","NA","NA","h","970","NA","14572","NA","NA","970","2","legacy","1024","2","48000","-16","experiment","SSHSS","0","even","18149","NA","NA","103317","87497","3570","NA","NA","104478","3575","NA","NA","104581","105553","104474","104581","Flanker Task","43","29428","45","yes","1024"
"95.65217391304348","95.65217391304348","652.6086956521739","652.6086956521739","black","legacy","legacy","legacy","0","congruent","uniform","1","undefined","1","h","0","0","0","45","45","0","45","0","45","0","0","0","45","45","45","45","Sun Sep 18 22:58:16 2022","1500","The main experiment item","yes","FlankerTask.osexp","C:/Users/lil_p/OneDrive/Documents/School/Advanced Quantitative Analysis/Lab 2.1","no","mono","no","18","no","white","no","no","768","legacy","45","45","C:/Users/lil_p/OneDrive/Documents/School/Advanced Quantitative Analysis/Lab 2.1/ap-subject-0.csv","legacy","Lentiform Loewenfeld","3.3.12","0","h","NA","h","NA","NA","h","592","NA","14572","NA","NA","592","2","legacy","1024","2","48000","-16","experiment","HHHHH","0","even","18149","NA","NA","105561","87497","3570","NA","NA","106748","3575","NA","NA","106851","107444","106744","106851","Flanker Task","44","30020","46","yes","1024"
"95.74468085106383","95.74468085106383","652.3404255319149","652.3404255319149","black","legacy","legacy","legacy","0","congruent","uniform","1","undefined","1","s","0","0","0","46","46","0","46","0","46","0","0","0","46","46","46","46","Sun Sep 18 22:58:16 2022","1500","The main experiment item","yes","FlankerTask.osexp","C:/Users/lil_p/OneDrive/Documents/School/Advanced Quantitative Analysis/Lab 2.1","no","mono","no","18","no","white","no","no","768","legacy","46","46","C:/Users/lil_p/OneDrive/Documents/School/Advanced Quantitative Analysis/Lab 2.1/ap-subject-0.csv","legacy","Lentiform Loewenfeld","3.3.12","0","s","NA","h","NA","NA","s","640","NA","14572","NA","NA","640","2","legacy","1024","2","48000","-16","experiment","SSSSS","0","even","18149","NA","NA","107453","87497","3570","NA","NA","108622","3575","NA","NA","108725","109366","108617","108725","Flanker Task","45","30660","47","yes","1024"
"95.83333333333333","95.83333333333333","650.5833333333334","650.5833333333334","black","legacy","legacy","legacy","0","congruent","uniform","1","undefined","1","s","0","0","0","47","47","0","47","0","47","0","0","0","47","47","47","47","Sun Sep 18 22:58:16 2022","1500","The main experiment item","yes","FlankerTask.osexp","C:/Users/lil_p/OneDrive/Documents/School/Advanced Quantitative Analysis/Lab 2.1","no","mono","no","18","no","white","no","no","768","legacy","47","47","C:/Users/lil_p/OneDrive/Documents/School/Advanced Quantitative Analysis/Lab 2.1/ap-subject-0.csv","legacy","Lentiform Loewenfeld","3.3.12","0","s","NA","h","NA","NA","s","568","NA","14572","NA","NA","568","2","legacy","1024","2","48000","-16","experiment","SSSSS","0","even","18149","NA","NA","109372","87497","3570","NA","NA","110553","3575","NA","NA","110656","111226","110549","110656","Flanker Task","46","31228","48","yes","1024"
"95.91836734693878","95.91836734693878","648.1428571428571","648.1428571428571","black","legacy","legacy","legacy","0","congruent","uniform","1","undefined","1","h","0","0","0","48","48","0","48","0","48","0","0","0","48","48","48","48","Sun Sep 18 22:58:16 2022","1500","The main experiment item","yes","FlankerTask.osexp","C:/Users/lil_p/OneDrive/Documents/School/Advanced Quantitative Analysis/Lab 2.1","no","mono","no","18","no","white","no","no","768","legacy","48","48","C:/Users/lil_p/OneDrive/Documents/School/Advanced Quantitative Analysis/Lab 2.1/ap-subject-0.csv","legacy","Lentiform Loewenfeld","3.3.12","0","h","NA","h","NA","NA","h","531","NA","14572","NA","NA","531","2","legacy","1024","2","48000","-16","experiment","HHHHH","0","even","18149","NA","NA","111235","87497","3570","NA","NA","112413","3575","NA","NA","112516","113048","112409","112516","Flanker Task","47","31759","49","yes","1024"
"96","96","651.62","651.62","black","legacy","legacy","legacy","0","congruent","uniform","1","undefined","1","h","0","0","0","49","49","0","49","0","49","0","0","0","49","49","49","49","Sun Sep 18 22:58:16 2022","1500","The main experiment item","yes","FlankerTask.osexp","C:/Users/lil_p/OneDrive/Documents/School/Advanced Quantitative Analysis/Lab 2.1","no","mono","no","18","no","white","no","no","768","legacy","49","49","C:/Users/lil_p/OneDrive/Documents/School/Advanced Quantitative Analysis/Lab 2.1/ap-subject-0.csv","legacy","Lentiform Loewenfeld","3.3.12","0","h","NA","h","NA","NA","h","822","NA","14572","NA","NA","822","2","legacy","1024","2","48000","-16","experiment","HHHHH","0","even","18149","NA","NA","113058","87497","3570","NA","NA","114235","3575","NA","NA","114338","115161","114232","114338","Flanker Task","48","32581","50","yes","1024"
"94.11764705882354","94.11764705882354","668.2549019607843","668.2549019607843","black","legacy","legacy","legacy","0","congruent","uniform","0","undefined","0","h","0","0","0","50","50","0","50","0","50","0","0","0","50","50","50","50","Sun Sep 18 22:58:16 2022","1500","The main experiment item","yes","FlankerTask.osexp","C:/Users/lil_p/OneDrive/Documents/School/Advanced Quantitative Analysis/Lab 2.1","no","mono","no","18","no","white","no","no","768","legacy","50","50","C:/Users/lil_p/OneDrive/Documents/School/Advanced Quantitative Analysis/Lab 2.1/ap-subject-0.csv","legacy","Lentiform Loewenfeld","3.3.12","0","None","NA","h","NA","NA","None","1500","NA","14572","NA","NA","1500","2","legacy","1024","2","48000","-16","experiment","HHHHH","0","even","18149","NA","NA","115170","117939","3570","NA","NA","116333","3575","NA","NA","116436","118439","116329","116436","Flanker Task","48","34081","51","yes","1024"
"94.23076923076923","94.23076923076923","669.1730769230769","669.1730769230769","black","legacy","legacy","legacy","0","incongruent","uniform","1","undefined","1","h","0","0","0","51","51","0","51","0","51","0","0","0","51","51","51","51","Sun Sep 18 22:58:16 2022","1500","The main experiment item","yes","FlankerTask.osexp","C:/Users/lil_p/OneDrive/Documents/School/Advanced Quantitative Analysis/Lab 2.1","no","mono","no","18","no","white","no","no","768","legacy","51","51","C:/Users/lil_p/OneDrive/Documents/School/Advanced Quantitative Analysis/Lab 2.1/ap-subject-0.csv","legacy","Lentiform Loewenfeld","3.3.12","0","h","NA","h","NA","NA","h","716","NA","14572","NA","NA","716","2","legacy","1024","2","48000","-16","experiment","SSHSS","0","even","18149","NA","NA","118952","117939","3570","118448","NA","120114","3575","NA","NA","120225","120942","120109","120225","Flanker Task","49","34797","52","yes","1024"
"94.33962264150944","94.33962264150944","667.6415094339623","667.6415094339623","black","legacy","legacy","legacy","0","congruent","uniform","1","undefined","1","s","0","0","0","52","52","0","52","0","52","0","0","0","52","52","52","52","Sun Sep 18 22:58:16 2022","1500","The main experiment item","yes","FlankerTask.osexp","C:/Users/lil_p/OneDrive/Documents/School/Advanced Quantitative Analysis/Lab 2.1","no","mono","no","18","no","white","no","no","768","legacy","52","52","C:/Users/lil_p/OneDrive/Documents/School/Advanced Quantitative Analysis/Lab 2.1/ap-subject-0.csv","legacy","Lentiform Loewenfeld","3.3.12","0","s","NA","h","NA","NA","s","588","NA","14572","NA","NA","588","2","legacy","1024","2","48000","-16","experiment","SSSSS","0","even","18149","NA","NA","120949","117939","3570","118448","NA","122107","3575","NA","NA","122210","122800","122104","122210","Flanker Task","50","35385","53","yes","1024"
"94.44444444444444","94.44444444444444","670.3333333333334","670.3333333333334","black","legacy","legacy","legacy","0","inconguent","uniform","1","undefined","1","s","0","0","0","53","53","0","53","0","53","0","0","0","53","53","53","53","Sun Sep 18 22:58:16 2022","1500","The main experiment item","yes","FlankerTask.osexp","C:/Users/lil_p/OneDrive/Documents/School/Advanced Quantitative Analysis/Lab 2.1","no","mono","no","18","no","white","no","no","768","legacy","53","53","C:/Users/lil_p/OneDrive/Documents/School/Advanced Quantitative Analysis/Lab 2.1/ap-subject-0.csv","legacy","Lentiform Loewenfeld","3.3.12","0","s","NA","h","NA","NA","s","813","NA","14572","NA","NA","813","2","legacy","1024","2","48000","-16","experiment","HHSHH","0","even","18149","NA","NA","122807","117939","3570","118448","NA","123981","3575","NA","NA","124084","124899","123977","124084","Flanker Task","51","36198","54","yes","1024"
"94.54545454545455","94.54545454545455","668.5454545454545","668.5454545454545","black","legacy","legacy","legacy","0","inconguent","uniform","1","undefined","1","s","0","0","0","54","54","0","54","0","54","0","0","0","54","54","54","54","Sun Sep 18 22:58:16 2022","1500","The main experiment item","yes","FlankerTask.osexp","C:/Users/lil_p/OneDrive/Documents/School/Advanced Quantitative Analysis/Lab 2.1","no","mono","no","18","no","white","no","no","768","legacy","54","54","C:/Users/lil_p/OneDrive/Documents/School/Advanced Quantitative Analysis/Lab 2.1/ap-subject-0.csv","legacy","Lentiform Loewenfeld","3.3.12","0","s","NA","h","NA","NA","s","572","NA","14572","NA","NA","572","2","legacy","1024","2","48000","-16","experiment","HHSHH","0","even","18149","NA","NA","124907","117939","3570","118448","NA","126065","3575","NA","NA","126168","126742","126061","126168","Flanker Task","52","36770","55","yes","1024"
"94.64285714285714","94.64285714285714","667.8214285714286","667.8214285714286","black","legacy","legacy","legacy","0","inconguent","uniform","1","undefined","1","s","0","0","0","55","55","0","55","0","55","0","0","0","55","55","55","55","Sun Sep 18 22:58:16 2022","1500","The main experiment item","yes","FlankerTask.osexp","C:/Users/lil_p/OneDrive/Documents/School/Advanced Quantitative Analysis/Lab 2.1","no","mono","no","18","no","white","no","no","768","legacy","55","55","C:/Users/lil_p/OneDrive/Documents/School/Advanced Quantitative Analysis/Lab 2.1/ap-subject-0.csv","legacy","Lentiform Loewenfeld","3.3.12","0","s","NA","h","NA","NA","s","628","NA","14572","NA","NA","628","2","legacy","1024","2","48000","-16","experiment","HHSHH","0","even","18149","NA","NA","126751","117939","3570","118448","NA","127899","3575","NA","NA","128001","128631","127895","128001","Flanker Task","53","37398","56","yes","1024"
"94.73684210526316","94.73684210526316","666.280701754386","666.280701754386","black","legacy","legacy","legacy","0","congruent","uniform","1","undefined","1","h","0","0","0","56","56","0","56","0","56","0","0","0","56","56","56","56","Sun Sep 18 22:58:16 2022","1500","The main experiment item","yes","FlankerTask.osexp","C:/Users/lil_p/OneDrive/Documents/School/Advanced Quantitative Analysis/Lab 2.1","no","mono","no","18","no","white","no","no","768","legacy","56","56","C:/Users/lil_p/OneDrive/Documents/School/Advanced Quantitative Analysis/Lab 2.1/ap-subject-0.csv","legacy","Lentiform Loewenfeld","3.3.12","0","h","NA","h","NA","NA","h","580","NA","14572","NA","NA","580","2","legacy","1024","2","48000","-16","experiment","HHHHH","0","even","18149","NA","NA","128639","117939","3570","118448","NA","129816","3575","NA","NA","129919","130501","129811","129919","Flanker Task","54","37978","57","yes","1024"
"94.82758620689656","94.82758620689656","663.8793103448276","663.8793103448276","black","legacy","legacy","legacy","0","congruent","uniform","1","undefined","1","h","0","0","0","57","57","0","57","0","57","0","0","0","57","57","57","57","Sun Sep 18 22:58:16 2022","1500","The main experiment item","yes","FlankerTask.osexp","C:/Users/lil_p/OneDrive/Documents/School/Advanced Quantitative Analysis/Lab 2.1","no","mono","no","18","no","white","no","no","768","legacy","57","57","C:/Users/lil_p/OneDrive/Documents/School/Advanced Quantitative Analysis/Lab 2.1/ap-subject-0.csv","legacy","Lentiform Loewenfeld","3.3.12","0","h","NA","h","NA","NA","h","527","NA","14572","NA","NA","527","2","legacy","1024","2","48000","-16","experiment","HHHHH","0","even","18149","NA","NA","130508","117939","3570","118448","NA","131707","3575","NA","NA","131810","132339","131703","131810","Flanker Task","55","38505","58","yes","1024"
"94.91525423728814","94.91525423728814","663.1355932203389","663.1355932203389","black","legacy","legacy","legacy","0","congruent","uniform","1","undefined","1","s","0","0","0","58","58","0","58","0","58","0","0","0","58","58","58","58","Sun Sep 18 22:58:16 2022","1500","The main experiment item","yes","FlankerTask.osexp","C:/Users/lil_p/OneDrive/Documents/School/Advanced Quantitative Analysis/Lab 2.1","no","mono","no","18","no","white","no","no","768","legacy","58","58","C:/Users/lil_p/OneDrive/Documents/School/Advanced Quantitative Analysis/Lab 2.1/ap-subject-0.csv","legacy","Lentiform Loewenfeld","3.3.12","0","s","NA","h","NA","NA","s","620","NA","14572","NA","NA","620","2","legacy","1024","2","48000","-16","experiment","SSSSS","0","even","18149","NA","NA","132346","117939","3570","118448","NA","133523","3575","NA","NA","133626","134248","133519","133626","Flanker Task","56","39125","59","yes","1024"
"95","95","660.7666666666667","660.7666666666667","black","legacy","legacy","legacy","0","congruent","uniform","1","undefined","1","s","0","0","0","59","59","0","59","0","59","0","0","0","59","59","59","59","Sun Sep 18 22:58:16 2022","1500","The main experiment item","yes","FlankerTask.osexp","C:/Users/lil_p/OneDrive/Documents/School/Advanced Quantitative Analysis/Lab 2.1","no","mono","no","18","no","white","no","no","768","legacy","59","59","C:/Users/lil_p/OneDrive/Documents/School/Advanced Quantitative Analysis/Lab 2.1/ap-subject-0.csv","legacy","Lentiform Loewenfeld","3.3.12","0","s","NA","h","NA","NA","s","521","NA","14572","NA","NA","521","2","legacy","1024","2","48000","-16","experiment","SSSSS","0","even","18149","NA","NA","134256","117939","3570","118448","NA","135403","3575","NA","NA","135507","136030","135399","135506","Flanker Task","57","39646","60","yes","1024"
"95.08196721311475","95.08196721311475","657.2459016393443","657.2459016393443","black","legacy","legacy","legacy","0","congruent","uniform","1","undefined","1","s","0","0","0","60","60","0","60","0","60","0","0","0","60","60","60","60","Sun Sep 18 22:58:16 2022","1500","The main experiment item","yes","FlankerTask.osexp","C:/Users/lil_p/OneDrive/Documents/School/Advanced Quantitative Analysis/Lab 2.1","no","mono","no","18","no","white","no","no","768","legacy","60","60","C:/Users/lil_p/OneDrive/Documents/School/Advanced Quantitative Analysis/Lab 2.1/ap-subject-0.csv","legacy","Lentiform Loewenfeld","3.3.12","0","s","NA","h","NA","NA","s","446","NA","14572","NA","NA","446","2","legacy","1024","2","48000","-16","experiment","SSSSS","0","even","18149","NA","NA","136039","117939","3570","118448","NA","137210","3575","NA","NA","137313","137761","137205","137313","Flanker Task","58","40092","61","yes","1024"
"95.16129032258064","95.16129032258064","653.3064516129032","653.3064516129032","black","legacy","legacy","legacy","0","congruent","uniform","1","undefined","1","s","0","0","0","61","61","0","61","0","61","0","0","0","61","61","61","61","Sun Sep 18 22:58:16 2022","1500","The main experiment item","yes","FlankerTask.osexp","C:/Users/lil_p/OneDrive/Documents/School/Advanced Quantitative Analysis/Lab 2.1","no","mono","no","18","no","white","no","no","768","legacy","61","61","C:/Users/lil_p/OneDrive/Documents/School/Advanced Quantitative Analysis/Lab 2.1/ap-subject-0.csv","legacy","Lentiform Loewenfeld","3.3.12","0","s","NA","h","NA","NA","s","413","NA","14572","NA","NA","413","2","legacy","1024","2","48000","-16","experiment","SSSSS","0","even","18149","NA","NA","137770","117939","3570","118448","NA","138963","3575","NA","NA","139066","139481","138958","139066","Flanker Task","59","40505","62","yes","1024"
"95.23809523809524","95.23809523809524","653.8730158730159","653.8730158730159","black","legacy","legacy","legacy","0","inconguent","uniform","1","undefined","1","s","0","0","0","62","62","0","62","0","62","0","0","0","62","62","62","62","Sun Sep 18 22:58:16 2022","1500","The main experiment item","yes","FlankerTask.osexp","C:/Users/lil_p/OneDrive/Documents/School/Advanced Quantitative Analysis/Lab 2.1","no","mono","no","18","no","white","no","no","768","legacy","62","62","C:/Users/lil_p/OneDrive/Documents/School/Advanced Quantitative Analysis/Lab 2.1/ap-subject-0.csv","legacy","Lentiform Loewenfeld","3.3.12","0","s","NA","h","NA","NA","s","689","NA","14572","NA","NA","689","2","legacy","1024","2","48000","-16","experiment","HHSHH","0","even","18149","NA","NA","139490","117939","3570","118448","NA","140653","3575","NA","NA","140756","141447","140649","140756","Flanker Task","60","41194","63","yes","1024"
"95.3125","95.3125","651.0625","651.0625","black","legacy","legacy","legacy","0","congruent","uniform","1","undefined","1","h","0","0","0","63","63","0","63","0","63","0","0","0","63","63","63","63","Sun Sep 18 22:58:16 2022","1500","The main experiment item","yes","FlankerTask.osexp","C:/Users/lil_p/OneDrive/Documents/School/Advanced Quantitative Analysis/Lab 2.1","no","mono","no","18","no","white","no","no","768","legacy","63","63","C:/Users/lil_p/OneDrive/Documents/School/Advanced Quantitative Analysis/Lab 2.1/ap-subject-0.csv","legacy","Lentiform Loewenfeld","3.3.12","0","h","NA","h","NA","NA","h","474","NA","14572","NA","NA","474","2","legacy","1024","2","48000","-16","experiment","HHHHH","0","even","18149","NA","NA","141456","117939","3570","118448","NA","142632","3575","NA","NA","142735","143210","142629","142735","Flanker Task","61","41668","64","yes","1024"
"95.38461538461539","95.38461538461539","648.1076923076923","648.1076923076923","black","legacy","legacy","legacy","0","congruent","uniform","1","undefined","1","h","0","0","0","64","64","0","64","0","64","0","0","0","64","64","64","64","Sun Sep 18 22:58:16 2022","1500","The main experiment item","yes","FlankerTask.osexp","C:/Users/lil_p/OneDrive/Documents/School/Advanced Quantitative Analysis/Lab 2.1","no","mono","no","18","no","white","no","no","768","legacy","64","64","C:/Users/lil_p/OneDrive/Documents/School/Advanced Quantitative Analysis/Lab 2.1/ap-subject-0.csv","legacy","Lentiform Loewenfeld","3.3.12","0","h","NA","h","NA","NA","h","459","NA","14572","NA","NA","459","2","legacy","1024","2","48000","-16","experiment","HHHHH","0","even","18149","NA","NA","143216","117939","3570","118448","NA","144343","3575","NA","NA","144446","144906","144337","144446","Flanker Task","62","42127","65","yes","1024"
"95.45454545454545","95.45454545454545","645.0151515151515","645.0151515151515","black","legacy","legacy","legacy","0","congruent","uniform","1","undefined","1","h","0","0","0","65","65","0","65","0","65","0","0","0","65","65","65","65","Sun Sep 18 22:58:16 2022","1500","The main experiment item","yes","FlankerTask.osexp","C:/Users/lil_p/OneDrive/Documents/School/Advanced Quantitative Analysis/Lab 2.1","no","mono","no","18","no","white","no","no","768","legacy","65","65","C:/Users/lil_p/OneDrive/Documents/School/Advanced Quantitative Analysis/Lab 2.1/ap-subject-0.csv","legacy","Lentiform Loewenfeld","3.3.12","0","h","NA","h","NA","NA","h","444","NA","14572","NA","NA","444","2","legacy","1024","2","48000","-16","experiment","HHHHH","0","even","18149","NA","NA","144914","117939","3570","118448","NA","146083","3575","NA","NA","146191","146638","146079","146191","Flanker Task","63","42571","66","yes","1024"
"95.5223880597015","95.5223880597015","644.2089552238806","644.2089552238806","black","legacy","legacy","legacy","0","congruent","uniform","1","undefined","1","s","0","0","0","66","66","0","66","0","66","0","0","0","66","66","66","66","Sun Sep 18 22:58:16 2022","1500","The main experiment item","yes","FlankerTask.osexp","C:/Users/lil_p/OneDrive/Documents/School/Advanced Quantitative Analysis/Lab 2.1","no","mono","no","18","no","white","no","no","768","legacy","66","66","C:/Users/lil_p/OneDrive/Documents/School/Advanced Quantitative Analysis/Lab 2.1/ap-subject-0.csv","legacy","Lentiform Loewenfeld","3.3.12","0","s","NA","h","NA","NA","s","591","NA","14572","NA","NA","591","2","legacy","1024","2","48000","-16","experiment","SSSSS","0","even","18149","NA","NA","146647","117939","3570","118448","NA","147810","3575","NA","NA","147913","148506","147807","147913","Flanker Task","64","43162","67","yes","1024"
"95.58823529411765","95.58823529411765","642.5588235294117","642.5588235294117","black","legacy","legacy","legacy","0","congruent","uniform","1","undefined","1","s","0","0","0","67","67","0","67","0","67","0","0","0","67","67","67","67","Sun Sep 18 22:58:16 2022","1500","The main experiment item","yes","FlankerTask.osexp","C:/Users/lil_p/OneDrive/Documents/School/Advanced Quantitative Analysis/Lab 2.1","no","mono","no","18","no","white","no","no","768","legacy","67","67","C:/Users/lil_p/OneDrive/Documents/School/Advanced Quantitative Analysis/Lab 2.1/ap-subject-0.csv","legacy","Lentiform Loewenfeld","3.3.12","0","s","NA","h","NA","NA","s","532","NA","14572","NA","NA","532","2","legacy","1024","2","48000","-16","experiment","SSSSS","0","even","18149","NA","NA","148515","117939","3570","118448","NA","149689","3575","NA","NA","149792","150327","149686","149792","Flanker Task","65","43694","68","yes","1024"
"95.65217391304348","95.65217391304348","642.0289855072464","642.0289855072464","black","legacy","legacy","legacy","0","inconguent","uniform","1","undefined","1","s","0","0","0","68","68","0","68","0","68","0","0","0","68","68","68","68","Sun Sep 18 22:58:16 2022","1500","The main experiment item","yes","FlankerTask.osexp","C:/Users/lil_p/OneDrive/Documents/School/Advanced Quantitative Analysis/Lab 2.1","no","mono","no","18","no","white","no","no","768","legacy","68","68","C:/Users/lil_p/OneDrive/Documents/School/Advanced Quantitative Analysis/Lab 2.1/ap-subject-0.csv","legacy","Lentiform Loewenfeld","3.3.12","0","s","NA","h","NA","NA","s","606","NA","14572","NA","NA","606","2","legacy","1024","2","48000","-16","experiment","HHSHH","0","even","18149","NA","NA","150339","117939","3570","118448","NA","151549","3575","NA","NA","151653","152261","151546","151653","Flanker Task","66","44300","69","yes","1024"
"95.71428571428571","95.71428571428571","641.4142857142857","641.4142857142857","black","legacy","legacy","legacy","0","incongruent","uniform","1","undefined","1","h","0","0","0","69","69","0","69","0","69","0","0","0","69","69","69","69","Sun Sep 18 22:58:16 2022","1500","The main experiment item","yes","FlankerTask.osexp","C:/Users/lil_p/OneDrive/Documents/School/Advanced Quantitative Analysis/Lab 2.1","no","mono","no","18","no","white","no","no","768","legacy","69","69","C:/Users/lil_p/OneDrive/Documents/School/Advanced Quantitative Analysis/Lab 2.1/ap-subject-0.csv","legacy","Lentiform Loewenfeld","3.3.12","0","h","NA","h","NA","NA","h","599","NA","14572","NA","NA","599","2","legacy","1024","2","48000","-16","experiment","SSHSS","0","even","18149","NA","NA","152268","117939","3570","118448","NA","153425","3575","NA","NA","153529","154130","153421","153528","Flanker Task","67","44899","70","yes","1024"
"95.77464788732394","95.77464788732394","640.5774647887324","640.5774647887324","black","legacy","legacy","legacy","0","congruent","uniform","1","undefined","1","s","0","0","0","70","70","0","70","0","70","0","0","0","70","70","70","70","Sun Sep 18 22:58:16 2022","1500","The main experiment item","yes","FlankerTask.osexp","C:/Users/lil_p/OneDrive/Documents/School/Advanced Quantitative Analysis/Lab 2.1","no","mono","no","18","no","white","no","no","768","legacy","70","70","C:/Users/lil_p/OneDrive/Documents/School/Advanced Quantitative Analysis/Lab 2.1/ap-subject-0.csv","legacy","Lentiform Loewenfeld","3.3.12","0","s","NA","h","NA","NA","s","582","NA","14572","NA","NA","582","2","legacy","1024","2","48000","-16","experiment","SSSSS","0","even","18149","NA","NA","154138","117939","3570","118448","NA","155285","3575","NA","NA","155388","155972","155280","155388","Flanker Task","68","45481","71","yes","1024"
"95.83333333333333","95.83333333333333","640.2222222222222","640.2222222222222","black","legacy","legacy","legacy","0","incongruent","uniform","1","undefined","1","h","0","0","0","71","71","0","71","0","71","0","0","0","71","71","71","71","Sun Sep 18 22:58:16 2022","1500","The main experiment item","yes","FlankerTask.osexp","C:/Users/lil_p/OneDrive/Documents/School/Advanced Quantitative Analysis/Lab 2.1","no","mono","no","18","no","white","no","no","768","legacy","71","71","C:/Users/lil_p/OneDrive/Documents/School/Advanced Quantitative Analysis/Lab 2.1/ap-subject-0.csv","legacy","Lentiform Loewenfeld","3.3.12","0","h","NA","h","NA","NA","h","615","NA","14572","NA","NA","615","2","legacy","1024","2","48000","-16","experiment","SSHSS","0","even","18149","NA","NA","155981","117939","3570","118448","NA","157145","3575","NA","NA","157248","157864","157141","157248","Flanker Task","69","46096","72","yes","1024"
"95.89041095890411","95.89041095890411","638.6712328767123","638.6712328767123","black","legacy","legacy","legacy","0","congruent","uniform","1","undefined","1","h","0","0","0","72","72","0","72","0","72","0","0","0","72","72","72","72","Sun Sep 18 22:58:16 2022","1500","The main experiment item","yes","FlankerTask.osexp","C:/Users/lil_p/OneDrive/Documents/School/Advanced Quantitative Analysis/Lab 2.1","no","mono","no","18","no","white","no","no","768","legacy","72","72","C:/Users/lil_p/OneDrive/Documents/School/Advanced Quantitative Analysis/Lab 2.1/ap-subject-0.csv","legacy","Lentiform Loewenfeld","3.3.12","0","h","NA","h","NA","NA","h","527","NA","14572","NA","NA","527","2","legacy","1024","2","48000","-16","experiment","HHHHH","0","even","18149","NA","NA","157873","117939","3570","118448","NA","159032","3575","NA","NA","159135","159664","159028","159135","Flanker Task","70","46623","73","yes","1024"
"95.94594594594595","95.94594594594595","637.418918918919","637.418918918919","black","legacy","legacy","legacy","0","incongruent","uniform","1","undefined","1","h","0","0","0","73","73","0","73","0","73","0","0","0","73","73","73","73","Sun Sep 18 22:58:16 2022","1500","The main experiment item","yes","FlankerTask.osexp","C:/Users/lil_p/OneDrive/Documents/School/Advanced Quantitative Analysis/Lab 2.1","no","mono","no","18","no","white","no","no","768","legacy","73","73","C:/Users/lil_p/OneDrive/Documents/School/Advanced Quantitative Analysis/Lab 2.1/ap-subject-0.csv","legacy","Lentiform Loewenfeld","3.3.12","0","h","NA","h","NA","NA","h","546","NA","14572","NA","NA","546","2","legacy","1024","2","48000","-16","experiment","SSHSS","0","even","18149","NA","NA","159673","117939","3570","118448","NA","160878","3575","NA","NA","160982","161531","160874","160981","Flanker Task","71","47169","74","yes","1024"
"96","96","634.8933333333333","634.8933333333333","black","legacy","legacy","legacy","0","incongruent","uniform","1","undefined","1","h","0","0","0","74","74","0","74","0","74","0","0","0","74","74","74","74","Sun Sep 18 22:58:16 2022","1500","The main experiment item","yes","FlankerTask.osexp","C:/Users/lil_p/OneDrive/Documents/School/Advanced Quantitative Analysis/Lab 2.1","no","mono","no","18","no","white","no","no","768","legacy","74","74","C:/Users/lil_p/OneDrive/Documents/School/Advanced Quantitative Analysis/Lab 2.1/ap-subject-0.csv","legacy","Lentiform Loewenfeld","3.3.12","0","h","NA","h","NA","NA","h","448","NA","14572","NA","NA","448","2","legacy","1024","2","48000","-16","experiment","SSHSS","0","even","18149","NA","NA","161540","117939","3570","118448","NA","162692","3575","NA","NA","162795","163245","162688","162795","Flanker Task","72","47617","75","yes","1024"
"94.73684210526316","94.73684210526316","632.421052631579","632.421052631579","black","legacy","legacy","legacy","0","congruent","uniform","0","undefined","0","s","0","0","0","75","75","0","75","0","75","0","0","0","75","75","75","75","Sun Sep 18 22:58:16 2022","1500","The main experiment item","yes","FlankerTask.osexp","C:/Users/lil_p/OneDrive/Documents/School/Advanced Quantitative Analysis/Lab 2.1","no","mono","no","18","no","white","no","no","768","legacy","75","75","C:/Users/lil_p/OneDrive/Documents/School/Advanced Quantitative Analysis/Lab 2.1/ap-subject-0.csv","legacy","Lentiform Loewenfeld","3.3.12","0","h","NA","h","NA","NA","h","447","NA","14572","NA","NA","447","2","legacy","1024","2","48000","-16","experiment","SSSSS","0","even","18149","NA","NA","163254","164964","3570","118448","NA","164410","3575","NA","NA","164513","165464","164405","164513","Flanker Task","72","48064","76","yes","1024"
"94.8051948051948","94.8051948051948","633.8701298701299","633.8701298701299","black","legacy","legacy","legacy","0","inconguent","uniform","1","undefined","1","s","0","0","0","76","76","0","76","0","76","0","0","0","76","76","76","76","Sun Sep 18 22:58:16 2022","1500","The main experiment item","yes","FlankerTask.osexp","C:/Users/lil_p/OneDrive/Documents/School/Advanced Quantitative Analysis/Lab 2.1","no","mono","no","18","no","white","no","no","768","legacy","76","76","C:/Users/lil_p/OneDrive/Documents/School/Advanced Quantitative Analysis/Lab 2.1/ap-subject-0.csv","legacy","Lentiform Loewenfeld","3.3.12","0","s","NA","h","NA","NA","s","744","NA","14572","NA","NA","744","2","legacy","1024","2","48000","-16","experiment","HHSHH","0","even","18149","NA","NA","165473","164964","3570","118448","NA","166642","3575","NA","NA","166745","167493","166637","166745","Flanker Task","73","48808","77","yes","1024"
"94.87179487179488","94.87179487179488","634.3717948717949","634.3717948717949","black","legacy","legacy","legacy","0","incongruent","uniform","1","undefined","1","h","0","0","0","77","77","0","77","0","77","0","0","0","77","77","77","77","Sun Sep 18 22:58:16 2022","1500","The main experiment item","yes","FlankerTask.osexp","C:/Users/lil_p/OneDrive/Documents/School/Advanced Quantitative Analysis/Lab 2.1","no","mono","no","18","no","white","no","no","768","legacy","77","77","C:/Users/lil_p/OneDrive/Documents/School/Advanced Quantitative Analysis/Lab 2.1/ap-subject-0.csv","legacy","Lentiform Loewenfeld","3.3.12","0","h","NA","h","NA","NA","h","673","NA","14572","NA","NA","673","2","legacy","1024","2","48000","-16","experiment","SSHSS","0","even","18149","NA","NA","167502","164964","3570","118448","NA","168682","3575","NA","NA","168786","169461","168679","168786","Flanker Task","74","49481","78","yes","1024"
"94.9367088607595","94.9367088607595","633.2784810126582","633.2784810126582","black","legacy","legacy","legacy","0","congruent","uniform","1","undefined","1","s","0","0","0","78","78","0","78","0","78","0","0","0","78","78","78","78","Sun Sep 18 22:58:16 2022","1500","The main experiment item","yes","FlankerTask.osexp","C:/Users/lil_p/OneDrive/Documents/School/Advanced Quantitative Analysis/Lab 2.1","no","mono","no","18","no","white","no","no","768","legacy","78","78","C:/Users/lil_p/OneDrive/Documents/School/Advanced Quantitative Analysis/Lab 2.1/ap-subject-0.csv","legacy","Lentiform Loewenfeld","3.3.12","0","s","NA","h","NA","NA","s","548","NA","14572","NA","NA","548","2","legacy","1024","2","48000","-16","experiment","SSSSS","0","even","18149","NA","NA","169469","164964","3570","118448","NA","170619","3575","NA","NA","170723","171273","170615","170722","Flanker Task","75","50029","79","yes","1024"
"95","95","631.95","631.95","black","legacy","legacy","legacy","0","incongruent","uniform","1","undefined","1","h","0","0","0","79","79","0","79","0","79","0","0","0","79","79","79","79","Sun Sep 18 22:58:16 2022","1500","The main experiment item","yes","FlankerTask.osexp","C:/Users/lil_p/OneDrive/Documents/School/Advanced Quantitative Analysis/Lab 2.1","no","mono","no","18","no","white","no","no","768","legacy","79","79","C:/Users/lil_p/OneDrive/Documents/School/Advanced Quantitative Analysis/Lab 2.1/ap-subject-0.csv","legacy","Lentiform Loewenfeld","3.3.12","0","h","NA","h","NA","NA","h","527","NA","14572","NA","NA","527","2","legacy","1024","2","48000","-16","experiment","SSHSS","0","even","18149","NA","NA","171282","164964","3570","118448","NA","172451","3575","NA","NA","172554","173084","172447","172554","Flanker Task","76","50556","80","yes","1024"
"95.06172839506173","95.06172839506173","633.2962962962963","633.2962962962963","black","legacy","legacy","legacy","0","congruent","uniform","1","undefined","1","h","0","0","0","80","80","0","80","0","80","0","0","0","80","80","80","80","Sun Sep 18 22:58:16 2022","600","The main experiment item","yes","FlankerTask.osexp","C:/Users/lil_p/OneDrive/Documents/School/Advanced Quantitative Analysis/Lab 2.1","no","mono","no","18","no","white","no","no","768","legacy","0","79","C:/Users/lil_p/OneDrive/Documents/School/Advanced Quantitative Analysis/Lab 2.1/ap-subject-0.csv","legacy","Lentiform Loewenfeld","3.3.12","0","h","NA","h","s","NA","h","741","NA","14572","161892","NA","741","2","legacy","1024","2","48000","-16","experiment","HHHHH","0","even","18149","336042","NA","173093","164964","3570","118448","NA","336167","3575","174148","NA","336270","337013","336164","336269","Flanker Task","77","51297","81","yes","1024"
"95.1219512195122","95.1219512195122","632.829268292683","632.829268292683","black","legacy","legacy","legacy","0","inconguent","uniform","1","undefined","1","s","0","0","0","81","81","0","81","0","81","0","0","0","81","81","81","81","Sun Sep 18 22:58:16 2022","600","The main experiment item","yes","FlankerTask.osexp","C:/Users/lil_p/OneDrive/Documents/School/Advanced Quantitative Analysis/Lab 2.1","no","mono","no","18","no","white","no","no","768","legacy","1","79","C:/Users/lil_p/OneDrive/Documents/School/Advanced Quantitative Analysis/Lab 2.1/ap-subject-0.csv","legacy","Lentiform Loewenfeld","3.3.12","0","s","NA","h","s","NA","s","595","NA","14572","161892","NA","595","2","legacy","1024","2","48000","-16","experiment","HHSHH","0","even","18149","336042","NA","337022","164964","3570","118448","NA","338194","3575","174148","NA","338296","338893","338189","338296","Flanker Task","78","51892","82","yes","1024"
"95.18072289156626","95.18072289156626","631.1927710843373","631.1927710843373","black","legacy","legacy","legacy","0","congruent","uniform","1","undefined","1","s","0","0","0","82","82","0","82","0","82","0","0","0","82","82","82","82","Sun Sep 18 22:58:16 2022","600","The main experiment item","yes","FlankerTask.osexp","C:/Users/lil_p/OneDrive/Documents/School/Advanced Quantitative Analysis/Lab 2.1","no","mono","no","18","no","white","no","no","768","legacy","2","79","C:/Users/lil_p/OneDrive/Documents/School/Advanced Quantitative Analysis/Lab 2.1/ap-subject-0.csv","legacy","Lentiform Loewenfeld","3.3.12","0","s","NA","h","s","NA","s","497","NA","14572","161892","NA","497","2","legacy","1024","2","48000","-16","experiment","SSSSS","0","even","18149","336042","NA","338900","164964","3570","118448","NA","340083","3575","174148","NA","340186","340685","340079","340186","Flanker Task","79","52389","83","yes","1024"
"95.23809523809524","95.23809523809524","631.1785714285714","631.1785714285714","black","legacy","legacy","legacy","0","incongruent","uniform","1","undefined","1","h","0","0","0","83","83","0","83","0","83","0","0","0","83","83","83","83","Sun Sep 18 22:58:16 2022","600","The main experiment item","yes","FlankerTask.osexp","C:/Users/lil_p/OneDrive/Documents/School/Advanced Quantitative Analysis/Lab 2.1","no","mono","no","18","no","white","no","no","768","legacy","3","79","C:/Users/lil_p/OneDrive/Documents/School/Advanced Quantitative Analysis/Lab 2.1/ap-subject-0.csv","legacy","Lentiform Loewenfeld","3.3.12","0","h","NA","h","s","NA","h","630","NA","14572","161892","NA","630","2","legacy","1024","2","48000","-16","experiment","SSHSS","0","even","18149","336042","NA","340699","164964","3570","118448","NA","341906","3575","174148","NA","342009","342641","341902","342009","Flanker Task","80","53019","84","yes","1024"
"95.29411764705883","95.29411764705883","630.3411764705883","630.3411764705883","black","legacy","legacy","legacy","0","inconguent","uniform","1","undefined","1","s","0","0","0","84","84","0","84","0","84","0","0","0","84","84","84","84","Sun Sep 18 22:58:16 2022","600","The main experiment item","yes","FlankerTask.osexp","C:/Users/lil_p/OneDrive/Documents/School/Advanced Quantitative Analysis/Lab 2.1","no","mono","no","18","no","white","no","no","768","legacy","4","79","C:/Users/lil_p/OneDrive/Documents/School/Advanced Quantitative Analysis/Lab 2.1/ap-subject-0.csv","legacy","Lentiform Loewenfeld","3.3.12","0","s","NA","h","s","NA","s","560","NA","14572","161892","NA","560","2","legacy","1024","2","48000","-16","experiment","HHSHH","0","even","18149","336042","NA","342647","164964","3570","118448","NA","343817","3575","174148","NA","343919","344481","343813","343919","Flanker Task","81","53579","85","yes","1024"
"95.34883720930233","95.34883720930233","634.6046511627907","634.6046511627907","black","legacy","legacy","legacy","0","inconguent","uniform","1","undefined","1","s","0","0","0","85","85","0","85","0","85","0","0","0","85","85","85","85","Sun Sep 18 22:58:16 2022","600","The main experiment item","yes","FlankerTask.osexp","C:/Users/lil_p/OneDrive/Documents/School/Advanced Quantitative Analysis/Lab 2.1","no","mono","no","18","no","white","no","no","768","legacy","5","79","C:/Users/lil_p/OneDrive/Documents/School/Advanced Quantitative Analysis/Lab 2.1/ap-subject-0.csv","legacy","Lentiform Loewenfeld","3.3.12","0","s","NA","h","s","NA","s","997","NA","14572","161892","NA","997","2","legacy","1024","2","48000","-16","experiment","HHSHH","0","even","18149","336042","NA","344491","164964","3570","118448","NA","345645","3575","174148","NA","345748","346747","345641","345748","Flanker Task","82","54576","86","yes","1024"
"95.40229885057471","95.40229885057471","634.6896551724138","634.6896551724138","black","legacy","legacy","legacy","0","incongruent","uniform","1","undefined","1","h","0","0","0","86","86","0","86","0","86","0","0","0","86","86","86","86","Sun Sep 18 22:58:16 2022","600","The main experiment item","yes","FlankerTask.osexp","C:/Users/lil_p/OneDrive/Documents/School/Advanced Quantitative Analysis/Lab 2.1","no","mono","no","18","no","white","no","no","768","legacy","6","79","C:/Users/lil_p/OneDrive/Documents/School/Advanced Quantitative Analysis/Lab 2.1/ap-subject-0.csv","legacy","Lentiform Loewenfeld","3.3.12","0","h","NA","h","s","NA","h","642","NA","14572","161892","NA","642","2","legacy","1024","2","48000","-16","experiment","SSHSS","0","even","18149","336042","NA","346755","164964","3570","118448","NA","347910","3575","174148","NA","348013","348656","347906","348013","Flanker Task","83","55218","87","yes","1024"
"95.45454545454545","95.45454545454545","633.8409090909091","633.8409090909091","black","legacy","legacy","legacy","0","congruent","uniform","1","undefined","1","h","0","0","0","87","87","0","87","0","87","0","0","0","87","87","87","87","Sun Sep 18 22:58:16 2022","600","The main experiment item","yes","FlankerTask.osexp","C:/Users/lil_p/OneDrive/Documents/School/Advanced Quantitative Analysis/Lab 2.1","no","mono","no","18","no","white","no","no","768","legacy","7","79","C:/Users/lil_p/OneDrive/Documents/School/Advanced Quantitative Analysis/Lab 2.1/ap-subject-0.csv","legacy","Lentiform Loewenfeld","3.3.12","0","h","NA","h","s","NA","h","560","NA","14572","161892","NA","560","2","legacy","1024","2","48000","-16","experiment","HHHHH","0","even","18149","336042","NA","348664","164964","3570","118448","NA","349825","3575","174148","NA","349928","350490","349821","349928","Flanker Task","84","55778","88","yes","1024"
"95.50561797752809","95.50561797752809","633.056179775281","633.056179775281","black","legacy","legacy","legacy","0","congruent","uniform","1","undefined","1","h","0","0","0","88","88","0","88","0","88","0","0","0","88","88","88","88","Sun Sep 18 22:58:16 2022","600","The main experiment item","yes","FlankerTask.osexp","C:/Users/lil_p/OneDrive/Documents/School/Advanced Quantitative Analysis/Lab 2.1","no","mono","no","18","no","white","no","no","768","legacy","8","79","C:/Users/lil_p/OneDrive/Documents/School/Advanced Quantitative Analysis/Lab 2.1/ap-subject-0.csv","legacy","Lentiform Loewenfeld","3.3.12","0","h","NA","h","s","NA","h","564","NA","14572","161892","NA","564","2","legacy","1024","2","48000","-16","experiment","HHHHH","0","even","18149","336042","NA","350498","164964","3570","118448","NA","351653","3575","174148","NA","351756","352322","351650","351756","Flanker Task","85","56342","89","yes","1024"
"95.55555555555556","95.55555555555556","631.2777777777778","631.2777777777778","black","legacy","legacy","legacy","0","congruent","uniform","1","undefined","1","s","0","0","0","89","89","0","89","0","89","0","0","0","89","89","89","89","Sun Sep 18 22:58:16 2022","600","The main experiment item","yes","FlankerTask.osexp","C:/Users/lil_p/OneDrive/Documents/School/Advanced Quantitative Analysis/Lab 2.1","no","mono","no","18","no","white","no","no","768","legacy","9","79","C:/Users/lil_p/OneDrive/Documents/School/Advanced Quantitative Analysis/Lab 2.1/ap-subject-0.csv","legacy","Lentiform Loewenfeld","3.3.12","0","s","NA","h","s","NA","s","473","NA","14572","161892","NA","473","2","legacy","1024","2","48000","-16","experiment","SSSSS","0","even","18149","336042","NA","352330","164964","3570","118448","NA","353490","3575","174148","NA","353593","354068","353486","353593","Flanker Task","86","56815","90","yes","1024"
"94.50549450549451","94.50549450549451","630.3296703296703","630.3296703296703","black","legacy","legacy","legacy","0","incongruent","uniform","0","undefined","0","h","0","0","0","90","90","0","90","0","90","0","0","0","90","90","90","90","Sun Sep 18 22:58:16 2022","600","The main experiment item","yes","FlankerTask.osexp","C:/Users/lil_p/OneDrive/Documents/School/Advanced Quantitative Analysis/Lab 2.1","no","mono","no","18","no","white","no","no","768","legacy","10","79","C:/Users/lil_p/OneDrive/Documents/School/Advanced Quantitative Analysis/Lab 2.1/ap-subject-0.csv","legacy","Lentiform Loewenfeld","3.3.12","0","s","NA","h","s","NA","s","545","NA","14572","161892","NA","545","2","legacy","1024","2","48000","-16","experiment","SSHSS","0","even","18149","336042","NA","354076","355930","3570","118448","NA","355277","3575","174148","NA","355380","356430","355270","355380","Flanker Task","86","57360","91","yes","1024"
"94.56521739130434","94.56521739130434","628.8369565217391","628.8369565217391","black","legacy","legacy","legacy","0","incongruent","uniform","1","undefined","1","h","0","0","0","91","91","0","91","0","91","0","0","0","91","91","91","91","Sun Sep 18 22:58:16 2022","600","The main experiment item","yes","FlankerTask.osexp","C:/Users/lil_p/OneDrive/Documents/School/Advanced Quantitative Analysis/Lab 2.1","no","mono","no","18","no","white","no","no","768","legacy","11","79","C:/Users/lil_p/OneDrive/Documents/School/Advanced Quantitative Analysis/Lab 2.1/ap-subject-0.csv","legacy","Lentiform Loewenfeld","3.3.12","0","h","NA","h","s","NA","h","493","NA","14572","161892","NA","493","2","legacy","1024","2","48000","-16","experiment","SSHSS","0","even","18149","336042","NA","356439","355930","3570","118448","NA","357601","3575","174148","NA","357704","358199","357596","357704","Flanker Task","87","57853","92","yes","1024"
"94.6236559139785","94.6236559139785","628.516129032258","628.516129032258","black","legacy","legacy","legacy","0","incongruent","uniform","1","undefined","1","h","0","0","0","92","92","0","92","0","92","0","0","0","92","92","92","92","Sun Sep 18 22:58:16 2022","600","The main experiment item","yes","FlankerTask.osexp","C:/Users/lil_p/OneDrive/Documents/School/Advanced Quantitative Analysis/Lab 2.1","no","mono","no","18","no","white","no","no","768","legacy","12","79","C:/Users/lil_p/OneDrive/Documents/School/Advanced Quantitative Analysis/Lab 2.1/ap-subject-0.csv","legacy","Lentiform Loewenfeld","3.3.12","0","h","NA","h","s","NA","h","599","NA","14572","161892","NA","599","2","legacy","1024","2","48000","-16","experiment","SSHSS","0","even","18149","336042","NA","358208","355930","3570","118448","NA","359355","3575","174148","NA","359458","360059","359352","359458","Flanker Task","88","58452","93","yes","1024"
"94.68085106382979","94.68085106382979","627.7021276595744","627.7021276595744","black","legacy","legacy","legacy","0","congruent","uniform","1","undefined","1","s","0","0","0","93","93","0","93","0","93","0","0","0","93","93","93","93","Sun Sep 18 22:58:16 2022","600","The main experiment item","yes","FlankerTask.osexp","C:/Users/lil_p/OneDrive/Documents/School/Advanced Quantitative Analysis/Lab 2.1","no","mono","no","18","no","white","no","no","768","legacy","13","79","C:/Users/lil_p/OneDrive/Documents/School/Advanced Quantitative Analysis/Lab 2.1/ap-subject-0.csv","legacy","Lentiform Loewenfeld","3.3.12","0","s","NA","h","s","NA","s","552","NA","14572","161892","NA","552","2","legacy","1024","2","48000","-16","experiment","SSSSS","0","even","18149","336042","NA","360067","355930","3570","118448","NA","361224","3575","174148","NA","361328","361882","361221","361328","Flanker Task","89","59004","94","yes","1024"
"94.73684210526316","94.73684210526316","626.5578947368421","626.5578947368421","black","legacy","legacy","legacy","0","congruent","uniform","1","undefined","1","h","0","0","0","94","94","0","94","0","94","0","0","0","94","94","94","94","Sun Sep 18 22:58:16 2022","600","The main experiment item","yes","FlankerTask.osexp","C:/Users/lil_p/OneDrive/Documents/School/Advanced Quantitative Analysis/Lab 2.1","no","mono","no","18","no","white","no","no","768","legacy","14","79","C:/Users/lil_p/OneDrive/Documents/School/Advanced Quantitative Analysis/Lab 2.1/ap-subject-0.csv","legacy","Lentiform Loewenfeld","3.3.12","0","h","NA","h","s","NA","h","519","NA","14572","161892","NA","519","2","legacy","1024","2","48000","-16","experiment","HHHHH","0","even","18149","336042","NA","361889","355930","3570","118448","NA","363042","3575","174148","NA","363145","363666","363038","363145","Flanker Task","90","59523","95","yes","1024"
"94.79166666666667","94.79166666666667","626.4270833333334","626.4270833333334","black","legacy","legacy","legacy","0","incongruent","uniform","1","undefined","1","h","0","0","0","95","95","0","95","0","95","0","0","0","95","95","95","95","Sun Sep 18 22:58:16 2022","600","The main experiment item","yes","FlankerTask.osexp","C:/Users/lil_p/OneDrive/Documents/School/Advanced Quantitative Analysis/Lab 2.1","no","mono","no","18","no","white","no","no","768","legacy","15","79","C:/Users/lil_p/OneDrive/Documents/School/Advanced Quantitative Analysis/Lab 2.1/ap-subject-0.csv","legacy","Lentiform Loewenfeld","3.3.12","0","h","NA","h","s","NA","h","614","NA","14572","161892","NA","614","2","legacy","1024","2","48000","-16","experiment","SSHSS","0","even","18149","336042","NA","363674","355930","3570","118448","NA","364836","3575","174148","NA","364939","365555","364831","364939","Flanker Task","91","60137","96","yes","1024"
"94.84536082474227","94.84536082474227","626.8969072164948","626.8969072164948","black","legacy","legacy","legacy","0","congruent","uniform","1","undefined","1","h","0","0","0","96","96","0","96","0","96","0","0","0","96","96","96","96","Sun Sep 18 22:58:16 2022","600","The main experiment item","yes","FlankerTask.osexp","C:/Users/lil_p/OneDrive/Documents/School/Advanced Quantitative Analysis/Lab 2.1","no","mono","no","18","no","white","no","no","768","legacy","16","79","C:/Users/lil_p/OneDrive/Documents/School/Advanced Quantitative Analysis/Lab 2.1/ap-subject-0.csv","legacy","Lentiform Loewenfeld","3.3.12","0","h","NA","h","s","NA","h","672","NA","14572","161892","NA","672","2","legacy","1024","2","48000","-16","experiment","HHHHH","0","even","18149","336042","NA","365562","355930","3570","118448","NA","366781","3575","174148","NA","366884","367559","366777","366884","Flanker Task","92","60809","97","yes","1024"
"94.89795918367346","94.89795918367346","626.4387755102041","626.4387755102041","black","legacy","legacy","legacy","0","inconguent","uniform","1","undefined","1","s","0","0","0","97","97","0","97","0","97","0","0","0","97","97","97","97","Sun Sep 18 22:58:16 2022","600","The main experiment item","yes","FlankerTask.osexp","C:/Users/lil_p/OneDrive/Documents/School/Advanced Quantitative Analysis/Lab 2.1","no","mono","no","18","no","white","no","no","768","legacy","17","79","C:/Users/lil_p/OneDrive/Documents/School/Advanced Quantitative Analysis/Lab 2.1/ap-subject-0.csv","legacy","Lentiform Loewenfeld","3.3.12","0","s","NA","h","s","NA","s","582","NA","14572","161892","NA","582","2","legacy","1024","2","48000","-16","experiment","HHSHH","0","even","18149","336042","NA","367566","355930","3570","118448","NA","368735","3575","174148","NA","368838","369423","368721","368838","Flanker Task","93","61391","98","yes","1024"
"94.94949494949495","94.94949494949495","626.939393939394","626.939393939394","black","legacy","legacy","legacy","0","inconguent","uniform","1","undefined","1","s","0","0","0","98","98","0","98","0","98","0","0","0","98","98","98","98","Sun Sep 18 22:58:16 2022","600","The main experiment item","yes","FlankerTask.osexp","C:/Users/lil_p/OneDrive/Documents/School/Advanced Quantitative Analysis/Lab 2.1","no","mono","no","18","no","white","no","no","768","legacy","18","79","C:/Users/lil_p/OneDrive/Documents/School/Advanced Quantitative Analysis/Lab 2.1/ap-subject-0.csv","legacy","Lentiform Loewenfeld","3.3.12","0","s","NA","h","s","NA","s","676","NA","14572","161892","NA","676","2","legacy","1024","2","48000","-16","experiment","HHSHH","0","even","18149","336042","NA","369430","355930","3570","118448","NA","370585","3575","174148","NA","370688","371366","370581","370688","Flanker Task","94","62067","99","yes","1024"
"95","95","626.68","626.68","black","legacy","legacy","legacy","0","incongruent","uniform","1","undefined","1","h","0","0","0","99","99","0","99","0","99","0","0","0","99","99","99","99","Sun Sep 18 22:58:16 2022","600","The main experiment item","yes","FlankerTask.osexp","C:/Users/lil_p/OneDrive/Documents/School/Advanced Quantitative Analysis/Lab 2.1","no","mono","no","18","no","white","no","no","768","legacy","19","79","C:/Users/lil_p/OneDrive/Documents/School/Advanced Quantitative Analysis/Lab 2.1/ap-subject-0.csv","legacy","Lentiform Loewenfeld","3.3.12","0","h","NA","h","s","NA","h","601","NA","14572","161892","NA","601","2","legacy","1024","2","48000","-16","experiment","SSHSS","0","even","18149","336042","NA","371374","355930","3570","118448","NA","372533","3575","174148","NA","372636","373239","372528","372636","Flanker Task","95","62668","100","yes","1024"
"95.04950495049505","95.04950495049505","626.1584158415842","626.1584158415842","black","legacy","legacy","legacy","0","congruent","uniform","1","undefined","1","h","0","0","0","100","100","0","100","0","100","0","0","0","100","100","100","100","Sun Sep 18 22:58:16 2022","600","The main experiment item","yes","FlankerTask.osexp","C:/Users/lil_p/OneDrive/Documents/School/Advanced Quantitative Analysis/Lab 2.1","no","mono","no","18","no","white","no","no","768","legacy","20","79","C:/Users/lil_p/OneDrive/Documents/School/Advanced Quantitative Analysis/Lab 2.1/ap-subject-0.csv","legacy","Lentiform Loewenfeld","3.3.12","0","h","NA","h","s","NA","h","574","NA","14572","161892","NA","574","2","legacy","1024","2","48000","-16","experiment","HHHHH","0","even","18149","336042","NA","373248","355930","3570","118448","NA","374407","3575","174148","NA","374510","375087","374403","374510","Flanker Task","96","63242","101","yes","1024"
"95.09803921568627","95.09803921568627","624.9705882352941","624.9705882352941","black","legacy","legacy","legacy","0","congruent","uniform","1","undefined","1","h","0","0","0","101","101","0","101","0","101","0","0","0","101","101","101","101","Sun Sep 18 22:58:16 2022","600","The main experiment item","yes","FlankerTask.osexp","C:/Users/lil_p/OneDrive/Documents/School/Advanced Quantitative Analysis/Lab 2.1","no","mono","no","18","no","white","no","no","768","legacy","21","79","C:/Users/lil_p/OneDrive/Documents/School/Advanced Quantitative Analysis/Lab 2.1/ap-subject-0.csv","legacy","Lentiform Loewenfeld","3.3.12","0","h","NA","h","s","NA","h","505","NA","14572","161892","NA","505","2","legacy","1024","2","48000","-16","experiment","HHHHH","0","even","18149","336042","NA","375096","355930","3570","118448","NA","376253","3575","174148","NA","376357","376864","376249","376357","Flanker Task","97","63747","102","yes","1024"
"95.14563106796116","95.14563106796116","623.9223300970874","623.9223300970874","black","legacy","legacy","legacy","0","incongruent","uniform","1","undefined","1","h","0","0","0","102","102","0","102","0","102","0","0","0","102","102","102","102","Sun Sep 18 22:58:16 2022","600","The main experiment item","yes","FlankerTask.osexp","C:/Users/lil_p/OneDrive/Documents/School/Advanced Quantitative Analysis/Lab 2.1","no","mono","no","18","no","white","no","no","768","legacy","22","79","C:/Users/lil_p/OneDrive/Documents/School/Advanced Quantitative Analysis/Lab 2.1/ap-subject-0.csv","legacy","Lentiform Loewenfeld","3.3.12","0","h","NA","h","s","NA","h","517","NA","14572","161892","NA","517","2","legacy","1024","2","48000","-16","experiment","SSHSS","0","even","18149","336042","NA","376873","355930","3570","118448","NA","378044","3575","174148","NA","378153","378673","378040","378153","Flanker Task","98","64264","103","yes","1024"
"95.1923076923077","95.1923076923077","622.4038461538462","622.4038461538462","black","legacy","legacy","legacy","0","incongruent","uniform","1","undefined","1","h","0","0","0","103","103","0","103","0","103","0","0","0","103","103","103","103","Sun Sep 18 22:58:16 2022","600","The main experiment item","yes","FlankerTask.osexp","C:/Users/lil_p/OneDrive/Documents/School/Advanced Quantitative Analysis/Lab 2.1","no","mono","no","18","no","white","no","no","768","legacy","23","79","C:/Users/lil_p/OneDrive/Documents/School/Advanced Quantitative Analysis/Lab 2.1/ap-subject-0.csv","legacy","Lentiform Loewenfeld","3.3.12","0","h","NA","h","s","NA","h","466","NA","14572","161892","NA","466","2","legacy","1024","2","48000","-16","experiment","SSHSS","0","even","18149","336042","NA","378680","355930","3570","118448","NA","379847","3575","174148","NA","379951","380419","379844","379950","Flanker Task","99","64730","104","yes","1024"
"95.23809523809524","95.23809523809524","622.1809523809524","622.1809523809524","black","legacy","legacy","legacy","0","congruent","uniform","1","undefined","1","h","0","0","0","104","104","0","104","0","104","0","0","0","104","104","104","104","Sun Sep 18 22:58:16 2022","600","The main experiment item","yes","FlankerTask.osexp","C:/Users/lil_p/OneDrive/Documents/School/Advanced Quantitative Analysis/Lab 2.1","no","mono","no","18","no","white","no","no","768","legacy","24","79","C:/Users/lil_p/OneDrive/Documents/School/Advanced Quantitative Analysis/Lab 2.1/ap-subject-0.csv","legacy","Lentiform Loewenfeld","3.3.12","0","h","NA","h","s","NA","h","599","NA","14572","161892","NA","599","2","legacy","1024","2","48000","-16","experiment","HHHHH","0","even","18149","336042","NA","380427","355930","3570","118448","NA","381577","3575","174148","NA","381680","382282","381572","381680","Flanker Task","100","65329","105","yes","1024"
"95.28301886792453","95.28301886792453","621.0188679245283","621.0188679245283","black","legacy","legacy","legacy","0","incongruent","uniform","1","undefined","1","h","0","0","0","105","105","0","105","0","105","0","0","0","105","105","105","105","Sun Sep 18 22:58:16 2022","600","The main experiment item","yes","FlankerTask.osexp","C:/Users/lil_p/OneDrive/Documents/School/Advanced Quantitative Analysis/Lab 2.1","no","mono","no","18","no","white","no","no","768","legacy","25","79","C:/Users/lil_p/OneDrive/Documents/School/Advanced Quantitative Analysis/Lab 2.1/ap-subject-0.csv","legacy","Lentiform Loewenfeld","3.3.12","0","h","NA","h","s","NA","h","499","NA","14572","161892","NA","499","2","legacy","1024","2","48000","-16","experiment","SSHSS","0","even","18149","336042","NA","382306","355930","3570","118448","NA","383524","3575","174148","NA","383627","384128","383519","383627","Flanker Task","101","65828","106","yes","1024"
"95.32710280373831","95.32710280373831","621.0654205607476","621.0654205607476","black","legacy","legacy","legacy","0","congruent","uniform","1","undefined","1","h","0","0","0","106","106","0","106","0","106","0","0","0","106","106","106","106","Sun Sep 18 22:58:16 2022","600","The main experiment item","yes","FlankerTask.osexp","C:/Users/lil_p/OneDrive/Documents/School/Advanced Quantitative Analysis/Lab 2.1","no","mono","no","18","no","white","no","no","768","legacy","26","79","C:/Users/lil_p/OneDrive/Documents/School/Advanced Quantitative Analysis/Lab 2.1/ap-subject-0.csv","legacy","Lentiform Loewenfeld","3.3.12","0","h","NA","h","s","NA","h","626","NA","14572","161892","NA","626","2","legacy","1024","2","48000","-16","experiment","HHHHH","0","even","18149","336042","NA","384136","355930","3570","118448","NA","385307","3575","174148","NA","385410","386038","385303","385410","Flanker Task","102","66454","107","yes","1024"
"95.37037037037037","95.37037037037037","620.0648148148148","620.0648148148148","black","legacy","legacy","legacy","0","inconguent","uniform","1","undefined","1","s","0","0","0","107","107","0","107","0","107","0","0","0","107","107","107","107","Sun Sep 18 22:58:16 2022","600","The main experiment item","yes","FlankerTask.osexp","C:/Users/lil_p/OneDrive/Documents/School/Advanced Quantitative Analysis/Lab 2.1","no","mono","no","18","no","white","no","no","768","legacy","27","79","C:/Users/lil_p/OneDrive/Documents/School/Advanced Quantitative Analysis/Lab 2.1/ap-subject-0.csv","legacy","Lentiform Loewenfeld","3.3.12","0","s","NA","h","s","NA","s","513","NA","14572","161892","NA","513","2","legacy","1024","2","48000","-16","experiment","HHSHH","0","even","18149","336042","NA","386044","355930","3570","118448","NA","387203","3575","174148","NA","387306","387822","387199","387306","Flanker Task","103","66967","108","yes","1024"
