acc,accuracy,average_response_time,avg_rt,background,canvas_backend,clock_backend,color_backend,compensation,condition,coordinates,correct,correct_Instructions1,correct_new_keyboard_response,correct_response,count_Block1,count_Block2,count_Block3,count_ErrorFeedback,count_Faster,count_Finish,count_Fixation,count_ISI,count_Instructions1,count_Instructions2,count_Instructions3,count_Stimulus,count_experiment,count_new_keyboard_response,count_new_logger,count_new_sequence,datetime,deadline,description,disable_garbage_collection,experiment_file,experiment_path,font_bold,font_family,font_italic,font_size,font_underline,foreground,form_clicks,fullscreen,height,keyboard_backend,live_row,live_row_Block1,logfile,mouse_backend,opensesame_codename,opensesame_version,repeat_cycle,response,response_Finish,response_Instructions1,response_Instructions2,response_Instructions3,response_new_keyboard_response,response_time,response_time_Finish,response_time_Instructions1,response_time_Instructions2,response_time_Instructions3,response_time_new_keyboard_response,round_decimals,sampler_backend,sound_buf_size,sound_channels,sound_freq,sound_sample_size,start,stimulus,subject_nr,subject_parity,time_Block1,time_Block2,time_Block3,time_ErrorFeedback,time_Faster,time_Finish,time_Fixation,time_ISI,time_Instructions1,time_Instructions2,time_Instructions3,time_Stimulus,time_experiment,time_new_keyboard_response,time_new_logger,time_new_sequence,title,total_correct,total_response_time,total_responses,uniform_coordinates,width
100,100,1485,1485,black,xpyriment,legacy,legacy,0,Congruent,uniform,1,undefined,1,h,0,0,0,0,0,0,0,0,0,0,0,0,0,0,0,0,9/17/19 13:03,1500,The main experiment item,yes,FlankerTask.osexp,C:/Users/hosan/Desktop,no,mono,no,18,no,white,no,yes,768,legacy,0,0,C:/Users/hosan/Desktop/Tb_subject-0.csv,xpyriment,Kafkaesque Koffka,3.2.8,0,h,NA,s,NA,NA,h,1485,NA,2884,NA,NA,1485,2,legacy,1024,2,48000,-16,experiment,HHHHH,0,even,5648,NA,NA,NA,NA,NA,6676,NA,2763,NA,NA,6783,2739,6783,8268,6652,Flanker Task ,1,1485,1,yes,1024
100,100,1088,1088,black,xpyriment,legacy,legacy,0,Incongruent,uniform,1,undefined,1,h,0,0,0,1,1,0,1,1,0,0,0,1,0,1,1,1,9/17/19 13:03,1500,The main experiment item,yes,FlankerTask.osexp,C:/Users/hosan/Desktop,no,mono,no,18,no,white,no,yes,768,legacy,1,1,C:/Users/hosan/Desktop/Tb_subject-0.csv,xpyriment,Kafkaesque Koffka,3.2.8,0,h,NA,s,NA,NA,h,691,NA,2884,NA,NA,691,2,legacy,1024,2,48000,-16,experiment,SSHSS,0,even,5648,NA,NA,NA,NA,NA,10206,8384,2763,NA,NA,10311,2739,10311,11003,10183,Flanker Task ,2,2176,2,yes,1024
100,100,943,943,black,xpyriment,legacy,legacy,0,Congruent,uniform,1,undefined,1,h,0,0,0,2,2,0,2,2,0,0,0,2,0,2,2,2,9/17/19 13:03,1500,The main experiment item,yes,FlankerTask.osexp,C:/Users/hosan/Desktop,no,mono,no,18,no,white,no,yes,768,legacy,2,2,C:/Users/hosan/Desktop/Tb_subject-0.csv,xpyriment,Kafkaesque Koffka,3.2.8,0,h,NA,s,NA,NA,h,653,NA,2884,NA,NA,653,2,legacy,1024,2,48000,-16,experiment,HHHHH,0,even,5648,NA,NA,NA,NA,NA,12881,11063,2763,NA,NA,12988,2739,12988,13641,12858,Flanker Task ,3,2829,3,yes,1024
100,100,871.25,871.25,black,xpyriment,legacy,legacy,0,Incongruent,uniform,1,undefined,1,h,0,0,0,3,3,0,3,3,0,0,0,3,0,3,3,3,9/17/19 13:03,1500,The main experiment item,yes,FlankerTask.osexp,C:/Users/hosan/Desktop,no,mono,no,18,no,white,no,yes,768,legacy,3,3,C:/Users/hosan/Desktop/Tb_subject-0.csv,xpyriment,Kafkaesque Koffka,3.2.8,0,h,NA,s,NA,NA,h,656,NA,2884,NA,NA,656,2,legacy,1024,2,48000,-16,experiment,SSHSS,0,even,5648,NA,NA,NA,NA,NA,15535,13710,2763,NA,NA,15640,2739,15640,16297,15511,Flanker Task ,4,3485,4,yes,1024
100,100,803.6,803.6,black,xpyriment,legacy,legacy,0,Congruent,uniform,1,undefined,1,s,0,0,0,4,4,0,4,4,0,0,0,4,0,4,4,4,9/17/19 13:03,1500,The main experiment item,yes,FlankerTask.osexp,C:/Users/hosan/Desktop,no,mono,no,18,no,white,no,yes,768,legacy,4,4,C:/Users/hosan/Desktop/Tb_subject-0.csv,xpyriment,Kafkaesque Koffka,3.2.8,0,s,NA,s,NA,NA,s,533,NA,2884,NA,NA,533,2,legacy,1024,2,48000,-16,experiment,SSSSS,0,even,5648,NA,NA,NA,NA,NA,18176,16367,2763,NA,NA,18282,2739,18282,18816,18153,Flanker Task ,5,4018,5,yes,1024
100,100,772,772,black,xpyriment,legacy,legacy,0,Congruent,uniform,1,undefined,1,s,0,0,0,5,5,0,5,5,0,0,0,5,0,5,5,5,9/17/19 13:03,1500,The main experiment item,yes,FlankerTask.osexp,C:/Users/hosan/Desktop,no,mono,no,18,no,white,no,yes,768,legacy,5,5,C:/Users/hosan/Desktop/Tb_subject-0.csv,xpyriment,Kafkaesque Koffka,3.2.8,0,s,NA,s,NA,NA,s,614,NA,2884,NA,NA,614,2,legacy,1024,2,48000,-16,experiment,SSSSS,0,even,5648,NA,NA,NA,NA,NA,20675,18845,2763,NA,NA,20780,2739,20780,21395,20652,Flanker Task ,6,4632,6,yes,1024
85.71428571,85.71428571,739.7142857,739.7142857,black,xpyriment,legacy,legacy,0,Incongruent,uniform,0,undefined,0,s,0,0,0,6,6,0,6,6,0,0,0,6,0,6,6,6,9/17/19 13:03,1500,The main experiment item,yes,FlankerTask.osexp,C:/Users/hosan/Desktop,no,mono,no,18,no,white,no,yes,768,legacy,6,6,C:/Users/hosan/Desktop/Tb_subject-0.csv,xpyriment,Kafkaesque Koffka,3.2.8,0,h,NA,s,NA,NA,h,546,NA,2884,NA,NA,546,2,legacy,1024,2,48000,-16,experiment,HHSHH,0,even,5648,NA,NA,NA,NA,NA,23255,21425,2763,NA,NA,23361,2739,23362,23908,23231,Flanker Task ,6,5178,7,yes,1024
87.5,87.5,710.875,710.875,black,xpyriment,legacy,legacy,0,Congruent,uniform,1,undefined,1,h,0,0,0,7,7,0,7,7,0,0,0,7,0,7,7,7,9/17/19 13:03,1500,The main experiment item,yes,FlankerTask.osexp,C:/Users/hosan/Desktop,no,mono,no,18,no,white,no,yes,768,legacy,7,7,C:/Users/hosan/Desktop/Tb_subject-0.csv,xpyriment,Kafkaesque Koffka,3.2.8,0,h,NA,s,NA,NA,h,509,NA,2884,NA,NA,509,2,legacy,1024,2,48000,-16,experiment,HHHHH,0,even,5648,NA,NA,23982,NA,NA,26309,24488,2763,NA,NA,26414,2739,26414,26923,26286,Flanker Task ,7,5687,8,yes,1024
88.88888889,88.88888889,692.6666667,692.6666667,black,xpyriment,legacy,legacy,0,Incongruent,uniform,1,undefined,1,h,0,0,0,8,8,0,8,8,0,0,0,8,0,8,8,8,9/17/19 13:03,1500,The main experiment item,yes,FlankerTask.osexp,C:/Users/hosan/Desktop,no,mono,no,18,no,white,no,yes,768,legacy,8,8,C:/Users/hosan/Desktop/Tb_subject-0.csv,xpyriment,Kafkaesque Koffka,3.2.8,0,h,NA,s,NA,NA,h,547,NA,2884,NA,NA,547,2,legacy,1024,2,48000,-16,experiment,SSHSS,0,even,5648,NA,NA,23982,NA,NA,28819,26993,2763,NA,NA,28925,2739,28925,29472,28795,Flanker Task ,8,6234,9,yes,1024
90,90,684.1,684.1,black,xpyriment,legacy,legacy,0,Congruent,uniform,1,undefined,1,h,0,0,0,9,9,0,9,9,0,0,0,9,0,9,9,9,9/17/19 13:03,1500,The main experiment item,yes,FlankerTask.osexp,C:/Users/hosan/Desktop,no,mono,no,18,no,white,no,yes,768,legacy,9,9,C:/Users/hosan/Desktop/Tb_subject-0.csv,xpyriment,Kafkaesque Koffka,3.2.8,0,h,NA,s,NA,NA,h,607,NA,2884,NA,NA,607,2,legacy,1024,2,48000,-16,experiment,HHHHH,0,even,5648,NA,NA,23982,NA,NA,31365,29553,2763,NA,NA,31471,2739,31472,32079,31342,Flanker Task ,9,6841,10,yes,1024
90.90909091,90.90909091,667,667,black,xpyriment,legacy,legacy,0,Congruent,uniform,1,undefined,1,h,0,0,0,10,10,0,10,10,0,0,0,10,0,10,10,10,9/17/19 13:03,1500,The main experiment item,yes,FlankerTask.osexp,C:/Users/hosan/Desktop,no,mono,no,18,no,white,no,yes,768,legacy,10,10,C:/Users/hosan/Desktop/Tb_subject-0.csv,xpyriment,Kafkaesque Koffka,3.2.8,0,h,NA,s,NA,NA,h,496,NA,2884,NA,NA,496,2,legacy,1024,2,48000,-16,experiment,HHHHH,0,even,5648,NA,NA,23982,NA,NA,33967,32155,2763,NA,NA,34073,2739,34074,34570,33944,Flanker Task ,10,7337,11,yes,1024
91.66666667,91.66666667,659.3333333,659.3333333,black,xpyriment,legacy,legacy,0,Incongruent,uniform,1,undefined,1,s,0,0,0,11,11,0,11,11,0,0,0,11,0,11,11,11,9/17/19 13:03,1500,The main experiment item,yes,FlankerTask.osexp,C:/Users/hosan/Desktop,no,mono,no,18,no,white,no,yes,768,legacy,11,11,C:/Users/hosan/Desktop/Tb_subject-0.csv,xpyriment,Kafkaesque Koffka,3.2.8,0,s,NA,s,NA,NA,s,575,NA,2884,NA,NA,575,2,legacy,1024,2,48000,-16,experiment,HHSHH,0,even,5648,NA,NA,23982,NA,NA,36479,34636,2763,NA,NA,36586,2739,36586,37161,36456,Flanker Task ,11,7912,12,yes,1024
92.30769231,92.30769231,645.8461538,645.8461538,black,xpyriment,legacy,legacy,0,Congruent,uniform,1,undefined,1,s,0,0,0,12,12,0,12,12,0,0,0,12,0,12,12,12,9/17/19 13:03,1500,The main experiment item,yes,FlankerTask.osexp,C:/Users/hosan/Desktop,no,mono,no,18,no,white,no,yes,768,legacy,12,12,C:/Users/hosan/Desktop/Tb_subject-0.csv,xpyriment,Kafkaesque Koffka,3.2.8,0,s,NA,s,NA,NA,s,484,NA,2884,NA,NA,484,2,legacy,1024,2,48000,-16,experiment,SSSSS,0,even,5648,NA,NA,23982,NA,NA,39058,37233,2763,NA,NA,39164,2739,39164,39649,39035,Flanker Task ,12,8396,13,yes,1024
92.85714286,92.85714286,640,640,black,xpyriment,legacy,legacy,0,Incongruent,uniform,1,undefined,1,h,0,0,0,13,13,0,13,13,0,0,0,13,0,13,13,13,9/17/19 13:03,1500,The main experiment item,yes,FlankerTask.osexp,C:/Users/hosan/Desktop,no,mono,no,18,no,white,no,yes,768,legacy,13,13,C:/Users/hosan/Desktop/Tb_subject-0.csv,xpyriment,Kafkaesque Koffka,3.2.8,0,h,NA,s,NA,NA,h,564,NA,2884,NA,NA,564,2,legacy,1024,2,48000,-16,experiment,SSHSS,0,even,5648,NA,NA,23982,NA,NA,41515,39714,2763,NA,NA,41621,2739,41622,42187,41492,Flanker Task ,13,8960,14,yes,1024
93.33333333,93.33333333,634,634,black,xpyriment,legacy,legacy,0,Incongruent,uniform,1,undefined,1,s,0,0,0,14,14,0,14,14,0,0,0,14,0,14,14,14,9/17/19 13:03,1500,The main experiment item,yes,FlankerTask.osexp,C:/Users/hosan/Desktop,no,mono,no,18,no,white,no,yes,768,legacy,14,14,C:/Users/hosan/Desktop/Tb_subject-0.csv,xpyriment,Kafkaesque Koffka,3.2.8,0,s,NA,s,NA,NA,s,550,NA,2884,NA,NA,550,2,legacy,1024,2,48000,-16,experiment,HHSHH,0,even,5648,NA,NA,23982,NA,NA,44079,42258,2763,NA,NA,44185,2739,44186,44736,44056,Flanker Task ,14,9510,15,yes,1024
93.75,93.75,628.0625,628.0625,black,xpyriment,legacy,legacy,0,Congruent,uniform,1,undefined,1,s,0,0,0,15,15,0,15,15,0,0,0,15,0,15,15,15,9/17/19 13:03,1500,The main experiment item,yes,FlankerTask.osexp,C:/Users/hosan/Desktop,no,mono,no,18,no,white,no,yes,768,legacy,15,15,C:/Users/hosan/Desktop/Tb_subject-0.csv,xpyriment,Kafkaesque Koffka,3.2.8,0,s,NA,s,NA,NA,s,539,NA,2884,NA,NA,539,2,legacy,1024,2,48000,-16,experiment,SSSSS,0,even,5648,NA,NA,23982,NA,NA,46620,44806,2763,NA,NA,46727,2739,46728,47268,46597,Flanker Task ,15,10049,16,yes,1024
94.11764706,94.11764706,621.3529412,621.3529412,black,xpyriment,legacy,legacy,0,Incongruent,uniform,1,undefined,1,s,0,0,0,16,16,0,16,16,0,0,0,16,0,16,16,16,9/17/19 13:03,1500,The main experiment item,yes,FlankerTask.osexp,C:/Users/hosan/Desktop,no,mono,no,18,no,white,no,yes,768,legacy,16,16,C:/Users/hosan/Desktop/Tb_subject-0.csv,xpyriment,Kafkaesque Koffka,3.2.8,0,s,NA,s,NA,NA,s,514,NA,2884,NA,NA,514,2,legacy,1024,2,48000,-16,experiment,HHSHH,0,even,5648,NA,NA,23982,NA,NA,49159,47343,2763,NA,NA,49266,2739,49266,49781,49136,Flanker Task ,16,10563,17,yes,1024
94.44444444,94.44444444,610.0555556,610.0555556,black,xpyriment,legacy,legacy,0,Incongruent,uniform,1,undefined,1,s,0,0,0,17,17,0,17,17,0,0,0,17,0,17,17,17,9/17/19 13:03,1500,The main experiment item,yes,FlankerTask.osexp,C:/Users/hosan/Desktop,no,mono,no,18,no,white,no,yes,768,legacy,17,17,C:/Users/hosan/Desktop/Tb_subject-0.csv,xpyriment,Kafkaesque Koffka,3.2.8,0,s,NA,s,NA,NA,s,418,NA,2884,NA,NA,418,2,legacy,1024,2,48000,-16,experiment,HHSHH,0,even,5648,NA,NA,23982,NA,NA,51661,49843,2763,NA,NA,51768,2739,51768,52186,51638,Flanker Task ,17,10981,18,yes,1024
94.73684211,94.73684211,617.5789474,617.5789474,black,xpyriment,legacy,legacy,0,Incongruent,uniform,1,undefined,1,h,0,0,0,18,18,0,18,18,0,0,0,18,0,18,18,18,9/17/19 13:03,1500,The main experiment item,yes,FlankerTask.osexp,C:/Users/hosan/Desktop,no,mono,no,18,no,white,no,yes,768,legacy,18,18,C:/Users/hosan/Desktop/Tb_subject-0.csv,xpyriment,Kafkaesque Koffka,3.2.8,0,h,NA,s,NA,NA,h,753,NA,2884,NA,NA,753,2,legacy,1024,2,48000,-16,experiment,SSHSS,0,even,5648,NA,NA,23982,NA,NA,54081,52256,2763,NA,NA,54187,2739,54187,54941,54058,Flanker Task ,18,11734,19,yes,1024
95,95,615.75,615.75,black,xpyriment,legacy,legacy,0,Incongruent,uniform,1,undefined,1,s,0,0,0,19,19,0,19,19,0,0,0,19,0,19,19,19,9/17/19 13:03,1500,The main experiment item,yes,FlankerTask.osexp,C:/Users/hosan/Desktop,no,mono,no,18,no,white,no,yes,768,legacy,19,19,C:/Users/hosan/Desktop/Tb_subject-0.csv,xpyriment,Kafkaesque Koffka,3.2.8,0,s,NA,s,NA,NA,s,581,NA,2884,NA,NA,581,2,legacy,1024,2,48000,-16,experiment,HHSHH,0,even,5648,NA,NA,23982,NA,NA,56816,55014,2763,NA,NA,56922,2739,56923,57504,56792,Flanker Task ,19,12315,20,yes,1024
95.23809524,95.23809524,611.5238095,611.5238095,black,xpyriment,legacy,legacy,0,Congruent,uniform,1,undefined,1,s,0,0,0,20,20,0,20,20,0,0,0,20,0,20,20,20,9/17/19 13:03,1500,The main experiment item,yes,FlankerTask.osexp,C:/Users/hosan/Desktop,no,mono,no,18,no,white,no,yes,768,legacy,20,20,C:/Users/hosan/Desktop/Tb_subject-0.csv,xpyriment,Kafkaesque Koffka,3.2.8,0,s,NA,s,NA,NA,s,527,NA,2884,NA,NA,527,2,legacy,1024,2,48000,-16,experiment,SSSSS,0,even,5648,NA,NA,23982,NA,NA,59398,57580,2763,NA,NA,59504,2739,59505,60033,59375,Flanker Task ,20,12842,21,yes,1024
95.45454545,95.45454545,614.8636364,614.8636364,black,xpyriment,legacy,legacy,0,Incongruent,uniform,1,undefined,1,s,0,0,0,21,21,0,21,21,0,0,0,21,0,21,21,21,9/17/19 13:03,1500,The main experiment item,yes,FlankerTask.osexp,C:/Users/hosan/Desktop,no,mono,no,18,no,white,no,yes,768,legacy,21,21,C:/Users/hosan/Desktop/Tb_subject-0.csv,xpyriment,Kafkaesque Koffka,3.2.8,0,s,NA,s,NA,NA,s,685,NA,2884,NA,NA,685,2,legacy,1024,2,48000,-16,experiment,HHSHH,0,even,5648,NA,NA,23982,NA,NA,61955,60103,2763,NA,NA,62060,2739,62061,62747,61932,Flanker Task ,21,13527,22,yes,1024
95.65217391,95.65217391,613,613,black,xpyriment,legacy,legacy,0,Incongruent,uniform,1,undefined,1,s,0,0,0,22,22,0,22,22,0,0,0,22,0,22,22,22,9/17/19 13:03,1500,The main experiment item,yes,FlankerTask.osexp,C:/Users/hosan/Desktop,no,mono,no,18,no,white,no,yes,768,legacy,22,22,C:/Users/hosan/Desktop/Tb_subject-0.csv,xpyriment,Kafkaesque Koffka,3.2.8,0,s,NA,s,NA,NA,s,572,NA,2884,NA,NA,572,2,legacy,1024,2,48000,-16,experiment,HHSHH,0,even,5648,NA,NA,23982,NA,NA,64651,62820,2763,NA,NA,64757,2739,64757,65330,64628,Flanker Task ,22,14099,23,yes,1024
95.83333333,95.83333333,603.625,603.625,black,xpyriment,legacy,legacy,0,Incongruent,uniform,1,undefined,1,s,0,0,0,23,23,0,23,23,0,0,0,23,0,23,23,23,9/17/19 13:03,1500,The main experiment item,yes,FlankerTask.osexp,C:/Users/hosan/Desktop,no,mono,no,18,no,white,no,yes,768,legacy,23,23,C:/Users/hosan/Desktop/Tb_subject-0.csv,xpyriment,Kafkaesque Koffka,3.2.8,0,s,NA,s,NA,NA,s,388,NA,2884,NA,NA,388,2,legacy,1024,2,48000,-16,experiment,HHSHH,0,even,5648,NA,NA,23982,NA,NA,67215,65390,2763,NA,NA,67321,2739,67322,67710,67192,Flanker Task ,23,14487,24,yes,1024
96,96,601.76,601.76,black,xpyriment,legacy,legacy,0,Congruent,uniform,1,undefined,1,h,0,0,0,24,24,0,24,24,0,0,0,24,0,24,24,24,9/17/19 13:03,1500,The main experiment item,yes,FlankerTask.osexp,C:/Users/hosan/Desktop,no,mono,no,18,no,white,no,yes,768,legacy,24,24,C:/Users/hosan/Desktop/Tb_subject-0.csv,xpyriment,Kafkaesque Koffka,3.2.8,0,h,NA,s,NA,NA,h,557,NA,2884,NA,NA,557,2,legacy,1024,2,48000,-16,experiment,HHHHH,0,even,5648,NA,NA,23982,NA,NA,69611,67781,2763,NA,NA,69717,2739,69718,70276,69589,Flanker Task ,24,15044,25,yes,1024
96.15384615,96.15384615,598.7307692,598.7307692,black,xpyriment,legacy,legacy,0,Incongruent,uniform,1,undefined,1,s,0,0,0,25,25,0,25,25,0,0,0,25,0,25,25,25,9/17/19 13:03,1500,The main experiment item,yes,FlankerTask.osexp,C:/Users/hosan/Desktop,no,mono,no,18,no,white,no,yes,768,legacy,25,25,C:/Users/hosan/Desktop/Tb_subject-0.csv,xpyriment,Kafkaesque Koffka,3.2.8,0,s,NA,s,NA,NA,s,523,NA,2884,NA,NA,523,2,legacy,1024,2,48000,-16,experiment,HHSHH,0,even,5648,NA,NA,23982,NA,NA,72170,70350,2763,NA,NA,72276,2739,72276,72800,72145,Flanker Task ,25,15567,26,yes,1024
96.2962963,96.2962963,596.6666667,596.6666667,black,xpyriment,legacy,legacy,0,Incongruent,uniform,1,undefined,1,h,0,0,0,26,26,0,26,26,0,0,0,26,0,26,26,26,9/17/19 13:03,1500,The main experiment item,yes,FlankerTask.osexp,C:/Users/hosan/Desktop,no,mono,no,18,no,white,no,yes,768,legacy,26,26,C:/Users/hosan/Desktop/Tb_subject-0.csv,xpyriment,Kafkaesque Koffka,3.2.8,0,h,NA,s,NA,NA,h,543,NA,2884,NA,NA,543,2,legacy,1024,2,48000,-16,experiment,SSHSS,0,even,5648,NA,NA,23982,NA,NA,74687,72872,2763,NA,NA,74793,2739,74793,75337,74663,Flanker Task ,26,16110,27,yes,1024
96.42857143,96.42857143,592.7142857,592.7142857,black,xpyriment,legacy,legacy,0,Incongruent,uniform,1,undefined,1,h,0,0,0,27,27,0,27,27,0,0,0,27,0,27,27,27,9/17/19 13:03,1500,The main experiment item,yes,FlankerTask.osexp,C:/Users/hosan/Desktop,no,mono,no,18,no,white,no,yes,768,legacy,27,27,C:/Users/hosan/Desktop/Tb_subject-0.csv,xpyriment,Kafkaesque Koffka,3.2.8,0,h,NA,s,NA,NA,h,486,NA,2884,NA,NA,486,2,legacy,1024,2,48000,-16,experiment,SSHSS,0,even,5648,NA,NA,23982,NA,NA,77253,75375,2763,NA,NA,77360,2739,77361,77848,77230,Flanker Task ,27,16596,28,yes,1024
96.55172414,96.55172414,591.8275862,591.8275862,black,xpyriment,legacy,legacy,0,Incongruent,uniform,1,undefined,1,s,0,0,0,28,28,0,28,28,0,0,0,28,0,28,28,28,9/17/19 13:03,1500,The main experiment item,yes,FlankerTask.osexp,C:/Users/hosan/Desktop,no,mono,no,18,no,white,no,yes,768,legacy,28,28,C:/Users/hosan/Desktop/Tb_subject-0.csv,xpyriment,Kafkaesque Koffka,3.2.8,0,s,NA,s,NA,NA,s,567,NA,2884,NA,NA,567,2,legacy,1024,2,48000,-16,experiment,HHSHH,0,even,5648,NA,NA,23982,NA,NA,79731,77923,2763,NA,NA,79838,2739,79839,80407,79708,Flanker Task ,28,17163,29,yes,1024
96.66666667,96.66666667,588.2333333,588.2333333,black,xpyriment,legacy,legacy,0,Incongruent,uniform,1,undefined,1,h,0,0,0,29,29,0,29,29,0,0,0,29,0,29,29,29,9/17/19 13:03,1500,The main experiment item,yes,FlankerTask.osexp,C:/Users/hosan/Desktop,no,mono,no,18,no,white,no,yes,768,legacy,29,29,C:/Users/hosan/Desktop/Tb_subject-0.csv,xpyriment,Kafkaesque Koffka,3.2.8,0,h,NA,s,NA,NA,h,484,NA,2884,NA,NA,484,2,legacy,1024,2,48000,-16,experiment,SSHSS,0,even,5648,NA,NA,23982,NA,NA,82307,80482,2763,NA,NA,82413,2739,82413,82897,82284,Flanker Task ,29,17647,30,yes,1024
96.77419355,96.77419355,592.7741935,592.7741935,black,xpyriment,legacy,legacy,0,Congruent,uniform,1,undefined,1,h,0,0,0,30,30,0,30,30,0,0,0,30,0,30,30,30,9/17/19 13:03,1500,The main experiment item,yes,FlankerTask.osexp,C:/Users/hosan/Desktop,no,mono,no,18,no,white,no,yes,768,legacy,30,30,C:/Users/hosan/Desktop/Tb_subject-0.csv,xpyriment,Kafkaesque Koffka,3.2.8,0,h,NA,s,NA,NA,h,729,NA,2884,NA,NA,729,2,legacy,1024,2,48000,-16,experiment,HHHHH,0,even,5648,NA,NA,23982,NA,NA,84771,82964,2763,NA,NA,84877,2739,84878,85607,84748,Flanker Task ,30,18376,31,yes,1024
96.875,96.875,587.125,587.125,black,xpyriment,legacy,legacy,0,Congruent,uniform,1,undefined,1,h,0,0,0,31,31,0,31,31,0,0,0,31,0,31,31,31,9/17/19 13:03,1500,The main experiment item,yes,FlankerTask.osexp,C:/Users/hosan/Desktop,no,mono,no,18,no,white,no,yes,768,legacy,31,31,C:/Users/hosan/Desktop/Tb_subject-0.csv,xpyriment,Kafkaesque Koffka,3.2.8,0,h,NA,s,NA,NA,h,412,NA,2884,NA,NA,412,2,legacy,1024,2,48000,-16,experiment,HHHHH,0,even,5648,NA,NA,23982,NA,NA,87498,85677,2763,NA,NA,87603,2739,87604,88017,87474,Flanker Task ,31,18788,32,yes,1024
96.96969697,96.96969697,583.6969697,583.6969697,black,xpyriment,legacy,legacy,0,Congruent,uniform,1,undefined,1,s,0,0,0,32,32,0,32,32,0,0,0,32,0,32,32,32,9/17/19 13:03,1500,The main experiment item,yes,FlankerTask.osexp,C:/Users/hosan/Desktop,no,mono,no,18,no,white,no,yes,768,legacy,32,32,C:/Users/hosan/Desktop/Tb_subject-0.csv,xpyriment,Kafkaesque Koffka,3.2.8,0,s,NA,s,NA,NA,s,474,NA,2884,NA,NA,474,2,legacy,1024,2,48000,-16,experiment,SSSSS,0,even,5648,NA,NA,23982,NA,NA,89917,88096,2763,NA,NA,90023,2739,90023,90498,89894,Flanker Task ,32,19262,33,yes,1024
97.05882353,97.05882353,577.7058824,577.7058824,black,xpyriment,legacy,legacy,0,Congruent,uniform,1,undefined,1,s,0,0,0,33,33,0,33,33,0,0,0,33,0,33,33,33,9/17/19 13:03,1500,The main experiment item,yes,FlankerTask.osexp,C:/Users/hosan/Desktop,no,mono,no,18,no,white,no,yes,768,legacy,33,33,C:/Users/hosan/Desktop/Tb_subject-0.csv,xpyriment,Kafkaesque Koffka,3.2.8,0,s,NA,s,NA,NA,s,380,NA,2884,NA,NA,380,2,legacy,1024,2,48000,-16,experiment,SSSSS,0,even,5648,NA,NA,23982,NA,NA,92384,90563,2763,NA,NA,92490,2739,92491,92872,92361,Flanker Task ,33,19642,34,yes,1024
97.14285714,97.14285714,575.6857143,575.6857143,black,xpyriment,legacy,legacy,0,Congruent,uniform,1,undefined,1,s,0,0,0,34,34,0,34,34,0,0,0,34,0,34,34,34,9/17/19 13:03,1500,The main experiment item,yes,FlankerTask.osexp,C:/Users/hosan/Desktop,no,mono,no,18,no,white,no,yes,768,legacy,34,34,C:/Users/hosan/Desktop/Tb_subject-0.csv,xpyriment,Kafkaesque Koffka,3.2.8,0,s,NA,s,NA,NA,s,507,NA,2884,NA,NA,507,2,legacy,1024,2,48000,-16,experiment,SSSSS,0,even,5648,NA,NA,23982,NA,NA,94770,92945,2763,NA,NA,94876,2739,94876,95384,94747,Flanker Task ,34,20149,35,yes,1024
97.22222222,97.22222222,572.5555556,572.5555556,black,xpyriment,legacy,legacy,0,Congruent,uniform,1,undefined,1,h,0,0,0,35,35,0,35,35,0,0,0,35,0,35,35,35,9/17/19 13:03,1500,The main experiment item,yes,FlankerTask.osexp,C:/Users/hosan/Desktop,no,mono,no,18,no,white,no,yes,768,legacy,35,35,C:/Users/hosan/Desktop/Tb_subject-0.csv,xpyriment,Kafkaesque Koffka,3.2.8,0,h,NA,s,NA,NA,h,463,NA,2884,NA,NA,463,2,legacy,1024,2,48000,-16,experiment,HHHHH,0,even,5648,NA,NA,23982,NA,NA,97291,95459,2763,NA,NA,97399,2739,97399,97862,97268,Flanker Task ,35,20612,36,yes,1024
97.2972973,97.2972973,577.7837838,577.7837838,black,xpyriment,legacy,legacy,0,Incongruent,uniform,1,undefined,1,h,0,0,0,36,36,0,36,36,0,0,0,36,0,36,36,36,9/17/19 13:03,1500,The main experiment item,yes,FlankerTask.osexp,C:/Users/hosan/Desktop,no,mono,no,18,no,white,no,yes,768,legacy,36,36,C:/Users/hosan/Desktop/Tb_subject-0.csv,xpyriment,Kafkaesque Koffka,3.2.8,0,h,NA,s,NA,NA,h,766,NA,2884,NA,NA,766,2,legacy,1024,2,48000,-16,experiment,SSHSS,0,even,5648,NA,NA,23982,NA,NA,99708,97897,2763,NA,NA,99814,2739,99814,100581,99685,Flanker Task ,36,21378,37,yes,1024
97.36842105,97.36842105,573.8684211,573.8684211,black,xpyriment,legacy,legacy,0,Congruent,uniform,1,undefined,1,h,0,0,0,37,37,0,37,37,0,0,0,37,0,37,37,37,9/17/19 13:03,1500,The main experiment item,yes,FlankerTask.osexp,C:/Users/hosan/Desktop,no,mono,no,18,no,white,no,yes,768,legacy,37,37,C:/Users/hosan/Desktop/Tb_subject-0.csv,xpyriment,Kafkaesque Koffka,3.2.8,0,h,NA,s,NA,NA,h,429,NA,2884,NA,NA,429,2,legacy,1024,2,48000,-16,experiment,HHHHH,0,even,5648,NA,NA,23982,NA,NA,102479,100647,2763,NA,NA,102587,2739,102587,103017,102456,Flanker Task ,37,21807,38,yes,1024
97.43589744,97.43589744,570.6153846,570.6153846,black,xpyriment,legacy,legacy,0,Congruent,uniform,1,undefined,1,h,0,0,0,38,38,0,38,38,0,0,0,38,0,38,38,38,9/17/19 13:03,1500,The main experiment item,yes,FlankerTask.osexp,C:/Users/hosan/Desktop,no,mono,no,18,no,white,no,yes,768,legacy,38,38,C:/Users/hosan/Desktop/Tb_subject-0.csv,xpyriment,Kafkaesque Koffka,3.2.8,0,h,NA,s,NA,NA,h,447,NA,2884,NA,NA,447,2,legacy,1024,2,48000,-16,experiment,HHHHH,0,even,5648,NA,NA,23982,NA,NA,104913,103085,2763,NA,NA,105020,2739,105020,105467,104890,Flanker Task ,38,22254,39,yes,1024
97.5,97.5,566.3,566.3,black,xpyriment,legacy,legacy,0,Congruent,uniform,1,undefined,1,h,0,0,0,39,39,0,39,39,0,0,0,39,0,39,39,39,9/17/19 13:03,1500,The main experiment item,yes,FlankerTask.osexp,C:/Users/hosan/Desktop,no,mono,no,18,no,white,no,yes,768,legacy,39,39,C:/Users/hosan/Desktop/Tb_subject-0.csv,xpyriment,Kafkaesque Koffka,3.2.8,0,h,NA,s,NA,NA,h,398,NA,2884,NA,NA,398,2,legacy,1024,2,48000,-16,experiment,HHHHH,0,even,5648,NA,NA,23982,NA,NA,107363,105543,2763,NA,NA,107470,2739,107470,107869,107341,Flanker Task ,39,22652,40,yes,1024
97.56097561,97.56097561,564.2439024,564.2439024,black,xpyriment,legacy,legacy,0,Congruent,uniform,1,undefined,1,s,0,0,0,40,40,0,40,40,0,0,0,40,0,40,40,40,9/17/19 13:03,1500,The main experiment item,yes,FlankerTask.osexp,C:/Users/hosan/Desktop,no,mono,no,18,no,white,no,yes,768,legacy,40,40,C:/Users/hosan/Desktop/Tb_subject-0.csv,xpyriment,Kafkaesque Koffka,3.2.8,0,s,NA,s,NA,NA,s,482,NA,2884,NA,NA,482,2,legacy,1024,2,48000,-16,experiment,SSSSS,0,even,5648,NA,NA,23982,NA,NA,109761,107935,2763,NA,NA,109866,2739,109867,110350,109738,Flanker Task ,40,23134,41,yes,1024
97.61904762,97.61904762,561.6428571,561.6428571,black,xpyriment,legacy,legacy,0,Incongruent,uniform,1,undefined,1,h,0,0,0,41,41,0,41,41,0,0,0,41,0,41,41,41,9/17/19 13:03,1500,The main experiment item,yes,FlankerTask.osexp,C:/Users/hosan/Desktop,no,mono,no,18,no,white,no,yes,768,legacy,41,41,C:/Users/hosan/Desktop/Tb_subject-0.csv,xpyriment,Kafkaesque Koffka,3.2.8,0,h,NA,s,NA,NA,h,455,NA,2884,NA,NA,455,2,legacy,1024,2,48000,-16,experiment,SSHSS,0,even,5648,NA,NA,23982,NA,NA,112240,110418,2763,NA,NA,112347,2739,112347,112803,112217,Flanker Task ,41,23589,42,yes,1024
97.6744186,97.6744186,559.3023256,559.3023256,black,xpyriment,legacy,legacy,0,Incongruent,uniform,1,undefined,1,h,0,0,0,42,42,0,42,42,0,0,0,42,0,42,42,42,9/17/19 13:03,1500,The main experiment item,yes,FlankerTask.osexp,C:/Users/hosan/Desktop,no,mono,no,18,no,white,no,yes,768,legacy,42,42,C:/Users/hosan/Desktop/Tb_subject-0.csv,xpyriment,Kafkaesque Koffka,3.2.8,0,h,NA,s,NA,NA,h,461,NA,2884,NA,NA,461,2,legacy,1024,2,48000,-16,experiment,SSHSS,0,even,5648,NA,NA,23982,NA,NA,114691,112876,2763,NA,NA,114797,2739,114797,115259,114669,Flanker Task ,42,24050,43,yes,1024
97.72727273,97.72727273,557.3409091,557.3409091,black,xpyriment,legacy,legacy,0,Congruent,uniform,1,undefined,1,s,0,0,0,43,43,0,43,43,0,0,0,43,0,43,43,43,9/17/19 13:03,1500,The main experiment item,yes,FlankerTask.osexp,C:/Users/hosan/Desktop,no,mono,no,18,no,white,no,yes,768,legacy,43,43,C:/Users/hosan/Desktop/Tb_subject-0.csv,xpyriment,Kafkaesque Koffka,3.2.8,0,s,NA,s,NA,NA,s,473,NA,2884,NA,NA,473,2,legacy,1024,2,48000,-16,experiment,SSSSS,0,even,5648,NA,NA,23982,NA,NA,117214,115322,2763,NA,NA,117319,2739,117319,117793,117191,Flanker Task ,43,24523,44,yes,1024
97.77777778,97.77777778,557,557,black,xpyriment,legacy,legacy,0,Congruent,uniform,1,undefined,1,h,0,0,0,44,44,0,44,44,0,0,0,44,0,44,44,44,9/17/19 13:03,1500,The main experiment item,yes,FlankerTask.osexp,C:/Users/hosan/Desktop,no,mono,no,18,no,white,no,yes,768,legacy,44,44,C:/Users/hosan/Desktop/Tb_subject-0.csv,xpyriment,Kafkaesque Koffka,3.2.8,0,h,NA,s,NA,NA,h,542,NA,2884,NA,NA,542,2,legacy,1024,2,48000,-16,experiment,HHHHH,0,even,5648,NA,NA,23982,NA,NA,119701,117873,2763,NA,NA,119805,2739,119806,120349,119677,Flanker Task ,44,25065,45,yes,1024
97.82608696,97.82608696,556.2608696,556.2608696,black,xpyriment,legacy,legacy,0,Incongruent,uniform,1,undefined,1,s,0,0,0,45,45,0,45,45,0,0,0,45,0,45,45,45,9/17/19 13:03,1500,The main experiment item,yes,FlankerTask.osexp,C:/Users/hosan/Desktop,no,mono,no,18,no,white,no,yes,768,legacy,45,45,C:/Users/hosan/Desktop/Tb_subject-0.csv,xpyriment,Kafkaesque Koffka,3.2.8,0,s,NA,s,NA,NA,s,523,NA,2884,NA,NA,523,2,legacy,1024,2,48000,-16,experiment,HHSHH,0,even,5648,NA,NA,23982,NA,NA,122217,120420,2763,NA,NA,122322,2739,122322,122846,122193,Flanker Task ,45,25588,46,yes,1024
97.87234043,97.87234043,555.5744681,555.5744681,black,xpyriment,legacy,legacy,0,Incongruent,uniform,1,undefined,1,s,0,0,0,46,46,0,46,46,0,0,0,46,0,46,46,46,9/17/19 13:03,1500,The main experiment item,yes,FlankerTask.osexp,C:/Users/hosan/Desktop,no,mono,no,18,no,white,no,yes,768,legacy,46,46,C:/Users/hosan/Desktop/Tb_subject-0.csv,xpyriment,Kafkaesque Koffka,3.2.8,0,s,NA,s,NA,NA,s,524,NA,2884,NA,NA,524,2,legacy,1024,2,48000,-16,experiment,HHSHH,0,even,5648,NA,NA,23982,NA,NA,124745,122918,2763,NA,NA,124850,2739,124851,125376,124721,Flanker Task ,46,26112,47,yes,1024
97.91666667,97.91666667,553.0833333,553.0833333,black,xpyriment,legacy,legacy,0,Congruent,uniform,1,undefined,1,h,0,0,0,47,47,0,47,47,0,0,0,47,0,47,47,47,9/17/19 13:03,1500,The main experiment item,yes,FlankerTask.osexp,C:/Users/hosan/Desktop,no,mono,no,18,no,white,no,yes,768,legacy,47,47,C:/Users/hosan/Desktop/Tb_subject-0.csv,xpyriment,Kafkaesque Koffka,3.2.8,0,h,NA,s,NA,NA,h,436,NA,2884,NA,NA,436,2,legacy,1024,2,48000,-16,experiment,HHHHH,0,even,5648,NA,NA,23982,NA,NA,127236,125419,2763,NA,NA,127342,2739,127342,127779,127213,Flanker Task ,47,26548,48,yes,1024
97.95918367,97.95918367,552.7959184,552.7959184,black,xpyriment,legacy,legacy,0,Incongruent,uniform,1,undefined,1,s,0,0,0,48,48,0,48,48,0,0,0,48,0,48,48,48,9/17/19 13:03,1500,The main experiment item,yes,FlankerTask.osexp,C:/Users/hosan/Desktop,no,mono,no,18,no,white,no,yes,768,legacy,48,48,C:/Users/hosan/Desktop/Tb_subject-0.csv,xpyriment,Kafkaesque Koffka,3.2.8,0,s,NA,s,NA,NA,s,539,NA,2884,NA,NA,539,2,legacy,1024,2,48000,-16,experiment,HHSHH,0,even,5648,NA,NA,23982,NA,NA,129646,127810,2763,NA,NA,129752,2739,129753,130293,129623,Flanker Task ,48,27087,49,yes,1024
98,98,550.76,550.76,black,xpyriment,legacy,legacy,0,Congruent,uniform,1,undefined,1,s,0,0,0,49,49,0,49,49,0,0,0,49,0,49,49,49,9/17/19 13:03,1500,The main experiment item,yes,FlankerTask.osexp,C:/Users/hosan/Desktop,no,mono,no,18,no,white,no,yes,768,legacy,49,49,C:/Users/hosan/Desktop/Tb_subject-0.csv,xpyriment,Kafkaesque Koffka,3.2.8,0,s,NA,s,NA,NA,s,451,NA,2884,NA,NA,451,2,legacy,1024,2,48000,-16,experiment,SSSSS,0,even,5648,NA,NA,23982,NA,NA,132223,130381,2763,NA,NA,132330,2739,132330,132782,132200,Flanker Task ,49,27538,50,yes,1024
98.03921569,98.03921569,547.7254902,547.7254902,black,xpyriment,legacy,legacy,0,Incongruent,uniform,1,undefined,1,h,0,0,0,50,50,0,50,50,0,0,0,50,0,50,50,50,9/17/19 13:03,1500,The main experiment item,yes,FlankerTask.osexp,C:/Users/hosan/Desktop,no,mono,no,18,no,white,no,yes,768,legacy,50,50,C:/Users/hosan/Desktop/Tb_subject-0.csv,xpyriment,Kafkaesque Koffka,3.2.8,0,h,NA,s,NA,NA,h,396,NA,2884,NA,NA,396,2,legacy,1024,2,48000,-16,experiment,SSHSS,0,even,5648,NA,NA,23982,NA,NA,134744,132813,2763,NA,NA,134850,2739,134850,135247,134721,Flanker Task ,50,27934,51,yes,1024
98.07692308,98.07692308,548.0769231,548.0769231,black,xpyriment,legacy,legacy,0,Incongruent,uniform,1,undefined,1,h,0,0,0,51,51,0,51,51,0,0,0,51,0,51,51,51,9/17/19 13:03,1500,The main experiment item,yes,FlankerTask.osexp,C:/Users/hosan/Desktop,no,mono,no,18,no,white,no,yes,768,legacy,51,51,C:/Users/hosan/Desktop/Tb_subject-0.csv,xpyriment,Kafkaesque Koffka,3.2.8,0,h,NA,s,NA,NA,h,566,NA,2884,NA,NA,566,2,legacy,1024,2,48000,-16,experiment,SSHSS,0,even,5648,NA,NA,23982,NA,NA,137089,135269,2763,NA,NA,137194,2739,137194,137761,137066,Flanker Task ,51,28500,52,yes,1024
98.11320755,98.11320755,550.0754717,550.0754717,black,xpyriment,legacy,legacy,0,Incongruent,uniform,1,undefined,1,s,0,0,0,52,52,0,52,52,0,0,0,52,0,52,52,52,9/17/19 13:03,1500,The main experiment item,yes,FlankerTask.osexp,C:/Users/hosan/Desktop,no,mono,no,18,no,white,no,yes,768,legacy,52,52,C:/Users/hosan/Desktop/Tb_subject-0.csv,xpyriment,Kafkaesque Koffka,3.2.8,0,s,NA,s,NA,NA,s,654,NA,2884,NA,NA,654,2,legacy,1024,2,48000,-16,experiment,HHSHH,0,even,5648,NA,NA,23982,NA,NA,139651,137828,2763,NA,NA,139757,2739,139758,140413,139628,Flanker Task ,52,29154,53,yes,1024
98.14814815,98.14814815,548.2407407,548.2407407,black,xpyriment,legacy,legacy,0,Incongruent,uniform,1,undefined,1,s,0,0,0,53,53,0,53,53,0,0,0,53,0,53,53,53,9/17/19 13:03,1500,The main experiment item,yes,FlankerTask.osexp,C:/Users/hosan/Desktop,no,mono,no,18,no,white,no,yes,768,legacy,53,53,C:/Users/hosan/Desktop/Tb_subject-0.csv,xpyriment,Kafkaesque Koffka,3.2.8,0,s,NA,s,NA,NA,s,451,NA,2884,NA,NA,451,2,legacy,1024,2,48000,-16,experiment,HHSHH,0,even,5648,NA,NA,23982,NA,NA,142313,140464,2763,NA,NA,142419,2739,142419,142871,142290,Flanker Task ,53,29605,54,yes,1024
98.18181818,98.18181818,546.8909091,546.8909091,black,xpyriment,legacy,legacy,0,Congruent,uniform,1,undefined,1,h,0,0,0,54,54,0,54,54,0,0,0,54,0,54,54,54,9/17/19 13:03,1500,The main experiment item,yes,FlankerTask.osexp,C:/Users/hosan/Desktop,no,mono,no,18,no,white,no,yes,768,legacy,54,54,C:/Users/hosan/Desktop/Tb_subject-0.csv,xpyriment,Kafkaesque Koffka,3.2.8,0,h,NA,s,NA,NA,h,474,NA,2884,NA,NA,474,2,legacy,1024,2,48000,-16,experiment,HHHHH,0,even,5648,NA,NA,23982,NA,NA,144751,142934,2763,NA,NA,144857,2739,144857,145332,144728,Flanker Task ,54,30079,55,yes,1024
98.21428571,98.21428571,545.4285714,545.4285714,black,xpyriment,legacy,legacy,0,Incongruent,uniform,1,undefined,1,h,0,0,0,55,55,0,55,55,0,0,0,55,0,55,55,55,9/17/19 13:03,1500,The main experiment item,yes,FlankerTask.osexp,C:/Users/hosan/Desktop,no,mono,no,18,no,white,no,yes,768,legacy,55,55,C:/Users/hosan/Desktop/Tb_subject-0.csv,xpyriment,Kafkaesque Koffka,3.2.8,0,h,NA,s,NA,NA,h,465,NA,2884,NA,NA,465,2,legacy,1024,2,48000,-16,experiment,SSHSS,0,even,5648,NA,NA,23982,NA,NA,147219,145413,2763,NA,NA,147325,2739,147325,147791,147197,Flanker Task ,55,30544,56,yes,1024
98.24561404,98.24561404,544.8947368,544.8947368,black,xpyriment,legacy,legacy,0,Congruent,uniform,1,undefined,1,s,0,0,0,56,56,0,56,56,0,0,0,56,0,56,56,56,9/17/19 13:03,1500,The main experiment item,yes,FlankerTask.osexp,C:/Users/hosan/Desktop,no,mono,no,18,no,white,no,yes,768,legacy,56,56,C:/Users/hosan/Desktop/Tb_subject-0.csv,xpyriment,Kafkaesque Koffka,3.2.8,0,s,NA,s,NA,NA,s,515,NA,2884,NA,NA,515,2,legacy,1024,2,48000,-16,experiment,SSSSS,0,even,5648,NA,NA,23982,NA,NA,149641,147823,2763,NA,NA,149747,2739,149748,150264,149618,Flanker Task ,56,31059,57,yes,1024
98.27586207,98.27586207,542.5517241,542.5517241,black,xpyriment,legacy,legacy,0,Congruent,uniform,1,undefined,1,s,0,0,0,57,57,0,57,57,0,0,0,57,0,57,57,57,9/17/19 13:03,1500,The main experiment item,yes,FlankerTask.osexp,C:/Users/hosan/Desktop,no,mono,no,18,no,white,no,yes,768,legacy,57,57,C:/Users/hosan/Desktop/Tb_subject-0.csv,xpyriment,Kafkaesque Koffka,3.2.8,0,s,NA,s,NA,NA,s,409,NA,2884,NA,NA,409,2,legacy,1024,2,48000,-16,experiment,SSSSS,0,even,5648,NA,NA,23982,NA,NA,152141,150326,2763,NA,NA,152247,2739,152247,152657,152119,Flanker Task ,57,31468,58,yes,1024
98.30508475,98.30508475,540.0847458,540.0847458,black,xpyriment,legacy,legacy,0,Congruent,uniform,1,undefined,1,s,0,0,0,58,58,0,58,58,0,0,0,58,0,58,58,58,9/17/19 13:03,1500,The main experiment item,yes,FlankerTask.osexp,C:/Users/hosan/Desktop,no,mono,no,18,no,white,no,yes,768,legacy,58,58,C:/Users/hosan/Desktop/Tb_subject-0.csv,xpyriment,Kafkaesque Koffka,3.2.8,0,s,NA,s,NA,NA,s,397,NA,2884,NA,NA,397,2,legacy,1024,2,48000,-16,experiment,SSSSS,0,even,5648,NA,NA,23982,NA,NA,154530,152729,2763,NA,NA,154638,2739,154638,155036,154507,Flanker Task ,58,31865,59,yes,1024
98.33333333,98.33333333,538.9,538.9,black,xpyriment,legacy,legacy,0,Congruent,uniform,1,undefined,1,h,0,0,0,59,59,0,59,59,0,0,0,59,0,59,59,59,9/17/19 13:03,1500,The main experiment item,yes,FlankerTask.osexp,C:/Users/hosan/Desktop,no,mono,no,18,no,white,no,yes,768,legacy,59,59,C:/Users/hosan/Desktop/Tb_subject-0.csv,xpyriment,Kafkaesque Koffka,3.2.8,0,h,NA,s,NA,NA,h,469,NA,2884,NA,NA,469,2,legacy,1024,2,48000,-16,experiment,HHHHH,0,even,5648,NA,NA,23982,NA,NA,156940,155120,2763,NA,NA,157047,2739,157047,157518,156917,Flanker Task ,59,32334,60,yes,1024
98.36065574,98.36065574,542.7704918,542.7704918,black,xpyriment,legacy,legacy,0,Incongruent,uniform,1,undefined,1,h,0,0,0,60,60,0,60,60,0,0,0,60,0,60,60,60,9/17/19 13:03,1500,The main experiment item,yes,FlankerTask.osexp,C:/Users/hosan/Desktop,no,mono,no,18,no,white,no,yes,768,legacy,60,60,C:/Users/hosan/Desktop/Tb_subject-0.csv,xpyriment,Kafkaesque Koffka,3.2.8,0,h,NA,s,NA,NA,h,775,NA,2884,NA,NA,775,2,legacy,1024,2,48000,-16,experiment,SSHSS,0,even,5648,NA,NA,23982,NA,NA,159427,157599,2763,NA,NA,159534,2739,159534,160310,159405,Flanker Task ,60,33109,61,yes,1024
98.38709677,98.38709677,542.1129032,542.1129032,black,xpyriment,legacy,legacy,0,Congruent,uniform,1,undefined,1,h,0,0,0,61,61,0,61,61,0,0,0,61,0,61,61,61,9/17/19 13:03,1500,The main experiment item,yes,FlankerTask.osexp,C:/Users/hosan/Desktop,no,mono,no,18,no,white,no,yes,768,legacy,61,61,C:/Users/hosan/Desktop/Tb_subject-0.csv,xpyriment,Kafkaesque Koffka,3.2.8,0,h,NA,s,NA,NA,h,502,NA,2884,NA,NA,502,2,legacy,1024,2,48000,-16,experiment,HHHHH,0,even,5648,NA,NA,23982,NA,NA,162210,160378,2763,NA,NA,162317,2739,162317,162819,162187,Flanker Task ,61,33611,62,yes,1024
98.41269841,98.41269841,540.4603175,540.4603175,black,xpyriment,legacy,legacy,0,Incongruent,uniform,1,undefined,1,s,0,0,0,62,62,0,62,62,0,0,0,62,0,62,62,62,9/17/19 13:03,1500,The main experiment item,yes,FlankerTask.osexp,C:/Users/hosan/Desktop,no,mono,no,18,no,white,no,yes,768,legacy,62,62,C:/Users/hosan/Desktop/Tb_subject-0.csv,xpyriment,Kafkaesque Koffka,3.2.8,0,s,NA,s,NA,NA,s,438,NA,2884,NA,NA,438,2,legacy,1024,2,48000,-16,experiment,HHSHH,0,even,5648,NA,NA,23982,NA,NA,164664,162857,2763,NA,NA,164770,2739,164771,165210,164641,Flanker Task ,62,34049,63,yes,1024
98.4375,98.4375,538.921875,538.921875,black,xpyriment,legacy,legacy,0,Congruent,uniform,1,undefined,1,s,0,0,0,63,63,0,63,63,0,0,0,63,0,63,63,63,9/17/19 13:03,1500,The main experiment item,yes,FlankerTask.osexp,C:/Users/hosan/Desktop,no,mono,no,18,no,white,no,yes,768,legacy,63,63,C:/Users/hosan/Desktop/Tb_subject-0.csv,xpyriment,Kafkaesque Koffka,3.2.8,0,s,NA,s,NA,NA,s,442,NA,2884,NA,NA,442,2,legacy,1024,2,48000,-16,experiment,SSSSS,0,even,5648,NA,NA,23982,NA,NA,167099,165271,2763,NA,NA,167204,2739,167204,167647,167076,Flanker Task ,63,34491,64,yes,1024
98.46153846,98.46153846,537.3076923,537.3076923,black,xpyriment,legacy,legacy,0,Incongruent,uniform,1,undefined,1,s,0,0,0,64,64,0,64,64,0,0,0,64,0,64,64,64,9/17/19 13:03,1500,The main experiment item,yes,FlankerTask.osexp,C:/Users/hosan/Desktop,no,mono,no,18,no,white,no,yes,768,legacy,64,64,C:/Users/hosan/Desktop/Tb_subject-0.csv,xpyriment,Kafkaesque Koffka,3.2.8,0,s,NA,s,NA,NA,s,434,NA,2884,NA,NA,434,2,legacy,1024,2,48000,-16,experiment,HHSHH,0,even,5648,NA,NA,23982,NA,NA,169525,167718,2763,NA,NA,169630,2739,169631,170066,169503,Flanker Task ,64,34925,65,yes,1024
98.48484848,98.48484848,534.1212121,534.1212121,black,xpyriment,legacy,legacy,0,Congruent,uniform,1,undefined,1,s,0,0,0,65,65,0,65,65,0,0,0,65,0,65,65,65,9/17/19 13:03,1500,The main experiment item,yes,FlankerTask.osexp,C:/Users/hosan/Desktop,no,mono,no,18,no,white,no,yes,768,legacy,65,65,C:/Users/hosan/Desktop/Tb_subject-0.csv,xpyriment,Kafkaesque Koffka,3.2.8,0,s,NA,s,NA,NA,s,327,NA,2884,NA,NA,327,2,legacy,1024,2,48000,-16,experiment,SSSSS,0,even,5648,NA,NA,23982,NA,NA,171979,170167,2763,NA,NA,172086,2739,172087,172415,171956,Flanker Task ,65,35252,66,yes,1024
97.01492537,97.01492537,531.1791045,531.1791045,black,xpyriment,legacy,legacy,0,Incongruent,uniform,0,undefined,0,h,0,0,0,66,66,0,66,66,0,0,0,66,0,66,66,66,9/17/19 13:03,1500,The main experiment item,yes,FlankerTask.osexp,C:/Users/hosan/Desktop,no,mono,no,18,no,white,no,yes,768,legacy,66,66,C:/Users/hosan/Desktop/Tb_subject-0.csv,xpyriment,Kafkaesque Koffka,3.2.8,0,s,NA,s,NA,NA,s,337,NA,2884,NA,NA,337,2,legacy,1024,2,48000,-16,experiment,SSHSS,0,even,5648,NA,NA,23982,NA,NA,174294,172491,2763,NA,NA,174402,2739,174402,174740,174272,Flanker Task ,65,35589,67,yes,1024
97.05882353,97.05882353,532.0735294,532.0735294,black,xpyriment,legacy,legacy,0,Incongruent,uniform,1,undefined,1,s,0,0,0,67,67,0,67,67,0,0,0,67,0,67,67,67,9/17/19 13:03,1500,The main experiment item,yes,FlankerTask.osexp,C:/Users/hosan/Desktop,no,mono,no,18,no,white,no,yes,768,legacy,67,67,C:/Users/hosan/Desktop/Tb_subject-0.csv,xpyriment,Kafkaesque Koffka,3.2.8,0,s,NA,s,NA,NA,s,592,NA,2884,NA,NA,592,2,legacy,1024,2,48000,-16,experiment,HHSHH,0,even,5648,NA,NA,174815,NA,NA,177159,175321,2763,NA,NA,177266,2739,177267,177860,177137,Flanker Task ,66,36181,68,yes,1024
97.10144928,97.10144928,533.5942029,533.5942029,black,xpyriment,legacy,legacy,0,Congruent,uniform,1,undefined,1,s,0,0,0,68,68,0,68,68,0,0,0,68,0,68,68,68,9/17/19 13:03,1500,The main experiment item,yes,FlankerTask.osexp,C:/Users/hosan/Desktop,no,mono,no,18,no,white,no,yes,768,legacy,68,68,C:/Users/hosan/Desktop/Tb_subject-0.csv,xpyriment,Kafkaesque Koffka,3.2.8,0,s,NA,s,NA,NA,s,637,NA,2884,NA,NA,637,2,legacy,1024,2,48000,-16,experiment,SSSSS,0,even,5648,NA,NA,174815,NA,NA,179754,177935,2763,NA,NA,179860,2739,179861,180499,179732,Flanker Task ,67,36818,69,yes,1024
97.14285714,97.14285714,533.3,533.3,black,xpyriment,legacy,legacy,0,Congruent,uniform,1,undefined,1,h,0,0,0,69,69,0,69,69,0,0,0,69,0,69,69,69,9/17/19 13:03,1500,The main experiment item,yes,FlankerTask.osexp,C:/Users/hosan/Desktop,no,mono,no,18,no,white,no,yes,768,legacy,69,69,C:/Users/hosan/Desktop/Tb_subject-0.csv,xpyriment,Kafkaesque Koffka,3.2.8,0,h,NA,s,NA,NA,h,513,NA,2884,NA,NA,513,2,legacy,1024,2,48000,-16,experiment,HHHHH,0,even,5648,NA,NA,174815,NA,NA,182384,180569,2763,NA,NA,182491,2739,182491,183006,182360,Flanker Task ,68,37331,70,yes,1024
97.18309859,97.18309859,531.8873239,531.8873239,black,xpyriment,legacy,legacy,0,Congruent,uniform,1,undefined,1,h,0,0,0,70,70,0,70,70,0,0,0,70,0,70,70,70,9/17/19 13:03,1500,The main experiment item,yes,FlankerTask.osexp,C:/Users/hosan/Desktop,no,mono,no,18,no,white,no,yes,768,legacy,70,70,C:/Users/hosan/Desktop/Tb_subject-0.csv,xpyriment,Kafkaesque Koffka,3.2.8,0,h,NA,s,NA,NA,h,433,NA,2884,NA,NA,433,2,legacy,1024,2,48000,-16,experiment,HHHHH,0,even,5648,NA,NA,174815,NA,NA,184849,183038,2763,NA,NA,184953,2739,184954,185388,184825,Flanker Task ,69,37764,71,yes,1024
97.22222222,97.22222222,530.5555556,530.5555556,black,xpyriment,legacy,legacy,0,Congruent,uniform,1,undefined,1,s,0,0,0,71,71,0,71,71,0,0,0,71,0,71,71,71,9/17/19 13:03,1500,The main experiment item,yes,FlankerTask.osexp,C:/Users/hosan/Desktop,no,mono,no,18,no,white,no,yes,768,legacy,71,71,C:/Users/hosan/Desktop/Tb_subject-0.csv,xpyriment,Kafkaesque Koffka,3.2.8,0,s,NA,s,NA,NA,s,436,NA,2884,NA,NA,436,2,legacy,1024,2,48000,-16,experiment,SSSSS,0,even,5648,NA,NA,174815,NA,NA,187264,185463,2763,NA,NA,187372,2739,187372,187809,187241,Flanker Task ,70,38200,72,yes,1024
97.26027397,97.26027397,529.7945205,529.7945205,black,xpyriment,legacy,legacy,0,Congruent,uniform,1,undefined,1,s,0,0,0,72,72,0,72,72,0,0,0,72,0,72,72,72,9/17/19 13:03,1500,The main experiment item,yes,FlankerTask.osexp,C:/Users/hosan/Desktop,no,mono,no,18,no,white,no,yes,768,legacy,72,72,C:/Users/hosan/Desktop/Tb_subject-0.csv,xpyriment,Kafkaesque Koffka,3.2.8,0,s,NA,s,NA,NA,s,475,NA,2884,NA,NA,475,2,legacy,1024,2,48000,-16,experiment,SSSSS,0,even,5648,NA,NA,174815,NA,NA,189715,187890,2763,NA,NA,189821,2739,189821,190297,189692,Flanker Task ,71,38675,73,yes,1024
97.2972973,97.2972973,529.3243243,529.3243243,black,xpyriment,legacy,legacy,0,Incongruent,uniform,1,undefined,1,h,0,0,0,73,73,0,73,73,0,0,0,73,0,73,73,73,9/17/19 13:03,1500,The main experiment item,yes,FlankerTask.osexp,C:/Users/hosan/Desktop,no,mono,no,18,no,white,no,yes,768,legacy,73,73,C:/Users/hosan/Desktop/Tb_subject-0.csv,xpyriment,Kafkaesque Koffka,3.2.8,0,h,NA,s,NA,NA,h,495,NA,2884,NA,NA,495,2,legacy,1024,2,48000,-16,experiment,SSHSS,0,even,5648,NA,NA,174815,NA,NA,192163,190357,2763,NA,NA,192270,2739,192270,192766,192139,Flanker Task ,72,39170,74,yes,1024
97.33333333,97.33333333,528.0533333,528.0533333,black,xpyriment,legacy,legacy,0,Incongruent,uniform,1,undefined,1,h,0,0,0,74,74,0,74,74,0,0,0,74,0,74,74,74,9/17/19 13:03,1500,The main experiment item,yes,FlankerTask.osexp,C:/Users/hosan/Desktop,no,mono,no,18,no,white,no,yes,768,legacy,74,74,C:/Users/hosan/Desktop/Tb_subject-0.csv,xpyriment,Kafkaesque Koffka,3.2.8,0,h,NA,s,NA,NA,h,434,NA,2884,NA,NA,434,2,legacy,1024,2,48000,-16,experiment,SSHSS,0,even,5648,NA,NA,174815,NA,NA,194640,192831,2763,NA,NA,194746,2739,194746,195181,194617,Flanker Task ,73,39604,75,yes,1024
97.36842105,97.36842105,528.6447368,528.6447368,black,xpyriment,legacy,legacy,0,Incongruent,uniform,1,undefined,1,s,0,0,0,75,75,0,75,75,0,0,0,75,0,75,75,75,9/17/19 13:03,1500,The main experiment item,yes,FlankerTask.osexp,C:/Users/hosan/Desktop,no,mono,no,18,no,white,no,yes,768,legacy,75,75,C:/Users/hosan/Desktop/Tb_subject-0.csv,xpyriment,Kafkaesque Koffka,3.2.8,0,s,NA,s,NA,NA,s,573,NA,2884,NA,NA,573,2,legacy,1024,2,48000,-16,experiment,HHSHH,0,even,5648,NA,NA,174815,NA,NA,197074,195261,2763,NA,NA,197180,2739,197181,197756,197051,Flanker Task ,74,40177,76,yes,1024
97.4025974,97.4025974,527.3506494,527.3506494,black,xpyriment,legacy,legacy,0,Congruent,uniform,1,undefined,1,h,0,0,0,76,76,0,76,76,0,0,0,76,0,76,76,76,9/17/19 13:03,1500,The main experiment item,yes,FlankerTask.osexp,C:/Users/hosan/Desktop,no,mono,no,18,no,white,no,yes,768,legacy,76,76,C:/Users/hosan/Desktop/Tb_subject-0.csv,xpyriment,Kafkaesque Koffka,3.2.8,0,h,NA,s,NA,NA,h,429,NA,2884,NA,NA,429,2,legacy,1024,2,48000,-16,experiment,HHHHH,0,even,5648,NA,NA,174815,NA,NA,199645,197828,2763,NA,NA,199751,2739,199751,200181,199622,Flanker Task ,75,40606,77,yes,1024
97.43589744,97.43589744,527.8589744,527.8589744,black,xpyriment,legacy,legacy,0,Incongruent,uniform,1,undefined,1,h,0,0,0,77,77,0,77,77,0,0,0,77,0,77,77,77,9/17/19 13:03,1500,The main experiment item,yes,FlankerTask.osexp,C:/Users/hosan/Desktop,no,mono,no,18,no,white,no,yes,768,legacy,77,77,C:/Users/hosan/Desktop/Tb_subject-0.csv,xpyriment,Kafkaesque Koffka,3.2.8,0,h,NA,s,NA,NA,h,567,NA,2884,NA,NA,567,2,legacy,1024,2,48000,-16,experiment,SSHSS,0,even,5648,NA,NA,174815,NA,NA,202144,200253,2763,NA,NA,202249,2739,202249,202817,202121,Flanker Task ,76,41173,78,yes,1024
97.46835443,97.46835443,526.3924051,526.3924051,black,xpyriment,legacy,legacy,0,Congruent,uniform,1,undefined,1,s,0,0,0,78,78,0,78,78,0,0,0,78,0,78,78,78,9/17/19 13:03,1500,The main experiment item,yes,FlankerTask.osexp,C:/Users/hosan/Desktop,no,mono,no,18,no,white,no,yes,768,legacy,78,78,C:/Users/hosan/Desktop/Tb_subject-0.csv,xpyriment,Kafkaesque Koffka,3.2.8,0,s,NA,s,NA,NA,s,412,NA,2884,NA,NA,412,2,legacy,1024,2,48000,-16,experiment,SSSSS,0,even,5648,NA,NA,174815,NA,NA,204685,202874,2763,NA,NA,204793,2739,204793,205206,204663,Flanker Task ,77,41585,79,yes,1024
97.5,97.5,526.25,526.25,black,xpyriment,legacy,legacy,0,Incongruent,uniform,1,undefined,1,h,0,0,0,79,79,0,79,79,0,0,0,79,0,79,79,79,9/17/19 13:03,1500,The main experiment item,yes,FlankerTask.osexp,C:/Users/hosan/Desktop,no,mono,no,18,no,white,no,yes,768,legacy,79,79,C:/Users/hosan/Desktop/Tb_subject-0.csv,xpyriment,Kafkaesque Koffka,3.2.8,0,h,NA,s,NA,NA,h,515,NA,2884,NA,NA,515,2,legacy,1024,2,48000,-16,experiment,SSHSS,0,even,5648,NA,NA,174815,NA,NA,207084,205269,2763,NA,NA,207190,2739,207191,207707,207061,Flanker Task ,78,42100,80,yes,1024
97.5308642,97.5308642,532.9753086,532.9753086,black,xpyriment,legacy,legacy,0,Incongruent,uniform,1,undefined,1,h,0,0,0,80,80,0,80,80,0,0,0,80,0,80,80,80,9/17/19 13:03,600,The main experiment item,yes,FlankerTask.osexp,C:/Users/hosan/Desktop,no,mono,no,18,no,white,no,yes,768,legacy,0,79,C:/Users/hosan/Desktop/Tb_subject-0.csv,xpyriment,Kafkaesque Koffka,3.2.8,0,h,NA,s,s,NA,h,1071,NA,2884,13541,NA,1071,2,legacy,1024,2,48000,-16,experiment,SSHSS,0,even,5648,222392,NA,174815,NA,NA,223180,207781,2763,208850,NA,223287,2739,223287,224359,223156,Flanker Task ,79,43171,81,yes,1024
97.56097561,97.56097561,532.2926829,532.2926829,black,xpyriment,legacy,legacy,0,Incongruent,uniform,1,undefined,1,h,0,0,0,81,81,0,81,81,0,0,0,81,0,81,81,81,9/17/19 13:03,600,The main experiment item,yes,FlankerTask.osexp,C:/Users/hosan/Desktop,no,mono,no,18,no,white,no,yes,768,legacy,1,79,C:/Users/hosan/Desktop/Tb_subject-0.csv,xpyriment,Kafkaesque Koffka,3.2.8,0,h,NA,s,s,NA,h,477,NA,2884,13541,NA,477,2,legacy,1024,2,48000,-16,experiment,SSHSS,0,even,5648,222392,NA,174815,224419,NA,226763,224925,2763,208850,NA,226869,2739,226869,227347,226740,Flanker Task ,80,43648,82,yes,1024
97.59036145,97.59036145,530.746988,530.746988,black,xpyriment,legacy,legacy,0,Congruent,uniform,1,undefined,1,h,0,0,0,82,82,0,82,82,0,0,0,82,0,82,82,82,9/17/19 13:03,600,The main experiment item,yes,FlankerTask.osexp,C:/Users/hosan/Desktop,no,mono,no,18,no,white,no,yes,768,legacy,2,79,C:/Users/hosan/Desktop/Tb_subject-0.csv,xpyriment,Kafkaesque Koffka,3.2.8,0,h,NA,s,s,NA,h,404,NA,2884,13541,NA,404,2,legacy,1024,2,48000,-16,experiment,HHHHH,0,even,5648,222392,NA,174815,224419,NA,229261,227419,2763,208850,NA,229366,2739,229366,229772,229238,Flanker Task ,81,44052,83,yes,1024
97.61904762,97.61904762,529.2380952,529.2380952,black,xpyriment,legacy,legacy,0,Congruent,uniform,1,undefined,1,h,0,0,0,83,83,0,83,83,0,0,0,83,0,83,83,83,9/17/19 13:03,600,The main experiment item,yes,FlankerTask.osexp,C:/Users/hosan/Desktop,no,mono,no,18,no,white,no,yes,768,legacy,3,79,C:/Users/hosan/Desktop/Tb_subject-0.csv,xpyriment,Kafkaesque Koffka,3.2.8,0,h,NA,s,s,NA,h,404,NA,2884,13541,NA,404,2,legacy,1024,2,48000,-16,experiment,HHHHH,0,even,5648,222392,NA,174815,224419,NA,231711,229856,2763,208850,NA,231816,2739,231816,232222,231687,Flanker Task ,82,44456,84,yes,1024
97.64705882,97.64705882,527.3529412,527.3529412,black,xpyriment,legacy,legacy,0,Congruent,uniform,1,undefined,1,h,0,0,0,84,84,0,84,84,0,0,0,84,0,84,84,84,9/17/19 13:03,600,The main experiment item,yes,FlankerTask.osexp,C:/Users/hosan/Desktop,no,mono,no,18,no,white,no,yes,768,legacy,4,79,C:/Users/hosan/Desktop/Tb_subject-0.csv,xpyriment,Kafkaesque Koffka,3.2.8,0,h,NA,s,s,NA,h,369,NA,2884,13541,NA,369,2,legacy,1024,2,48000,-16,experiment,HHHHH,0,even,5648,222392,NA,174815,224419,NA,234121,232301,2763,208850,NA,234226,2739,234227,234597,234098,Flanker Task ,83,44825,85,yes,1024
97.6744186,97.6744186,525.255814,525.255814,black,xpyriment,legacy,legacy,0,Congruent,uniform,1,undefined,1,h,0,0,0,85,85,0,85,85,0,0,0,85,0,85,85,85,9/17/19 13:03,600,The main experiment item,yes,FlankerTask.osexp,C:/Users/hosan/Desktop,no,mono,no,18,no,white,no,yes,768,legacy,5,79,C:/Users/hosan/Desktop/Tb_subject-0.csv,xpyriment,Kafkaesque Koffka,3.2.8,0,h,NA,s,s,NA,h,347,NA,2884,13541,NA,347,2,legacy,1024,2,48000,-16,experiment,HHHHH,0,even,5648,222392,NA,174815,224419,NA,236517,234691,2763,208850,NA,236623,2739,236624,236972,236494,Flanker Task ,84,45172,86,yes,1024
96.55172414,96.55172414,524.8850575,524.8850575,black,xpyriment,legacy,legacy,0,Incongruent,uniform,0,undefined,0,h,0,0,0,86,86,0,86,86,0,0,0,86,0,86,86,86,9/17/19 13:03,600,The main experiment item,yes,FlankerTask.osexp,C:/Users/hosan/Desktop,no,mono,no,18,no,white,no,yes,768,legacy,6,79,C:/Users/hosan/Desktop/Tb_subject-0.csv,xpyriment,Kafkaesque Koffka,3.2.8,0,s,NA,s,s,NA,s,493,NA,2884,13541,NA,493,2,legacy,1024,2,48000,-16,experiment,SSHSS,0,even,5648,222392,NA,174815,224419,NA,238951,237090,2763,208850,NA,239057,2739,239057,239552,238928,Flanker Task ,84,45665,87,yes,1024
96.59090909,96.59090909,525.3863636,525.3863636,black,xpyriment,legacy,legacy,0,Incongruent,uniform,1,undefined,1,s,0,0,0,87,87,0,87,87,0,0,0,87,0,87,87,87,9/17/19 13:03,600,The main experiment item,yes,FlankerTask.osexp,C:/Users/hosan/Desktop,no,mono,no,18,no,white,no,yes,768,legacy,7,79,C:/Users/hosan/Desktop/Tb_subject-0.csv,xpyriment,Kafkaesque Koffka,3.2.8,0,s,NA,s,s,NA,s,569,NA,2884,13541,NA,569,2,legacy,1024,2,48000,-16,experiment,HHSHH,0,even,5648,222392,NA,239621,224419,NA,241995,240126,2763,208850,NA,242101,2739,242101,242671,241973,Flanker Task ,85,46234,88,yes,1024
96.62921348,96.62921348,524.8988764,524.8988764,black,xpyriment,legacy,legacy,0,Incongruent,uniform,1,undefined,1,s,0,0,0,88,88,0,88,88,0,0,0,88,0,88,88,88,9/17/19 13:03,600,The main experiment item,yes,FlankerTask.osexp,C:/Users/hosan/Desktop,no,mono,no,18,no,white,no,yes,768,legacy,8,79,C:/Users/hosan/Desktop/Tb_subject-0.csv,xpyriment,Kafkaesque Koffka,3.2.8,0,s,NA,s,s,NA,s,482,NA,2884,13541,NA,482,2,legacy,1024,2,48000,-16,experiment,HHSHH,0,even,5648,222392,NA,239621,224419,NA,244600,242742,2763,208850,NA,244705,2739,244705,245189,244576,Flanker Task ,86,46716,89,yes,1024
96.66666667,96.66666667,524.2777778,524.2777778,black,xpyriment,legacy,legacy,0,Incongruent,uniform,1,undefined,1,h,0,0,0,89,89,0,89,89,0,0,0,89,0,89,89,89,9/17/19 13:03,600,The main experiment item,yes,FlankerTask.osexp,C:/Users/hosan/Desktop,no,mono,no,18,no,white,no,yes,768,legacy,9,79,C:/Users/hosan/Desktop/Tb_subject-0.csv,xpyriment,Kafkaesque Koffka,3.2.8,0,h,NA,s,s,NA,h,469,NA,2884,13541,NA,469,2,legacy,1024,2,48000,-16,experiment,SSHSS,0,even,5648,222392,NA,239621,224419,NA,247071,245234,2763,208850,NA,247176,2739,247176,247647,247047,Flanker Task ,87,47185,90,yes,1024
96.7032967,96.7032967,524.5714286,524.5714286,black,xpyriment,legacy,legacy,0,Incongruent,uniform,1,undefined,1,s,0,0,0,90,90,0,90,90,0,0,0,90,0,90,90,90,9/17/19 13:03,600,The main experiment item,yes,FlankerTask.osexp,C:/Users/hosan/Desktop,no,mono,no,18,no,white,no,yes,768,legacy,10,79,C:/Users/hosan/Desktop/Tb_subject-0.csv,xpyriment,Kafkaesque Koffka,3.2.8,0,s,NA,s,s,NA,s,551,NA,2884,13541,NA,551,2,legacy,1024,2,48000,-16,experiment,HHSHH,0,even,5648,222392,NA,239621,224419,NA,249539,247724,2763,208850,NA,249645,2739,249645,250198,249516,Flanker Task ,88,47736,91,yes,1024
96.73913043,96.73913043,525.6630435,525.6630435,black,xpyriment,legacy,legacy,0,Congruent,uniform,1,undefined,1,s,0,0,0,91,91,0,91,91,0,0,0,91,0,91,91,91,9/17/19 13:03,600,The main experiment item,yes,FlankerTask.osexp,C:/Users/hosan/Desktop,no,mono,no,18,no,white,no,yes,768,legacy,11,79,C:/Users/hosan/Desktop/Tb_subject-0.csv,xpyriment,Kafkaesque Koffka,3.2.8,0,s,NA,s,s,NA,s,625,NA,2884,13541,NA,625,2,legacy,1024,2,48000,-16,experiment,SSSSS,0,even,5648,222392,NA,239621,224419,NA,252148,250304,2763,208850,NA,252253,2739,252253,252879,252124,Flanker Task ,89,48361,92,yes,1024
96.77419355,96.77419355,524.344086,524.344086,black,xpyriment,legacy,legacy,0,Congruent,uniform,1,undefined,1,s,0,0,0,92,92,0,92,92,0,0,0,92,0,92,92,92,9/17/19 13:03,600,The main experiment item,yes,FlankerTask.osexp,C:/Users/hosan/Desktop,no,mono,no,18,no,white,no,yes,768,legacy,12,79,C:/Users/hosan/Desktop/Tb_subject-0.csv,xpyriment,Kafkaesque Koffka,3.2.8,0,s,NA,s,s,NA,s,403,NA,2884,13541,NA,403,2,legacy,1024,2,48000,-16,experiment,SSSSS,0,even,5648,222392,NA,239621,252911,NA,255257,253417,2763,208850,NA,255363,2739,255363,255767,255235,Flanker Task ,90,48764,93,yes,1024
96.80851064,96.80851064,524.1808511,524.1808511,black,xpyriment,legacy,legacy,0,Congruent,uniform,1,undefined,1,h,0,0,0,93,93,0,93,93,0,0,0,93,0,93,93,93,9/17/19 13:03,600,The main experiment item,yes,FlankerTask.osexp,C:/Users/hosan/Desktop,no,mono,no,18,no,white,no,yes,768,legacy,13,79,C:/Users/hosan/Desktop/Tb_subject-0.csv,xpyriment,Kafkaesque Koffka,3.2.8,0,h,NA,s,s,NA,h,509,NA,2884,13541,NA,509,2,legacy,1024,2,48000,-16,experiment,HHHHH,0,even,5648,222392,NA,239621,252911,NA,257669,255849,2763,208850,NA,257774,2739,257774,258284,257645,Flanker Task ,91,49273,94,yes,1024
96.84210526,96.84210526,524.4526316,524.4526316,black,xpyriment,legacy,legacy,0,Incongruent,uniform,1,undefined,1,h,0,0,0,94,94,0,94,94,0,0,0,94,0,94,94,94,9/17/19 13:03,600,The main experiment item,yes,FlankerTask.osexp,C:/Users/hosan/Desktop,no,mono,no,18,no,white,no,yes,768,legacy,14,79,C:/Users/hosan/Desktop/Tb_subject-0.csv,xpyriment,Kafkaesque Koffka,3.2.8,0,h,NA,s,s,NA,h,550,NA,2884,13541,NA,550,2,legacy,1024,2,48000,-16,experiment,SSHSS,0,even,5648,222392,NA,239621,252911,NA,260236,258362,2763,208850,NA,260342,2739,260342,260893,260213,Flanker Task ,92,49823,95,yes,1024
96.875,96.875,527.5208333,527.5208333,black,xpyriment,legacy,legacy,0,Incongruent,uniform,1,undefined,1,s,0,0,0,95,95,0,95,95,0,0,0,95,0,95,95,95,9/17/19 13:03,600,The main experiment item,yes,FlankerTask.osexp,C:/Users/hosan/Desktop,no,mono,no,18,no,white,no,yes,768,legacy,15,79,C:/Users/hosan/Desktop/Tb_subject-0.csv,xpyriment,Kafkaesque Koffka,3.2.8,0,s,NA,s,s,NA,s,819,NA,2884,13541,NA,819,2,legacy,1024,2,48000,-16,experiment,HHSHH,0,even,5648,222392,NA,239621,252911,NA,262783,260971,2763,208850,NA,262889,2739,262889,263709,262760,Flanker Task ,93,50642,96,yes,1024
96.90721649,96.90721649,528.3298969,528.3298969,black,xpyriment,legacy,legacy,0,Incongruent,uniform,1,undefined,1,s,0,0,0,96,96,0,96,96,0,0,0,96,0,96,96,96,9/17/19 13:03,600,The main experiment item,yes,FlankerTask.osexp,C:/Users/hosan/Desktop,no,mono,no,18,no,white,no,yes,768,legacy,16,79,C:/Users/hosan/Desktop/Tb_subject-0.csv,xpyriment,Kafkaesque Koffka,3.2.8,0,s,NA,s,s,NA,s,606,NA,2884,13541,NA,606,2,legacy,1024,2,48000,-16,experiment,HHSHH,0,even,5648,222392,NA,239621,263796,NA,266121,264301,2763,208850,NA,266227,2739,266227,266834,266099,Flanker Task ,94,51248,97,yes,1024
96.93877551,96.93877551,528.5918367,528.5918367,black,xpyriment,legacy,legacy,0,Incongruent,uniform,1,undefined,1,h,0,0,0,97,97,0,97,97,0,0,0,97,0,97,97,97,9/17/19 13:03,600,The main experiment item,yes,FlankerTask.osexp,C:/Users/hosan/Desktop,no,mono,no,18,no,white,no,yes,768,legacy,17,79,C:/Users/hosan/Desktop/Tb_subject-0.csv,xpyriment,Kafkaesque Koffka,3.2.8,0,h,NA,s,s,NA,h,554,NA,2884,13541,NA,554,2,legacy,1024,2,48000,-16,experiment,SSHSS,0,even,5648,222392,NA,239621,266915,NA,269237,267420,2763,208850,NA,269343,2739,269343,269898,269214,Flanker Task ,95,51802,98,yes,1024
96.96969697,96.96969697,529.969697,529.969697,black,xpyriment,legacy,legacy,0,Incongruent,uniform,1,undefined,1,s,0,0,0,98,98,0,98,98,0,0,0,98,0,98,98,98,9/17/19 13:03,600,The main experiment item,yes,FlankerTask.osexp,C:/Users/hosan/Desktop,no,mono,no,18,no,white,no,yes,768,legacy,18,79,C:/Users/hosan/Desktop/Tb_subject-0.csv,xpyriment,Kafkaesque Koffka,3.2.8,0,s,NA,s,s,NA,s,665,NA,2884,13541,NA,665,2,legacy,1024,2,48000,-16,experiment,HHSHH,0,even,5648,222392,NA,239621,266915,NA,271772,269937,2763,208850,NA,271877,2739,271877,272543,271748,Flanker Task ,96,52467,99,yes,1024
97,97,529.23,529.23,black,xpyriment,legacy,legacy,0,Incongruent,uniform,1,undefined,1,h,0,0,0,99,99,0,99,99,0,0,0,99,0,99,99,99,9/17/19 13:03,600,The main experiment item,yes,FlankerTask.osexp,C:/Users/hosan/Desktop,no,mono,no,18,no,white,no,yes,768,legacy,19,79,C:/Users/hosan/Desktop/Tb_subject-0.csv,xpyriment,Kafkaesque Koffka,3.2.8,0,h,NA,s,s,NA,h,456,NA,2884,13541,NA,456,2,legacy,1024,2,48000,-16,experiment,SSHSS,0,even,5648,222392,NA,239621,272619,NA,274962,273125,2763,208850,NA,275068,2739,275068,275527,274939,Flanker Task ,97,52923,100,yes,1024
97.02970297,97.02970297,528.1485149,528.1485149,black,xpyriment,legacy,legacy,0,Congruent,uniform,1,undefined,1,s,0,0,0,100,100,0,100,100,0,0,0,100,0,100,100,100,9/17/19 13:03,600,The main experiment item,yes,FlankerTask.osexp,C:/Users/hosan/Desktop,no,mono,no,18,no,white,no,yes,768,legacy,20,79,C:/Users/hosan/Desktop/Tb_subject-0.csv,xpyriment,Kafkaesque Koffka,3.2.8,0,s,NA,s,s,NA,s,420,NA,2884,13541,NA,420,2,legacy,1024,2,48000,-16,experiment,SSSSS,0,even,5648,222392,NA,239621,272619,NA,277424,275615,2763,208850,NA,277529,2739,277529,277950,277401,Flanker Task ,98,53343,101,yes,1024
97.05882353,97.05882353,528.0294118,528.0294118,black,xpyriment,legacy,legacy,0,Incongruent,uniform,1,undefined,1,h,0,0,0,101,101,0,101,101,0,0,0,101,0,101,101,101,9/17/19 13:03,600,The main experiment item,yes,FlankerTask.osexp,C:/Users/hosan/Desktop,no,mono,no,18,no,white,no,yes,768,legacy,21,79,C:/Users/hosan/Desktop/Tb_subject-0.csv,xpyriment,Kafkaesque Koffka,3.2.8,0,h,NA,s,s,NA,h,516,NA,2884,13541,NA,516,2,legacy,1024,2,48000,-16,experiment,SSHSS,0,even,5648,222392,NA,239621,272619,NA,279884,277990,2763,208850,NA,279990,2739,279990,280507,279861,Flanker Task ,99,53859,102,yes,1024
97.08737864,97.08737864,528.1456311,528.1456311,black,xpyriment,legacy,legacy,0,Incongruent,uniform,1,undefined,1,h,0,0,0,102,102,0,102,102,0,0,0,102,0,102,102,102,9/17/19 13:03,600,The main experiment item,yes,FlankerTask.osexp,C:/Users/hosan/Desktop,no,mono,no,18,no,white,no,yes,768,legacy,22,79,C:/Users/hosan/Desktop/Tb_subject-0.csv,xpyriment,Kafkaesque Koffka,3.2.8,0,h,NA,s,s,NA,h,540,NA,2884,13541,NA,540,2,legacy,1024,2,48000,-16,experiment,SSHSS,0,even,5648,222392,NA,239621,272619,NA,282448,280580,2763,208850,NA,282554,2739,282554,283096,282425,Flanker Task ,100,54399,103,yes,1024
97.11538462,97.11538462,526.4615385,526.4615385,black,xpyriment,legacy,legacy,0,Congruent,uniform,1,undefined,1,h,0,0,0,103,103,0,103,103,0,0,0,103,0,103,103,103,9/17/19 13:03,600,The main experiment item,yes,FlankerTask.osexp,C:/Users/hosan/Desktop,no,mono,no,18,no,white,no,yes,768,legacy,23,79,C:/Users/hosan/Desktop/Tb_subject-0.csv,xpyriment,Kafkaesque Koffka,3.2.8,0,h,NA,s,s,NA,h,353,NA,2884,13541,NA,353,2,legacy,1024,2,48000,-16,experiment,HHHHH,0,even,5648,222392,NA,239621,272619,NA,284985,283170,2763,208850,NA,285090,2739,285090,285445,284962,Flanker Task ,101,54752,104,yes,1024
97.14285714,97.14285714,524.7047619,524.7047619,black,xpyriment,legacy,legacy,0,Congruent,uniform,1,undefined,1,h,0,0,0,104,104,0,104,104,0,0,0,104,0,104,104,104,9/17/19 13:03,600,The main experiment item,yes,FlankerTask.osexp,C:/Users/hosan/Desktop,no,mono,no,18,no,white,no,yes,768,legacy,24,79,C:/Users/hosan/Desktop/Tb_subject-0.csv,xpyriment,Kafkaesque Koffka,3.2.8,0,h,NA,s,s,NA,h,342,NA,2884,13541,NA,342,2,legacy,1024,2,48000,-16,experiment,HHHHH,0,even,5648,222392,NA,239621,272619,NA,287358,285506,2763,208850,NA,287464,2739,287464,287808,287334,Flanker Task ,102,55094,105,yes,1024
97.16981132,97.16981132,523.3396226,523.3396226,black,xpyriment,legacy,legacy,0,Congruent,uniform,1,undefined,1,h,0,0,0,105,105,0,105,105,0,0,0,105,0,105,105,105,9/17/19 13:03,600,The main experiment item,yes,FlankerTask.osexp,C:/Users/hosan/Desktop,no,mono,no,18,no,white,no,yes,768,legacy,25,79,C:/Users/hosan/Desktop/Tb_subject-0.csv,xpyriment,Kafkaesque Koffka,3.2.8,0,h,NA,s,s,NA,h,380,NA,2884,13541,NA,380,2,legacy,1024,2,48000,-16,experiment,HHHHH,0,even,5648,222392,NA,239621,272619,NA,289690,287875,2763,208850,NA,289796,2739,289796,290178,289667,Flanker Task ,103,55474,106,yes,1024
97.19626168,97.19626168,523.682243,523.682243,black,xpyriment,legacy,legacy,0,Incongruent,uniform,1,undefined,1,s,0,0,0,106,106,0,106,106,0,0,0,106,0,106,106,106,9/17/19 13:03,600,The main experiment item,yes,FlankerTask.osexp,C:/Users/hosan/Desktop,no,mono,no,18,no,white,no,yes,768,legacy,26,79,C:/Users/hosan/Desktop/Tb_subject-0.csv,xpyriment,Kafkaesque Koffka,3.2.8,0,s,NA,s,s,NA,s,560,NA,2884,13541,NA,560,2,legacy,1024,2,48000,-16,experiment,HHSHH,0,even,5648,222392,NA,239621,272619,NA,292121,290255,2763,208850,NA,292227,2739,292227,292788,292098,Flanker Task ,104,56034,107,yes,1024
97.22222222,97.22222222,522.1666667,522.1666667,black,xpyriment,legacy,legacy,0,Incongruent,uniform,1,undefined,1,s,0,0,0,107,107,0,107,107,0,0,0,107,0,107,107,107,9/17/19 13:03,600,The main experiment item,yes,FlankerTask.osexp,C:/Users/hosan/Desktop,no,mono,no,18,no,white,no,yes,768,legacy,27,79,C:/Users/hosan/Desktop/Tb_subject-0.csv,xpyriment,Kafkaesque Koffka,3.2.8,0,s,NA,s,s,NA,s,360,NA,2884,13541,NA,360,2,legacy,1024,2,48000,-16,experiment,HHSHH,0,even,5648,222392,NA,239621,272619,NA,294719,292857,2763,208850,NA,294825,2739,294825,295187,294696,Flanker Task ,105,56394,108,yes,1024
97.24770642,97.24770642,521.7155963,521.7155963,black,xpyriment,legacy,legacy,0,Congruent,uniform,1,undefined,1,h,0,0,0,108,108,0,108,108,0,0,0,108,0,108,108,108,9/17/19 13:03,600,The main experiment item,yes,FlankerTask.osexp,C:/Users/hosan/Desktop,no,mono,no,18,no,white,no,yes,768,legacy,28,79,C:/Users/hosan/Desktop/Tb_subject-0.csv,xpyriment,Kafkaesque Koffka,3.2.8,0,h,NA,s,s,NA,h,473,NA,2884,13541,NA,473,2,legacy,1024,2,48000,-16,experiment,HHHHH,0,even,5648,222392,NA,239621,272619,NA,297090,295269,2763,208850,NA,297196,2739,297196,297671,297067,Flanker Task ,106,56867,109,yes,1024
97.27272727,97.27272727,520.7727273,520.7727273,black,xpyriment,legacy,legacy,0,Congruent,uniform,1,undefined,1,s,0,0,0,109,109,0,109,109,0,0,0,109,0,109,109,109,9/17/19 13:03,600,The main experiment item,yes,FlankerTask.osexp,C:/Users/hosan/Desktop,no,mono,no,18,no,white,no,yes,768,legacy,29,79,C:/Users/hosan/Desktop/Tb_subject-0.csv,xpyriment,Kafkaesque Koffka,3.2.8,0,s,NA,s,s,NA,s,418,NA,2884,13541,NA,418,2,legacy,1024,2,48000,-16,experiment,SSSSS,0,even,5648,222392,NA,239621,272619,NA,299608,297750,2763,208850,NA,299714,2739,299714,300133,299585,Flanker Task ,107,57285,110,yes,1024
97.2972973,97.2972973,519.8558559,519.8558559,black,xpyriment,legacy,legacy,0,Incongruent,uniform,1,undefined,1,h,0,0,0,110,110,0,110,110,0,0,0,110,0,110,110,110,9/17/19 13:03,600,The main experiment item,yes,FlankerTask.osexp,C:/Users/hosan/Desktop,no,mono,no,18,no,white,no,yes,768,legacy,30,79,C:/Users/hosan/Desktop/Tb_subject-0.csv,xpyriment,Kafkaesque Koffka,3.2.8,0,h,NA,s,s,NA,h,419,NA,2884,13541,NA,419,2,legacy,1024,2,48000,-16,experiment,SSHSS,0,even,5648,222392,NA,239621,272619,NA,302072,300207,2763,208850,NA,302177,2739,302177,302598,302048,Flanker Task ,108,57704,111,yes,1024
97.32142857,97.32142857,519.1339286,519.1339286,black,xpyriment,legacy,legacy,0,Congruent,uniform,1,undefined,1,s,0,0,0,111,111,0,111,111,0,0,0,111,0,111,111,111,9/17/19 13:03,600,The main experiment item,yes,FlankerTask.osexp,C:/Users/hosan/Desktop,no,mono,no,18,no,white,no,yes,768,legacy,31,79,C:/Users/hosan/Desktop/Tb_subject-0.csv,xpyriment,Kafkaesque Koffka,3.2.8,0,s,NA,s,s,NA,s,439,NA,2884,13541,NA,439,2,legacy,1024,2,48000,-16,experiment,SSSSS,0,even,5648,222392,NA,239621,272619,NA,304454,302632,2763,208850,NA,304558,2739,304558,304998,304430,Flanker Task ,109,58143,112,yes,1024
97.34513274,97.34513274,518.6902655,518.6902655,black,xpyriment,legacy,legacy,0,Congruent,uniform,1,undefined,1,s,0,0,0,112,112,0,112,112,0,0,0,112,0,112,112,112,9/17/19 13:03,600,The main experiment item,yes,FlankerTask.osexp,C:/Users/hosan/Desktop,no,mono,no,18,no,white,no,yes,768,legacy,32,79,C:/Users/hosan/Desktop/Tb_subject-0.csv,xpyriment,Kafkaesque Koffka,3.2.8,0,s,NA,s,s,NA,s,469,NA,2884,13541,NA,469,2,legacy,1024,2,48000,-16,experiment,SSSSS,0,even,5648,222392,NA,239621,272619,NA,306934,305085,2763,208850,NA,307040,2739,307040,307511,306911,Flanker Task ,110,58612,113,yes,1024
97.36842105,97.36842105,517.377193,517.377193,black,xpyriment,legacy,legacy,0,Congruent,uniform,1,undefined,1,s,0,0,0,113,113,0,113,113,0,0,0,113,0,113,113,113,9/17/19 13:03,600,The main experiment item,yes,FlankerTask.osexp,C:/Users/hosan/Desktop,no,mono,no,18,no,white,no,yes,768,legacy,33,79,C:/Users/hosan/Desktop/Tb_subject-0.csv,xpyriment,Kafkaesque Koffka,3.2.8,0,s,NA,s,s,NA,s,369,NA,2884,13541,NA,369,2,legacy,1024,2,48000,-16,experiment,SSSSS,0,even,5648,222392,NA,239621,272619,NA,309366,307546,2763,208850,NA,309471,2739,309471,309842,309342,Flanker Task ,111,58981,114,yes,1024
97.39130435,97.39130435,515.626087,515.626087,black,xpyriment,legacy,legacy,0,Congruent,uniform,1,undefined,1,s,0,0,0,114,114,0,114,114,0,0,0,114,0,114,114,114,9/17/19 13:03,600,The main experiment item,yes,FlankerTask.osexp,C:/Users/hosan/Desktop,no,mono,no,18,no,white,no,yes,768,legacy,34,79,C:/Users/hosan/Desktop/Tb_subject-0.csv,xpyriment,Kafkaesque Koffka,3.2.8,0,s,NA,s,s,NA,s,316,NA,2884,13541,NA,316,2,legacy,1024,2,48000,-16,experiment,SSSSS,0,even,5648,222392,NA,239621,272619,NA,311774,309904,2763,208850,NA,311880,2739,311880,312197,311751,Flanker Task ,112,59297,115,yes,1024
97.4137931,97.4137931,514.6465517,514.6465517,black,xpyriment,legacy,legacy,0,Incongruent,uniform,1,undefined,1,s,0,0,0,115,115,0,115,115,0,0,0,115,0,115,115,115,9/17/19 13:03,600,The main experiment item,yes,FlankerTask.osexp,C:/Users/hosan/Desktop,no,mono,no,18,no,white,no,yes,768,legacy,35,79,C:/Users/hosan/Desktop/Tb_subject-0.csv,xpyriment,Kafkaesque Koffka,3.2.8,0,s,NA,s,s,NA,s,402,NA,2884,13541,NA,402,2,legacy,1024,2,48000,-16,experiment,HHSHH,0,even,5648,222392,NA,239621,272619,NA,314059,312229,2763,208850,NA,314165,2739,314165,314569,314036,Flanker Task ,113,59699,116,yes,1024
97.43589744,97.43589744,512.965812,512.965812,black,xpyriment,legacy,legacy,0,Congruent,uniform,1,undefined,1,s,0,0,0,116,116,0,116,116,0,0,0,116,0,116,116,116,9/17/19 13:03,600,The main experiment item,yes,FlankerTask.osexp,C:/Users/hosan/Desktop,no,mono,no,18,no,white,no,yes,768,legacy,36,79,C:/Users/hosan/Desktop/Tb_subject-0.csv,xpyriment,Kafkaesque Koffka,3.2.8,0,s,NA,s,s,NA,s,318,NA,2884,13541,NA,318,2,legacy,1024,2,48000,-16,experiment,SSSSS,0,even,5648,222392,NA,239621,272619,NA,316502,314645,2763,208850,NA,316608,2739,316608,316928,316478,Flanker Task ,114,60017,117,yes,1024
97.45762712,97.45762712,512.9152542,512.9152542,black,xpyriment,legacy,legacy,0,Congruent,uniform,1,undefined,1,h,0,0,0,117,117,0,117,117,0,0,0,117,0,117,117,117,9/17/19 13:03,600,The main experiment item,yes,FlankerTask.osexp,C:/Users/hosan/Desktop,no,mono,no,18,no,white,no,yes,768,legacy,37,79,C:/Users/hosan/Desktop/Tb_subject-0.csv,xpyriment,Kafkaesque Koffka,3.2.8,0,h,NA,s,s,NA,h,507,NA,2884,13541,NA,507,2,legacy,1024,2,48000,-16,experiment,HHHHH,0,even,5648,222392,NA,239621,272619,NA,318850,317001,2763,208850,NA,318955,2739,318955,319464,318827,Flanker Task ,115,60524,118,yes,1024
97.4789916,97.4789916,512.092437,512.092437,black,xpyriment,legacy,legacy,0,Incongruent,uniform,1,undefined,1,h,0,0,0,118,118,0,118,118,0,0,0,118,0,118,118,118,9/17/19 13:03,600,The main experiment item,yes,FlankerTask.osexp,C:/Users/hosan/Desktop,no,mono,no,18,no,white,no,yes,768,legacy,38,79,C:/Users/hosan/Desktop/Tb_subject-0.csv,xpyriment,Kafkaesque Koffka,3.2.8,0,h,NA,s,s,NA,h,415,NA,2884,13541,NA,415,2,legacy,1024,2,48000,-16,experiment,SSHSS,0,even,5648,222392,NA,239621,272619,NA,321401,319547,2763,208850,NA,321506,2739,321506,321923,321375,Flanker Task ,116,60939,119,yes,1024
97.5,97.5,511.625,511.625,black,xpyriment,legacy,legacy,0,Congruent,uniform,1,undefined,1,s,0,0,0,119,119,0,119,119,0,0,0,119,0,119,119,119,9/17/19 13:03,600,The main experiment item,yes,FlankerTask.osexp,C:/Users/hosan/Desktop,no,mono,no,18,no,white,no,yes,768,legacy,39,79,C:/Users/hosan/Desktop/Tb_subject-0.csv,xpyriment,Kafkaesque Koffka,3.2.8,0,s,NA,s,s,NA,s,456,NA,2884,13541,NA,456,2,legacy,1024,2,48000,-16,experiment,SSSSS,0,even,5648,222392,NA,239621,272619,NA,323863,321990,2763,208850,NA,323968,2739,323968,324425,323839,Flanker Task ,117,61395,120,yes,1024
97.52066116,97.52066116,511.3471074,511.3471074,black,xpyriment,legacy,legacy,0,Incongruent,uniform,1,undefined,1,s,0,0,0,120,120,0,120,120,0,0,0,120,0,120,120,120,9/17/19 13:03,600,The main experiment item,yes,FlankerTask.osexp,C:/Users/hosan/Desktop,no,mono,no,18,no,white,no,yes,768,legacy,40,79,C:/Users/hosan/Desktop/Tb_subject-0.csv,xpyriment,Kafkaesque Koffka,3.2.8,0,s,NA,s,s,NA,s,478,NA,2884,13541,NA,478,2,legacy,1024,2,48000,-16,experiment,HHSHH,0,even,5648,222392,NA,239621,272619,NA,326386,324495,2763,208850,NA,326492,2739,326492,326972,326363,Flanker Task ,118,61873,121,yes,1024
96.72131148,96.72131148,510.4508197,510.4508197,black,xpyriment,legacy,legacy,0,Incongruent,uniform,0,undefined,0,s,0,0,0,121,121,0,121,121,0,0,0,121,0,121,121,121,9/17/19 13:03,600,The main experiment item,yes,FlankerTask.osexp,C:/Users/hosan/Desktop,no,mono,no,18,no,white,no,yes,768,legacy,41,79,C:/Users/hosan/Desktop/Tb_subject-0.csv,xpyriment,Kafkaesque Koffka,3.2.8,0,h,NA,s,s,NA,h,402,NA,2884,13541,NA,402,2,legacy,1024,2,48000,-16,experiment,HHSHH,0,even,5648,222392,NA,239621,272619,NA,328898,327041,2763,208850,NA,329003,2739,329003,329407,328875,Flanker Task ,118,62275,122,yes,1024
96.74796748,96.74796748,510.5447154,510.5447154,black,xpyriment,legacy,legacy,0,Incongruent,uniform,1,undefined,1,s,0,0,0,122,122,0,122,122,0,0,0,122,0,122,122,122,9/17/19 13:03,600,The main experiment item,yes,FlankerTask.osexp,C:/Users/hosan/Desktop,no,mono,no,18,no,white,no,yes,768,legacy,42,79,C:/Users/hosan/Desktop/Tb_subject-0.csv,xpyriment,Kafkaesque Koffka,3.2.8,0,s,NA,s,s,NA,s,522,NA,2884,13541,NA,522,2,legacy,1024,2,48000,-16,experiment,HHSHH,0,even,5648,222392,NA,329488,272619,NA,331849,329994,2763,208850,NA,331955,2739,331955,332479,331826,Flanker Task ,119,62797,123,yes,1024
96.77419355,96.77419355,509.4758065,509.4758065,black,xpyriment,legacy,legacy,0,Congruent,uniform,1,undefined,1,s,0,0,0,123,123,0,123,123,0,0,0,123,0,123,123,123,9/17/19 13:03,600,The main experiment item,yes,FlankerTask.osexp,C:/Users/hosan/Desktop,no,mono,no,18,no,white,no,yes,768,legacy,43,79,C:/Users/hosan/Desktop/Tb_subject-0.csv,xpyriment,Kafkaesque Koffka,3.2.8,0,s,NA,s,s,NA,s,378,NA,2884,13541,NA,378,2,legacy,1024,2,48000,-16,experiment,SSSSS,0,even,5648,222392,NA,329488,272619,NA,334462,332550,2763,208850,NA,334568,2739,334568,334947,334439,Flanker Task ,120,63175,124,yes,1024
96.8,96.8,508.272,508.272,black,xpyriment,legacy,legacy,0,Congruent,uniform,1,undefined,1,s,0,0,0,124,124,0,124,124,0,0,0,124,0,124,124,124,9/17/19 13:03,600,The main experiment item,yes,FlankerTask.osexp,C:/Users/hosan/Desktop,no,mono,no,18,no,white,no,yes,768,legacy,44,79,C:/Users/hosan/Desktop/Tb_subject-0.csv,xpyriment,Kafkaesque Koffka,3.2.8,0,s,NA,s,s,NA,s,359,NA,2884,13541,NA,359,2,legacy,1024,2,48000,-16,experiment,SSSSS,0,even,5648,222392,NA,329488,272619,NA,336850,335034,2763,208850,NA,336955,2739,336955,337315,336826,Flanker Task ,121,63534,125,yes,1024
96.82539683,96.82539683,506.8730159,506.8730159,black,xpyriment,legacy,legacy,0,Incongruent,uniform,1,undefined,1,s,0,0,0,125,125,0,125,125,0,0,0,125,0,125,125,125,9/17/19 13:03,600,The main experiment item,yes,FlankerTask.osexp,C:/Users/hosan/Desktop,no,mono,no,18,no,white,no,yes,768,legacy,45,79,C:/Users/hosan/Desktop/Tb_subject-0.csv,xpyriment,Kafkaesque Koffka,3.2.8,0,s,NA,s,s,NA,s,332,NA,2884,13541,NA,332,2,legacy,1024,2,48000,-16,experiment,HHSHH,0,even,5648,222392,NA,329488,272619,NA,339226,337403,2763,208850,NA,339333,2739,339333,339666,339203,Flanker Task ,122,63866,126,yes,1024
96.8503937,96.8503937,505.5433071,505.5433071,black,xpyriment,legacy,legacy,0,Congruent,uniform,1,undefined,1,s,0,0,0,126,126,0,126,126,0,0,0,126,0,126,126,126,9/17/19 13:03,600,The main experiment item,yes,FlankerTask.osexp,C:/Users/hosan/Desktop,no,mono,no,18,no,white,no,yes,768,legacy,46,79,C:/Users/hosan/Desktop/Tb_subject-0.csv,xpyriment,Kafkaesque Koffka,3.2.8,0,s,NA,s,s,NA,s,338,NA,2884,13541,NA,338,2,legacy,1024,2,48000,-16,experiment,SSSSS,0,even,5648,222392,NA,329488,272619,NA,341566,339740,2763,208850,NA,341671,2739,341671,342011,341542,Flanker Task ,123,64204,127,yes,1024
96.875,96.875,504.3046875,504.3046875,black,xpyriment,legacy,legacy,0,Incongruent,uniform,1,undefined,1,s,0,0,0,127,127,0,127,127,0,0,0,127,0,127,127,127,9/17/19 13:03,600,The main experiment item,yes,FlankerTask.osexp,C:/Users/hosan/Desktop,no,mono,no,18,no,white,no,yes,768,legacy,47,79,C:/Users/hosan/Desktop/Tb_subject-0.csv,xpyriment,Kafkaesque Koffka,3.2.8,0,s,NA,s,s,NA,s,347,NA,2884,13541,NA,347,2,legacy,1024,2,48000,-16,experiment,HHSHH,0,even,5648,222392,NA,329488,272619,NA,343936,342082,2763,208850,NA,344041,2739,344041,344389,343913,Flanker Task ,124,64551,128,yes,1024
96.89922481,96.89922481,504.9689922,504.9689922,black,xpyriment,legacy,legacy,0,Congruent,uniform,1,undefined,1,h,0,0,0,128,128,0,128,128,0,0,0,128,0,128,128,128,9/17/19 13:03,600,The main experiment item,yes,FlankerTask.osexp,C:/Users/hosan/Desktop,no,mono,no,18,no,white,no,yes,768,legacy,48,79,C:/Users/hosan/Desktop/Tb_subject-0.csv,xpyriment,Kafkaesque Koffka,3.2.8,0,h,NA,s,s,NA,h,590,NA,2884,13541,NA,590,2,legacy,1024,2,48000,-16,experiment,HHHHH,0,even,5648,222392,NA,329488,272619,NA,346313,344465,2763,208850,NA,346419,2739,346420,347012,346289,Flanker Task ,125,65141,129,yes,1024
96.92307692,96.92307692,505.1230769,505.1230769,black,xpyriment,legacy,legacy,0,Congruent,uniform,1,undefined,1,s,0,0,0,129,129,0,129,129,0,0,0,129,0,129,129,129,9/17/19 13:03,600,The main experiment item,yes,FlankerTask.osexp,C:/Users/hosan/Desktop,no,mono,no,18,no,white,no,yes,768,legacy,49,79,C:/Users/hosan/Desktop/Tb_subject-0.csv,xpyriment,Kafkaesque Koffka,3.2.8,0,s,NA,s,s,NA,s,525,NA,2884,13541,NA,525,2,legacy,1024,2,48000,-16,experiment,SSSSS,0,even,5648,222392,NA,329488,272619,NA,348926,347089,2763,208850,NA,349033,2739,349033,349560,348902,Flanker Task ,126,65666,130,yes,1024
96.94656489,96.94656489,506.4122137,506.4122137,black,xpyriment,legacy,legacy,0,Congruent,uniform,1,undefined,1,h,0,0,0,130,130,0,130,130,0,0,0,130,0,130,130,130,9/17/19 13:03,600,The main experiment item,yes,FlankerTask.osexp,C:/Users/hosan/Desktop,no,mono,no,18,no,white,no,yes,768,legacy,50,79,C:/Users/hosan/Desktop/Tb_subject-0.csv,xpyriment,Kafkaesque Koffka,3.2.8,0,h,NA,s,s,NA,h,674,NA,2884,13541,NA,674,2,legacy,1024,2,48000,-16,experiment,HHHHH,0,even,5648,222392,NA,329488,272619,NA,351455,349635,2763,208850,NA,351560,2739,351560,352236,351432,Flanker Task ,127,66340,131,yes,1024
96.96969697,96.96969697,507.1212121,507.1212121,black,xpyriment,legacy,legacy,0,Congruent,uniform,1,undefined,1,h,0,0,0,131,131,0,131,131,0,0,0,131,0,131,131,131,9/17/19 13:03,600,The main experiment item,yes,FlankerTask.osexp,C:/Users/hosan/Desktop,no,mono,no,18,no,white,no,yes,768,legacy,51,79,C:/Users/hosan/Desktop/Tb_subject-0.csv,xpyriment,Kafkaesque Koffka,3.2.8,0,h,NA,s,s,NA,h,600,NA,2884,13541,NA,600,2,legacy,1024,2,48000,-16,experiment,HHHHH,0,even,5648,222392,NA,329488,352313,NA,354661,352820,2763,208850,NA,354769,2739,354769,355371,354637,Flanker Task ,128,66940,132,yes,1024
96.2406015,96.2406015,506.593985,506.593985,black,xpyriment,legacy,legacy,0,Incongruent,uniform,0,undefined,0,h,0,0,0,132,132,0,132,132,0,0,0,132,0,132,132,132,9/17/19 13:03,600,The main experiment item,yes,FlankerTask.osexp,C:/Users/hosan/Desktop,no,mono,no,18,no,white,no,yes,768,legacy,52,79,C:/Users/hosan/Desktop/Tb_subject-0.csv,xpyriment,Kafkaesque Koffka,3.2.8,0,s,NA,s,s,NA,s,437,NA,2884,13541,NA,437,2,legacy,1024,2,48000,-16,experiment,SSHSS,0,even,5648,222392,NA,329488,352313,NA,357262,355436,2763,208850,NA,357368,2739,357368,357806,357239,Flanker Task ,128,67377,133,yes,1024
96.26865672,96.26865672,505.4925373,505.4925373,black,xpyriment,legacy,legacy,0,Congruent,uniform,1,undefined,1,h,0,0,0,133,133,0,133,133,0,0,0,133,0,133,133,133,9/17/19 13:03,600,The main experiment item,yes,FlankerTask.osexp,C:/Users/hosan/Desktop,no,mono,no,18,no,white,no,yes,768,legacy,53,79,C:/Users/hosan/Desktop/Tb_subject-0.csv,xpyriment,Kafkaesque Koffka,3.2.8,0,h,NA,s,s,NA,h,359,NA,2884,13541,NA,359,2,legacy,1024,2,48000,-16,experiment,HHHHH,0,even,5648,222392,NA,357845,352313,NA,360195,358350,2763,208850,NA,360301,2739,360301,360661,360172,Flanker Task ,129,67736,134,yes,1024
96.2962963,96.2962963,505.562963,505.562963,black,xpyriment,legacy,legacy,0,Congruent,uniform,1,undefined,1,h,0,0,0,134,134,0,134,134,0,0,0,134,0,134,134,134,9/17/19 13:03,600,The main experiment item,yes,FlankerTask.osexp,C:/Users/hosan/Desktop,no,mono,no,18,no,white,no,yes,768,legacy,54,79,C:/Users/hosan/Desktop/Tb_subject-0.csv,xpyriment,Kafkaesque Koffka,3.2.8,0,h,NA,s,s,NA,h,515,NA,2884,13541,NA,515,2,legacy,1024,2,48000,-16,experiment,HHHHH,0,even,5648,222392,NA,357845,352313,NA,362550,360740,2763,208850,NA,362655,2739,362655,363172,362527,Flanker Task ,130,68251,135,yes,1024
96.32352941,96.32352941,505.3970588,505.3970588,black,xpyriment,legacy,legacy,0,Incongruent,uniform,1,undefined,1,s,0,0,0,135,135,0,135,135,0,0,0,135,0,135,135,135,9/17/19 13:03,600,The main experiment item,yes,FlankerTask.osexp,C:/Users/hosan/Desktop,no,mono,no,18,no,white,no,yes,768,legacy,55,79,C:/Users/hosan/Desktop/Tb_subject-0.csv,xpyriment,Kafkaesque Koffka,3.2.8,0,s,NA,s,s,NA,s,483,NA,2884,13541,NA,483,2,legacy,1024,2,48000,-16,experiment,HHSHH,0,even,5648,222392,NA,357845,352313,NA,365056,363247,2763,208850,NA,365163,2739,365164,365649,365033,Flanker Task ,131,68734,136,yes,1024
96.35036496,96.35036496,505.5109489,505.5109489,black,xpyriment,legacy,legacy,0,Congruent,uniform,1,undefined,1,h,0,0,0,136,136,0,136,136,0,0,0,136,0,136,136,136,9/17/19 13:03,600,The main experiment item,yes,FlankerTask.osexp,C:/Users/hosan/Desktop,no,mono,no,18,no,white,no,yes,768,legacy,56,79,C:/Users/hosan/Desktop/Tb_subject-0.csv,xpyriment,Kafkaesque Koffka,3.2.8,0,h,NA,s,s,NA,h,521,NA,2884,13541,NA,521,2,legacy,1024,2,48000,-16,experiment,HHHHH,0,even,5648,222392,NA,357845,352313,NA,367545,365733,2763,208850,NA,367652,2739,367652,368175,367523,Flanker Task ,132,69255,137,yes,1024
96.37681159,96.37681159,504.9202899,504.9202899,black,xpyriment,legacy,legacy,0,Congruent,uniform,1,undefined,1,h,0,0,0,137,137,0,137,137,0,0,0,137,0,137,137,137,9/17/19 13:03,600,The main experiment item,yes,FlankerTask.osexp,C:/Users/hosan/Desktop,no,mono,no,18,no,white,no,yes,768,legacy,57,79,C:/Users/hosan/Desktop/Tb_subject-0.csv,xpyriment,Kafkaesque Koffka,3.2.8,0,h,NA,s,s,NA,h,424,NA,2884,13541,NA,424,2,legacy,1024,2,48000,-16,experiment,HHHHH,0,even,5648,222392,NA,357845,352313,NA,370072,368246,2763,208850,NA,370178,2739,370179,370605,370049,Flanker Task ,133,69679,138,yes,1024
96.4028777,96.4028777,504.8489209,504.8489209,black,xpyriment,legacy,legacy,0,Incongruent,uniform,1,undefined,1,h,0,0,0,138,138,0,138,138,0,0,0,138,0,138,138,138,9/17/19 13:03,600,The main experiment item,yes,FlankerTask.osexp,C:/Users/hosan/Desktop,no,mono,no,18,no,white,no,yes,768,legacy,58,79,C:/Users/hosan/Desktop/Tb_subject-0.csv,xpyriment,Kafkaesque Koffka,3.2.8,0,h,NA,s,s,NA,h,495,NA,2884,13541,NA,495,2,legacy,1024,2,48000,-16,experiment,SSHSS,0,even,5648,222392,NA,357845,352313,NA,372480,370668,2763,208850,NA,372586,2739,372586,373083,372457,Flanker Task ,134,70174,139,yes,1024
96.42857143,96.42857143,504.7785714,504.7785714,black,xpyriment,legacy,legacy,0,Congruent,uniform,1,undefined,1,h,0,0,0,139,139,0,139,139,0,0,0,139,0,139,139,139,9/17/19 13:03,600,The main experiment item,yes,FlankerTask.osexp,C:/Users/hosan/Desktop,no,mono,no,18,no,white,no,yes,768,legacy,59,79,C:/Users/hosan/Desktop/Tb_subject-0.csv,xpyriment,Kafkaesque Koffka,3.2.8,0,h,NA,s,s,NA,h,495,NA,2884,13541,NA,495,2,legacy,1024,2,48000,-16,experiment,HHHHH,0,even,5648,222392,NA,357845,352313,NA,374975,373148,2763,208850,NA,375082,2739,375082,375579,374953,Flanker Task ,135,70669,140,yes,1024
96.45390071,96.45390071,506.1631206,506.1631206,black,xpyriment,legacy,legacy,0,Congruent,uniform,1,undefined,1,s,0,0,0,140,140,0,140,140,0,0,0,140,0,140,140,140,9/17/19 13:03,600,The main experiment item,yes,FlankerTask.osexp,C:/Users/hosan/Desktop,no,mono,no,18,no,white,no,yes,768,legacy,60,79,C:/Users/hosan/Desktop/Tb_subject-0.csv,xpyriment,Kafkaesque Koffka,3.2.8,0,s,NA,s,s,NA,s,700,NA,2884,13541,NA,700,2,legacy,1024,2,48000,-16,experiment,SSSSS,0,even,5648,222392,NA,357845,352313,NA,377473,375652,2763,208850,NA,377579,2739,377580,378281,377450,Flanker Task ,136,71369,141,yes,1024
96.47887324,96.47887324,506.8098592,506.8098592,black,xpyriment,legacy,legacy,0,Congruent,uniform,1,undefined,1,s,0,0,0,141,141,0,141,141,0,0,0,141,0,141,141,141,9/17/19 13:03,600,The main experiment item,yes,FlankerTask.osexp,C:/Users/hosan/Desktop,no,mono,no,18,no,white,no,yes,768,legacy,61,79,C:/Users/hosan/Desktop/Tb_subject-0.csv,xpyriment,Kafkaesque Koffka,3.2.8,0,s,NA,s,s,NA,s,598,NA,2884,13541,NA,598,2,legacy,1024,2,48000,-16,experiment,SSSSS,0,even,5648,222392,NA,357845,378363,NA,380695,378869,2763,208850,NA,380800,2739,380801,381401,380672,Flanker Task ,137,71967,142,yes,1024
96.5034965,96.5034965,506.8111888,506.8111888,black,xpyriment,legacy,legacy,0,Incongruent,uniform,1,undefined,1,h,0,0,0,142,142,0,142,142,0,0,0,142,0,142,142,142,9/17/19 13:03,600,The main experiment item,yes,FlankerTask.osexp,C:/Users/hosan/Desktop,no,mono,no,18,no,white,no,yes,768,legacy,62,79,C:/Users/hosan/Desktop/Tb_subject-0.csv,xpyriment,Kafkaesque Koffka,3.2.8,0,h,NA,s,s,NA,h,507,NA,2884,13541,NA,507,2,legacy,1024,2,48000,-16,experiment,SSHSS,0,even,5648,222392,NA,357845,378363,NA,383302,381485,2763,208850,NA,383409,2739,383409,383918,383280,Flanker Task ,138,72474,143,yes,1024
96.52777778,96.52777778,507.5138889,507.5138889,black,xpyriment,legacy,legacy,0,Incongruent,uniform,1,undefined,1,s,0,0,0,143,143,0,143,143,0,0,0,143,0,143,143,143,9/17/19 13:03,600,The main experiment item,yes,FlankerTask.osexp,C:/Users/hosan/Desktop,no,mono,no,18,no,white,no,yes,768,legacy,63,79,C:/Users/hosan/Desktop/Tb_subject-0.csv,xpyriment,Kafkaesque Koffka,3.2.8,0,s,NA,s,s,NA,s,608,NA,2884,13541,NA,608,2,legacy,1024,2,48000,-16,experiment,HHSHH,0,even,5648,222392,NA,357845,378363,NA,385830,383999,2763,208850,NA,385936,2739,385936,386546,385807,Flanker Task ,139,73082,144,yes,1024
96.55172414,96.55172414,507.4,507.4,black,xpyriment,legacy,legacy,0,Incongruent,uniform,1,undefined,1,h,0,0,0,144,144,0,144,144,0,0,0,144,0,144,144,144,9/17/19 13:03,600,The main experiment item,yes,FlankerTask.osexp,C:/Users/hosan/Desktop,no,mono,no,18,no,white,no,yes,768,legacy,64,79,C:/Users/hosan/Desktop/Tb_subject-0.csv,xpyriment,Kafkaesque Koffka,3.2.8,0,h,NA,s,s,NA,h,491,NA,2884,13541,NA,491,2,legacy,1024,2,48000,-16,experiment,SSHSS,0,even,5648,222392,NA,357845,386621,NA,388935,387127,2763,208850,NA,389041,2739,389041,389534,388913,Flanker Task ,140,73573,145,yes,1024
96.57534247,96.57534247,506.8287671,506.8287671,black,xpyriment,legacy,legacy,0,Congruent,uniform,1,undefined,1,h,0,0,0,145,145,0,145,145,0,0,0,145,0,145,145,145,9/17/19 13:03,600,The main experiment item,yes,FlankerTask.osexp,C:/Users/hosan/Desktop,no,mono,no,18,no,white,no,yes,768,legacy,65,79,C:/Users/hosan/Desktop/Tb_subject-0.csv,xpyriment,Kafkaesque Koffka,3.2.8,0,h,NA,s,s,NA,h,424,NA,2884,13541,NA,424,2,legacy,1024,2,48000,-16,experiment,HHHHH,0,even,5648,222392,NA,357845,386621,NA,391409,389604,2763,208850,NA,391516,2739,391517,391943,391386,Flanker Task ,141,73997,146,yes,1024
96.59863946,96.59863946,507.2857143,507.2857143,black,xpyriment,legacy,legacy,0,Incongruent,uniform,1,undefined,1,h,0,0,0,146,146,0,146,146,0,0,0,146,0,146,146,146,9/17/19 13:03,600,The main experiment item,yes,FlankerTask.osexp,C:/Users/hosan/Desktop,no,mono,no,18,no,white,no,yes,768,legacy,66,79,C:/Users/hosan/Desktop/Tb_subject-0.csv,xpyriment,Kafkaesque Koffka,3.2.8,0,h,NA,s,s,NA,h,574,NA,2884,13541,NA,574,2,legacy,1024,2,48000,-16,experiment,SSHSS,0,even,5648,222392,NA,357845,386621,NA,393832,392024,2763,208850,NA,393939,2739,393939,394515,393810,Flanker Task ,142,74571,147,yes,1024
96.62162162,96.62162162,506.8986486,506.8986486,black,xpyriment,legacy,legacy,0,Incongruent,uniform,1,undefined,1,s,0,0,0,147,147,0,147,147,0,0,0,147,0,147,147,147,9/17/19 13:03,600,The main experiment item,yes,FlankerTask.osexp,C:/Users/hosan/Desktop,no,mono,no,18,no,white,no,yes,768,legacy,67,79,C:/Users/hosan/Desktop/Tb_subject-0.csv,xpyriment,Kafkaesque Koffka,3.2.8,0,s,NA,s,s,NA,s,450,NA,2884,13541,NA,450,2,legacy,1024,2,48000,-16,experiment,HHSHH,0,even,5648,222392,NA,357845,386621,NA,396396,394577,2763,208850,NA,396503,2739,396503,396955,396373,Flanker Task ,143,75021,148,yes,1024
96.6442953,96.6442953,506.1409396,506.1409396,black,xpyriment,legacy,legacy,0,Congruent,uniform,1,undefined,1,s,0,0,0,148,148,0,148,148,0,0,0,148,0,148,148,148,9/17/19 13:03,600,The main experiment item,yes,FlankerTask.osexp,C:/Users/hosan/Desktop,no,mono,no,18,no,white,no,yes,768,legacy,68,79,C:/Users/hosan/Desktop/Tb_subject-0.csv,xpyriment,Kafkaesque Koffka,3.2.8,0,s,NA,s,s,NA,s,394,NA,2884,13541,NA,394,2,legacy,1024,2,48000,-16,experiment,SSSSS,0,even,5648,222392,NA,357845,386621,NA,398936,397033,2763,208850,NA,399043,2739,399043,399439,398914,Flanker Task ,144,75415,149,yes,1024
96.66666667,96.66666667,505.38,505.38,black,xpyriment,legacy,legacy,0,Congruent,uniform,1,undefined,1,s,0,0,0,149,149,0,149,149,0,0,0,149,0,149,149,149,9/17/19 13:03,600,The main experiment item,yes,FlankerTask.osexp,C:/Users/hosan/Desktop,no,mono,no,18,no,white,no,yes,768,legacy,69,79,C:/Users/hosan/Desktop/Tb_subject-0.csv,xpyriment,Kafkaesque Koffka,3.2.8,0,s,NA,s,s,NA,s,392,NA,2884,13541,NA,392,2,legacy,1024,2,48000,-16,experiment,SSSSS,0,even,5648,222392,NA,357845,386621,NA,401350,399507,2763,208850,NA,401457,2739,401457,401851,401327,Flanker Task ,145,75807,150,yes,1024
96.68874172,96.68874172,505.1192053,505.1192053,black,xpyriment,legacy,legacy,0,Incongruent,uniform,1,undefined,1,h,0,0,0,150,150,0,150,150,0,0,0,150,0,150,150,150,9/17/19 13:03,600,The main experiment item,yes,FlankerTask.osexp,C:/Users/hosan/Desktop,no,mono,no,18,no,white,no,yes,768,legacy,70,79,C:/Users/hosan/Desktop/Tb_subject-0.csv,xpyriment,Kafkaesque Koffka,3.2.8,0,h,NA,s,s,NA,h,466,NA,2884,13541,NA,466,2,legacy,1024,2,48000,-16,experiment,SSHSS,0,even,5648,222392,NA,357845,386621,NA,403700,401886,2763,208850,NA,403807,2739,403807,404275,403678,Flanker Task ,146,76273,151,yes,1024
96.71052632,96.71052632,504.7368421,504.7368421,black,xpyriment,legacy,legacy,0,Incongruent,uniform,1,undefined,1,h,0,0,0,151,151,0,151,151,0,0,0,151,0,151,151,151,9/17/19 13:03,600,The main experiment item,yes,FlankerTask.osexp,C:/Users/hosan/Desktop,no,mono,no,18,no,white,no,yes,768,legacy,71,79,C:/Users/hosan/Desktop/Tb_subject-0.csv,xpyriment,Kafkaesque Koffka,3.2.8,0,h,NA,s,s,NA,h,447,NA,2884,13541,NA,447,2,legacy,1024,2,48000,-16,experiment,SSHSS,0,even,5648,222392,NA,357845,386621,NA,406189,404374,2763,208850,NA,406296,2739,406296,406745,406166,Flanker Task ,147,76720,152,yes,1024
96.73202614,96.73202614,503.9346405,503.9346405,black,xpyriment,legacy,legacy,0,Congruent,uniform,1,undefined,1,s,0,0,0,152,152,0,152,152,0,0,0,152,0,152,152,152,9/17/19 13:03,600,The main experiment item,yes,FlankerTask.osexp,C:/Users/hosan/Desktop,no,mono,no,18,no,white,no,yes,768,legacy,72,79,C:/Users/hosan/Desktop/Tb_subject-0.csv,xpyriment,Kafkaesque Koffka,3.2.8,0,s,NA,s,s,NA,s,382,NA,2884,13541,NA,382,2,legacy,1024,2,48000,-16,experiment,SSSSS,0,even,5648,222392,NA,357845,386621,NA,408635,406824,2763,208850,NA,408740,2739,408740,409124,408612,Flanker Task ,148,77102,153,yes,1024
96.75324675,96.75324675,503.8636364,503.8636364,black,xpyriment,legacy,legacy,0,Incongruent,uniform,1,undefined,1,h,0,0,0,153,153,0,153,153,0,0,0,153,0,153,153,153,9/17/19 13:03,600,The main experiment item,yes,FlankerTask.osexp,C:/Users/hosan/Desktop,no,mono,no,18,no,white,no,yes,768,legacy,73,79,C:/Users/hosan/Desktop/Tb_subject-0.csv,xpyriment,Kafkaesque Koffka,3.2.8,0,h,NA,s,s,NA,h,493,NA,2884,13541,NA,493,2,legacy,1024,2,48000,-16,experiment,SSHSS,0,even,5648,222392,NA,357845,386621,NA,411019,409193,2763,208850,NA,411124,2739,411124,411620,410996,Flanker Task ,149,77595,154,yes,1024
96.77419355,96.77419355,502.916129,502.916129,black,xpyriment,legacy,legacy,0,Congruent,uniform,1,undefined,1,s,0,0,0,154,154,0,154,154,0,0,0,154,0,154,154,154,9/17/19 13:03,600,The main experiment item,yes,FlankerTask.osexp,C:/Users/hosan/Desktop,no,mono,no,18,no,white,no,yes,768,legacy,74,79,C:/Users/hosan/Desktop/Tb_subject-0.csv,xpyriment,Kafkaesque Koffka,3.2.8,0,s,NA,s,s,NA,s,357,NA,2884,13541,NA,357,2,legacy,1024,2,48000,-16,experiment,SSSSS,0,even,5648,222392,NA,357845,386621,NA,413553,411683,2763,208850,NA,413659,2739,413659,414017,413530,Flanker Task ,150,77952,155,yes,1024
96.79487179,96.79487179,502.1346154,502.1346154,black,xpyriment,legacy,legacy,0,Incongruent,uniform,1,undefined,1,s,0,0,0,155,155,0,155,155,0,0,0,155,0,155,155,155,9/17/19 13:03,600,The main experiment item,yes,FlankerTask.osexp,C:/Users/hosan/Desktop,no,mono,no,18,no,white,no,yes,768,legacy,75,79,C:/Users/hosan/Desktop/Tb_subject-0.csv,xpyriment,Kafkaesque Koffka,3.2.8,0,s,NA,s,s,NA,s,381,NA,2884,13541,NA,381,2,legacy,1024,2,48000,-16,experiment,HHSHH,0,even,5648,222392,NA,357845,386621,NA,415926,414097,2763,208850,NA,416033,2739,416033,416416,415903,Flanker Task ,151,78333,156,yes,1024
96.81528662,96.81528662,502.1210191,502.1210191,black,xpyriment,legacy,legacy,0,Incongruent,uniform,1,undefined,1,h,0,0,0,156,156,0,156,156,0,0,0,156,0,156,156,156,9/17/19 13:03,600,The main experiment item,yes,FlankerTask.osexp,C:/Users/hosan/Desktop,no,mono,no,18,no,white,no,yes,768,legacy,76,79,C:/Users/hosan/Desktop/Tb_subject-0.csv,xpyriment,Kafkaesque Koffka,3.2.8,0,h,NA,s,s,NA,h,500,NA,2884,13541,NA,500,2,legacy,1024,2,48000,-16,experiment,SSHSS,0,even,5648,222392,NA,357845,386621,NA,418332,416488,2763,208850,NA,418436,2739,418437,418939,418309,Flanker Task ,152,78833,157,yes,1024
96.83544304,96.83544304,501.7025316,501.7025316,black,xpyriment,legacy,legacy,0,Incongruent,uniform,1,undefined,1,s,0,0,0,157,157,0,157,157,0,0,0,157,0,157,157,157,9/17/19 13:03,600,The main experiment item,yes,FlankerTask.osexp,C:/Users/hosan/Desktop,no,mono,no,18,no,white,no,yes,768,legacy,77,79,C:/Users/hosan/Desktop/Tb_subject-0.csv,xpyriment,Kafkaesque Koffka,3.2.8,0,s,NA,s,s,NA,s,436,NA,2884,13541,NA,436,2,legacy,1024,2,48000,-16,experiment,HHSHH,0,even,5648,222392,NA,357845,386621,NA,420809,418973,2763,208850,NA,420915,2739,420915,421353,420786,Flanker Task ,153,79269,158,yes,1024
96.85534591,96.85534591,500.8238994,500.8238994,black,xpyriment,legacy,legacy,0,Incongruent,uniform,1,undefined,1,s,0,0,0,158,158,0,158,158,0,0,0,158,0,158,158,158,9/17/19 13:03,600,The main experiment item,yes,FlankerTask.osexp,C:/Users/hosan/Desktop,no,mono,no,18,no,white,no,yes,768,legacy,78,79,C:/Users/hosan/Desktop/Tb_subject-0.csv,xpyriment,Kafkaesque Koffka,3.2.8,0,s,NA,s,s,NA,s,362,NA,2884,13541,NA,362,2,legacy,1024,2,48000,-16,experiment,HHSHH,0,even,5648,222392,NA,357845,386621,NA,423217,421388,2763,208850,NA,423323,2739,423323,423687,423194,Flanker Task ,154,79631,159,yes,1024
96.875,96.875,500.6375,500.6375,black,xpyriment,legacy,legacy,0,Congruent,uniform,1,undefined,1,h,0,0,0,159,159,0,159,159,0,0,0,159,0,159,159,159,9/17/19 13:03,600,The main experiment item,yes,FlankerTask.osexp,C:/Users/hosan/Desktop,no,mono,no,18,no,white,no,yes,768,legacy,79,79,C:/Users/hosan/Desktop/Tb_subject-0.csv,xpyriment,Kafkaesque Koffka,3.2.8,0,h,NA,s,s,NA,h,471,NA,2884,13541,NA,471,2,legacy,1024,2,48000,-16,experiment,HHHHH,0,even,5648,222392,NA,357845,386621,NA,425585,423762,2763,208850,NA,425691,2739,425691,426164,425562,Flanker Task ,155,80102,160,yes,1024
96.89440994,96.89440994,500.4409938,500.4409938,black,xpyriment,legacy,legacy,0,Congruent,uniform,1,undefined,1,h,0,0,0,160,160,0,160,160,0,0,0,160,0,160,160,160,9/17/19 13:03,300,The main experiment item,yes,FlankerTask.osexp,C:/Users/hosan/Desktop,no,mono,no,18,no,white,no,yes,768,legacy,0,79,C:/Users/hosan/Desktop/Tb_subject-0.csv,xpyriment,Kafkaesque Koffka,3.2.8,0,h,NA,s,s,h,h,469,NA,2884,13541,12152,469,2,legacy,1024,2,48000,-16,experiment,HHHHH,0,even,5648,222392,439472,357845,386621,NA,440276,426237,2763,208850,427318,440382,2739,440383,440855,440252,Flanker Task ,156,80571,161,yes,1024
96.2962963,96.2962963,499.4567901,499.4567901,black,xpyriment,legacy,legacy,0,Congruent,uniform,0,undefined,0,h,0,0,0,161,161,0,161,161,0,0,0,161,0,161,161,161,9/17/19 13:03,300,The main experiment item,yes,FlankerTask.osexp,C:/Users/hosan/Desktop,no,mono,no,18,no,white,no,yes,768,legacy,1,79,C:/Users/hosan/Desktop/Tb_subject-0.csv,xpyriment,Kafkaesque Koffka,3.2.8,0,s,NA,s,s,h,s,341,NA,2884,13541,12152,341,2,legacy,1024,2,48000,-16,experiment,HHHHH,0,even,5648,222392,439472,357845,440920,NA,443288,441426,2763,208850,427318,443394,2739,443394,443737,443264,Flanker Task ,156,80912,162,yes,1024
96.3190184,96.3190184,499.2331288,499.2331288,black,xpyriment,legacy,legacy,0,Incongruent,uniform,1,undefined,1,h,0,0,0,162,162,0,162,162,0,0,0,162,0,162,162,162,9/17/19 13:03,300,The main experiment item,yes,FlankerTask.osexp,C:/Users/hosan/Desktop,no,mono,no,18,no,white,no,yes,768,legacy,2,79,C:/Users/hosan/Desktop/Tb_subject-0.csv,xpyriment,Kafkaesque Koffka,3.2.8,0,h,NA,s,s,h,h,463,NA,2884,13541,12152,463,2,legacy,1024,2,48000,-16,experiment,SSHSS,0,even,5648,222392,439472,443809,444315,NA,446666,444820,2763,208850,427318,446773,2739,446773,447238,446643,Flanker Task ,157,81375,163,yes,1024
95.73170732,95.73170732,498.3536585,498.3536585,black,xpyriment,legacy,legacy,0,Incongruent,uniform,0,undefined,0,s,0,0,0,163,163,0,163,163,0,0,0,163,0,163,163,163,9/17/19 13:03,300,The main experiment item,yes,FlankerTask.osexp,C:/Users/hosan/Desktop,no,mono,no,18,no,white,no,yes,768,legacy,3,79,C:/Users/hosan/Desktop/Tb_subject-0.csv,xpyriment,Kafkaesque Koffka,3.2.8,0,h,NA,s,s,h,h,355,NA,2884,13541,12152,355,2,legacy,1024,2,48000,-16,experiment,HHSHH,0,even,5648,222392,439472,443809,447303,NA,449659,447810,2763,208850,427318,449765,2739,449765,450123,449636,Flanker Task ,157,81730,164,yes,1024
95.75757576,95.75757576,497.2424242,497.2424242,black,xpyriment,legacy,legacy,0,Congruent,uniform,1,undefined,1,s,0,0,0,164,164,0,164,164,0,0,0,164,0,164,164,164,9/17/19 13:03,300,The main experiment item,yes,FlankerTask.osexp,C:/Users/hosan/Desktop,no,mono,no,18,no,white,no,yes,768,legacy,4,79,C:/Users/hosan/Desktop/Tb_subject-0.csv,xpyriment,Kafkaesque Koffka,3.2.8,0,s,NA,s,s,h,s,315,NA,2884,13541,12152,315,2,legacy,1024,2,48000,-16,experiment,SSSSS,0,even,5648,222392,439472,450196,450702,NA,453054,451207,2763,208850,427318,453159,2739,453159,453477,453031,Flanker Task ,158,82045,165,yes,1024
95.78313253,95.78313253,496.3975904,496.3975904,black,xpyriment,legacy,legacy,0,Congruent,uniform,1,undefined,1,h,0,0,0,165,165,0,165,165,0,0,0,165,0,165,165,165,9/17/19 13:03,300,The main experiment item,yes,FlankerTask.osexp,C:/Users/hosan/Desktop,no,mono,no,18,no,white,no,yes,768,legacy,5,79,C:/Users/hosan/Desktop/Tb_subject-0.csv,xpyriment,Kafkaesque Koffka,3.2.8,0,h,NA,s,s,h,h,357,NA,2884,13541,12152,357,2,legacy,1024,2,48000,-16,experiment,HHHHH,0,even,5648,222392,439472,450196,453559,NA,455905,454064,2763,208850,427318,456010,2739,456010,456369,455882,Flanker Task ,159,82402,166,yes,1024
95.80838323,95.80838323,494.8922156,494.8922156,black,xpyriment,legacy,legacy,0,Congruent,uniform,1,undefined,1,h,0,0,0,166,166,0,166,166,0,0,0,166,0,166,166,166,9/17/19 13:03,300,The main experiment item,yes,FlankerTask.osexp,C:/Users/hosan/Desktop,no,mono,no,18,no,white,no,yes,768,legacy,6,79,C:/Users/hosan/Desktop/Tb_subject-0.csv,xpyriment,Kafkaesque Koffka,3.2.8,0,h,NA,s,s,h,h,245,NA,2884,13541,12152,245,2,legacy,1024,2,48000,-16,experiment,HHHHH,0,even,5648,222392,439472,450196,456441,NA,458769,456947,2763,208850,427318,458875,2739,458875,459122,458746,Flanker Task ,160,82647,167,yes,1024
95.83333333,95.83333333,493.3630952,493.3630952,black,xpyriment,legacy,legacy,0,Congruent,uniform,1,undefined,1,h,0,0,0,167,167,0,167,167,0,0,0,167,0,167,167,167,9/17/19 13:03,300,The main experiment item,yes,FlankerTask.osexp,C:/Users/hosan/Desktop,no,mono,no,18,no,white,no,yes,768,legacy,7,79,C:/Users/hosan/Desktop/Tb_subject-0.csv,xpyriment,Kafkaesque Koffka,3.2.8,0,h,NA,s,s,h,h,238,NA,2884,13541,12152,238,2,legacy,1024,2,48000,-16,experiment,HHHHH,0,even,5648,222392,439472,450196,456441,NA,460982,459152,2763,208850,427318,461088,2739,461089,461329,460958,Flanker Task ,161,82885,168,yes,1024
95.26627219,95.26627219,491.4615385,491.4615385,black,xpyriment,legacy,legacy,0,Incongruent,uniform,0,undefined,0,s,0,0,0,168,168,0,168,168,0,0,0,168,0,168,168,168,9/17/19 13:03,300,The main experiment item,yes,FlankerTask.osexp,C:/Users/hosan/Desktop,no,mono,no,18,no,white,no,yes,768,legacy,8,79,C:/Users/hosan/Desktop/Tb_subject-0.csv,xpyriment,Kafkaesque Koffka,3.2.8,0,h,NA,s,s,h,h,172,NA,2884,13541,12152,172,2,legacy,1024,2,48000,-16,experiment,HHSHH,0,even,5648,222392,439472,450196,456441,NA,463247,461410,2763,208850,427318,463353,2739,463353,463528,463223,Flanker Task ,161,83057,169,yes,1024
94.70588235,94.70588235,490.1058824,490.1058824,black,xpyriment,legacy,legacy,0,Incongruent,uniform,0,undefined,0,h,0,0,0,169,169,0,169,169,0,0,0,169,0,169,169,169,9/17/19 13:03,300,The main experiment item,yes,FlankerTask.osexp,C:/Users/hosan/Desktop,no,mono,no,18,no,white,no,yes,768,legacy,9,79,C:/Users/hosan/Desktop/Tb_subject-0.csv,xpyriment,Kafkaesque Koffka,3.2.8,0,s,NA,s,s,h,s,261,NA,2884,13541,12152,261,2,legacy,1024,2,48000,-16,experiment,SSHSS,0,even,5648,222392,439472,463569,456441,NA,465941,464074,2763,208850,427318,466046,2739,466046,466310,465918,Flanker Task ,161,83318,170,yes,1024
