"acc","accuracy","average_response_time","avg_rt","background","canvas_backend","clock_backend","color_backend","condition","correct","correct_Instructions1","correct_KeyboardResponse","correct_response","count_Block1","count_Block2","count_Block3","count_ErrorFeedback","count_Faster","count_Finish","count_Fixation","count_ISI","count_Instructions1","count_Instructions2","count_Instructions3","count_KeyboardResponse","count_Logger","count_Sequence","count_Stimulus","count_experiment","datetime","deadline","description","disable_garbage_collection","experiment_file","experiment_path","font_bold","font_family","font_italic","font_size","font_underline","foreground","form_clicks","fullscreen","height","keyboard_backend","live_row","live_row_Block1","logfile","mouse_backend","opensesame_codename","opensesame_version","repeat_cycle","response","response_Finish","response_Instructions1","response_Instructions2","response_Instructions3","response_KeyboardResponse","response_time","response_time_Finish","response_time_Instructions1","response_time_Instructions2","response_time_Instructions3","response_time_KeyboardResponse","round_decimals","sampler_backend","sound_buf_size","sound_channels","sound_freq","sound_sample_size","start","stimulus","subject_nr","subject_parity","time_Block1","time_Block2","time_Block3","time_ErrorFeedback","time_Faster","time_Finish","time_Fixation","time_ISI","time_Instructions1","time_Instructions2","time_Instructions3","time_KeyboardResponse","time_Logger","time_Sequence","time_Stimulus","time_experiment","title","total_correct","total_response_time","total_responses","width"
"100","100","397","397","#000000","legacy","legacy","legacy","congruent","1","undefined","1","h","0","0","0","0","0","0","0","0","0","0","0","0","0","0","0","0","Wed Sep 20 18:17:56 2023","1500","The main experiment item","False","Flanker Task.osexp","/Users/RMILLER1/Library/CloudStorage/OneDrive-tarleton.edu(NTNET)/TSU Online Classes/Graduate Class/ Adv Quant Methods and Design","False","mono","False","18","no","white","no","no","768","legacy","0","0","/Users/RMILLER1/Library/CloudStorage/OneDrive-tarleton.edu(NTNET)/TSU Online Classes/Graduate Class/ Adv Quant Methods and Design/RM-subject-3.csv","legacy","Melodramatic Milgram","4.0.5","0","h","NA","h","NA","NA","h","397.0","NA","244229","NA","NA","397","2","legacy","1024","2","48000","-16","experiment","HHHHH","2","even","256588","NA","NA","NA","NA","NA","256612","NA","12344","NA","NA","256714","257118","256610","256714","12295","Flanker Task","1","397.0","1","1024"
"100","100","609","609","#000000","legacy","legacy","legacy","congruent","1","undefined","1","h","0","0","0","1","1","0","1","1","0","0","0","1","1","1","1","0","Wed Sep 20 18:17:56 2023","1500","The main experiment item","False","Flanker Task.osexp","/Users/RMILLER1/Library/CloudStorage/OneDrive-tarleton.edu(NTNET)/TSU Online Classes/Graduate Class/ Adv Quant Methods and Design","False","mono","False","18","no","white","no","no","768","legacy","1","1","/Users/RMILLER1/Library/CloudStorage/OneDrive-tarleton.edu(NTNET)/TSU Online Classes/Graduate Class/ Adv Quant Methods and Design/RM-subject-3.csv","legacy","Melodramatic Milgram","4.0.5","0","h","NA","h","NA","NA","h","822.0","NA","244229","NA","NA","822","2","legacy","1024","2","48000","-16","experiment","HHHHH","2","even","256588","NA","NA","NA","NA","NA","258145","257121","12344","NA","NA","258248","259071","258141","258247","12295","Flanker Task","2","1219.0","2","1024"
"100","100","550","550","#000000","legacy","legacy","legacy","congruent","1","undefined","1","h","0","0","0","2","2","0","2","2","0","0","0","2","2","2","2","0","Wed Sep 20 18:17:56 2023","1500","The main experiment item","False","Flanker Task.osexp","/Users/RMILLER1/Library/CloudStorage/OneDrive-tarleton.edu(NTNET)/TSU Online Classes/Graduate Class/ Adv Quant Methods and Design","False","mono","False","18","no","white","no","no","768","legacy","2","2","/Users/RMILLER1/Library/CloudStorage/OneDrive-tarleton.edu(NTNET)/TSU Online Classes/Graduate Class/ Adv Quant Methods and Design/RM-subject-3.csv","legacy","Melodramatic Milgram","4.0.5","0","h","NA","h","NA","NA","h","432.0","NA","244229","NA","NA","432","2","legacy","1024","2","48000","-16","experiment","HHHHH","2","even","256588","NA","NA","NA","NA","NA","260089","259073","12344","NA","NA","260191","260624","260086","260191","12295","Flanker Task","3","1651.0","3","1024"
"100","100","499","499","#000000","legacy","legacy","legacy","congruent","1","undefined","1","s","0","0","0","3","3","0","3","3","0","0","0","3","3","3","3","0","Wed Sep 20 18:17:56 2023","1500","The main experiment item","False","Flanker Task.osexp","/Users/RMILLER1/Library/CloudStorage/OneDrive-tarleton.edu(NTNET)/TSU Online Classes/Graduate Class/ Adv Quant Methods and Design","False","mono","False","18","no","white","no","no","768","legacy","3","3","/Users/RMILLER1/Library/CloudStorage/OneDrive-tarleton.edu(NTNET)/TSU Online Classes/Graduate Class/ Adv Quant Methods and Design/RM-subject-3.csv","legacy","Melodramatic Milgram","4.0.5","0","s","NA","h","NA","NA","s","348.0","NA","244229","NA","NA","348","2","legacy","1024","2","48000","-16","experiment","SSSSS","2","even","256588","NA","NA","NA","NA","NA","261655","260626","12344","NA","NA","261757","262106","261650","261757","12295","Flanker Task","4","1999.0","4","1024"
"100","100","491","491","#000000","legacy","legacy","legacy","congruent","1","undefined","1","s","0","0","0","4","4","0","4","4","0","0","0","4","4","4","4","0","Wed Sep 20 18:17:56 2023","1500","The main experiment item","False","Flanker Task.osexp","/Users/RMILLER1/Library/CloudStorage/OneDrive-tarleton.edu(NTNET)/TSU Online Classes/Graduate Class/ Adv Quant Methods and Design","False","mono","False","18","no","white","no","no","768","legacy","4","4","/Users/RMILLER1/Library/CloudStorage/OneDrive-tarleton.edu(NTNET)/TSU Online Classes/Graduate Class/ Adv Quant Methods and Design/RM-subject-3.csv","legacy","Melodramatic Milgram","4.0.5","0","s","NA","h","NA","NA","s","458.0","NA","244229","NA","NA","458","2","legacy","1024","2","48000","-16","experiment","SSSSS","2","even","256588","NA","NA","NA","NA","NA","263125","262108","12344","NA","NA","263227","263686","263123","263227","12295","Flanker Task","5","2457.0","5","1024"
"83","83","494","494","#000000","legacy","legacy","legacy","incongruent","0","undefined","0","s","0","0","0","5","5","0","5","5","0","0","0","5","5","5","5","0","Wed Sep 20 18:17:56 2023","1500","The main experiment item","False","Flanker Task.osexp","/Users/RMILLER1/Library/CloudStorage/OneDrive-tarleton.edu(NTNET)/TSU Online Classes/Graduate Class/ Adv Quant Methods and Design","False","mono","False","18","no","white","no","no","768","legacy","5","5","/Users/RMILLER1/Library/CloudStorage/OneDrive-tarleton.edu(NTNET)/TSU Online Classes/Graduate Class/ Adv Quant Methods and Design/RM-subject-3.csv","legacy","Melodramatic Milgram","4.0.5","0","h","NA","h","NA","NA","h","510.0","NA","244229","NA","NA","510","2","legacy","1024","2","48000","-16","experiment","HHSHH","2","even","256588","NA","NA","NA","NA","NA","264714","263688","12344","NA","NA","264817","265327","264711","264817","12295","Flanker Task","5","2967.0","6","1024"
"85","85","488","488","#000000","legacy","legacy","legacy","incongruent","1","undefined","1","h","0","0","0","6","6","0","6","6","0","0","0","6","6","6","6","0","Wed Sep 20 18:17:56 2023","1500","The main experiment item","False","Flanker Task.osexp","/Users/RMILLER1/Library/CloudStorage/OneDrive-tarleton.edu(NTNET)/TSU Online Classes/Graduate Class/ Adv Quant Methods and Design","False","mono","False","18","no","white","no","no","768","legacy","6","6","/Users/RMILLER1/Library/CloudStorage/OneDrive-tarleton.edu(NTNET)/TSU Online Classes/Graduate Class/ Adv Quant Methods and Design/RM-subject-3.csv","legacy","Melodramatic Milgram","4.0.5","0","h","NA","h","NA","NA","h","449.0","NA","244229","NA","NA","449","2","legacy","1024","2","48000","-16","experiment","SSHSS","2","even","256588","NA","NA","265330","NA","NA","266868","265833","12344","NA","NA","266971","267421","266864","266971","12295","Flanker Task","6","3416.0","7","1024"
"87","87","494","494","#000000","legacy","legacy","legacy","incongruent","1","undefined","1","s","0","0","0","7","7","0","7","7","0","0","0","7","7","7","7","0","Wed Sep 20 18:17:56 2023","1500","The main experiment item","False","Flanker Task.osexp","/Users/RMILLER1/Library/CloudStorage/OneDrive-tarleton.edu(NTNET)/TSU Online Classes/Graduate Class/ Adv Quant Methods and Design","False","mono","False","18","no","white","no","no","768","legacy","7","7","/Users/RMILLER1/Library/CloudStorage/OneDrive-tarleton.edu(NTNET)/TSU Online Classes/Graduate Class/ Adv Quant Methods and Design/RM-subject-3.csv","legacy","Melodramatic Milgram","4.0.5","0","s","NA","h","NA","NA","s","536.0","NA","244229","NA","NA","536","2","legacy","1024","2","48000","-16","experiment","HHSHH","2","even","256588","NA","NA","265330","NA","NA","268446","267424","12344","NA","NA","268548","269084","268444","268547","12295","Flanker Task","7","3952.0","8","1024"
"88","88","488","488","#000000","legacy","legacy","legacy","incongruent","1","undefined","1","h","0","0","0","8","8","0","8","8","0","0","0","8","8","8","8","0","Wed Sep 20 18:17:56 2023","1500","The main experiment item","False","Flanker Task.osexp","/Users/RMILLER1/Library/CloudStorage/OneDrive-tarleton.edu(NTNET)/TSU Online Classes/Graduate Class/ Adv Quant Methods and Design","False","mono","False","18","no","white","no","no","768","legacy","8","8","/Users/RMILLER1/Library/CloudStorage/OneDrive-tarleton.edu(NTNET)/TSU Online Classes/Graduate Class/ Adv Quant Methods and Design/RM-subject-3.csv","legacy","Melodramatic Milgram","4.0.5","0","h","NA","h","NA","NA","h","443.0","NA","244229","NA","NA","443","2","legacy","1024","2","48000","-16","experiment","SSHSS","2","even","256588","NA","NA","265330","NA","NA","270108","269086","12344","NA","NA","270214","270658","270104","270214","12295","Flanker Task","8","4395.0","9","1024"
"90","90","479","479","#000000","legacy","legacy","legacy","congruent","1","undefined","1","s","0","0","0","9","9","0","9","9","0","0","0","9","9","9","9","0","Wed Sep 20 18:17:56 2023","1500","The main experiment item","False","Flanker Task.osexp","/Users/RMILLER1/Library/CloudStorage/OneDrive-tarleton.edu(NTNET)/TSU Online Classes/Graduate Class/ Adv Quant Methods and Design","False","mono","False","18","no","white","no","no","768","legacy","9","9","/Users/RMILLER1/Library/CloudStorage/OneDrive-tarleton.edu(NTNET)/TSU Online Classes/Graduate Class/ Adv Quant Methods and Design/RM-subject-3.csv","legacy","Melodramatic Milgram","4.0.5","0","s","NA","h","NA","NA","s","398.0","NA","244229","NA","NA","398","2","legacy","1024","2","48000","-16","experiment","SSSSS","2","even","256588","NA","NA","265330","NA","NA","271689","270660","12344","NA","NA","271791","272190","271684","271791","12295","Flanker Task","9","4793.0","10","1024"
"90","90","474","474","#000000","legacy","legacy","legacy","incongruent","1","undefined","1","s","0","0","0","10","10","0","10","10","0","0","0","10","10","10","10","0","Wed Sep 20 18:17:56 2023","1500","The main experiment item","False","Flanker Task.osexp","/Users/RMILLER1/Library/CloudStorage/OneDrive-tarleton.edu(NTNET)/TSU Online Classes/Graduate Class/ Adv Quant Methods and Design","False","mono","False","18","no","white","no","no","768","legacy","10","10","/Users/RMILLER1/Library/CloudStorage/OneDrive-tarleton.edu(NTNET)/TSU Online Classes/Graduate Class/ Adv Quant Methods and Design/RM-subject-3.csv","legacy","Melodramatic Milgram","4.0.5","0","s","NA","h","NA","NA","s","430.0","NA","244229","NA","NA","430","2","legacy","1024","2","48000","-16","experiment","HHSHH","2","even","256588","NA","NA","265330","NA","NA","273210","272193","12344","NA","NA","273311","273742","273207","273311","12295","Flanker Task","10","5223.0","11","1024"
"91","91","472","472","#000000","legacy","legacy","legacy","incongruent","1","undefined","1","s","0","0","0","11","11","0","11","11","0","0","0","11","11","11","11","0","Wed Sep 20 18:17:56 2023","1500","The main experiment item","False","Flanker Task.osexp","/Users/RMILLER1/Library/CloudStorage/OneDrive-tarleton.edu(NTNET)/TSU Online Classes/Graduate Class/ Adv Quant Methods and Design","False","mono","False","18","no","white","no","no","768","legacy","11","11","/Users/RMILLER1/Library/CloudStorage/OneDrive-tarleton.edu(NTNET)/TSU Online Classes/Graduate Class/ Adv Quant Methods and Design/RM-subject-3.csv","legacy","Melodramatic Milgram","4.0.5","0","s","NA","h","NA","NA","s","444.0","NA","244229","NA","NA","444","2","legacy","1024","2","48000","-16","experiment","HHSHH","2","even","256588","NA","NA","265330","NA","NA","274766","273745","12344","NA","NA","274868","275312","274763","274868","12295","Flanker Task","11","5667.0","12","1024"
"92","92","467","467","#000000","legacy","legacy","legacy","incongruent","1","undefined","1","s","0","0","0","12","12","0","12","12","0","0","0","12","12","12","12","0","Wed Sep 20 18:17:56 2023","1500","The main experiment item","False","Flanker Task.osexp","/Users/RMILLER1/Library/CloudStorage/OneDrive-tarleton.edu(NTNET)/TSU Online Classes/Graduate Class/ Adv Quant Methods and Design","False","mono","False","18","no","white","no","no","768","legacy","12","12","/Users/RMILLER1/Library/CloudStorage/OneDrive-tarleton.edu(NTNET)/TSU Online Classes/Graduate Class/ Adv Quant Methods and Design/RM-subject-3.csv","legacy","Melodramatic Milgram","4.0.5","0","s","NA","h","NA","NA","s","411.0","NA","244229","NA","NA","411","2","legacy","1024","2","48000","-16","experiment","HHSHH","2","even","256588","NA","NA","265330","NA","NA","276333","275316","12344","NA","NA","276435","276846","276330","276435","12295","Flanker Task","12","6078.0","13","1024"
"85","85","459","459","#000000","legacy","legacy","legacy","incongruent","0","undefined","0","h","0","0","0","13","13","0","13","13","0","0","0","13","13","13","13","0","Wed Sep 20 18:17:56 2023","1500","The main experiment item","False","Flanker Task.osexp","/Users/RMILLER1/Library/CloudStorage/OneDrive-tarleton.edu(NTNET)/TSU Online Classes/Graduate Class/ Adv Quant Methods and Design","False","mono","False","18","no","white","no","no","768","legacy","13","13","/Users/RMILLER1/Library/CloudStorage/OneDrive-tarleton.edu(NTNET)/TSU Online Classes/Graduate Class/ Adv Quant Methods and Design/RM-subject-3.csv","legacy","Melodramatic Milgram","4.0.5","0","s","NA","h","NA","NA","s","355.0","NA","244229","NA","NA","355","2","legacy","1024","2","48000","-16","experiment","SSHSS","2","even","256588","NA","NA","265330","NA","NA","277872","276850","12344","NA","NA","277975","278331","277869","277974","12295","Flanker Task","12","6433.0","14","1024"
"86","86","457","457","#000000","legacy","legacy","legacy","congruent","1","undefined","1","s","0","0","0","14","14","0","14","14","0","0","0","14","14","14","14","0","Wed Sep 20 18:17:56 2023","1500","The main experiment item","False","Flanker Task.osexp","/Users/RMILLER1/Library/CloudStorage/OneDrive-tarleton.edu(NTNET)/TSU Online Classes/Graduate Class/ Adv Quant Methods and Design","False","mono","False","18","no","white","no","no","768","legacy","14","14","/Users/RMILLER1/Library/CloudStorage/OneDrive-tarleton.edu(NTNET)/TSU Online Classes/Graduate Class/ Adv Quant Methods and Design/RM-subject-3.csv","legacy","Melodramatic Milgram","4.0.5","0","s","NA","h","NA","NA","s","426.0","NA","244229","NA","NA","426","2","legacy","1024","2","48000","-16","experiment","SSSSS","2","even","256588","NA","NA","278339","NA","NA","279873","278843","12344","NA","NA","279975","280401","279869","279975","12295","Flanker Task","13","6859.0","15","1024"
"87","87","457","457","#000000","legacy","legacy","legacy","incongruent","1","undefined","1","s","0","0","0","15","15","0","15","15","0","0","0","15","15","15","15","0","Wed Sep 20 18:17:56 2023","1500","The main experiment item","False","Flanker Task.osexp","/Users/RMILLER1/Library/CloudStorage/OneDrive-tarleton.edu(NTNET)/TSU Online Classes/Graduate Class/ Adv Quant Methods and Design","False","mono","False","18","no","white","no","no","768","legacy","15","15","/Users/RMILLER1/Library/CloudStorage/OneDrive-tarleton.edu(NTNET)/TSU Online Classes/Graduate Class/ Adv Quant Methods and Design/RM-subject-3.csv","legacy","Melodramatic Milgram","4.0.5","0","s","NA","h","NA","NA","s","453.0","NA","244229","NA","NA","453","2","legacy","1024","2","48000","-16","experiment","HHSHH","2","even","256588","NA","NA","278339","NA","NA","281420","280403","12344","NA","NA","281522","281975","281418","281522","12295","Flanker Task","14","7312.0","16","1024"
"88","88","455","455","#000000","legacy","legacy","legacy","incongruent","1","undefined","1","h","0","0","0","16","16","0","16","16","0","0","0","16","16","16","16","0","Wed Sep 20 18:17:56 2023","1500","The main experiment item","False","Flanker Task.osexp","/Users/RMILLER1/Library/CloudStorage/OneDrive-tarleton.edu(NTNET)/TSU Online Classes/Graduate Class/ Adv Quant Methods and Design","False","mono","False","18","no","white","no","no","768","legacy","16","16","/Users/RMILLER1/Library/CloudStorage/OneDrive-tarleton.edu(NTNET)/TSU Online Classes/Graduate Class/ Adv Quant Methods and Design/RM-subject-3.csv","legacy","Melodramatic Milgram","4.0.5","0","h","NA","h","NA","NA","h","424.0","NA","244229","NA","NA","424","2","legacy","1024","2","48000","-16","experiment","SSHSS","2","even","256588","NA","NA","278339","NA","NA","283000","281978","12344","NA","NA","283103","283528","282994","283103","12295","Flanker Task","15","7736.0","17","1024"
"88","88","451","451","#000000","legacy","legacy","legacy","congruent","1","undefined","1","h","0","0","0","17","17","0","17","17","0","0","0","17","17","17","17","0","Wed Sep 20 18:17:56 2023","1500","The main experiment item","False","Flanker Task.osexp","/Users/RMILLER1/Library/CloudStorage/OneDrive-tarleton.edu(NTNET)/TSU Online Classes/Graduate Class/ Adv Quant Methods and Design","False","mono","False","18","no","white","no","no","768","legacy","17","17","/Users/RMILLER1/Library/CloudStorage/OneDrive-tarleton.edu(NTNET)/TSU Online Classes/Graduate Class/ Adv Quant Methods and Design/RM-subject-3.csv","legacy","Melodramatic Milgram","4.0.5","0","h","NA","h","NA","NA","h","387.0","NA","244229","NA","NA","387","2","legacy","1024","2","48000","-16","experiment","HHHHH","2","even","256588","NA","NA","278339","NA","NA","284545","283530","12344","NA","NA","284650","285038","284542","284650","12295","Flanker Task","16","8123.0","18","1024"
"89","89","447","447","#000000","legacy","legacy","legacy","congruent","1","undefined","1","s","0","0","0","18","18","0","18","18","0","0","0","18","18","18","18","0","Wed Sep 20 18:17:56 2023","1500","The main experiment item","False","Flanker Task.osexp","/Users/RMILLER1/Library/CloudStorage/OneDrive-tarleton.edu(NTNET)/TSU Online Classes/Graduate Class/ Adv Quant Methods and Design","False","mono","False","18","no","white","no","no","768","legacy","18","18","/Users/RMILLER1/Library/CloudStorage/OneDrive-tarleton.edu(NTNET)/TSU Online Classes/Graduate Class/ Adv Quant Methods and Design/RM-subject-3.csv","legacy","Melodramatic Milgram","4.0.5","0","s","NA","h","NA","NA","s","375.0","NA","244229","NA","NA","375","2","legacy","1024","2","48000","-16","experiment","SSSSS","2","even","256588","NA","NA","278339","NA","NA","286063","285041","12344","NA","NA","286167","286543","286058","286167","12295","Flanker Task","17","8498.0","19","1024"
"90","90","444","444","#000000","legacy","legacy","legacy","incongruent","1","undefined","1","s","0","0","0","19","19","0","19","19","0","0","0","19","19","19","19","0","Wed Sep 20 18:17:56 2023","1500","The main experiment item","False","Flanker Task.osexp","/Users/RMILLER1/Library/CloudStorage/OneDrive-tarleton.edu(NTNET)/TSU Online Classes/Graduate Class/ Adv Quant Methods and Design","False","mono","False","18","no","white","no","no","768","legacy","19","19","/Users/RMILLER1/Library/CloudStorage/OneDrive-tarleton.edu(NTNET)/TSU Online Classes/Graduate Class/ Adv Quant Methods and Design/RM-subject-3.csv","legacy","Melodramatic Milgram","4.0.5","0","s","NA","h","NA","NA","s","391.0","NA","244229","NA","NA","391","2","legacy","1024","2","48000","-16","experiment","HHSHH","2","even","256588","NA","NA","278339","NA","NA","287558","286545","12344","NA","NA","287660","288052","287555","287660","12295","Flanker Task","18","8889.0","20","1024"
"90","90","440","440","#000000","legacy","legacy","legacy","congruent","1","undefined","1","s","0","0","0","20","20","0","20","20","0","0","0","20","20","20","20","0","Wed Sep 20 18:17:56 2023","1500","The main experiment item","False","Flanker Task.osexp","/Users/RMILLER1/Library/CloudStorage/OneDrive-tarleton.edu(NTNET)/TSU Online Classes/Graduate Class/ Adv Quant Methods and Design","False","mono","False","18","no","white","no","no","768","legacy","20","20","/Users/RMILLER1/Library/CloudStorage/OneDrive-tarleton.edu(NTNET)/TSU Online Classes/Graduate Class/ Adv Quant Methods and Design/RM-subject-3.csv","legacy","Melodramatic Milgram","4.0.5","0","s","NA","h","NA","NA","s","357.0","NA","244229","NA","NA","357","2","legacy","1024","2","48000","-16","experiment","SSSSS","2","even","256588","NA","NA","278339","NA","NA","289076","288054","12344","NA","NA","289179","289537","289072","289178","12295","Flanker Task","19","9246.0","21","1024"
"90","90","438","438","#000000","legacy","legacy","legacy","congruent","1","undefined","1","s","0","0","0","21","21","0","21","21","0","0","0","21","21","21","21","0","Wed Sep 20 18:17:56 2023","1500","The main experiment item","False","Flanker Task.osexp","/Users/RMILLER1/Library/CloudStorage/OneDrive-tarleton.edu(NTNET)/TSU Online Classes/Graduate Class/ Adv Quant Methods and Design","False","mono","False","18","no","white","no","no","768","legacy","21","21","/Users/RMILLER1/Library/CloudStorage/OneDrive-tarleton.edu(NTNET)/TSU Online Classes/Graduate Class/ Adv Quant Methods and Design/RM-subject-3.csv","legacy","Melodramatic Milgram","4.0.5","0","s","NA","h","NA","NA","s","397.0","NA","244229","NA","NA","397","2","legacy","1024","2","48000","-16","experiment","SSSSS","2","even","256588","NA","NA","278339","NA","NA","290567","289539","12344","NA","NA","290670","291067","290563","290670","12295","Flanker Task","20","9643.0","22","1024"
"91","91","444","444","#000000","legacy","legacy","legacy","congruent","1","undefined","1","s","0","0","0","22","22","0","22","22","0","0","0","22","22","22","22","0","Wed Sep 20 18:17:56 2023","1500","The main experiment item","False","Flanker Task.osexp","/Users/RMILLER1/Library/CloudStorage/OneDrive-tarleton.edu(NTNET)/TSU Online Classes/Graduate Class/ Adv Quant Methods and Design","False","mono","False","18","no","white","no","no","768","legacy","22","22","/Users/RMILLER1/Library/CloudStorage/OneDrive-tarleton.edu(NTNET)/TSU Online Classes/Graduate Class/ Adv Quant Methods and Design/RM-subject-3.csv","legacy","Melodramatic Milgram","4.0.5","0","s","NA","h","NA","NA","s","583.0","NA","244229","NA","NA","583","2","legacy","1024","2","48000","-16","experiment","SSSSS","2","even","256588","NA","NA","278339","NA","NA","292089","291070","12344","NA","NA","292192","292775","292086","292192","12295","Flanker Task","21","10226.0","23","1024"
"91","91","442","442","#000000","legacy","legacy","legacy","congruent","1","undefined","1","s","0","0","0","23","23","0","23","23","0","0","0","23","23","23","23","0","Wed Sep 20 18:17:56 2023","1500","The main experiment item","False","Flanker Task.osexp","/Users/RMILLER1/Library/CloudStorage/OneDrive-tarleton.edu(NTNET)/TSU Online Classes/Graduate Class/ Adv Quant Methods and Design","False","mono","False","18","no","white","no","no","768","legacy","23","23","/Users/RMILLER1/Library/CloudStorage/OneDrive-tarleton.edu(NTNET)/TSU Online Classes/Graduate Class/ Adv Quant Methods and Design/RM-subject-3.csv","legacy","Melodramatic Milgram","4.0.5","0","s","NA","h","NA","NA","s","397.0","NA","244229","NA","NA","397","2","legacy","1024","2","48000","-16","experiment","SSSSS","2","even","256588","NA","NA","278339","NA","NA","293806","292778","12344","NA","NA","293908","294305","293799","293908","12295","Flanker Task","22","10623.0","24","1024"
"92","92","442","442","#000000","legacy","legacy","legacy","incongruent","1","undefined","1","h","0","0","0","24","24","0","24","24","0","0","0","24","24","24","24","0","Wed Sep 20 18:17:56 2023","1500","The main experiment item","False","Flanker Task.osexp","/Users/RMILLER1/Library/CloudStorage/OneDrive-tarleton.edu(NTNET)/TSU Online Classes/Graduate Class/ Adv Quant Methods and Design","False","mono","False","18","no","white","no","no","768","legacy","24","24","/Users/RMILLER1/Library/CloudStorage/OneDrive-tarleton.edu(NTNET)/TSU Online Classes/Graduate Class/ Adv Quant Methods and Design/RM-subject-3.csv","legacy","Melodramatic Milgram","4.0.5","0","h","NA","h","NA","NA","h","427.0","NA","244229","NA","NA","427","2","legacy","1024","2","48000","-16","experiment","SSHSS","2","even","256588","NA","NA","278339","NA","NA","295328","294308","12344","NA","NA","295431","295858","295325","295431","12295","Flanker Task","23","11050.0","25","1024"
"92","92","439","439","#000000","legacy","legacy","legacy","congruent","1","undefined","1","h","0","0","0","25","25","0","25","25","0","0","0","25","25","25","25","0","Wed Sep 20 18:17:56 2023","1500","The main experiment item","False","Flanker Task.osexp","/Users/RMILLER1/Library/CloudStorage/OneDrive-tarleton.edu(NTNET)/TSU Online Classes/Graduate Class/ Adv Quant Methods and Design","False","mono","False","18","no","white","no","no","768","legacy","25","25","/Users/RMILLER1/Library/CloudStorage/OneDrive-tarleton.edu(NTNET)/TSU Online Classes/Graduate Class/ Adv Quant Methods and Design/RM-subject-3.csv","legacy","Melodramatic Milgram","4.0.5","0","h","NA","h","NA","NA","h","381.0","NA","244229","NA","NA","381","2","legacy","1024","2","48000","-16","experiment","HHHHH","2","even","256588","NA","NA","278339","NA","NA","296884","295861","12344","NA","NA","296990","297371","296881","296990","12295","Flanker Task","24","11431.0","26","1024"
"92","92","446","446","#000000","legacy","legacy","legacy","incongruent","1","undefined","1","h","0","0","0","26","26","0","26","26","0","0","0","26","26","26","26","0","Wed Sep 20 18:17:56 2023","1500","The main experiment item","False","Flanker Task.osexp","/Users/RMILLER1/Library/CloudStorage/OneDrive-tarleton.edu(NTNET)/TSU Online Classes/Graduate Class/ Adv Quant Methods and Design","False","mono","False","18","no","white","no","no","768","legacy","26","26","/Users/RMILLER1/Library/CloudStorage/OneDrive-tarleton.edu(NTNET)/TSU Online Classes/Graduate Class/ Adv Quant Methods and Design/RM-subject-3.csv","legacy","Melodramatic Milgram","4.0.5","0","h","NA","h","NA","NA","h","636.0","NA","244229","NA","NA","636","2","legacy","1024","2","48000","-16","experiment","SSHSS","2","even","256588","NA","NA","278339","NA","NA","298405","297375","12344","NA","NA","298507","299143","298399","298507","12295","Flanker Task","25","12067.0","27","1024"
"92","92","443","443","#000000","legacy","legacy","legacy","congruent","1","undefined","1","s","0","0","0","27","27","0","27","27","0","0","0","27","27","27","27","0","Wed Sep 20 18:17:56 2023","1500","The main experiment item","False","Flanker Task.osexp","/Users/RMILLER1/Library/CloudStorage/OneDrive-tarleton.edu(NTNET)/TSU Online Classes/Graduate Class/ Adv Quant Methods and Design","False","mono","False","18","no","white","no","no","768","legacy","27","27","/Users/RMILLER1/Library/CloudStorage/OneDrive-tarleton.edu(NTNET)/TSU Online Classes/Graduate Class/ Adv Quant Methods and Design/RM-subject-3.csv","legacy","Melodramatic Milgram","4.0.5","0","s","NA","h","NA","NA","s","353.0","NA","244229","NA","NA","353","2","legacy","1024","2","48000","-16","experiment","SSSSS","2","even","256588","NA","NA","278339","NA","NA","300172","299145","12344","NA","NA","300275","300629","300168","300275","12295","Flanker Task","26","12420.0","28","1024"
"89","89","439","439","#000000","legacy","legacy","legacy","incongruent","0","undefined","0","h","0","0","0","28","28","0","28","28","0","0","0","28","28","28","28","0","Wed Sep 20 18:17:56 2023","1500","The main experiment item","False","Flanker Task.osexp","/Users/RMILLER1/Library/CloudStorage/OneDrive-tarleton.edu(NTNET)/TSU Online Classes/Graduate Class/ Adv Quant Methods and Design","False","mono","False","18","no","white","no","no","768","legacy","28","28","/Users/RMILLER1/Library/CloudStorage/OneDrive-tarleton.edu(NTNET)/TSU Online Classes/Graduate Class/ Adv Quant Methods and Design/RM-subject-3.csv","legacy","Melodramatic Milgram","4.0.5","0","s","NA","h","NA","NA","s","330.0","NA","244229","NA","NA","330","2","legacy","1024","2","48000","-16","experiment","SSHSS","2","even","256588","NA","NA","278339","NA","NA","301659","300632","12344","NA","NA","301760","302091","301656","301760","12295","Flanker Task","26","12750.0","29","1024"
"90","90","438","438","#000000","legacy","legacy","legacy","congruent","1","undefined","1","h","0","0","0","29","29","0","29","29","0","0","0","29","29","29","29","0","Wed Sep 20 18:17:56 2023","1500","The main experiment item","False","Flanker Task.osexp","/Users/RMILLER1/Library/CloudStorage/OneDrive-tarleton.edu(NTNET)/TSU Online Classes/Graduate Class/ Adv Quant Methods and Design","False","mono","False","18","no","white","no","no","768","legacy","29","29","/Users/RMILLER1/Library/CloudStorage/OneDrive-tarleton.edu(NTNET)/TSU Online Classes/Graduate Class/ Adv Quant Methods and Design/RM-subject-3.csv","legacy","Melodramatic Milgram","4.0.5","0","h","NA","h","NA","NA","h","411.0","NA","244229","NA","NA","411","2","legacy","1024","2","48000","-16","experiment","HHHHH","2","even","256588","NA","NA","302093","NA","NA","303626","302596","12344","NA","NA","303728","304140","303623","303728","12295","Flanker Task","27","13161.0","30","1024"
"87","87","435","435","#000000","legacy","legacy","legacy","incongruent","0","undefined","0","s","0","0","0","30","30","0","30","30","0","0","0","30","30","30","30","0","Wed Sep 20 18:17:56 2023","1500","The main experiment item","False","Flanker Task.osexp","/Users/RMILLER1/Library/CloudStorage/OneDrive-tarleton.edu(NTNET)/TSU Online Classes/Graduate Class/ Adv Quant Methods and Design","False","mono","False","18","no","white","no","no","768","legacy","30","30","/Users/RMILLER1/Library/CloudStorage/OneDrive-tarleton.edu(NTNET)/TSU Online Classes/Graduate Class/ Adv Quant Methods and Design/RM-subject-3.csv","legacy","Melodramatic Milgram","4.0.5","0","h","NA","h","NA","NA","h","334.0","NA","244229","NA","NA","334","2","legacy","1024","2","48000","-16","experiment","HHSHH","2","even","256588","NA","NA","302093","NA","NA","305168","304142","12344","NA","NA","305271","305605","305165","305271","12295","Flanker Task","27","13495.0","31","1024"
"84","84","435","435","#000000","legacy","legacy","legacy","incongruent","0","undefined","0","s","0","0","0","31","31","0","31","31","0","0","0","31","31","31","31","0","Wed Sep 20 18:17:56 2023","1500","The main experiment item","False","Flanker Task.osexp","/Users/RMILLER1/Library/CloudStorage/OneDrive-tarleton.edu(NTNET)/TSU Online Classes/Graduate Class/ Adv Quant Methods and Design","False","mono","False","18","no","white","no","no","768","legacy","31","31","/Users/RMILLER1/Library/CloudStorage/OneDrive-tarleton.edu(NTNET)/TSU Online Classes/Graduate Class/ Adv Quant Methods and Design/RM-subject-3.csv","legacy","Melodramatic Milgram","4.0.5","0","h","NA","h","NA","NA","h","428.0","NA","244229","NA","NA","428","2","legacy","1024","2","48000","-16","experiment","HHSHH","2","even","256588","NA","NA","305609","NA","NA","307141","306113","12344","NA","NA","307244","307673","307138","307244","12295","Flanker Task","27","13923.0","32","1024"
"84","84","434","434","#000000","legacy","legacy","legacy","congruent","1","undefined","1","h","0","0","0","32","32","0","32","32","0","0","0","32","32","32","32","0","Wed Sep 20 18:17:56 2023","1500","The main experiment item","False","Flanker Task.osexp","/Users/RMILLER1/Library/CloudStorage/OneDrive-tarleton.edu(NTNET)/TSU Online Classes/Graduate Class/ Adv Quant Methods and Design","False","mono","False","18","no","white","no","no","768","legacy","32","32","/Users/RMILLER1/Library/CloudStorage/OneDrive-tarleton.edu(NTNET)/TSU Online Classes/Graduate Class/ Adv Quant Methods and Design/RM-subject-3.csv","legacy","Melodramatic Milgram","4.0.5","0","h","NA","h","NA","NA","h","403.0","NA","244229","NA","NA","403","2","legacy","1024","2","48000","-16","experiment","HHHHH","2","even","256588","NA","NA","307676","NA","NA","309214","308180","12344","NA","NA","309317","309721","309211","309317","12295","Flanker Task","28","14326.0","33","1024"
"85","85","433","433","#000000","legacy","legacy","legacy","congruent","1","undefined","1","s","0","0","0","33","33","0","33","33","0","0","0","33","33","33","33","0","Wed Sep 20 18:17:56 2023","1500","The main experiment item","False","Flanker Task.osexp","/Users/RMILLER1/Library/CloudStorage/OneDrive-tarleton.edu(NTNET)/TSU Online Classes/Graduate Class/ Adv Quant Methods and Design","False","mono","False","18","no","white","no","no","768","legacy","33","33","/Users/RMILLER1/Library/CloudStorage/OneDrive-tarleton.edu(NTNET)/TSU Online Classes/Graduate Class/ Adv Quant Methods and Design/RM-subject-3.csv","legacy","Melodramatic Milgram","4.0.5","0","s","NA","h","NA","NA","s","423.0","NA","244229","NA","NA","423","2","legacy","1024","2","48000","-16","experiment","SSSSS","2","even","256588","NA","NA","307676","NA","NA","310745","309724","12344","NA","NA","310849","311273","310742","310849","12295","Flanker Task","29","14749.0","34","1024"
"85","85","430","430","#000000","legacy","legacy","legacy","congruent","1","undefined","1","h","0","0","0","34","34","0","34","34","0","0","0","34","34","34","34","0","Wed Sep 20 18:17:56 2023","1500","The main experiment item","False","Flanker Task.osexp","/Users/RMILLER1/Library/CloudStorage/OneDrive-tarleton.edu(NTNET)/TSU Online Classes/Graduate Class/ Adv Quant Methods and Design","False","mono","False","18","no","white","no","no","768","legacy","34","34","/Users/RMILLER1/Library/CloudStorage/OneDrive-tarleton.edu(NTNET)/TSU Online Classes/Graduate Class/ Adv Quant Methods and Design/RM-subject-3.csv","legacy","Melodramatic Milgram","4.0.5","0","h","NA","h","NA","NA","h","325.0","NA","244229","NA","NA","325","2","legacy","1024","2","48000","-16","experiment","HHHHH","2","even","256588","NA","NA","307676","NA","NA","312306","311276","12344","NA","NA","312409","312734","312300","312409","12295","Flanker Task","30","15074.0","35","1024"
"83","83","428","428","#000000","legacy","legacy","legacy","incongruent","0","undefined","0","h","0","0","0","35","35","0","35","35","0","0","0","35","35","35","35","0","Wed Sep 20 18:17:56 2023","1500","The main experiment item","False","Flanker Task.osexp","/Users/RMILLER1/Library/CloudStorage/OneDrive-tarleton.edu(NTNET)/TSU Online Classes/Graduate Class/ Adv Quant Methods and Design","False","mono","False","18","no","white","no","no","768","legacy","35","35","/Users/RMILLER1/Library/CloudStorage/OneDrive-tarleton.edu(NTNET)/TSU Online Classes/Graduate Class/ Adv Quant Methods and Design/RM-subject-3.csv","legacy","Melodramatic Milgram","4.0.5","0","s","NA","h","NA","NA","s","369.0","NA","244229","NA","NA","369","2","legacy","1024","2","48000","-16","experiment","SSHSS","2","even","256588","NA","NA","307676","NA","NA","313766","312738","12344","NA","NA","313871","314241","313761","313870","12295","Flanker Task","30","15443.0","36","1024"
"83","83","431","431","#000000","legacy","legacy","legacy","congruent","1","undefined","1","h","0","0","0","36","36","0","36","36","0","0","0","36","36","36","36","0","Wed Sep 20 18:17:56 2023","1500","The main experiment item","False","Flanker Task.osexp","/Users/RMILLER1/Library/CloudStorage/OneDrive-tarleton.edu(NTNET)/TSU Online Classes/Graduate Class/ Adv Quant Methods and Design","False","mono","False","18","no","white","no","no","768","legacy","36","36","/Users/RMILLER1/Library/CloudStorage/OneDrive-tarleton.edu(NTNET)/TSU Online Classes/Graduate Class/ Adv Quant Methods and Design/RM-subject-3.csv","legacy","Melodramatic Milgram","4.0.5","0","h","NA","h","NA","NA","h","505.0","NA","244229","NA","NA","505","2","legacy","1024","2","48000","-16","experiment","HHHHH","2","even","256588","NA","NA","314243","NA","NA","315772","314746","12344","NA","NA","315874","316380","315766","315874","12295","Flanker Task","31","15948.0","37","1024"
"84","84","443","443","#000000","legacy","legacy","legacy","incongruent","1","undefined","1","h","0","0","0","37","37","0","37","37","0","0","0","37","37","37","37","0","Wed Sep 20 18:17:56 2023","1500","The main experiment item","False","Flanker Task.osexp","/Users/RMILLER1/Library/CloudStorage/OneDrive-tarleton.edu(NTNET)/TSU Online Classes/Graduate Class/ Adv Quant Methods and Design","False","mono","False","18","no","white","no","no","768","legacy","37","37","/Users/RMILLER1/Library/CloudStorage/OneDrive-tarleton.edu(NTNET)/TSU Online Classes/Graduate Class/ Adv Quant Methods and Design/RM-subject-3.csv","legacy","Melodramatic Milgram","4.0.5","0","h","NA","h","NA","NA","h","918.0","NA","244229","NA","NA","918","2","legacy","1024","2","48000","-16","experiment","SSHSS","2","even","256588","NA","NA","314243","NA","NA","317406","316382","12344","NA","NA","317508","318427","317402","317508","12295","Flanker Task","32","16866.0","38","1024"
"84","84","447","447","#000000","legacy","legacy","legacy","congruent","1","undefined","1","s","0","0","0","38","38","0","38","38","0","0","0","38","38","38","38","0","Wed Sep 20 18:17:56 2023","1500","The main experiment item","False","Flanker Task.osexp","/Users/RMILLER1/Library/CloudStorage/OneDrive-tarleton.edu(NTNET)/TSU Online Classes/Graduate Class/ Adv Quant Methods and Design","False","mono","False","18","no","white","no","no","768","legacy","38","38","/Users/RMILLER1/Library/CloudStorage/OneDrive-tarleton.edu(NTNET)/TSU Online Classes/Graduate Class/ Adv Quant Methods and Design/RM-subject-3.csv","legacy","Melodramatic Milgram","4.0.5","0","s","NA","h","NA","NA","s","602.0","NA","244229","NA","NA","602","2","legacy","1024","2","48000","-16","experiment","SSSSS","2","even","256588","NA","NA","314243","NA","NA","319452","318430","12344","NA","NA","319555","320157","319449","319555","12295","Flanker Task","33","17468.0","39","1024"
"82","82","449","449","#000000","legacy","legacy","legacy","congruent","0","undefined","0","s","0","0","0","39","39","0","39","39","0","0","0","39","39","39","39","0","Wed Sep 20 18:17:56 2023","1500","The main experiment item","False","Flanker Task.osexp","/Users/RMILLER1/Library/CloudStorage/OneDrive-tarleton.edu(NTNET)/TSU Online Classes/Graduate Class/ Adv Quant Methods and Design","False","mono","False","18","no","white","no","no","768","legacy","39","39","/Users/RMILLER1/Library/CloudStorage/OneDrive-tarleton.edu(NTNET)/TSU Online Classes/Graduate Class/ Adv Quant Methods and Design/RM-subject-3.csv","legacy","Melodramatic Milgram","4.0.5","0","h","NA","h","NA","NA","h","523.0","NA","244229","NA","NA","523","2","legacy","1024","2","48000","-16","experiment","SSSSS","2","even","256588","NA","NA","314243","NA","NA","321177","320159","12344","NA","NA","321280","321804","321174","321280","12295","Flanker Task","33","17991.0","40","1024"
"82","82","451","451","#000000","legacy","legacy","legacy","congruent","1","undefined","1","h","0","0","0","40","40","0","40","40","0","0","0","40","40","40","40","0","Wed Sep 20 18:17:56 2023","1500","The main experiment item","False","Flanker Task.osexp","/Users/RMILLER1/Library/CloudStorage/OneDrive-tarleton.edu(NTNET)/TSU Online Classes/Graduate Class/ Adv Quant Methods and Design","False","mono","False","18","no","white","no","no","768","legacy","40","40","/Users/RMILLER1/Library/CloudStorage/OneDrive-tarleton.edu(NTNET)/TSU Online Classes/Graduate Class/ Adv Quant Methods and Design/RM-subject-3.csv","legacy","Melodramatic Milgram","4.0.5","0","h","NA","h","NA","NA","h","520.0","NA","244229","NA","NA","520","2","legacy","1024","2","48000","-16","experiment","HHHHH","2","even","256588","NA","NA","321806","NA","NA","323340","322310","12344","NA","NA","323442","323962","323336","323442","12295","Flanker Task","34","18511.0","41","1024"
"83","83","456","456","#000000","legacy","legacy","legacy","incongruent","1","undefined","1","h","0","0","0","41","41","0","41","41","0","0","0","41","41","41","41","0","Wed Sep 20 18:17:56 2023","1500","The main experiment item","False","Flanker Task.osexp","/Users/RMILLER1/Library/CloudStorage/OneDrive-tarleton.edu(NTNET)/TSU Online Classes/Graduate Class/ Adv Quant Methods and Design","False","mono","False","18","no","white","no","no","768","legacy","41","41","/Users/RMILLER1/Library/CloudStorage/OneDrive-tarleton.edu(NTNET)/TSU Online Classes/Graduate Class/ Adv Quant Methods and Design/RM-subject-3.csv","legacy","Melodramatic Milgram","4.0.5","0","h","NA","h","NA","NA","h","658.0","NA","244229","NA","NA","658","2","legacy","1024","2","48000","-16","experiment","SSHSS","2","even","256588","NA","NA","321806","NA","NA","324993","323966","12344","NA","NA","325102","325761","324990","325101","12295","Flanker Task","35","19169.0","42","1024"
"83","83","462","462","#000000","legacy","legacy","legacy","incongruent","1","undefined","1","s","0","0","0","42","42","0","42","42","0","0","0","42","42","42","42","0","Wed Sep 20 18:17:56 2023","1500","The main experiment item","False","Flanker Task.osexp","/Users/RMILLER1/Library/CloudStorage/OneDrive-tarleton.edu(NTNET)/TSU Online Classes/Graduate Class/ Adv Quant Methods and Design","False","mono","False","18","no","white","no","no","768","legacy","42","42","/Users/RMILLER1/Library/CloudStorage/OneDrive-tarleton.edu(NTNET)/TSU Online Classes/Graduate Class/ Adv Quant Methods and Design/RM-subject-3.csv","legacy","Melodramatic Milgram","4.0.5","0","s","NA","h","NA","NA","s","713.0","NA","244229","NA","NA","713","2","legacy","1024","2","48000","-16","experiment","HHSHH","2","even","256588","NA","NA","321806","NA","NA","326789","325763","12344","NA","NA","326893","327606","326783","326892","12295","Flanker Task","36","19882.0","43","1024"
"84","84","463","463","#000000","legacy","legacy","legacy","incongruent","1","undefined","1","s","0","0","0","43","43","0","43","43","0","0","0","43","43","43","43","0","Wed Sep 20 18:17:56 2023","1500","The main experiment item","False","Flanker Task.osexp","/Users/RMILLER1/Library/CloudStorage/OneDrive-tarleton.edu(NTNET)/TSU Online Classes/Graduate Class/ Adv Quant Methods and Design","False","mono","False","18","no","white","no","no","768","legacy","43","43","/Users/RMILLER1/Library/CloudStorage/OneDrive-tarleton.edu(NTNET)/TSU Online Classes/Graduate Class/ Adv Quant Methods and Design/RM-subject-3.csv","legacy","Melodramatic Milgram","4.0.5","0","s","NA","h","NA","NA","s","516.0","NA","244229","NA","NA","516","2","legacy","1024","2","48000","-16","experiment","HHSHH","2","even","256588","NA","NA","321806","NA","NA","328630","327609","12344","NA","NA","328734","329250","328626","328734","12295","Flanker Task","37","20398.0","44","1024"
"84","84","467","467","#000000","legacy","legacy","legacy","congruent","1","undefined","1","h","0","0","0","44","44","0","44","44","0","0","0","44","44","44","44","0","Wed Sep 20 18:17:56 2023","1500","The main experiment item","False","Flanker Task.osexp","/Users/RMILLER1/Library/CloudStorage/OneDrive-tarleton.edu(NTNET)/TSU Online Classes/Graduate Class/ Adv Quant Methods and Design","False","mono","False","18","no","white","no","no","768","legacy","44","44","/Users/RMILLER1/Library/CloudStorage/OneDrive-tarleton.edu(NTNET)/TSU Online Classes/Graduate Class/ Adv Quant Methods and Design/RM-subject-3.csv","legacy","Melodramatic Milgram","4.0.5","0","h","NA","h","NA","NA","h","659.0","NA","244229","NA","NA","659","2","legacy","1024","2","48000","-16","experiment","HHHHH","2","even","256588","NA","NA","321806","NA","NA","330266","329253","12344","NA","NA","330368","331028","330262","330368","12295","Flanker Task","38","21057.0","45","1024"
"84","84","468","468","#000000","legacy","legacy","legacy","congruent","1","undefined","1","h","0","0","0","45","45","0","45","45","0","0","0","45","45","45","45","0","Wed Sep 20 18:17:56 2023","1500","The main experiment item","False","Flanker Task.osexp","/Users/RMILLER1/Library/CloudStorage/OneDrive-tarleton.edu(NTNET)/TSU Online Classes/Graduate Class/ Adv Quant Methods and Design","False","mono","False","18","no","white","no","no","768","legacy","45","45","/Users/RMILLER1/Library/CloudStorage/OneDrive-tarleton.edu(NTNET)/TSU Online Classes/Graduate Class/ Adv Quant Methods and Design/RM-subject-3.csv","legacy","Melodramatic Milgram","4.0.5","0","h","NA","h","NA","NA","h","488.0","NA","244229","NA","NA","488","2","legacy","1024","2","48000","-16","experiment","HHHHH","2","even","256588","NA","NA","321806","NA","NA","332055","331033","12344","NA","NA","332157","332646","332049","332157","12295","Flanker Task","39","21545.0","46","1024"
"85","85","468","468","#000000","legacy","legacy","legacy","incongruent","1","undefined","1","s","0","0","0","46","46","0","46","46","0","0","0","46","46","46","46","0","Wed Sep 20 18:17:56 2023","1500","The main experiment item","False","Flanker Task.osexp","/Users/RMILLER1/Library/CloudStorage/OneDrive-tarleton.edu(NTNET)/TSU Online Classes/Graduate Class/ Adv Quant Methods and Design","False","mono","False","18","no","white","no","no","768","legacy","46","46","/Users/RMILLER1/Library/CloudStorage/OneDrive-tarleton.edu(NTNET)/TSU Online Classes/Graduate Class/ Adv Quant Methods and Design/RM-subject-3.csv","legacy","Melodramatic Milgram","4.0.5","0","s","NA","h","NA","NA","s","469.0","NA","244229","NA","NA","469","2","legacy","1024","2","48000","-16","experiment","HHSHH","2","even","256588","NA","NA","321806","NA","NA","333672","332650","12344","NA","NA","333775","334245","333666","333775","12295","Flanker Task","40","22014.0","47","1024"
"85","85","469","469","#000000","legacy","legacy","legacy","incongruent","1","undefined","1","h","0","0","0","47","47","0","47","47","0","0","0","47","47","47","47","0","Wed Sep 20 18:17:56 2023","1500","The main experiment item","False","Flanker Task.osexp","/Users/RMILLER1/Library/CloudStorage/OneDrive-tarleton.edu(NTNET)/TSU Online Classes/Graduate Class/ Adv Quant Methods and Design","False","mono","False","18","no","white","no","no","768","legacy","47","47","/Users/RMILLER1/Library/CloudStorage/OneDrive-tarleton.edu(NTNET)/TSU Online Classes/Graduate Class/ Adv Quant Methods and Design/RM-subject-3.csv","legacy","Melodramatic Milgram","4.0.5","0","h","NA","h","NA","NA","h","502.0","NA","244229","NA","NA","502","2","legacy","1024","2","48000","-16","experiment","SSHSS","2","even","256588","NA","NA","321806","NA","NA","335283","334252","12344","NA","NA","335385","335887","335279","335385","12295","Flanker Task","41","22516.0","48","1024"
"85","85","467","467","#000000","legacy","legacy","legacy","congruent","1","undefined","1","h","0","0","0","48","48","0","48","48","0","0","0","48","48","48","48","0","Wed Sep 20 18:17:56 2023","1500","The main experiment item","False","Flanker Task.osexp","/Users/RMILLER1/Library/CloudStorage/OneDrive-tarleton.edu(NTNET)/TSU Online Classes/Graduate Class/ Adv Quant Methods and Design","False","mono","False","18","no","white","no","no","768","legacy","48","48","/Users/RMILLER1/Library/CloudStorage/OneDrive-tarleton.edu(NTNET)/TSU Online Classes/Graduate Class/ Adv Quant Methods and Design/RM-subject-3.csv","legacy","Melodramatic Milgram","4.0.5","0","h","NA","h","NA","NA","h","401.0","NA","244229","NA","NA","401","2","legacy","1024","2","48000","-16","experiment","HHHHH","2","even","256588","NA","NA","321806","NA","NA","336913","335890","12344","NA","NA","337016","337417","336910","337016","12295","Flanker Task","42","22917.0","49","1024"
"86","86","467","467","#000000","legacy","legacy","legacy","incongruent","1","undefined","1","h","0","0","0","49","49","0","49","49","0","0","0","49","49","49","49","0","Wed Sep 20 18:17:56 2023","1500","The main experiment item","False","Flanker Task.osexp","/Users/RMILLER1/Library/CloudStorage/OneDrive-tarleton.edu(NTNET)/TSU Online Classes/Graduate Class/ Adv Quant Methods and Design","False","mono","False","18","no","white","no","no","768","legacy","49","49","/Users/RMILLER1/Library/CloudStorage/OneDrive-tarleton.edu(NTNET)/TSU Online Classes/Graduate Class/ Adv Quant Methods and Design/RM-subject-3.csv","legacy","Melodramatic Milgram","4.0.5","0","h","NA","h","NA","NA","h","478.0","NA","244229","NA","NA","478","2","legacy","1024","2","48000","-16","experiment","SSHSS","2","even","256588","NA","NA","321806","NA","NA","338435","337419","12344","NA","NA","338538","339017","338432","338538","12295","Flanker Task","43","23395.0","50","1024"
"84","84","467","467","#000000","legacy","legacy","legacy","congruent","0","undefined","0","s","0","0","0","50","50","0","50","50","0","0","0","50","50","50","50","0","Wed Sep 20 18:17:56 2023","1500","The main experiment item","False","Flanker Task.osexp","/Users/RMILLER1/Library/CloudStorage/OneDrive-tarleton.edu(NTNET)/TSU Online Classes/Graduate Class/ Adv Quant Methods and Design","False","mono","False","18","no","white","no","no","768","legacy","50","50","/Users/RMILLER1/Library/CloudStorage/OneDrive-tarleton.edu(NTNET)/TSU Online Classes/Graduate Class/ Adv Quant Methods and Design/RM-subject-3.csv","legacy","Melodramatic Milgram","4.0.5","0","h","NA","h","NA","NA","h","425.0","NA","244229","NA","NA","425","2","legacy","1024","2","48000","-16","experiment","SSSSS","2","even","256588","NA","NA","321806","NA","NA","340038","339020","12344","NA","NA","340141","340567","340034","340141","12295","Flanker Task","43","23820.0","51","1024"
"82","82","466","466","#000000","legacy","legacy","legacy","incongruent","0","undefined","0","s","0","0","0","51","51","0","51","51","0","0","0","51","51","51","51","0","Wed Sep 20 18:17:56 2023","1500","The main experiment item","False","Flanker Task.osexp","/Users/RMILLER1/Library/CloudStorage/OneDrive-tarleton.edu(NTNET)/TSU Online Classes/Graduate Class/ Adv Quant Methods and Design","False","mono","False","18","no","white","no","no","768","legacy","51","51","/Users/RMILLER1/Library/CloudStorage/OneDrive-tarleton.edu(NTNET)/TSU Online Classes/Graduate Class/ Adv Quant Methods and Design/RM-subject-3.csv","legacy","Melodramatic Milgram","4.0.5","0","h","NA","h","NA","NA","h","454.0","NA","244229","NA","NA","454","2","legacy","1024","2","48000","-16","experiment","HHSHH","2","even","256588","NA","NA","340570","NA","NA","342100","341073","12344","NA","NA","342204","342659","342095","342203","12295","Flanker Task","43","24274.0","52","1024"
"83","83","467","467","#000000","legacy","legacy","legacy","congruent","1","undefined","1","s","0","0","0","52","52","0","52","52","0","0","0","52","52","52","52","0","Wed Sep 20 18:17:56 2023","1500","The main experiment item","False","Flanker Task.osexp","/Users/RMILLER1/Library/CloudStorage/OneDrive-tarleton.edu(NTNET)/TSU Online Classes/Graduate Class/ Adv Quant Methods and Design","False","mono","False","18","no","white","no","no","768","legacy","52","52","/Users/RMILLER1/Library/CloudStorage/OneDrive-tarleton.edu(NTNET)/TSU Online Classes/Graduate Class/ Adv Quant Methods and Design/RM-subject-3.csv","legacy","Melodramatic Milgram","4.0.5","0","s","NA","h","NA","NA","s","502.0","NA","244229","NA","NA","502","2","legacy","1024","2","48000","-16","experiment","SSSSS","2","even","256588","NA","NA","342662","NA","NA","344192","343166","12344","NA","NA","344294","344797","344189","344294","12295","Flanker Task","44","24776.0","53","1024"
"83","83","468","468","#000000","legacy","legacy","legacy","incongruent","1","undefined","1","h","0","0","0","53","53","0","53","53","0","0","0","53","53","53","53","0","Wed Sep 20 18:17:56 2023","1500","The main experiment item","False","Flanker Task.osexp","/Users/RMILLER1/Library/CloudStorage/OneDrive-tarleton.edu(NTNET)/TSU Online Classes/Graduate Class/ Adv Quant Methods and Design","False","mono","False","18","no","white","no","no","768","legacy","53","53","/Users/RMILLER1/Library/CloudStorage/OneDrive-tarleton.edu(NTNET)/TSU Online Classes/Graduate Class/ Adv Quant Methods and Design/RM-subject-3.csv","legacy","Melodramatic Milgram","4.0.5","0","h","NA","h","NA","NA","h","535.0","NA","244229","NA","NA","535","2","legacy","1024","2","48000","-16","experiment","SSHSS","2","even","256588","NA","NA","342662","NA","NA","345821","344799","12344","NA","NA","345925","346461","345818","345925","12295","Flanker Task","45","25311.0","54","1024"
"83","83","470","470","#000000","legacy","legacy","legacy","incongruent","1","undefined","1","h","0","0","0","54","54","0","54","54","0","0","0","54","54","54","54","0","Wed Sep 20 18:17:56 2023","1500","The main experiment item","False","Flanker Task.osexp","/Users/RMILLER1/Library/CloudStorage/OneDrive-tarleton.edu(NTNET)/TSU Online Classes/Graduate Class/ Adv Quant Methods and Design","False","mono","False","18","no","white","no","no","768","legacy","54","54","/Users/RMILLER1/Library/CloudStorage/OneDrive-tarleton.edu(NTNET)/TSU Online Classes/Graduate Class/ Adv Quant Methods and Design/RM-subject-3.csv","legacy","Melodramatic Milgram","4.0.5","0","h","NA","h","NA","NA","h","556.0","NA","244229","NA","NA","556","2","legacy","1024","2","48000","-16","experiment","SSHSS","2","even","256588","NA","NA","342662","NA","NA","347492","346465","12344","NA","NA","347594","348151","347490","347594","12295","Flanker Task","46","25867.0","55","1024"
"83","83","470","470","#000000","legacy","legacy","legacy","congruent","1","undefined","1","s","0","0","0","55","55","0","55","55","0","0","0","55","55","55","55","0","Wed Sep 20 18:17:56 2023","1500","The main experiment item","False","Flanker Task.osexp","/Users/RMILLER1/Library/CloudStorage/OneDrive-tarleton.edu(NTNET)/TSU Online Classes/Graduate Class/ Adv Quant Methods and Design","False","mono","False","18","no","white","no","no","768","legacy","55","55","/Users/RMILLER1/Library/CloudStorage/OneDrive-tarleton.edu(NTNET)/TSU Online Classes/Graduate Class/ Adv Quant Methods and Design/RM-subject-3.csv","legacy","Melodramatic Milgram","4.0.5","0","s","NA","h","NA","NA","s","467.0","NA","244229","NA","NA","467","2","legacy","1024","2","48000","-16","experiment","SSSSS","2","even","256588","NA","NA","342662","NA","NA","349176","348153","12344","NA","NA","349279","349747","349172","349278","12295","Flanker Task","47","26334.0","56","1024"
"84","84","471","471","#000000","legacy","legacy","legacy","incongruent","1","undefined","1","s","0","0","0","56","56","0","56","56","0","0","0","56","56","56","56","0","Wed Sep 20 18:17:56 2023","1500","The main experiment item","False","Flanker Task.osexp","/Users/RMILLER1/Library/CloudStorage/OneDrive-tarleton.edu(NTNET)/TSU Online Classes/Graduate Class/ Adv Quant Methods and Design","False","mono","False","18","no","white","no","no","768","legacy","56","56","/Users/RMILLER1/Library/CloudStorage/OneDrive-tarleton.edu(NTNET)/TSU Online Classes/Graduate Class/ Adv Quant Methods and Design/RM-subject-3.csv","legacy","Melodramatic Milgram","4.0.5","0","s","NA","h","NA","NA","s","562.0","NA","244229","NA","NA","562","2","legacy","1024","2","48000","-16","experiment","HHSHH","2","even","256588","NA","NA","342662","NA","NA","350773","349750","12344","NA","NA","350875","351438","350770","350875","12295","Flanker Task","48","26896.0","57","1024"
"84","84","472","472","#000000","legacy","legacy","legacy","incongruent","1","undefined","1","h","0","0","0","57","57","0","57","57","0","0","0","57","57","57","57","0","Wed Sep 20 18:17:56 2023","1500","The main experiment item","False","Flanker Task.osexp","/Users/RMILLER1/Library/CloudStorage/OneDrive-tarleton.edu(NTNET)/TSU Online Classes/Graduate Class/ Adv Quant Methods and Design","False","mono","False","18","no","white","no","no","768","legacy","57","57","/Users/RMILLER1/Library/CloudStorage/OneDrive-tarleton.edu(NTNET)/TSU Online Classes/Graduate Class/ Adv Quant Methods and Design/RM-subject-3.csv","legacy","Melodramatic Milgram","4.0.5","0","h","NA","h","NA","NA","h","513.0","NA","244229","NA","NA","513","2","legacy","1024","2","48000","-16","experiment","SSHSS","2","even","256588","NA","NA","342662","NA","NA","352460","351441","12344","NA","NA","352562","353075","352457","352562","12295","Flanker Task","49","27409.0","58","1024"
"84","84","472","472","#000000","legacy","legacy","legacy","incongruent","1","undefined","1","s","0","0","0","58","58","0","58","58","0","0","0","58","58","58","58","0","Wed Sep 20 18:17:56 2023","1500","The main experiment item","False","Flanker Task.osexp","/Users/RMILLER1/Library/CloudStorage/OneDrive-tarleton.edu(NTNET)/TSU Online Classes/Graduate Class/ Adv Quant Methods and Design","False","mono","False","18","no","white","no","no","768","legacy","58","58","/Users/RMILLER1/Library/CloudStorage/OneDrive-tarleton.edu(NTNET)/TSU Online Classes/Graduate Class/ Adv Quant Methods and Design/RM-subject-3.csv","legacy","Melodramatic Milgram","4.0.5","0","s","NA","h","NA","NA","s","457.0","NA","244229","NA","NA","457","2","legacy","1024","2","48000","-16","experiment","HHSHH","2","even","256588","NA","NA","342662","NA","NA","354094","353078","12344","NA","NA","354196","354653","354091","354196","12295","Flanker Task","50","27866.0","59","1024"
"85","85","470","470","#000000","legacy","legacy","legacy","incongruent","1","undefined","1","h","0","0","0","59","59","0","59","59","0","0","0","59","59","59","59","0","Wed Sep 20 18:17:56 2023","1500","The main experiment item","False","Flanker Task.osexp","/Users/RMILLER1/Library/CloudStorage/OneDrive-tarleton.edu(NTNET)/TSU Online Classes/Graduate Class/ Adv Quant Methods and Design","False","mono","False","18","no","white","no","no","768","legacy","59","59","/Users/RMILLER1/Library/CloudStorage/OneDrive-tarleton.edu(NTNET)/TSU Online Classes/Graduate Class/ Adv Quant Methods and Design/RM-subject-3.csv","legacy","Melodramatic Milgram","4.0.5","0","h","NA","h","NA","NA","h","370.0","NA","244229","NA","NA","370","2","legacy","1024","2","48000","-16","experiment","SSHSS","2","even","256588","NA","NA","342662","NA","NA","355667","354655","12344","NA","NA","355769","356140","355665","355768","12295","Flanker Task","51","28236.0","60","1024"
"85","85","472","472","#000000","legacy","legacy","legacy","incongruent","1","undefined","1","s","0","0","0","60","60","0","60","60","0","0","0","60","60","60","60","0","Wed Sep 20 18:17:56 2023","1500","The main experiment item","False","Flanker Task.osexp","/Users/RMILLER1/Library/CloudStorage/OneDrive-tarleton.edu(NTNET)/TSU Online Classes/Graduate Class/ Adv Quant Methods and Design","False","mono","False","18","no","white","no","no","768","legacy","60","60","/Users/RMILLER1/Library/CloudStorage/OneDrive-tarleton.edu(NTNET)/TSU Online Classes/Graduate Class/ Adv Quant Methods and Design/RM-subject-3.csv","legacy","Melodramatic Milgram","4.0.5","0","s","NA","h","NA","NA","s","584.0","NA","244229","NA","NA","584","2","legacy","1024","2","48000","-16","experiment","HHSHH","2","even","256588","NA","NA","342662","NA","NA","357162","356142","12344","NA","NA","357268","357852","357159","357268","12295","Flanker Task","52","28820.0","61","1024"
"85","85","473","473","#000000","legacy","legacy","legacy","congruent","1","undefined","1","h","0","0","0","61","61","0","61","61","0","0","0","61","61","61","61","0","Wed Sep 20 18:17:56 2023","1500","The main experiment item","False","Flanker Task.osexp","/Users/RMILLER1/Library/CloudStorage/OneDrive-tarleton.edu(NTNET)/TSU Online Classes/Graduate Class/ Adv Quant Methods and Design","False","mono","False","18","no","white","no","no","768","legacy","61","61","/Users/RMILLER1/Library/CloudStorage/OneDrive-tarleton.edu(NTNET)/TSU Online Classes/Graduate Class/ Adv Quant Methods and Design/RM-subject-3.csv","legacy","Melodramatic Milgram","4.0.5","0","h","NA","h","NA","NA","h","536.0","NA","244229","NA","NA","536","2","legacy","1024","2","48000","-16","experiment","HHHHH","2","even","256588","NA","NA","342662","NA","NA","358874","357854","12344","NA","NA","358976","359513","358871","358976","12295","Flanker Task","53","29356.0","62","1024"
"85","85","473","473","#000000","legacy","legacy","legacy","incongruent","1","undefined","1","s","0","0","0","62","62","0","62","62","0","0","0","62","62","62","62","0","Wed Sep 20 18:17:56 2023","1500","The main experiment item","False","Flanker Task.osexp","/Users/RMILLER1/Library/CloudStorage/OneDrive-tarleton.edu(NTNET)/TSU Online Classes/Graduate Class/ Adv Quant Methods and Design","False","mono","False","18","no","white","no","no","768","legacy","62","62","/Users/RMILLER1/Library/CloudStorage/OneDrive-tarleton.edu(NTNET)/TSU Online Classes/Graduate Class/ Adv Quant Methods and Design/RM-subject-3.csv","legacy","Melodramatic Milgram","4.0.5","0","s","NA","h","NA","NA","s","495.0","NA","244229","NA","NA","495","2","legacy","1024","2","48000","-16","experiment","HHSHH","2","even","256588","NA","NA","342662","NA","NA","360539","359517","12344","NA","NA","360641","361136","360536","360641","12295","Flanker Task","54","29851.0","63","1024"
"85","85","473","473","#000000","legacy","legacy","legacy","congruent","1","undefined","1","h","0","0","0","63","63","0","63","63","0","0","0","63","63","63","63","0","Wed Sep 20 18:17:56 2023","1500","The main experiment item","False","Flanker Task.osexp","/Users/RMILLER1/Library/CloudStorage/OneDrive-tarleton.edu(NTNET)/TSU Online Classes/Graduate Class/ Adv Quant Methods and Design","False","mono","False","18","no","white","no","no","768","legacy","63","63","/Users/RMILLER1/Library/CloudStorage/OneDrive-tarleton.edu(NTNET)/TSU Online Classes/Graduate Class/ Adv Quant Methods and Design/RM-subject-3.csv","legacy","Melodramatic Milgram","4.0.5","0","h","NA","h","NA","NA","h","424.0","NA","244229","NA","NA","424","2","legacy","1024","2","48000","-16","experiment","HHHHH","2","even","256588","NA","NA","342662","NA","NA","362159","361139","12344","NA","NA","362262","362687","362157","362262","12295","Flanker Task","55","30275.0","64","1024"
"86","86","473","473","#000000","legacy","legacy","legacy","incongruent","1","undefined","1","s","0","0","0","64","64","0","64","64","0","0","0","64","64","64","64","0","Wed Sep 20 18:17:56 2023","1500","The main experiment item","False","Flanker Task.osexp","/Users/RMILLER1/Library/CloudStorage/OneDrive-tarleton.edu(NTNET)/TSU Online Classes/Graduate Class/ Adv Quant Methods and Design","False","mono","False","18","no","white","no","no","768","legacy","64","64","/Users/RMILLER1/Library/CloudStorage/OneDrive-tarleton.edu(NTNET)/TSU Online Classes/Graduate Class/ Adv Quant Methods and Design/RM-subject-3.csv","legacy","Melodramatic Milgram","4.0.5","0","s","NA","h","NA","NA","s","493.0","NA","244229","NA","NA","493","2","legacy","1024","2","48000","-16","experiment","HHSHH","2","even","256588","NA","NA","342662","NA","NA","363709","362689","12344","NA","NA","363811","364305","363707","363811","12295","Flanker Task","56","30768.0","65","1024"
"86","86","483","483","#000000","legacy","legacy","legacy","incongruent","1","undefined","1","h","0","0","0","65","65","0","65","65","0","0","0","65","65","65","65","0","Wed Sep 20 18:17:56 2023","1500","The main experiment item","False","Flanker Task.osexp","/Users/RMILLER1/Library/CloudStorage/OneDrive-tarleton.edu(NTNET)/TSU Online Classes/Graduate Class/ Adv Quant Methods and Design","False","mono","False","18","no","white","no","no","768","legacy","65","65","/Users/RMILLER1/Library/CloudStorage/OneDrive-tarleton.edu(NTNET)/TSU Online Classes/Graduate Class/ Adv Quant Methods and Design/RM-subject-3.csv","legacy","Melodramatic Milgram","4.0.5","0","h","NA","h","NA","NA","h","1146.0","NA","244229","NA","NA","1146","2","legacy","1024","2","48000","-16","experiment","SSHSS","2","even","256588","NA","NA","342662","NA","NA","365328","364307","12344","NA","NA","365433","366580","365325","365433","12295","Flanker Task","57","31914.0","66","1024"
"86","86","482","482","#000000","legacy","legacy","legacy","incongruent","1","undefined","1","s","0","0","0","66","66","0","66","66","0","0","0","66","66","66","66","0","Wed Sep 20 18:17:56 2023","1500","The main experiment item","False","Flanker Task.osexp","/Users/RMILLER1/Library/CloudStorage/OneDrive-tarleton.edu(NTNET)/TSU Online Classes/Graduate Class/ Adv Quant Methods and Design","False","mono","False","18","no","white","no","no","768","legacy","66","66","/Users/RMILLER1/Library/CloudStorage/OneDrive-tarleton.edu(NTNET)/TSU Online Classes/Graduate Class/ Adv Quant Methods and Design/RM-subject-3.csv","legacy","Melodramatic Milgram","4.0.5","0","s","NA","h","NA","NA","s","445.0","NA","244229","NA","NA","445","2","legacy","1024","2","48000","-16","experiment","HHSHH","2","even","256588","NA","NA","342662","NA","NA","367606","366583","12344","NA","NA","367708","368154","367600","367708","12295","Flanker Task","58","32359.0","67","1024"
"86","86","483","483","#000000","legacy","legacy","legacy","congruent","1","undefined","1","s","0","0","0","67","67","0","67","67","0","0","0","67","67","67","67","0","Wed Sep 20 18:17:56 2023","1500","The main experiment item","False","Flanker Task.osexp","/Users/RMILLER1/Library/CloudStorage/OneDrive-tarleton.edu(NTNET)/TSU Online Classes/Graduate Class/ Adv Quant Methods and Design","False","mono","False","18","no","white","no","no","768","legacy","67","67","/Users/RMILLER1/Library/CloudStorage/OneDrive-tarleton.edu(NTNET)/TSU Online Classes/Graduate Class/ Adv Quant Methods and Design/RM-subject-3.csv","legacy","Melodramatic Milgram","4.0.5","0","s","NA","h","NA","NA","s","540.0","NA","244229","NA","NA","540","2","legacy","1024","2","48000","-16","experiment","SSSSS","2","even","256588","NA","NA","342662","NA","NA","369178","368157","12344","NA","NA","369280","369821","369174","369280","12295","Flanker Task","59","32899.0","68","1024"
"86","86","483","483","#000000","legacy","legacy","legacy","congruent","1","undefined","1","h","0","0","0","68","68","0","68","68","0","0","0","68","68","68","68","0","Wed Sep 20 18:17:56 2023","1500","The main experiment item","False","Flanker Task.osexp","/Users/RMILLER1/Library/CloudStorage/OneDrive-tarleton.edu(NTNET)/TSU Online Classes/Graduate Class/ Adv Quant Methods and Design","False","mono","False","18","no","white","no","no","768","legacy","68","68","/Users/RMILLER1/Library/CloudStorage/OneDrive-tarleton.edu(NTNET)/TSU Online Classes/Graduate Class/ Adv Quant Methods and Design/RM-subject-3.csv","legacy","Melodramatic Milgram","4.0.5","0","h","NA","h","NA","NA","h","434.0","NA","244229","NA","NA","434","2","legacy","1024","2","48000","-16","experiment","HHHHH","2","even","256588","NA","NA","342662","NA","NA","370857","369824","12344","NA","NA","370959","371394","370851","370959","12295","Flanker Task","60","33333.0","69","1024"
"87","87","482","482","#000000","legacy","legacy","legacy","incongruent","1","undefined","1","s","0","0","0","69","69","0","69","69","0","0","0","69","69","69","69","0","Wed Sep 20 18:17:56 2023","1500","The main experiment item","False","Flanker Task.osexp","/Users/RMILLER1/Library/CloudStorage/OneDrive-tarleton.edu(NTNET)/TSU Online Classes/Graduate Class/ Adv Quant Methods and Design","False","mono","False","18","no","white","no","no","768","legacy","69","69","/Users/RMILLER1/Library/CloudStorage/OneDrive-tarleton.edu(NTNET)/TSU Online Classes/Graduate Class/ Adv Quant Methods and Design/RM-subject-3.csv","legacy","Melodramatic Milgram","4.0.5","0","s","NA","h","NA","NA","s","446.0","NA","244229","NA","NA","446","2","legacy","1024","2","48000","-16","experiment","HHSHH","2","even","256588","NA","NA","342662","NA","NA","372418","371397","12344","NA","NA","372521","372968","372414","372521","12295","Flanker Task","61","33779.0","70","1024"
"87","87","481","481","#000000","legacy","legacy","legacy","congruent","1","undefined","1","h","0","0","0","70","70","0","70","70","0","0","0","70","70","70","70","0","Wed Sep 20 18:17:56 2023","1500","The main experiment item","False","Flanker Task.osexp","/Users/RMILLER1/Library/CloudStorage/OneDrive-tarleton.edu(NTNET)/TSU Online Classes/Graduate Class/ Adv Quant Methods and Design","False","mono","False","18","no","white","no","no","768","legacy","70","70","/Users/RMILLER1/Library/CloudStorage/OneDrive-tarleton.edu(NTNET)/TSU Online Classes/Graduate Class/ Adv Quant Methods and Design/RM-subject-3.csv","legacy","Melodramatic Milgram","4.0.5","0","h","NA","h","NA","NA","h","435.0","NA","244229","NA","NA","435","2","legacy","1024","2","48000","-16","experiment","HHHHH","2","even","256588","NA","NA","342662","NA","NA","373983","372970","12344","NA","NA","374085","374520","373981","374085","12295","Flanker Task","62","34214.0","71","1024"
"87","87","481","481","#000000","legacy","legacy","legacy","congruent","1","undefined","1","h","0","0","0","71","71","0","71","71","0","0","0","71","71","71","71","0","Wed Sep 20 18:17:56 2023","1500","The main experiment item","False","Flanker Task.osexp","/Users/RMILLER1/Library/CloudStorage/OneDrive-tarleton.edu(NTNET)/TSU Online Classes/Graduate Class/ Adv Quant Methods and Design","False","mono","False","18","no","white","no","no","768","legacy","71","71","/Users/RMILLER1/Library/CloudStorage/OneDrive-tarleton.edu(NTNET)/TSU Online Classes/Graduate Class/ Adv Quant Methods and Design/RM-subject-3.csv","legacy","Melodramatic Milgram","4.0.5","0","h","NA","h","NA","NA","h","448.0","NA","244229","NA","NA","448","2","legacy","1024","2","48000","-16","experiment","HHHHH","2","even","256588","NA","NA","342662","NA","NA","375542","374523","12344","NA","NA","375645","376094","375539","375645","12295","Flanker Task","63","34662.0","72","1024"
"87","87","480","480","#000000","legacy","legacy","legacy","congruent","1","undefined","1","s","0","0","0","72","72","0","72","72","0","0","0","72","72","72","72","0","Wed Sep 20 18:17:56 2023","1500","The main experiment item","False","Flanker Task.osexp","/Users/RMILLER1/Library/CloudStorage/OneDrive-tarleton.edu(NTNET)/TSU Online Classes/Graduate Class/ Adv Quant Methods and Design","False","mono","False","18","no","white","no","no","768","legacy","72","72","/Users/RMILLER1/Library/CloudStorage/OneDrive-tarleton.edu(NTNET)/TSU Online Classes/Graduate Class/ Adv Quant Methods and Design/RM-subject-3.csv","legacy","Melodramatic Milgram","4.0.5","0","s","NA","h","NA","NA","s","398.0","NA","244229","NA","NA","398","2","legacy","1024","2","48000","-16","experiment","SSSSS","2","even","256588","NA","NA","342662","NA","NA","377122","376096","12344","NA","NA","377225","377624","377115","377225","12295","Flanker Task","64","35060.0","73","1024"
"87","87","479","479","#000000","legacy","legacy","legacy","incongruent","1","undefined","1","h","0","0","0","73","73","0","73","73","0","0","0","73","73","73","73","0","Wed Sep 20 18:17:56 2023","1500","The main experiment item","False","Flanker Task.osexp","/Users/RMILLER1/Library/CloudStorage/OneDrive-tarleton.edu(NTNET)/TSU Online Classes/Graduate Class/ Adv Quant Methods and Design","False","mono","False","18","no","white","no","no","768","legacy","73","73","/Users/RMILLER1/Library/CloudStorage/OneDrive-tarleton.edu(NTNET)/TSU Online Classes/Graduate Class/ Adv Quant Methods and Design/RM-subject-3.csv","legacy","Melodramatic Milgram","4.0.5","0","h","NA","h","NA","NA","h","405.0","NA","244229","NA","NA","405","2","legacy","1024","2","48000","-16","experiment","SSHSS","2","even","256588","NA","NA","342662","NA","NA","378645","377626","12344","NA","NA","378749","379155","378641","378749","12295","Flanker Task","65","35465.0","74","1024"
"88","88","478","478","#000000","legacy","legacy","legacy","incongruent","1","undefined","1","h","0","0","0","74","74","0","74","74","0","0","0","74","74","74","74","0","Wed Sep 20 18:17:56 2023","1500","The main experiment item","False","Flanker Task.osexp","/Users/RMILLER1/Library/CloudStorage/OneDrive-tarleton.edu(NTNET)/TSU Online Classes/Graduate Class/ Adv Quant Methods and Design","False","mono","False","18","no","white","no","no","768","legacy","74","74","/Users/RMILLER1/Library/CloudStorage/OneDrive-tarleton.edu(NTNET)/TSU Online Classes/Graduate Class/ Adv Quant Methods and Design/RM-subject-3.csv","legacy","Melodramatic Milgram","4.0.5","0","h","NA","h","NA","NA","h","445.0","NA","244229","NA","NA","445","2","legacy","1024","2","48000","-16","experiment","SSHSS","2","even","256588","NA","NA","342662","NA","NA","380182","379157","12344","NA","NA","380285","380730","380179","380284","12295","Flanker Task","66","35910.0","75","1024"
"88","88","477","477","#000000","legacy","legacy","legacy","congruent","1","undefined","1","h","0","0","0","75","75","0","75","75","0","0","0","75","75","75","75","0","Wed Sep 20 18:17:56 2023","1500","The main experiment item","False","Flanker Task.osexp","/Users/RMILLER1/Library/CloudStorage/OneDrive-tarleton.edu(NTNET)/TSU Online Classes/Graduate Class/ Adv Quant Methods and Design","False","mono","False","18","no","white","no","no","768","legacy","75","75","/Users/RMILLER1/Library/CloudStorage/OneDrive-tarleton.edu(NTNET)/TSU Online Classes/Graduate Class/ Adv Quant Methods and Design/RM-subject-3.csv","legacy","Melodramatic Milgram","4.0.5","0","h","NA","h","NA","NA","h","375.0","NA","244229","NA","NA","375","2","legacy","1024","2","48000","-16","experiment","HHHHH","2","even","256588","NA","NA","342662","NA","NA","381759","380733","12344","NA","NA","381862","382238","381756","381862","12295","Flanker Task","67","36285.0","76","1024"
"88","88","477","477","#000000","legacy","legacy","legacy","congruent","1","undefined","1","s","0","0","0","76","76","0","76","76","0","0","0","76","76","76","76","0","Wed Sep 20 18:17:56 2023","1500","The main experiment item","False","Flanker Task.osexp","/Users/RMILLER1/Library/CloudStorage/OneDrive-tarleton.edu(NTNET)/TSU Online Classes/Graduate Class/ Adv Quant Methods and Design","False","mono","False","18","no","white","no","no","768","legacy","76","76","/Users/RMILLER1/Library/CloudStorage/OneDrive-tarleton.edu(NTNET)/TSU Online Classes/Graduate Class/ Adv Quant Methods and Design/RM-subject-3.csv","legacy","Melodramatic Milgram","4.0.5","0","s","NA","h","NA","NA","s","473.0","NA","244229","NA","NA","473","2","legacy","1024","2","48000","-16","experiment","SSSSS","2","even","256588","NA","NA","342662","NA","NA","383260","382240","12344","NA","NA","383363","383837","383256","383363","12295","Flanker Task","68","36758.0","77","1024"
"88","88","477","477","#000000","legacy","legacy","legacy","congruent","1","undefined","1","h","0","0","0","77","77","0","77","77","0","0","0","77","77","77","77","0","Wed Sep 20 18:17:56 2023","1500","The main experiment item","False","Flanker Task.osexp","/Users/RMILLER1/Library/CloudStorage/OneDrive-tarleton.edu(NTNET)/TSU Online Classes/Graduate Class/ Adv Quant Methods and Design","False","mono","False","18","no","white","no","no","768","legacy","77","77","/Users/RMILLER1/Library/CloudStorage/OneDrive-tarleton.edu(NTNET)/TSU Online Classes/Graduate Class/ Adv Quant Methods and Design/RM-subject-3.csv","legacy","Melodramatic Milgram","4.0.5","0","h","NA","h","NA","NA","h","462.0","NA","244229","NA","NA","462","2","legacy","1024","2","48000","-16","experiment","HHHHH","2","even","256588","NA","NA","342662","NA","NA","384868","383840","12344","NA","NA","384971","385434","384864","384971","12295","Flanker Task","69","37220.0","78","1024"
"87","87","475","475","#000000","legacy","legacy","legacy","incongruent","0","undefined","0","h","0","0","0","78","78","0","78","78","0","0","0","78","78","78","78","0","Wed Sep 20 18:17:56 2023","1500","The main experiment item","False","Flanker Task.osexp","/Users/RMILLER1/Library/CloudStorage/OneDrive-tarleton.edu(NTNET)/TSU Online Classes/Graduate Class/ Adv Quant Methods and Design","False","mono","False","18","no","white","no","no","768","legacy","78","78","/Users/RMILLER1/Library/CloudStorage/OneDrive-tarleton.edu(NTNET)/TSU Online Classes/Graduate Class/ Adv Quant Methods and Design/RM-subject-3.csv","legacy","Melodramatic Milgram","4.0.5","0","s","NA","h","NA","NA","s","382.0","NA","244229","NA","NA","382","2","legacy","1024","2","48000","-16","experiment","SSHSS","2","even","256588","NA","NA","342662","NA","NA","386456","385436","12344","NA","NA","386558","386941","386452","386558","12295","Flanker Task","69","37602.0","79","1024"
"87","87","475","475","#000000","legacy","legacy","legacy","congruent","1","undefined","1","s","0","0","0","79","79","0","79","79","0","0","0","79","79","79","79","0","Wed Sep 20 18:17:56 2023","1500","The main experiment item","False","Flanker Task.osexp","/Users/RMILLER1/Library/CloudStorage/OneDrive-tarleton.edu(NTNET)/TSU Online Classes/Graduate Class/ Adv Quant Methods and Design","False","mono","False","18","no","white","no","no","768","legacy","79","79","/Users/RMILLER1/Library/CloudStorage/OneDrive-tarleton.edu(NTNET)/TSU Online Classes/Graduate Class/ Adv Quant Methods and Design/RM-subject-3.csv","legacy","Melodramatic Milgram","4.0.5","0","s","NA","h","NA","NA","s","434.0","NA","244229","NA","NA","434","2","legacy","1024","2","48000","-16","experiment","SSSSS","2","even","256588","NA","NA","386943","NA","NA","388472","387446","12344","NA","NA","388575","389010","388469","388574","12295","Flanker Task","70","38036.0","80","1024"
"87","87","475","475","#000000","legacy","legacy","legacy","incongruent","1","undefined","1","h","0","0","0","80","80","0","80","80","0","0","0","80","80","80","80","0","Wed Sep 20 18:17:56 2023","600","The main experiment item","False","Flanker Task.osexp","/Users/RMILLER1/Library/CloudStorage/OneDrive-tarleton.edu(NTNET)/TSU Online Classes/Graduate Class/ Adv Quant Methods and Design","False","mono","False","18","no","white","no","no","768","legacy","0","79","/Users/RMILLER1/Library/CloudStorage/OneDrive-tarleton.edu(NTNET)/TSU Online Classes/Graduate Class/ Adv Quant Methods and Design/RM-subject-3.csv","legacy","Melodramatic Milgram","4.0.5","0","h","NA","h","h","NA","h","513.0","NA","244229","2436","NA","513","2","legacy","1024","2","48000","-16","experiment","SSHSS","2","even","256588","392453","NA","386943","NA","NA","392468","389012","12344","390017","NA","392570","393084","392466","392570","12295","Flanker Task","71","38549.0","81","1024"
"87","87","475","475","#000000","legacy","legacy","legacy","incongruent","1","undefined","1","s","0","0","0","81","81","0","81","81","0","0","0","81","81","81","81","0","Wed Sep 20 18:17:56 2023","600","The main experiment item","False","Flanker Task.osexp","/Users/RMILLER1/Library/CloudStorage/OneDrive-tarleton.edu(NTNET)/TSU Online Classes/Graduate Class/ Adv Quant Methods and Design","False","mono","False","18","no","white","no","no","768","legacy","1","79","/Users/RMILLER1/Library/CloudStorage/OneDrive-tarleton.edu(NTNET)/TSU Online Classes/Graduate Class/ Adv Quant Methods and Design/RM-subject-3.csv","legacy","Melodramatic Milgram","4.0.5","0","s","NA","h","h","NA","s","448.0","NA","244229","2436","NA","448","2","legacy","1024","2","48000","-16","experiment","HHSHH","2","even","256588","392453","NA","386943","NA","NA","394108","393086","12344","390017","NA","394211","394659","394104","394211","12295","Flanker Task","72","38997.0","82","1024"
"87","87","474","474","#000000","legacy","legacy","legacy","congruent","1","undefined","1","h","0","0","0","82","82","0","82","82","0","0","0","82","82","82","82","0","Wed Sep 20 18:17:56 2023","600","The main experiment item","False","Flanker Task.osexp","/Users/RMILLER1/Library/CloudStorage/OneDrive-tarleton.edu(NTNET)/TSU Online Classes/Graduate Class/ Adv Quant Methods and Design","False","mono","False","18","no","white","no","no","768","legacy","2","79","/Users/RMILLER1/Library/CloudStorage/OneDrive-tarleton.edu(NTNET)/TSU Online Classes/Graduate Class/ Adv Quant Methods and Design/RM-subject-3.csv","legacy","Melodramatic Milgram","4.0.5","0","h","NA","h","h","NA","h","378.0","NA","244229","2436","NA","378","2","legacy","1024","2","48000","-16","experiment","HHHHH","2","even","256588","392453","NA","386943","NA","NA","395683","394661","12344","390017","NA","395786","396164","395679","395786","12295","Flanker Task","73","39375.0","83","1024"
"88","88","475","475","#000000","legacy","legacy","legacy","incongruent","1","undefined","1","h","0","0","0","83","83","0","83","83","0","0","0","83","83","83","83","0","Wed Sep 20 18:17:56 2023","600","The main experiment item","False","Flanker Task.osexp","/Users/RMILLER1/Library/CloudStorage/OneDrive-tarleton.edu(NTNET)/TSU Online Classes/Graduate Class/ Adv Quant Methods and Design","False","mono","False","18","no","white","no","no","768","legacy","3","79","/Users/RMILLER1/Library/CloudStorage/OneDrive-tarleton.edu(NTNET)/TSU Online Classes/Graduate Class/ Adv Quant Methods and Design/RM-subject-3.csv","legacy","Melodramatic Milgram","4.0.5","0","h","NA","h","h","NA","h","563.0","NA","244229","2436","NA","563","2","legacy","1024","2","48000","-16","experiment","SSHSS","2","even","256588","392453","NA","386943","NA","NA","397188","396167","12344","390017","NA","397290","397854","397184","397290","12295","Flanker Task","74","39938.0","84","1024"
"88","88","474","474","#000000","legacy","legacy","legacy","incongruent","1","undefined","1","h","0","0","0","84","84","0","84","84","0","0","0","84","84","84","84","0","Wed Sep 20 18:17:56 2023","600","The main experiment item","False","Flanker Task.osexp","/Users/RMILLER1/Library/CloudStorage/OneDrive-tarleton.edu(NTNET)/TSU Online Classes/Graduate Class/ Adv Quant Methods and Design","False","mono","False","18","no","white","no","no","768","legacy","4","79","/Users/RMILLER1/Library/CloudStorage/OneDrive-tarleton.edu(NTNET)/TSU Online Classes/Graduate Class/ Adv Quant Methods and Design/RM-subject-3.csv","legacy","Melodramatic Milgram","4.0.5","0","h","NA","h","h","NA","h","423.0","NA","244229","2436","NA","423","2","legacy","1024","2","48000","-16","experiment","SSHSS","2","even","256588","392453","NA","386943","NA","NA","398878","397856","12344","390017","NA","398981","399405","398875","398980","12295","Flanker Task","75","40361.0","85","1024"
"88","88","474","474","#000000","legacy","legacy","legacy","incongruent","1","undefined","1","h","0","0","0","85","85","0","85","85","0","0","0","85","85","85","85","0","Wed Sep 20 18:17:56 2023","600","The main experiment item","False","Flanker Task.osexp","/Users/RMILLER1/Library/CloudStorage/OneDrive-tarleton.edu(NTNET)/TSU Online Classes/Graduate Class/ Adv Quant Methods and Design","False","mono","False","18","no","white","no","no","768","legacy","5","79","/Users/RMILLER1/Library/CloudStorage/OneDrive-tarleton.edu(NTNET)/TSU Online Classes/Graduate Class/ Adv Quant Methods and Design/RM-subject-3.csv","legacy","Melodramatic Milgram","4.0.5","0","h","NA","h","h","NA","h","448.0","NA","244229","2436","NA","448","2","legacy","1024","2","48000","-16","experiment","SSHSS","2","even","256588","392453","NA","386943","NA","NA","400428","399407","12344","390017","NA","400530","400979","400425","400530","12295","Flanker Task","76","40809.0","86","1024"
"88","88","474","474","#000000","legacy","legacy","legacy","incongruent","1","undefined","1","h","0","0","0","86","86","0","86","86","0","0","0","86","86","86","86","0","Wed Sep 20 18:17:56 2023","600","The main experiment item","False","Flanker Task.osexp","/Users/RMILLER1/Library/CloudStorage/OneDrive-tarleton.edu(NTNET)/TSU Online Classes/Graduate Class/ Adv Quant Methods and Design","False","mono","False","18","no","white","no","no","768","legacy","6","79","/Users/RMILLER1/Library/CloudStorage/OneDrive-tarleton.edu(NTNET)/TSU Online Classes/Graduate Class/ Adv Quant Methods and Design/RM-subject-3.csv","legacy","Melodramatic Milgram","4.0.5","0","h","NA","h","h","NA","h","435.0","NA","244229","2436","NA","435","2","legacy","1024","2","48000","-16","experiment","SSHSS","2","even","256588","392453","NA","386943","NA","NA","402005","400982","12344","390017","NA","402108","402544","402001","402107","12295","Flanker Task","77","41244.0","87","1024"
"88","88","473","473","#000000","legacy","legacy","legacy","congruent","1","undefined","1","s","0","0","0","87","87","0","87","87","0","0","0","87","87","87","87","0","Wed Sep 20 18:17:56 2023","600","The main experiment item","False","Flanker Task.osexp","/Users/RMILLER1/Library/CloudStorage/OneDrive-tarleton.edu(NTNET)/TSU Online Classes/Graduate Class/ Adv Quant Methods and Design","False","mono","False","18","no","white","no","no","768","legacy","7","79","/Users/RMILLER1/Library/CloudStorage/OneDrive-tarleton.edu(NTNET)/TSU Online Classes/Graduate Class/ Adv Quant Methods and Design/RM-subject-3.csv","legacy","Melodramatic Milgram","4.0.5","0","s","NA","h","h","NA","s","435.0","NA","244229","2436","NA","435","2","legacy","1024","2","48000","-16","experiment","SSSSS","2","even","256588","392453","NA","386943","NA","NA","403568","402547","12344","390017","NA","403672","404108","403565","403672","12295","Flanker Task","78","41679.0","88","1024"
"88","88","473","473","#000000","legacy","legacy","legacy","congruent","1","undefined","1","h","0","0","0","88","88","0","88","88","0","0","0","88","88","88","88","0","Wed Sep 20 18:17:56 2023","600","The main experiment item","False","Flanker Task.osexp","/Users/RMILLER1/Library/CloudStorage/OneDrive-tarleton.edu(NTNET)/TSU Online Classes/Graduate Class/ Adv Quant Methods and Design","False","mono","False","18","no","white","no","no","768","legacy","8","79","/Users/RMILLER1/Library/CloudStorage/OneDrive-tarleton.edu(NTNET)/TSU Online Classes/Graduate Class/ Adv Quant Methods and Design/RM-subject-3.csv","legacy","Melodramatic Milgram","4.0.5","0","h","NA","h","h","NA","h","445.0","NA","244229","2436","NA","445","2","legacy","1024","2","48000","-16","experiment","HHHHH","2","even","256588","392453","NA","386943","NA","NA","405138","404111","12344","390017","NA","405241","405686","405132","405241","12295","Flanker Task","79","42124.0","89","1024"
"88","88","473","473","#000000","legacy","legacy","legacy","incongruent","1","undefined","1","h","0","0","0","89","89","0","89","89","0","0","0","89","89","89","89","0","Wed Sep 20 18:17:56 2023","600","The main experiment item","False","Flanker Task.osexp","/Users/RMILLER1/Library/CloudStorage/OneDrive-tarleton.edu(NTNET)/TSU Online Classes/Graduate Class/ Adv Quant Methods and Design","False","mono","False","18","no","white","no","no","768","legacy","9","79","/Users/RMILLER1/Library/CloudStorage/OneDrive-tarleton.edu(NTNET)/TSU Online Classes/Graduate Class/ Adv Quant Methods and Design/RM-subject-3.csv","legacy","Melodramatic Milgram","4.0.5","0","h","NA","h","h","NA","h","495.0","NA","244229","2436","NA","495","2","legacy","1024","2","48000","-16","experiment","SSHSS","2","even","256588","392453","NA","386943","NA","NA","406708","405689","12344","390017","NA","406811","407307","406704","406811","12295","Flanker Task","80","42619.0","90","1024"
"89","89","474","474","#000000","legacy","legacy","legacy","congruent","1","undefined","1","s","0","0","0","90","90","0","90","90","0","0","0","90","90","90","90","0","Wed Sep 20 18:17:56 2023","600","The main experiment item","False","Flanker Task.osexp","/Users/RMILLER1/Library/CloudStorage/OneDrive-tarleton.edu(NTNET)/TSU Online Classes/Graduate Class/ Adv Quant Methods and Design","False","mono","False","18","no","white","no","no","768","legacy","10","79","/Users/RMILLER1/Library/CloudStorage/OneDrive-tarleton.edu(NTNET)/TSU Online Classes/Graduate Class/ Adv Quant Methods and Design/RM-subject-3.csv","legacy","Melodramatic Milgram","4.0.5","0","s","NA","h","h","NA","s","536.0","NA","244229","2436","NA","536","2","legacy","1024","2","48000","-16","experiment","SSSSS","2","even","256588","392453","NA","386943","NA","NA","408330","407309","12344","390017","NA","408433","408970","408326","408433","12295","Flanker Task","81","43155.0","91","1024"
"89","89","474","474","#000000","legacy","legacy","legacy","incongruent","1","undefined","1","s","0","0","0","91","91","0","91","91","0","0","0","91","91","91","91","0","Wed Sep 20 18:17:56 2023","600","The main experiment item","False","Flanker Task.osexp","/Users/RMILLER1/Library/CloudStorage/OneDrive-tarleton.edu(NTNET)/TSU Online Classes/Graduate Class/ Adv Quant Methods and Design","False","mono","False","18","no","white","no","no","768","legacy","11","79","/Users/RMILLER1/Library/CloudStorage/OneDrive-tarleton.edu(NTNET)/TSU Online Classes/Graduate Class/ Adv Quant Methods and Design/RM-subject-3.csv","legacy","Melodramatic Milgram","4.0.5","0","s","NA","h","h","NA","s","472.0","NA","244229","2436","NA","472","2","legacy","1024","2","48000","-16","experiment","HHSHH","2","even","256588","392453","NA","386943","NA","NA","409992","408972","12344","390017","NA","410094","410567","409989","410094","12295","Flanker Task","82","43627.0","92","1024"
"89","89","473","473","#000000","legacy","legacy","legacy","congruent","1","undefined","1","h","0","0","0","92","92","0","92","92","0","0","0","92","92","92","92","0","Wed Sep 20 18:17:56 2023","600","The main experiment item","False","Flanker Task.osexp","/Users/RMILLER1/Library/CloudStorage/OneDrive-tarleton.edu(NTNET)/TSU Online Classes/Graduate Class/ Adv Quant Methods and Design","False","mono","False","18","no","white","no","no","768","legacy","12","79","/Users/RMILLER1/Library/CloudStorage/OneDrive-tarleton.edu(NTNET)/TSU Online Classes/Graduate Class/ Adv Quant Methods and Design/RM-subject-3.csv","legacy","Melodramatic Milgram","4.0.5","0","h","NA","h","h","NA","h","411.0","NA","244229","2436","NA","411","2","legacy","1024","2","48000","-16","experiment","HHHHH","2","even","256588","392453","NA","386943","NA","NA","411582","410569","12344","390017","NA","411684","412096","411580","411684","12295","Flanker Task","83","44038.0","93","1024"
"89","89","473","473","#000000","legacy","legacy","legacy","congruent","1","undefined","1","s","0","0","0","93","93","0","93","93","0","0","0","93","93","93","93","0","Wed Sep 20 18:17:56 2023","600","The main experiment item","False","Flanker Task.osexp","/Users/RMILLER1/Library/CloudStorage/OneDrive-tarleton.edu(NTNET)/TSU Online Classes/Graduate Class/ Adv Quant Methods and Design","False","mono","False","18","no","white","no","no","768","legacy","13","79","/Users/RMILLER1/Library/CloudStorage/OneDrive-tarleton.edu(NTNET)/TSU Online Classes/Graduate Class/ Adv Quant Methods and Design/RM-subject-3.csv","legacy","Melodramatic Milgram","4.0.5","0","s","NA","h","h","NA","s","446.0","NA","244229","2436","NA","446","2","legacy","1024","2","48000","-16","experiment","SSSSS","2","even","256588","392453","NA","386943","NA","NA","413122","412099","12344","390017","NA","413224","413670","413117","413224","12295","Flanker Task","84","44484.0","94","1024"
"89","89","472","472","#000000","legacy","legacy","legacy","incongruent","1","undefined","1","h","0","0","0","94","94","0","94","94","0","0","0","94","94","94","94","0","Wed Sep 20 18:17:56 2023","600","The main experiment item","False","Flanker Task.osexp","/Users/RMILLER1/Library/CloudStorage/OneDrive-tarleton.edu(NTNET)/TSU Online Classes/Graduate Class/ Adv Quant Methods and Design","False","mono","False","18","no","white","no","no","768","legacy","14","79","/Users/RMILLER1/Library/CloudStorage/OneDrive-tarleton.edu(NTNET)/TSU Online Classes/Graduate Class/ Adv Quant Methods and Design/RM-subject-3.csv","legacy","Melodramatic Milgram","4.0.5","0","h","NA","h","h","NA","h","432.0","NA","244229","2436","NA","432","2","legacy","1024","2","48000","-16","experiment","SSHSS","2","even","256588","392453","NA","386943","NA","NA","414689","413673","12344","390017","NA","414791","415224","414686","414791","12295","Flanker Task","85","44916.0","95","1024"
"89","89","472","472","#000000","legacy","legacy","legacy","congruent","1","undefined","1","s","0","0","0","95","95","0","95","95","0","0","0","95","95","95","95","0","Wed Sep 20 18:17:56 2023","600","The main experiment item","False","Flanker Task.osexp","/Users/RMILLER1/Library/CloudStorage/OneDrive-tarleton.edu(NTNET)/TSU Online Classes/Graduate Class/ Adv Quant Methods and Design","False","mono","False","18","no","white","no","no","768","legacy","15","79","/Users/RMILLER1/Library/CloudStorage/OneDrive-tarleton.edu(NTNET)/TSU Online Classes/Graduate Class/ Adv Quant Methods and Design/RM-subject-3.csv","legacy","Melodramatic Milgram","4.0.5","0","s","NA","h","h","NA","s","421.0","NA","244229","2436","NA","421","2","legacy","1024","2","48000","-16","experiment","SSSSS","2","even","256588","392453","NA","386943","NA","NA","416250","415227","12344","390017","NA","416353","416775","416244","416353","12295","Flanker Task","86","45337.0","96","1024"
"89","89","472","472","#000000","legacy","legacy","legacy","congruent","1","undefined","1","h","0","0","0","96","96","0","96","96","0","0","0","96","96","96","96","0","Wed Sep 20 18:17:56 2023","600","The main experiment item","False","Flanker Task.osexp","/Users/RMILLER1/Library/CloudStorage/OneDrive-tarleton.edu(NTNET)/TSU Online Classes/Graduate Class/ Adv Quant Methods and Design","False","mono","False","18","no","white","no","no","768","legacy","16","79","/Users/RMILLER1/Library/CloudStorage/OneDrive-tarleton.edu(NTNET)/TSU Online Classes/Graduate Class/ Adv Quant Methods and Design/RM-subject-3.csv","legacy","Melodramatic Milgram","4.0.5","0","h","NA","h","h","NA","h","454.0","NA","244229","2436","NA","454","2","legacy","1024","2","48000","-16","experiment","HHHHH","2","even","256588","392453","NA","386943","NA","NA","417796","416777","12344","390017","NA","417899","418354","417793","417899","12295","Flanker Task","87","45791.0","97","1024"
"89","89","471","471","#000000","legacy","legacy","legacy","congruent","1","undefined","1","h","0","0","0","97","97","0","97","97","0","0","0","97","97","97","97","0","Wed Sep 20 18:17:56 2023","600","The main experiment item","False","Flanker Task.osexp","/Users/RMILLER1/Library/CloudStorage/OneDrive-tarleton.edu(NTNET)/TSU Online Classes/Graduate Class/ Adv Quant Methods and Design","False","mono","False","18","no","white","no","no","768","legacy","17","79","/Users/RMILLER1/Library/CloudStorage/OneDrive-tarleton.edu(NTNET)/TSU Online Classes/Graduate Class/ Adv Quant Methods and Design/RM-subject-3.csv","legacy","Melodramatic Milgram","4.0.5","0","h","NA","h","h","NA","h","444.0","NA","244229","2436","NA","444","2","legacy","1024","2","48000","-16","experiment","HHHHH","2","even","256588","392453","NA","386943","NA","NA","419377","418357","12344","390017","NA","419480","419925","419374","419480","12295","Flanker Task","88","46235.0","98","1024"
"89","89","471","471","#000000","legacy","legacy","legacy","congruent","1","undefined","1","h","0","0","0","98","98","0","98","98","0","0","0","98","98","98","98","0","Wed Sep 20 18:17:56 2023","600","The main experiment item","False","Flanker Task.osexp","/Users/RMILLER1/Library/CloudStorage/OneDrive-tarleton.edu(NTNET)/TSU Online Classes/Graduate Class/ Adv Quant Methods and Design","False","mono","False","18","no","white","no","no","768","legacy","18","79","/Users/RMILLER1/Library/CloudStorage/OneDrive-tarleton.edu(NTNET)/TSU Online Classes/Graduate Class/ Adv Quant Methods and Design/RM-subject-3.csv","legacy","Melodramatic Milgram","4.0.5","0","h","NA","h","h","NA","h","426.0","NA","244229","2436","NA","426","2","legacy","1024","2","48000","-16","experiment","HHHHH","2","even","256588","392453","NA","386943","NA","NA","420950","419928","12344","390017","NA","421053","421480","420944","421053","12295","Flanker Task","89","46661.0","99","1024"
"90","90","470","470","#000000","legacy","legacy","legacy","incongruent","1","undefined","1","s","0","0","0","99","99","0","99","99","0","0","0","99","99","99","99","0","Wed Sep 20 18:17:56 2023","600","The main experiment item","False","Flanker Task.osexp","/Users/RMILLER1/Library/CloudStorage/OneDrive-tarleton.edu(NTNET)/TSU Online Classes/Graduate Class/ Adv Quant Methods and Design","False","mono","False","18","no","white","no","no","768","legacy","19","79","/Users/RMILLER1/Library/CloudStorage/OneDrive-tarleton.edu(NTNET)/TSU Online Classes/Graduate Class/ Adv Quant Methods and Design/RM-subject-3.csv","legacy","Melodramatic Milgram","4.0.5","0","s","NA","h","h","NA","s","399.0","NA","244229","2436","NA","399","2","legacy","1024","2","48000","-16","experiment","HHSHH","2","even","256588","392453","NA","386943","NA","NA","422505","421483","12344","390017","NA","422608","423008","422499","422608","12295","Flanker Task","90","47060.0","100","1024"
"89","89","470","470","#000000","legacy","legacy","legacy","incongruent","0","undefined","0","s","0","0","0","100","100","0","100","100","0","0","0","100","100","100","100","0","Wed Sep 20 18:17:56 2023","600","The main experiment item","False","Flanker Task.osexp","/Users/RMILLER1/Library/CloudStorage/OneDrive-tarleton.edu(NTNET)/TSU Online Classes/Graduate Class/ Adv Quant Methods and Design","False","mono","False","18","no","white","no","no","768","legacy","20","79","/Users/RMILLER1/Library/CloudStorage/OneDrive-tarleton.edu(NTNET)/TSU Online Classes/Graduate Class/ Adv Quant Methods and Design/RM-subject-3.csv","legacy","Melodramatic Milgram","4.0.5","0","h","NA","h","h","NA","h","467.0","NA","244229","2436","NA","467","2","legacy","1024","2","48000","-16","experiment","HHSHH","2","even","256588","392453","NA","386943","NA","NA","424035","423010","12344","390017","NA","424139","424607","424032","424139","12295","Flanker Task","90","47527.0","101","1024"
"89","89","471","471","#000000","legacy","legacy","legacy","congruent","1","undefined","1","s","0","0","0","101","101","0","101","101","0","0","0","101","101","101","101","0","Wed Sep 20 18:17:56 2023","600","The main experiment item","False","Flanker Task.osexp","/Users/RMILLER1/Library/CloudStorage/OneDrive-tarleton.edu(NTNET)/TSU Online Classes/Graduate Class/ Adv Quant Methods and Design","False","mono","False","18","no","white","no","no","768","legacy","21","79","/Users/RMILLER1/Library/CloudStorage/OneDrive-tarleton.edu(NTNET)/TSU Online Classes/Graduate Class/ Adv Quant Methods and Design/RM-subject-3.csv","legacy","Melodramatic Milgram","4.0.5","0","s","NA","h","h","NA","s","522.0","NA","244229","2436","NA","522","2","legacy","1024","2","48000","-16","experiment","SSSSS","2","even","256588","392453","NA","424611","NA","NA","426142","425116","12344","390017","NA","426245","426768","426139","426244","12295","Flanker Task","91","48049.0","102","1024"
"89","89","471","471","#000000","legacy","legacy","legacy","congruent","1","undefined","1","h","0","0","0","102","102","0","102","102","0","0","0","102","102","102","102","0","Wed Sep 20 18:17:56 2023","600","The main experiment item","False","Flanker Task.osexp","/Users/RMILLER1/Library/CloudStorage/OneDrive-tarleton.edu(NTNET)/TSU Online Classes/Graduate Class/ Adv Quant Methods and Design","False","mono","False","18","no","white","no","no","768","legacy","22","79","/Users/RMILLER1/Library/CloudStorage/OneDrive-tarleton.edu(NTNET)/TSU Online Classes/Graduate Class/ Adv Quant Methods and Design/RM-subject-3.csv","legacy","Melodramatic Milgram","4.0.5","0","h","NA","h","h","NA","h","481.0","NA","244229","2436","NA","481","2","legacy","1024","2","48000","-16","experiment","HHHHH","2","even","256588","392453","NA","424611","NA","NA","427804","426771","12344","390017","NA","427906","428388","427799","427906","12295","Flanker Task","92","48530.0","103","1024"
