acc,accuracy,average_response_time,avg_rt,background,canvas_backend,clock_backend,color_backend,compensation,condition,coordinates,correct,correct_instructions1,correct_keyboard_response,correct_response,count_Block1,count_Block2,count_Block3,count_errorFeedback,count_experiment,count_faster,count_finish,count_fixation,count_instructions1,count_instructions2,count_instructions3,count_isi,count_keyboard_response,count_logger,count_sequence,count_sketchpad,count_sketchpad_1,count_stimulus,datetime,deadline,description,disable_garbage_collection,experiment_file,experiment_path,font_bold,font_family,font_italic,font_size,font_underline,foreground,form_clicks,fullscreen,height,keyboard_backend,live_row,live_row_Block1,logfile,mouse_backend,opensesame_codename,opensesame_version,repeat_cycle,response,response_finish,response_instructions1,response_instructions2,response_instructions3,response_keyboard_response,response_sketchpad,response_sketchpad_1,response_time,response_time_finish,response_time_instructions1,response_time_instructions2,response_time_instructions3,response_time_keyboard_response,response_time_sketchpad,response_time_sketchpad_1,round_decimals,sampler_backend,sound_buf_size,sound_channels,sound_freq,sound_sample_size,start,stimulus,subject_nr,subject_parity,time_Block1,time_Block2,time_Block3,time_errorFeedback,time_experiment,time_faster,time_finish,time_fixation,time_instructions1,time_instructions2,time_instructions3,time_isi,time_keyboard_response,time_logger,time_sequence,time_sketchpad,time_sketchpad_1,time_stimulus,title,total_correct,total_response_time,total_responses,uniform_coordinates,width
0,0,1500,1500,black,legacy,legacy,legacy,0,congruent,uniform,0,undefined,0,s,0,0,0,0,0,0,0,0,0,0,0,0,0,0,0,NA,NA,0,9/19/19 14:57,1500,The main experiment item,yes,Week4submit.osexp,C:\Users\DLGoupil\Desktop,no,mono,no,18,no,white,no,yes,768,legacy,0,0,C:/Users/DLGoupil/Desktop/dg-subject-1.csv,legacy,Kafkaesque Koffka,3.2.8,0,None,NA,s,NA,NA,None,NA,NA,1500,NA,10987,NA,NA,1500,NA,NA,2,legacy,1024,2,48000,-16,experiment,SSSSS,1,odd,13769,NA,NA,NA,2777,NA,NA,14012,2781,NA,NA,NA,14115,15615,14009,NA,NA,14115,Week4submit,0,1500,1,yes,1024
0,0,1500,1500,black,legacy,legacy,legacy,0,incongruent,uniform,0,undefined,0,h,0,0,0,1,0,1,0,1,0,0,0,1,1,1,1,NA,NA,1,9/19/19 14:57,1500,The main experiment item,yes,Week4submit.osexp,C:\Users\DLGoupil\Desktop,no,mono,no,18,no,white,no,yes,768,legacy,1,1,C:/Users/DLGoupil/Desktop/dg-subject-1.csv,legacy,Kafkaesque Koffka,3.2.8,0,None,NA,s,NA,NA,None,NA,NA,1500,NA,10987,NA,NA,1500,NA,NA,2,legacy,1024,2,48000,-16,experiment,SSHSS,1,odd,13769,NA,NA,15641,2777,NA,NA,17251,2781,NA,NA,16144,17354,18854,17249,NA,NA,17354,Week4submit,0,3000,2,yes,1024
0,0,1500,1500,black,legacy,legacy,legacy,0,incongruent,uniform,0,undefined,0,s,0,0,0,2,0,2,0,2,0,0,0,2,2,2,2,NA,NA,2,9/19/19 14:57,1500,The main experiment item,yes,Week4submit.osexp,C:\Users\DLGoupil\Desktop,no,mono,no,18,no,white,no,yes,768,legacy,2,2,C:/Users/DLGoupil/Desktop/dg-subject-1.csv,legacy,Kafkaesque Koffka,3.2.8,0,None,NA,s,NA,NA,None,NA,NA,1500,NA,10987,NA,NA,1500,NA,NA,2,legacy,1024,2,48000,-16,experiment,HHSHH,1,odd,13769,NA,NA,18859,2777,NA,NA,20456,2781,NA,NA,19362,20559,22059,20453,NA,NA,20559,Week4submit,0,4500,3,yes,1024
25,25,1403.5,1403.5,black,legacy,legacy,legacy,0,incongruent,uniform,1,undefined,1,s,0,0,0,3,0,3,0,3,0,0,0,3,3,3,3,NA,NA,3,9/19/19 14:57,1500,The main experiment item,yes,Week4submit.osexp,C:\Users\DLGoupil\Desktop,no,mono,no,18,no,white,no,yes,768,legacy,3,3,C:/Users/DLGoupil/Desktop/dg-subject-1.csv,legacy,Kafkaesque Koffka,3.2.8,0,s,NA,s,NA,NA,s,NA,NA,1114,NA,10987,NA,NA,1114,NA,NA,2,legacy,1024,2,48000,-16,experiment,HHSHH,1,odd,13769,NA,NA,22064,2777,NA,NA,23671,2781,NA,NA,22568,23774,24889,23668,NA,NA,23774,Week4submit,1,5614,4,yes,1024
20,20,1422.8,1422.8,black,legacy,legacy,legacy,0,incongruent,uniform,0,undefined,0,s,0,0,0,4,0,4,0,4,0,0,0,4,4,4,4,NA,NA,4,9/19/19 14:57,1500,The main experiment item,yes,Week4submit.osexp,C:\Users\DLGoupil\Desktop,no,mono,no,18,no,white,no,yes,768,legacy,4,4,C:/Users/DLGoupil/Desktop/dg-subject-1.csv,legacy,Kafkaesque Koffka,3.2.8,0,None,NA,s,NA,NA,None,NA,NA,1500,NA,10987,NA,NA,1500,NA,NA,2,legacy,1024,2,48000,-16,experiment,HHSHH,1,odd,13769,NA,NA,22064,2777,NA,NA,26005,2781,NA,NA,24894,26108,27608,26003,NA,NA,26108,Week4submit,1,7114,5,yes,1024
33.33333333,33.33333333,1399.833333,1399.833333,black,legacy,legacy,legacy,0,congruent,uniform,1,undefined,1,h,0,0,0,5,0,5,0,5,0,0,0,5,5,5,5,NA,NA,5,9/19/19 14:57,1500,The main experiment item,yes,Week4submit.osexp,C:\Users\DLGoupil\Desktop,no,mono,no,18,no,white,no,yes,768,legacy,5,5,C:/Users/DLGoupil/Desktop/dg-subject-1.csv,legacy,Kafkaesque Koffka,3.2.8,0,h,NA,s,NA,NA,h,NA,NA,1285,NA,10987,NA,NA,1285,NA,NA,2,legacy,1024,2,48000,-16,experiment,HHHHH,1,odd,13769,NA,NA,27613,2777,NA,NA,29220,2781,NA,NA,28116,29323,30609,29217,NA,NA,29323,Week4submit,2,8399,6,yes,1024
42.85714286,42.85714286,1335.428571,1335.428571,black,legacy,legacy,legacy,0,congruent,uniform,1,undefined,1,h,0,0,0,6,0,6,0,6,0,0,0,6,6,6,6,NA,NA,6,9/19/19 14:57,1500,The main experiment item,yes,Week4submit.osexp,C:\Users\DLGoupil\Desktop,no,mono,no,18,no,white,no,yes,768,legacy,6,6,C:/Users/DLGoupil/Desktop/dg-subject-1.csv,legacy,Kafkaesque Koffka,3.2.8,0,h,NA,s,NA,NA,h,NA,NA,949,NA,10987,NA,NA,949,NA,NA,2,legacy,1024,2,48000,-16,experiment,HHHHH,1,odd,13769,NA,NA,27613,2777,NA,NA,31717,2781,NA,NA,30614,31820,32770,31714,NA,NA,31820,Week4submit,3,9348,7,yes,1024
50,50,1295.875,1295.875,black,legacy,legacy,legacy,0,congruent,uniform,1,undefined,1,s,0,0,0,7,0,7,0,7,0,0,0,7,7,7,7,NA,NA,7,9/19/19 14:57,1500,The main experiment item,yes,Week4submit.osexp,C:\Users\DLGoupil\Desktop,no,mono,no,18,no,white,no,yes,768,legacy,7,7,C:/Users/DLGoupil/Desktop/dg-subject-1.csv,legacy,Kafkaesque Koffka,3.2.8,0,s,NA,s,NA,NA,s,NA,NA,1019,NA,10987,NA,NA,1019,NA,NA,2,legacy,1024,2,48000,-16,experiment,SSSSS,1,odd,13769,NA,NA,27613,2777,NA,NA,33879,2781,NA,NA,32775,33982,35001,33876,NA,NA,33982,Week4submit,4,10367,8,yes,1024
55.55555556,55.55555556,1295.666667,1295.666667,black,legacy,legacy,legacy,0,congruent,uniform,1,undefined,1,h,0,0,0,8,0,8,0,8,0,0,0,8,8,8,8,NA,NA,8,9/19/19 14:57,1500,The main experiment item,yes,Week4submit.osexp,C:\Users\DLGoupil\Desktop,no,mono,no,18,no,white,no,yes,768,legacy,8,8,C:/Users/DLGoupil/Desktop/dg-subject-1.csv,legacy,Kafkaesque Koffka,3.2.8,0,h,NA,s,NA,NA,h,NA,NA,1294,NA,10987,NA,NA,1294,NA,NA,2,legacy,1024,2,48000,-16,experiment,HHHHH,1,odd,13769,NA,NA,27613,2777,NA,NA,36116,2781,NA,NA,35006,36219,37513,36113,NA,NA,36219,Week4submit,5,11661,9,yes,1024
60,60,1257.3,1257.3,black,legacy,legacy,legacy,0,congruent,uniform,1,undefined,1,s,0,0,0,9,0,9,0,9,0,0,0,9,9,9,9,NA,NA,9,9/19/19 14:57,1500,The main experiment item,yes,Week4submit.osexp,C:\Users\DLGoupil\Desktop,no,mono,no,18,no,white,no,yes,768,legacy,9,9,C:/Users/DLGoupil/Desktop/dg-subject-1.csv,legacy,Kafkaesque Koffka,3.2.8,0,s,NA,s,NA,NA,s,NA,NA,912,NA,10987,NA,NA,912,NA,NA,2,legacy,1024,2,48000,-16,experiment,SSSSS,1,odd,13769,NA,NA,27613,2777,NA,NA,38618,2781,NA,NA,37518,38721,39633,38615,NA,NA,38721,Week4submit,6,12573,10,yes,1024
63.63636364,63.63636364,1214.636364,1214.636364,black,legacy,legacy,legacy,0,congruent,uniform,1,undefined,1,h,0,0,0,10,0,10,0,10,0,0,0,10,10,10,10,NA,NA,10,9/19/19 14:57,1500,The main experiment item,yes,Week4submit.osexp,C:\Users\DLGoupil\Desktop,no,mono,no,18,no,white,no,yes,768,legacy,10,10,C:/Users/DLGoupil/Desktop/dg-subject-1.csv,legacy,Kafkaesque Koffka,3.2.8,0,h,NA,s,NA,NA,h,NA,NA,788,NA,10987,NA,NA,788,NA,NA,2,legacy,1024,2,48000,-16,experiment,HHHHH,1,odd,13769,NA,NA,27613,2777,NA,NA,40742,2781,NA,NA,39638,40845,41633,40739,NA,NA,40845,Week4submit,7,13361,11,yes,1024
66.66666667,66.66666667,1165.333333,1165.333333,black,legacy,legacy,legacy,0,congruent,uniform,1,undefined,1,s,0,0,0,11,0,11,0,11,0,0,0,11,11,11,11,NA,NA,11,9/19/19 14:57,1500,The main experiment item,yes,Week4submit.osexp,C:\Users\DLGoupil\Desktop,no,mono,no,18,no,white,no,yes,768,legacy,11,11,C:/Users/DLGoupil/Desktop/dg-subject-1.csv,legacy,Kafkaesque Koffka,3.2.8,0,s,NA,s,NA,NA,s,NA,NA,623,NA,10987,NA,NA,623,NA,NA,2,legacy,1024,2,48000,-16,experiment,SSSSS,1,odd,13769,NA,NA,27613,2777,NA,NA,42747,2781,NA,NA,41638,42850,43474,42744,NA,NA,42850,Week4submit,8,13984,12,yes,1024
69.23076923,69.23076923,1142.384615,1142.384615,black,legacy,legacy,legacy,0,incongruent,uniform,1,undefined,1,s,0,0,0,12,0,12,0,12,0,0,0,12,12,12,12,NA,NA,12,9/19/19 14:57,1500,The main experiment item,yes,Week4submit.osexp,C:\Users\DLGoupil\Desktop,no,mono,no,18,no,white,no,yes,768,legacy,12,12,C:/Users/DLGoupil/Desktop/dg-subject-1.csv,legacy,Kafkaesque Koffka,3.2.8,0,s,NA,s,NA,NA,s,NA,NA,867,NA,10987,NA,NA,867,NA,NA,2,legacy,1024,2,48000,-16,experiment,HHSHH,1,odd,13769,NA,NA,27613,2777,NA,NA,44583,2781,NA,NA,43479,44686,45554,44580,NA,NA,44686,Week4submit,9,14851,13,yes,1024
71.42857143,71.42857143,1132.714286,1132.714286,black,legacy,legacy,legacy,0,incongruent,uniform,1,undefined,1,h,0,0,0,13,0,13,0,13,0,0,0,13,13,13,13,NA,NA,13,9/19/19 14:57,1500,The main experiment item,yes,Week4submit.osexp,C:\Users\DLGoupil\Desktop,no,mono,no,18,no,white,no,yes,768,legacy,13,13,C:/Users/DLGoupil/Desktop/dg-subject-1.csv,legacy,Kafkaesque Koffka,3.2.8,0,h,NA,s,NA,NA,h,NA,NA,1007,NA,10987,NA,NA,1007,NA,NA,2,legacy,1024,2,48000,-16,experiment,SSHSS,1,odd,13769,NA,NA,27613,2777,NA,NA,46659,2781,NA,NA,45559,46762,47770,46656,NA,NA,46762,Week4submit,10,15858,14,yes,1024
73.33333333,73.33333333,1119.933333,1119.933333,black,legacy,legacy,legacy,0,congruent,uniform,1,undefined,1,s,0,0,0,14,0,14,0,14,0,0,0,14,14,14,14,NA,NA,14,9/19/19 14:57,1500,The main experiment item,yes,Week4submit.osexp,C:\Users\DLGoupil\Desktop,no,mono,no,18,no,white,no,yes,768,legacy,14,14,C:/Users/DLGoupil/Desktop/dg-subject-1.csv,legacy,Kafkaesque Koffka,3.2.8,0,s,NA,s,NA,NA,s,NA,NA,941,NA,10987,NA,NA,941,NA,NA,2,legacy,1024,2,48000,-16,experiment,SSSSS,1,odd,13769,NA,NA,27613,2777,NA,NA,48877,2781,NA,NA,47775,48980,49921,48874,NA,NA,48980,Week4submit,11,16799,15,yes,1024
75,75,1102,1102,black,legacy,legacy,legacy,0,incongruent,uniform,1,undefined,1,s,0,0,0,15,0,15,0,15,0,0,0,15,15,15,15,NA,NA,15,9/19/19 14:57,1500,The main experiment item,yes,Week4submit.osexp,C:\Users\DLGoupil\Desktop,no,mono,no,18,no,white,no,yes,768,legacy,15,15,C:/Users/DLGoupil/Desktop/dg-subject-1.csv,legacy,Kafkaesque Koffka,3.2.8,0,s,NA,s,NA,NA,s,NA,NA,833,NA,10987,NA,NA,833,NA,NA,2,legacy,1024,2,48000,-16,experiment,HHSHH,1,odd,13769,NA,NA,27613,2777,NA,NA,51032,2781,NA,NA,49926,51135,51969,51029,NA,NA,51135,Week4submit,12,17632,16,yes,1024
76.47058824,76.47058824,1081.176471,1081.176471,black,legacy,legacy,legacy,0,incongruent,uniform,1,undefined,1,s,0,0,0,16,0,16,0,16,0,0,0,16,16,16,16,NA,NA,16,9/19/19 14:57,1500,The main experiment item,yes,Week4submit.osexp,C:\Users\DLGoupil\Desktop,no,mono,no,18,no,white,no,yes,768,legacy,16,16,C:/Users/DLGoupil/Desktop/dg-subject-1.csv,legacy,Kafkaesque Koffka,3.2.8,0,s,NA,s,NA,NA,s,NA,NA,748,NA,10987,NA,NA,748,NA,NA,2,legacy,1024,2,48000,-16,experiment,HHSHH,1,odd,13769,NA,NA,27613,2777,NA,NA,53077,2781,NA,NA,51974,53180,53929,53074,NA,NA,53180,Week4submit,13,18380,17,yes,1024
77.77777778,77.77777778,1091.555556,1091.555556,black,legacy,legacy,legacy,0,incongruent,uniform,1,undefined,1,h,0,0,0,17,0,17,0,17,0,0,0,17,17,17,17,NA,NA,17,9/19/19 14:57,1500,The main experiment item,yes,Week4submit.osexp,C:\Users\DLGoupil\Desktop,no,mono,no,18,no,white,no,yes,768,legacy,17,17,C:/Users/DLGoupil/Desktop/dg-subject-1.csv,legacy,Kafkaesque Koffka,3.2.8,0,h,NA,s,NA,NA,h,NA,NA,1268,NA,10987,NA,NA,1268,NA,NA,2,legacy,1024,2,48000,-16,experiment,SSHSS,1,odd,13769,NA,NA,27613,2777,NA,NA,55045,2781,NA,NA,53934,55148,56417,55042,NA,NA,55148,Week4submit,14,19648,18,yes,1024
78.94736842,78.94736842,1075.526316,1075.526316,black,legacy,legacy,legacy,0,incongruent,uniform,1,undefined,1,h,0,0,0,18,0,18,0,18,0,0,0,18,18,18,18,NA,NA,18,9/19/19 14:57,1500,The main experiment item,yes,Week4submit.osexp,C:\Users\DLGoupil\Desktop,no,mono,no,18,no,white,no,yes,768,legacy,18,18,C:/Users/DLGoupil/Desktop/dg-subject-1.csv,legacy,Kafkaesque Koffka,3.2.8,0,h,NA,s,NA,NA,h,NA,NA,787,NA,10987,NA,NA,787,NA,NA,2,legacy,1024,2,48000,-16,experiment,SSHSS,1,odd,13769,NA,NA,27613,2777,NA,NA,57526,2781,NA,NA,56422,57629,58417,57523,NA,NA,57629,Week4submit,15,20435,19,yes,1024
80,80,1061.55,1061.55,black,legacy,legacy,legacy,0,congruent,uniform,1,undefined,1,s,0,0,0,19,0,19,0,19,0,0,0,19,19,19,19,NA,NA,19,9/19/19 14:57,1500,The main experiment item,yes,Week4submit.osexp,C:\Users\DLGoupil\Desktop,no,mono,no,18,no,white,no,yes,768,legacy,19,19,C:/Users/DLGoupil/Desktop/dg-subject-1.csv,legacy,Kafkaesque Koffka,3.2.8,0,s,NA,s,NA,NA,s,NA,NA,796,NA,10987,NA,NA,796,NA,NA,2,legacy,1024,2,48000,-16,experiment,SSSSS,1,odd,13769,NA,NA,27613,2777,NA,NA,59525,2781,NA,NA,58423,59628,60425,59522,NA,NA,59628,Week4submit,16,21231,20,yes,1024
80.95238095,80.95238095,1058,1058,black,legacy,legacy,legacy,0,incongruent,uniform,1,undefined,1,h,0,0,0,20,0,20,0,20,0,0,0,20,20,20,20,NA,NA,20,9/19/19 14:57,1500,The main experiment item,yes,Week4submit.osexp,C:\Users\DLGoupil\Desktop,no,mono,no,18,no,white,no,yes,768,legacy,20,20,C:/Users/DLGoupil/Desktop/dg-subject-1.csv,legacy,Kafkaesque Koffka,3.2.8,0,h,NA,s,NA,NA,h,NA,NA,987,NA,10987,NA,NA,987,NA,NA,2,legacy,1024,2,48000,-16,experiment,SSHSS,1,odd,13769,NA,NA,27613,2777,NA,NA,61534,2781,NA,NA,60431,61637,62625,61531,NA,NA,61637,Week4submit,17,22218,21,yes,1024
81.81818182,81.81818182,1037.5,1037.5,black,legacy,legacy,legacy,0,incongruent,uniform,1,undefined,1,s,0,0,0,21,0,21,0,21,0,0,0,21,21,21,21,NA,NA,21,9/19/19 14:57,1500,The main experiment item,yes,Week4submit.osexp,C:\Users\DLGoupil\Desktop,no,mono,no,18,no,white,no,yes,768,legacy,21,21,C:/Users/DLGoupil/Desktop/dg-subject-1.csv,legacy,Kafkaesque Koffka,3.2.8,0,s,NA,s,NA,NA,s,NA,NA,607,NA,10987,NA,NA,607,NA,NA,2,legacy,1024,2,48000,-16,experiment,HHSHH,1,odd,13769,NA,NA,27613,2777,NA,NA,63730,2781,NA,NA,62630,63833,64441,63728,NA,NA,63833,Week4submit,18,22825,22,yes,1024
82.60869565,82.60869565,1022.782609,1022.782609,black,legacy,legacy,legacy,0,congruent,uniform,1,undefined,1,h,0,0,0,22,0,22,0,22,0,0,0,22,22,22,22,NA,NA,22,9/19/19 14:57,1500,The main experiment item,yes,Week4submit.osexp,C:\Users\DLGoupil\Desktop,no,mono,no,18,no,white,no,yes,768,legacy,22,22,C:/Users/DLGoupil/Desktop/dg-subject-1.csv,legacy,Kafkaesque Koffka,3.2.8,0,h,NA,s,NA,NA,h,NA,NA,699,NA,10987,NA,NA,699,NA,NA,2,legacy,1024,2,48000,-16,experiment,HHHHH,1,odd,13769,NA,NA,27613,2777,NA,NA,65542,2781,NA,NA,64446,65645,66345,65539,NA,NA,65645,Week4submit,19,23524,23,yes,1024
83.33333333,83.33333333,1010.041667,1010.041667,black,legacy,legacy,legacy,0,congruent,uniform,1,undefined,1,h,0,0,0,23,0,23,0,23,0,0,0,23,23,23,23,NA,NA,23,9/19/19 14:57,1500,The main experiment item,yes,Week4submit.osexp,C:\Users\DLGoupil\Desktop,no,mono,no,18,no,white,no,yes,768,legacy,23,23,C:/Users/DLGoupil/Desktop/dg-subject-1.csv,legacy,Kafkaesque Koffka,3.2.8,0,h,NA,s,NA,NA,h,NA,NA,717,NA,10987,NA,NA,717,NA,NA,2,legacy,1024,2,48000,-16,experiment,HHHHH,1,odd,13769,NA,NA,27613,2777,NA,NA,67453,2781,NA,NA,66350,67556,68273,67450,NA,NA,67556,Week4submit,20,24241,24,yes,1024
84,84,997.4,997.4,black,legacy,legacy,legacy,0,incongruent,uniform,1,undefined,1,h,0,0,0,24,0,24,0,24,0,0,0,24,24,24,24,NA,NA,24,9/19/19 14:57,1500,The main experiment item,yes,Week4submit.osexp,C:\Users\DLGoupil\Desktop,no,mono,no,18,no,white,no,yes,768,legacy,24,24,C:/Users/DLGoupil/Desktop/dg-subject-1.csv,legacy,Kafkaesque Koffka,3.2.8,0,h,NA,s,NA,NA,h,NA,NA,694,NA,10987,NA,NA,694,NA,NA,2,legacy,1024,2,48000,-16,experiment,SSHSS,1,odd,13769,NA,NA,27613,2777,NA,NA,69387,2781,NA,NA,68278,69490,70185,69385,NA,NA,69490,Week4submit,21,24935,25,yes,1024
84.61538462,84.61538462,983.4615385,983.4615385,black,legacy,legacy,legacy,0,incongruent,uniform,1,undefined,1,h,0,0,0,25,0,25,0,25,0,0,0,25,25,25,25,NA,NA,25,9/19/19 14:57,1500,The main experiment item,yes,Week4submit.osexp,C:\Users\DLGoupil\Desktop,no,mono,no,18,no,white,no,yes,768,legacy,25,25,C:/Users/DLGoupil/Desktop/dg-subject-1.csv,legacy,Kafkaesque Koffka,3.2.8,0,h,NA,s,NA,NA,h,NA,NA,635,NA,10987,NA,NA,635,NA,NA,2,legacy,1024,2,48000,-16,experiment,SSHSS,1,odd,13769,NA,NA,27613,2777,NA,NA,71286,2781,NA,NA,70190,71389,72025,71283,NA,NA,71389,Week4submit,22,25570,26,yes,1024
85.18518519,85.18518519,970.4074074,970.4074074,black,legacy,legacy,legacy,0,congruent,uniform,1,undefined,1,h,0,0,0,26,0,26,0,26,0,0,0,26,26,26,26,NA,NA,26,9/19/19 14:57,1500,The main experiment item,yes,Week4submit.osexp,C:\Users\DLGoupil\Desktop,no,mono,no,18,no,white,no,yes,768,legacy,26,26,C:/Users/DLGoupil/Desktop/dg-subject-1.csv,legacy,Kafkaesque Koffka,3.2.8,0,h,NA,s,NA,NA,h,NA,NA,631,NA,10987,NA,NA,631,NA,NA,2,legacy,1024,2,48000,-16,experiment,HHHHH,1,odd,13769,NA,NA,27613,2777,NA,NA,73138,2781,NA,NA,72030,73241,73873,73135,NA,NA,73241,Week4submit,23,26201,27,yes,1024
85.71428571,85.71428571,960.2857143,960.2857143,black,legacy,legacy,legacy,0,incongruent,uniform,1,undefined,1,h,0,0,0,27,0,27,0,27,0,0,0,27,27,27,27,NA,NA,27,9/19/19 14:57,1500,The main experiment item,yes,Week4submit.osexp,C:\Users\DLGoupil\Desktop,no,mono,no,18,no,white,no,yes,768,legacy,27,27,C:/Users/DLGoupil/Desktop/dg-subject-1.csv,legacy,Kafkaesque Koffka,3.2.8,0,h,NA,s,NA,NA,h,NA,NA,687,NA,10987,NA,NA,687,NA,NA,2,legacy,1024,2,48000,-16,experiment,SSHSS,1,odd,13769,NA,NA,27613,2777,NA,NA,74978,2781,NA,NA,73878,75081,75769,74975,NA,NA,75081,Week4submit,24,26888,28,yes,1024
86.20689655,86.20689655,956.0689655,956.0689655,black,legacy,legacy,legacy,0,incongruent,uniform,1,undefined,1,s,0,0,0,28,0,28,0,28,0,0,0,28,28,28,28,NA,NA,28,9/19/19 14:57,1500,The main experiment item,yes,Week4submit.osexp,C:\Users\DLGoupil\Desktop,no,mono,no,18,no,white,no,yes,768,legacy,28,28,C:/Users/DLGoupil/Desktop/dg-subject-1.csv,legacy,Kafkaesque Koffka,3.2.8,0,s,NA,s,NA,NA,s,NA,NA,838,NA,10987,NA,NA,838,NA,NA,2,legacy,1024,2,48000,-16,experiment,HHSHH,1,odd,13769,NA,NA,27613,2777,NA,NA,76884,2781,NA,NA,75774,76987,77825,76881,NA,NA,76987,Week4submit,25,27726,29,yes,1024
86.66666667,86.66666667,949.4,949.4,black,legacy,legacy,legacy,0,incongruent,uniform,1,undefined,1,s,0,0,0,29,0,29,0,29,0,0,0,29,29,29,29,NA,NA,29,9/19/19 14:57,1500,The main experiment item,yes,Week4submit.osexp,C:\Users\DLGoupil\Desktop,no,mono,no,18,no,white,no,yes,768,legacy,29,29,C:/Users/DLGoupil/Desktop/dg-subject-1.csv,legacy,Kafkaesque Koffka,3.2.8,0,s,NA,s,NA,NA,s,NA,NA,756,NA,10987,NA,NA,756,NA,NA,2,legacy,1024,2,48000,-16,experiment,HHSHH,1,odd,13769,NA,NA,27613,2777,NA,NA,78934,2781,NA,NA,77830,79037,79793,78931,NA,NA,79037,Week4submit,26,28482,30,yes,1024
87.09677419,87.09677419,944.0322581,944.0322581,black,legacy,legacy,legacy,0,incongruent,uniform,1,undefined,1,h,0,0,0,30,0,30,0,30,0,0,0,30,30,30,30,NA,NA,30,9/19/19 14:57,1500,The main experiment item,yes,Week4submit.osexp,C:\Users\DLGoupil\Desktop,no,mono,no,18,no,white,no,yes,768,legacy,30,30,C:/Users/DLGoupil/Desktop/dg-subject-1.csv,legacy,Kafkaesque Koffka,3.2.8,0,h,NA,s,NA,NA,h,NA,NA,783,NA,10987,NA,NA,783,NA,NA,2,legacy,1024,2,48000,-16,experiment,SSHSS,1,odd,13769,NA,NA,27613,2777,NA,NA,80907,2781,NA,NA,79798,81010,81793,80904,NA,NA,81010,Week4submit,27,29265,31,yes,1024
87.5,87.5,936.96875,936.96875,black,legacy,legacy,legacy,0,congruent,uniform,1,undefined,1,s,0,0,0,31,0,31,0,31,0,0,0,31,31,31,31,NA,NA,31,9/19/19 14:57,1500,The main experiment item,yes,Week4submit.osexp,C:\Users\DLGoupil\Desktop,no,mono,no,18,no,white,no,yes,768,legacy,31,31,C:/Users/DLGoupil/Desktop/dg-subject-1.csv,legacy,Kafkaesque Koffka,3.2.8,0,s,NA,s,NA,NA,s,NA,NA,718,NA,10987,NA,NA,718,NA,NA,2,legacy,1024,2,48000,-16,experiment,SSSSS,1,odd,13769,NA,NA,27613,2777,NA,NA,82900,2781,NA,NA,81798,83003,83721,82897,NA,NA,83003,Week4submit,28,29983,32,yes,1024
87.87878788,87.87878788,930.4242424,930.4242424,black,legacy,legacy,legacy,0,incongruent,uniform,1,undefined,1,h,0,0,0,32,0,32,0,32,0,0,0,32,32,32,32,NA,NA,32,9/19/19 14:57,1500,The main experiment item,yes,Week4submit.osexp,C:\Users\DLGoupil\Desktop,no,mono,no,18,no,white,no,yes,768,legacy,32,32,C:/Users/DLGoupil/Desktop/dg-subject-1.csv,legacy,Kafkaesque Koffka,3.2.8,0,h,NA,s,NA,NA,h,NA,NA,721,NA,10987,NA,NA,721,NA,NA,2,legacy,1024,2,48000,-16,experiment,SSHSS,1,odd,13769,NA,NA,27613,2777,NA,NA,84825,2781,NA,NA,83726,84928,85649,84822,NA,NA,84928,Week4submit,29,30704,33,yes,1024
88.23529412,88.23529412,924.2352941,924.2352941,black,legacy,legacy,legacy,0,incongruent,uniform,1,undefined,1,s,0,0,0,33,0,33,0,33,0,0,0,33,33,33,33,NA,NA,33,9/19/19 14:57,1500,The main experiment item,yes,Week4submit.osexp,C:\Users\DLGoupil\Desktop,no,mono,no,18,no,white,no,yes,768,legacy,33,33,C:/Users/DLGoupil/Desktop/dg-subject-1.csv,legacy,Kafkaesque Koffka,3.2.8,0,s,NA,s,NA,NA,s,NA,NA,720,NA,10987,NA,NA,720,NA,NA,2,legacy,1024,2,48000,-16,experiment,HHSHH,1,odd,13769,NA,NA,27613,2777,NA,NA,86762,2781,NA,NA,85654,86865,87585,86759,NA,NA,86865,Week4submit,30,31424,34,yes,1024
88.57142857,88.57142857,918.3142857,918.3142857,black,legacy,legacy,legacy,0,congruent,uniform,1,undefined,1,h,0,0,0,34,0,34,0,34,0,0,0,34,34,34,34,NA,NA,34,9/19/19 14:57,1500,The main experiment item,yes,Week4submit.osexp,C:\Users\DLGoupil\Desktop,no,mono,no,18,no,white,no,yes,768,legacy,34,34,C:/Users/DLGoupil/Desktop/dg-subject-1.csv,legacy,Kafkaesque Koffka,3.2.8,0,h,NA,s,NA,NA,h,NA,NA,717,NA,10987,NA,NA,717,NA,NA,2,legacy,1024,2,48000,-16,experiment,HHHHH,1,odd,13769,NA,NA,27613,2777,NA,NA,88693,2781,NA,NA,87591,88796,89513,88690,NA,NA,88796,Week4submit,31,32141,35,yes,1024
88.88888889,88.88888889,910.3333333,910.3333333,black,legacy,legacy,legacy,0,congruent,uniform,1,undefined,1,s,0,0,0,35,0,35,0,35,0,0,0,35,35,35,35,NA,NA,35,9/19/19 14:57,1500,The main experiment item,yes,Week4submit.osexp,C:\Users\DLGoupil\Desktop,no,mono,no,18,no,white,no,yes,768,legacy,35,35,C:/Users/DLGoupil/Desktop/dg-subject-1.csv,legacy,Kafkaesque Koffka,3.2.8,0,s,NA,s,NA,NA,s,NA,NA,631,NA,10987,NA,NA,631,NA,NA,2,legacy,1024,2,48000,-16,experiment,SSSSS,1,odd,13769,NA,NA,27613,2777,NA,NA,90627,2781,NA,NA,89519,90730,91361,90624,NA,NA,90730,Week4submit,32,32772,36,yes,1024
89.18918919,89.18918919,901.7027027,901.7027027,black,legacy,legacy,legacy,0,incongruent,uniform,1,undefined,1,s,0,0,0,36,0,36,0,36,0,0,0,36,36,36,36,NA,NA,36,9/19/19 14:57,1500,The main experiment item,yes,Week4submit.osexp,C:\Users\DLGoupil\Desktop,no,mono,no,18,no,white,no,yes,768,legacy,36,36,C:/Users/DLGoupil/Desktop/dg-subject-1.csv,legacy,Kafkaesque Koffka,3.2.8,0,s,NA,s,NA,NA,s,NA,NA,591,NA,10987,NA,NA,591,NA,NA,2,legacy,1024,2,48000,-16,experiment,HHSHH,1,odd,13769,NA,NA,27613,2777,NA,NA,92467,2781,NA,NA,91367,92570,93161,92464,NA,NA,92570,Week4submit,33,33363,37,yes,1024
89.47368421,89.47368421,894.7368421,894.7368421,black,legacy,legacy,legacy,0,congruent,uniform,1,undefined,1,h,0,0,0,37,0,37,0,37,0,0,0,37,37,37,37,NA,NA,37,9/19/19 14:57,1500,The main experiment item,yes,Week4submit.osexp,C:\Users\DLGoupil\Desktop,no,mono,no,18,no,white,no,yes,768,legacy,37,37,C:/Users/DLGoupil/Desktop/dg-subject-1.csv,legacy,Kafkaesque Koffka,3.2.8,0,h,NA,s,NA,NA,h,NA,NA,637,NA,10987,NA,NA,637,NA,NA,2,legacy,1024,2,48000,-16,experiment,HHHHH,1,odd,13769,NA,NA,27613,2777,NA,NA,94269,2781,NA,NA,93167,94372,95009,94266,NA,NA,94372,Week4submit,34,34000,38,yes,1024
89.74358974,89.74358974,889.6410256,889.6410256,black,legacy,legacy,legacy,0,congruent,uniform,1,undefined,1,h,0,0,0,38,0,38,0,38,0,0,0,38,38,38,38,NA,NA,38,9/19/19 14:57,1500,The main experiment item,yes,Week4submit.osexp,C:\Users\DLGoupil\Desktop,no,mono,no,18,no,white,no,yes,768,legacy,38,38,C:/Users/DLGoupil/Desktop/dg-subject-1.csv,legacy,Kafkaesque Koffka,3.2.8,0,h,NA,s,NA,NA,h,NA,NA,696,NA,10987,NA,NA,696,NA,NA,2,legacy,1024,2,48000,-16,experiment,HHHHH,1,odd,13769,NA,NA,27613,2777,NA,NA,96122,2781,NA,NA,95015,96225,96921,96119,NA,NA,96225,Week4submit,35,34696,39,yes,1024
90,90,882.55,882.55,black,legacy,legacy,legacy,0,congruent,uniform,1,undefined,1,h,0,0,0,39,0,39,0,39,0,0,0,39,39,39,39,NA,NA,39,9/19/19 14:57,1500,The main experiment item,yes,Week4submit.osexp,C:\Users\DLGoupil\Desktop,no,mono,no,18,no,white,no,yes,768,legacy,39,39,C:/Users/DLGoupil/Desktop/dg-subject-1.csv,legacy,Kafkaesque Koffka,3.2.8,0,h,NA,s,NA,NA,h,NA,NA,606,NA,10987,NA,NA,606,NA,NA,2,legacy,1024,2,48000,-16,experiment,HHHHH,1,odd,13769,NA,NA,27613,2777,NA,NA,98036,2781,NA,NA,96927,98139,98745,98033,NA,NA,98139,Week4submit,36,35302,40,yes,1024
90.24390244,90.24390244,879.3414634,879.3414634,black,legacy,legacy,legacy,0,incongruent,uniform,1,undefined,1,h,0,0,0,40,0,40,0,40,0,0,0,40,40,40,40,NA,NA,40,9/19/19 14:57,1500,The main experiment item,yes,Week4submit.osexp,C:\Users\DLGoupil\Desktop,no,mono,no,18,no,white,no,yes,768,legacy,40,40,C:/Users/DLGoupil/Desktop/dg-subject-1.csv,legacy,Kafkaesque Koffka,3.2.8,0,h,NA,s,NA,NA,h,NA,NA,751,NA,10987,NA,NA,751,NA,NA,2,legacy,1024,2,48000,-16,experiment,SSHSS,1,odd,13769,NA,NA,27613,2777,NA,NA,99851,2781,NA,NA,98751,99954,100705,99848,NA,NA,99954,Week4submit,37,36053,41,yes,1024
90.47619048,90.47619048,873.6428571,873.6428571,black,legacy,legacy,legacy,0,incongruent,uniform,1,undefined,1,h,0,0,0,41,0,41,0,41,0,0,0,41,41,41,41,NA,NA,41,9/19/19 14:57,1500,The main experiment item,yes,Week4submit.osexp,C:\Users\DLGoupil\Desktop,no,mono,no,18,no,white,no,yes,768,legacy,41,41,C:/Users/DLGoupil/Desktop/dg-subject-1.csv,legacy,Kafkaesque Koffka,3.2.8,0,h,NA,s,NA,NA,h,NA,NA,640,NA,10987,NA,NA,640,NA,NA,2,legacy,1024,2,48000,-16,experiment,SSHSS,1,odd,13769,NA,NA,27613,2777,NA,NA,101818,2781,NA,NA,100711,101921,102561,101815,NA,NA,101921,Week4submit,38,36693,42,yes,1024
90.69767442,90.69767442,869.8372093,869.8372093,black,legacy,legacy,legacy,0,incongruent,uniform,1,undefined,1,h,0,0,0,42,0,42,0,42,0,0,0,42,42,42,42,NA,NA,42,9/19/19 14:57,1500,The main experiment item,yes,Week4submit.osexp,C:\Users\DLGoupil\Desktop,no,mono,no,18,no,white,no,yes,768,legacy,42,42,C:/Users/DLGoupil/Desktop/dg-subject-1.csv,legacy,Kafkaesque Koffka,3.2.8,0,h,NA,s,NA,NA,h,NA,NA,710,NA,10987,NA,NA,710,NA,NA,2,legacy,1024,2,48000,-16,experiment,SSHSS,1,odd,13769,NA,NA,27613,2777,NA,NA,103675,2781,NA,NA,102567,103779,104489,103673,NA,NA,103779,Week4submit,39,37403,43,yes,1024
90.90909091,90.90909091,864.6136364,864.6136364,black,legacy,legacy,legacy,0,congruent,uniform,1,undefined,1,h,0,0,0,43,0,43,0,43,0,0,0,43,43,43,43,NA,NA,43,9/19/19 14:57,1500,The main experiment item,yes,Week4submit.osexp,C:\Users\DLGoupil\Desktop,no,mono,no,18,no,white,no,yes,768,legacy,43,43,C:/Users/DLGoupil/Desktop/dg-subject-1.csv,legacy,Kafkaesque Koffka,3.2.8,0,h,NA,s,NA,NA,h,NA,NA,640,NA,10987,NA,NA,640,NA,NA,2,legacy,1024,2,48000,-16,experiment,HHHHH,1,odd,13769,NA,NA,27613,2777,NA,NA,105602,2781,NA,NA,104495,105705,106345,105599,NA,NA,105705,Week4submit,40,38043,44,yes,1024
91.11111111,91.11111111,856.7333333,856.7333333,black,legacy,legacy,legacy,0,congruent,uniform,1,undefined,1,h,0,0,0,44,0,44,0,44,0,0,0,44,44,44,44,NA,NA,44,9/19/19 14:57,1500,The main experiment item,yes,Week4submit.osexp,C:\Users\DLGoupil\Desktop,no,mono,no,18,no,white,no,yes,768,legacy,44,44,C:/Users/DLGoupil/Desktop/dg-subject-1.csv,legacy,Kafkaesque Koffka,3.2.8,0,h,NA,s,NA,NA,h,NA,NA,510,NA,10987,NA,NA,510,NA,NA,2,legacy,1024,2,48000,-16,experiment,HHHHH,1,odd,13769,NA,NA,27613,2777,NA,NA,107460,2781,NA,NA,106351,107563,108074,107458,NA,NA,107563,Week4submit,41,38553,45,yes,1024
91.30434783,91.30434783,850.9347826,850.9347826,black,legacy,legacy,legacy,0,incongruent,uniform,1,undefined,1,h,0,0,0,45,0,45,0,45,0,0,0,45,45,45,45,NA,NA,45,9/19/19 14:57,1500,The main experiment item,yes,Week4submit.osexp,C:\Users\DLGoupil\Desktop,no,mono,no,18,no,white,no,yes,768,legacy,45,45,C:/Users/DLGoupil/Desktop/dg-subject-1.csv,legacy,Kafkaesque Koffka,3.2.8,0,h,NA,s,NA,NA,h,NA,NA,590,NA,10987,NA,NA,590,NA,NA,2,legacy,1024,2,48000,-16,experiment,SSHSS,1,odd,13769,NA,NA,27613,2777,NA,NA,109180,2781,NA,NA,108079,109283,109874,109177,NA,NA,109283,Week4submit,42,39143,46,yes,1024
91.4893617,91.4893617,845.1702128,845.1702128,black,legacy,legacy,legacy,0,congruent,uniform,1,undefined,1,s,0,0,0,46,0,46,0,46,0,0,0,46,46,46,46,NA,NA,46,9/19/19 14:57,1500,The main experiment item,yes,Week4submit.osexp,C:\Users\DLGoupil\Desktop,no,mono,no,18,no,white,no,yes,768,legacy,46,46,C:/Users/DLGoupil/Desktop/dg-subject-1.csv,legacy,Kafkaesque Koffka,3.2.8,0,s,NA,s,NA,NA,s,NA,NA,580,NA,10987,NA,NA,580,NA,NA,2,legacy,1024,2,48000,-16,experiment,SSSSS,1,odd,13769,NA,NA,27613,2777,NA,NA,110982,2781,NA,NA,109881,111085,111666,110979,NA,NA,111085,Week4submit,43,39723,47,yes,1024
91.66666667,91.66666667,841.9583333,841.9583333,black,legacy,legacy,legacy,0,incongruent,uniform,1,undefined,1,s,0,0,0,47,0,47,0,47,0,0,0,47,47,47,47,NA,NA,47,9/19/19 14:57,1500,The main experiment item,yes,Week4submit.osexp,C:\Users\DLGoupil\Desktop,no,mono,no,18,no,white,no,yes,768,legacy,47,47,C:/Users/DLGoupil/Desktop/dg-subject-1.csv,legacy,Kafkaesque Koffka,3.2.8,0,s,NA,s,NA,NA,s,NA,NA,691,NA,10987,NA,NA,691,NA,NA,2,legacy,1024,2,48000,-16,experiment,HHSHH,1,odd,13769,NA,NA,27613,2777,NA,NA,112775,2781,NA,NA,111671,112878,113570,112772,NA,NA,112878,Week4submit,44,40414,48,yes,1024
89.79591837,89.79591837,834.1428571,834.1428571,black,legacy,legacy,legacy,0,incongruent,uniform,0,undefined,0,h,0,0,0,48,0,48,0,48,0,0,0,48,48,48,48,NA,NA,48,9/19/19 14:57,1500,The main experiment item,yes,Week4submit.osexp,C:\Users\DLGoupil\Desktop,no,mono,no,18,no,white,no,yes,768,legacy,48,48,C:/Users/DLGoupil/Desktop/dg-subject-1.csv,legacy,Kafkaesque Koffka,3.2.8,0,s,NA,s,NA,NA,s,NA,NA,459,NA,10987,NA,NA,459,NA,NA,2,legacy,1024,2,48000,-16,experiment,SSHSS,1,odd,13769,NA,NA,27613,2777,NA,NA,114687,2781,NA,NA,113575,114790,115250,114684,NA,NA,114790,Week4submit,44,40873,49,yes,1024
90,90,832.98,832.98,black,legacy,legacy,legacy,0,incongruent,uniform,1,undefined,1,s,0,0,0,49,0,49,0,49,0,0,0,49,49,49,49,NA,NA,49,9/19/19 14:57,1500,The main experiment item,yes,Week4submit.osexp,C:\Users\DLGoupil\Desktop,no,mono,no,18,no,white,no,yes,768,legacy,49,49,C:/Users/DLGoupil/Desktop/dg-subject-1.csv,legacy,Kafkaesque Koffka,3.2.8,0,s,NA,s,NA,NA,s,NA,NA,776,NA,10987,NA,NA,776,NA,NA,2,legacy,1024,2,48000,-16,experiment,HHSHH,1,odd,13769,NA,NA,115255,2777,NA,NA,116858,2781,NA,NA,115758,116961,117738,116855,NA,NA,116961,Week4submit,45,41649,50,yes,1024
90.19607843,90.19607843,830.0784314,830.0784314,black,legacy,legacy,legacy,0,congruent,uniform,1,undefined,1,h,0,0,0,50,0,50,0,50,0,0,0,50,50,50,50,NA,NA,50,9/19/19 14:57,1500,The main experiment item,yes,Week4submit.osexp,C:\Users\DLGoupil\Desktop,no,mono,no,18,no,white,no,yes,768,legacy,50,50,C:/Users/DLGoupil/Desktop/dg-subject-1.csv,legacy,Kafkaesque Koffka,3.2.8,0,h,NA,s,NA,NA,h,NA,NA,685,NA,10987,NA,NA,685,NA,NA,2,legacy,1024,2,48000,-16,experiment,HHHHH,1,odd,13769,NA,NA,115255,2777,NA,NA,118846,2781,NA,NA,117743,118948,119634,118843,NA,NA,118948,Week4submit,46,42334,51,yes,1024
90.38461538,90.38461538,828.4038462,828.4038462,black,legacy,legacy,legacy,0,incongruent,uniform,1,undefined,1,h,0,0,0,51,0,51,0,51,0,0,0,51,51,51,51,NA,NA,51,9/19/19 14:57,1500,The main experiment item,yes,Week4submit.osexp,C:\Users\DLGoupil\Desktop,no,mono,no,18,no,white,no,yes,768,legacy,51,51,C:/Users/DLGoupil/Desktop/dg-subject-1.csv,legacy,Kafkaesque Koffka,3.2.8,0,h,NA,s,NA,NA,h,NA,NA,743,NA,10987,NA,NA,743,NA,NA,2,legacy,1024,2,48000,-16,experiment,SSHSS,1,odd,13769,NA,NA,115255,2777,NA,NA,120747,2781,NA,NA,119639,120850,121594,120744,NA,NA,120850,Week4submit,47,43077,52,yes,1024
90.56603774,90.56603774,825.8113208,825.8113208,black,legacy,legacy,legacy,0,congruent,uniform,1,undefined,1,s,0,0,0,52,0,52,0,52,0,0,0,52,52,52,52,NA,NA,52,9/19/19 14:57,1500,The main experiment item,yes,Week4submit.osexp,C:\Users\DLGoupil\Desktop,no,mono,no,18,no,white,no,yes,768,legacy,52,52,C:/Users/DLGoupil/Desktop/dg-subject-1.csv,legacy,Kafkaesque Koffka,3.2.8,0,s,NA,s,NA,NA,s,NA,NA,691,NA,10987,NA,NA,691,NA,NA,2,legacy,1024,2,48000,-16,experiment,SSSSS,1,odd,13769,NA,NA,115255,2777,NA,NA,122703,2781,NA,NA,121599,122806,123497,122700,NA,NA,122806,Week4submit,48,43768,53,yes,1024
90.74074074,90.74074074,822.3148148,822.3148148,black,legacy,legacy,legacy,0,incongruent,uniform,1,undefined,1,s,0,0,0,53,0,53,0,53,0,0,0,53,53,53,53,NA,NA,53,9/19/19 14:57,1500,The main experiment item,yes,Week4submit.osexp,C:\Users\DLGoupil\Desktop,no,mono,no,18,no,white,no,yes,768,legacy,53,53,C:/Users/DLGoupil/Desktop/dg-subject-1.csv,legacy,Kafkaesque Koffka,3.2.8,0,s,NA,s,NA,NA,s,NA,NA,637,NA,10987,NA,NA,637,NA,NA,2,legacy,1024,2,48000,-16,experiment,HHSHH,1,odd,13769,NA,NA,115255,2777,NA,NA,124605,2781,NA,NA,123503,124708,125346,124602,NA,NA,124708,Week4submit,49,44405,54,yes,1024
90.90909091,90.90909091,818.9090909,818.9090909,black,legacy,legacy,legacy,0,incongruent,uniform,1,undefined,1,s,0,0,0,54,0,54,0,54,0,0,0,54,54,54,54,NA,NA,54,9/19/19 14:57,1500,The main experiment item,yes,Week4submit.osexp,C:\Users\DLGoupil\Desktop,no,mono,no,18,no,white,no,yes,768,legacy,54,54,C:/Users/DLGoupil/Desktop/dg-subject-1.csv,legacy,Kafkaesque Koffka,3.2.8,0,s,NA,s,NA,NA,s,NA,NA,635,NA,10987,NA,NA,635,NA,NA,2,legacy,1024,2,48000,-16,experiment,HHSHH,1,odd,13769,NA,NA,115255,2777,NA,NA,126455,2781,NA,NA,125351,126558,127194,126452,NA,NA,126558,Week4submit,50,45040,55,yes,1024
91.07142857,91.07142857,817.5892857,817.5892857,black,legacy,legacy,legacy,0,incongruent,uniform,1,undefined,1,h,0,0,0,55,0,55,0,55,0,0,0,55,55,55,55,NA,NA,55,9/19/19 14:57,1500,The main experiment item,yes,Week4submit.osexp,C:\Users\DLGoupil\Desktop,no,mono,no,18,no,white,no,yes,768,legacy,55,55,C:/Users/DLGoupil/Desktop/dg-subject-1.csv,legacy,Kafkaesque Koffka,3.2.8,0,h,NA,s,NA,NA,h,NA,NA,745,NA,10987,NA,NA,745,NA,NA,2,legacy,1024,2,48000,-16,experiment,SSHSS,1,odd,13769,NA,NA,115255,2777,NA,NA,128313,2781,NA,NA,127199,128416,129162,128310,NA,NA,128416,Week4submit,51,45785,56,yes,1024
91.22807018,91.22807018,814.6842105,814.6842105,black,legacy,legacy,legacy,0,congruent,uniform,1,undefined,1,h,0,0,0,56,0,56,0,56,0,0,0,56,56,56,56,NA,NA,56,9/19/19 14:57,1500,The main experiment item,yes,Week4submit.osexp,C:\Users\DLGoupil\Desktop,no,mono,no,18,no,white,no,yes,768,legacy,56,56,C:/Users/DLGoupil/Desktop/dg-subject-1.csv,legacy,Kafkaesque Koffka,3.2.8,0,h,NA,s,NA,NA,h,NA,NA,652,NA,10987,NA,NA,652,NA,NA,2,legacy,1024,2,48000,-16,experiment,HHHHH,1,odd,13769,NA,NA,115255,2777,NA,NA,130269,2781,NA,NA,129167,130372,131025,130266,NA,NA,130372,Week4submit,52,46437,57,yes,1024
91.37931034,91.37931034,810.7931034,810.7931034,black,legacy,legacy,legacy,0,congruent,uniform,1,undefined,1,s,0,0,0,57,0,57,0,57,0,0,0,57,57,57,57,NA,NA,57,9/19/19 14:57,1500,The main experiment item,yes,Week4submit.osexp,C:\Users\DLGoupil\Desktop,no,mono,no,18,no,white,no,yes,768,legacy,57,57,C:/Users/DLGoupil/Desktop/dg-subject-1.csv,legacy,Kafkaesque Koffka,3.2.8,0,s,NA,s,NA,NA,s,NA,NA,589,NA,10987,NA,NA,589,NA,NA,2,legacy,1024,2,48000,-16,experiment,SSSSS,1,odd,13769,NA,NA,115255,2777,NA,NA,132132,2781,NA,NA,131031,132235,132825,132130,NA,NA,132235,Week4submit,53,47026,58,yes,1024
91.52542373,91.52542373,807.4237288,807.4237288,black,legacy,legacy,legacy,0,congruent,uniform,1,undefined,1,s,0,0,0,58,0,58,0,58,0,0,0,58,58,58,58,NA,NA,58,9/19/19 14:57,1500,The main experiment item,yes,Week4submit.osexp,C:\Users\DLGoupil\Desktop,no,mono,no,18,no,white,no,yes,768,legacy,58,58,C:/Users/DLGoupil/Desktop/dg-subject-1.csv,legacy,Kafkaesque Koffka,3.2.8,0,s,NA,s,NA,NA,s,NA,NA,612,NA,10987,NA,NA,612,NA,NA,2,legacy,1024,2,48000,-16,experiment,SSSSS,1,odd,13769,NA,NA,115255,2777,NA,NA,133933,2781,NA,NA,132831,134036,134649,133930,NA,NA,134036,Week4submit,54,47638,59,yes,1024
91.66666667,91.66666667,803.5,803.5,black,legacy,legacy,legacy,0,incongruent,uniform,1,undefined,1,s,0,0,0,59,0,59,0,59,0,0,0,59,59,59,59,NA,NA,59,9/19/19 14:57,1500,The main experiment item,yes,Week4submit.osexp,C:\Users\DLGoupil\Desktop,no,mono,no,18,no,white,no,yes,768,legacy,59,59,C:/Users/DLGoupil/Desktop/dg-subject-1.csv,legacy,Kafkaesque Koffka,3.2.8,0,s,NA,s,NA,NA,s,NA,NA,572,NA,10987,NA,NA,572,NA,NA,2,legacy,1024,2,48000,-16,experiment,HHSHH,1,odd,13769,NA,NA,115255,2777,NA,NA,135757,2781,NA,NA,134655,135860,136433,135754,NA,NA,135860,Week4submit,55,48210,60,yes,1024
91.80327869,91.80327869,799.8688525,799.8688525,black,legacy,legacy,legacy,0,congruent,uniform,1,undefined,1,s,0,0,0,60,0,60,0,60,0,0,0,60,60,60,60,NA,NA,60,9/19/19 14:57,1500,The main experiment item,yes,Week4submit.osexp,C:\Users\DLGoupil\Desktop,no,mono,no,18,no,white,no,yes,768,legacy,60,60,C:/Users/DLGoupil/Desktop/dg-subject-1.csv,legacy,Kafkaesque Koffka,3.2.8,0,s,NA,s,NA,NA,s,NA,NA,582,NA,10987,NA,NA,582,NA,NA,2,legacy,1024,2,48000,-16,experiment,SSSSS,1,odd,13769,NA,NA,115255,2777,NA,NA,137548,2781,NA,NA,136439,137650,138233,137545,NA,NA,137650,Week4submit,56,48792,61,yes,1024
91.93548387,91.93548387,794.8387097,794.8387097,black,legacy,legacy,legacy,0,congruent,uniform,1,undefined,1,s,0,0,0,61,0,61,0,61,0,0,0,61,61,61,61,NA,NA,61,9/19/19 14:57,1500,The main experiment item,yes,Week4submit.osexp,C:\Users\DLGoupil\Desktop,no,mono,no,18,no,white,no,yes,768,legacy,61,61,C:/Users/DLGoupil/Desktop/dg-subject-1.csv,legacy,Kafkaesque Koffka,3.2.8,0,s,NA,s,NA,NA,s,NA,NA,488,NA,10987,NA,NA,488,NA,NA,2,legacy,1024,2,48000,-16,experiment,SSSSS,1,odd,13769,NA,NA,115255,2777,NA,NA,139346,2781,NA,NA,138239,139449,139938,139344,NA,NA,139449,Week4submit,57,49280,62,yes,1024
92.06349206,92.06349206,793.4761905,793.4761905,black,legacy,legacy,legacy,0,incongruent,uniform,1,undefined,1,h,0,0,0,62,0,62,0,62,0,0,0,62,62,62,62,NA,NA,62,9/19/19 14:57,1500,The main experiment item,yes,Week4submit.osexp,C:\Users\DLGoupil\Desktop,no,mono,no,18,no,white,no,yes,768,legacy,62,62,C:/Users/DLGoupil/Desktop/dg-subject-1.csv,legacy,Kafkaesque Koffka,3.2.8,0,h,NA,s,NA,NA,h,NA,NA,709,NA,10987,NA,NA,709,NA,NA,2,legacy,1024,2,48000,-16,experiment,SSHSS,1,odd,13769,NA,NA,115255,2777,NA,NA,141045,2781,NA,NA,139943,141148,141858,141042,NA,NA,141148,Week4submit,58,49989,63,yes,1024
92.1875,92.1875,791.75,791.75,black,legacy,legacy,legacy,0,congruent,uniform,1,undefined,1,s,0,0,0,63,0,63,0,63,0,0,0,63,63,63,63,NA,NA,63,9/19/19 14:57,1500,The main experiment item,yes,Week4submit.osexp,C:\Users\DLGoupil\Desktop,no,mono,no,18,no,white,no,yes,768,legacy,63,63,C:/Users/DLGoupil/Desktop/dg-subject-1.csv,legacy,Kafkaesque Koffka,3.2.8,0,s,NA,s,NA,NA,s,NA,NA,683,NA,10987,NA,NA,683,NA,NA,2,legacy,1024,2,48000,-16,experiment,SSSSS,1,odd,13769,NA,NA,115255,2777,NA,NA,142975,2781,NA,NA,141863,143078,143762,142972,NA,NA,143078,Week4submit,59,50672,64,yes,1024
92.30769231,92.30769231,788.3230769,788.3230769,black,legacy,legacy,legacy,0,incongruent,uniform,1,undefined,1,s,0,0,0,64,0,64,0,64,0,0,0,64,64,64,64,NA,NA,64,9/19/19 14:57,1500,The main experiment item,yes,Week4submit.osexp,C:\Users\DLGoupil\Desktop,no,mono,no,18,no,white,no,yes,768,legacy,64,64,C:/Users/DLGoupil/Desktop/dg-subject-1.csv,legacy,Kafkaesque Koffka,3.2.8,0,s,NA,s,NA,NA,s,NA,NA,569,NA,10987,NA,NA,569,NA,NA,2,legacy,1024,2,48000,-16,experiment,HHSHH,1,odd,13769,NA,NA,115255,2777,NA,NA,144873,2781,NA,NA,143767,144976,145546,144870,NA,NA,144976,Week4submit,60,51241,65,yes,1024
92.42424242,92.42424242,786.1515152,786.1515152,black,legacy,legacy,legacy,0,congruent,uniform,1,undefined,1,s,0,0,0,65,0,65,0,65,0,0,0,65,65,65,65,NA,NA,65,9/19/19 14:57,1500,The main experiment item,yes,Week4submit.osexp,C:\Users\DLGoupil\Desktop,no,mono,no,18,no,white,no,yes,768,legacy,65,65,C:/Users/DLGoupil/Desktop/dg-subject-1.csv,legacy,Kafkaesque Koffka,3.2.8,0,s,NA,s,NA,NA,s,NA,NA,645,NA,10987,NA,NA,645,NA,NA,2,legacy,1024,2,48000,-16,experiment,SSSSS,1,odd,13769,NA,NA,115255,2777,NA,NA,146653,2781,NA,NA,145551,146756,147402,146650,NA,NA,146756,Week4submit,61,51886,66,yes,1024
92.53731343,92.53731343,783.0746269,783.0746269,black,legacy,legacy,legacy,0,congruent,uniform,1,undefined,1,s,0,0,0,66,0,66,0,66,0,0,0,66,66,66,66,NA,NA,66,9/19/19 14:57,1500,The main experiment item,yes,Week4submit.osexp,C:\Users\DLGoupil\Desktop,no,mono,no,18,no,white,no,yes,768,legacy,66,66,C:/Users/DLGoupil/Desktop/dg-subject-1.csv,legacy,Kafkaesque Koffka,3.2.8,0,s,NA,s,NA,NA,s,NA,NA,580,NA,10987,NA,NA,580,NA,NA,2,legacy,1024,2,48000,-16,experiment,SSSSS,1,odd,13769,NA,NA,115255,2777,NA,NA,148510,2781,NA,NA,147407,148613,149194,148507,NA,NA,148613,Week4submit,62,52466,67,yes,1024
92.64705882,92.64705882,782.4264706,782.4264706,black,legacy,legacy,legacy,0,incongruent,uniform,1,undefined,1,h,0,0,0,67,0,67,0,67,0,0,0,67,67,67,67,NA,NA,67,9/19/19 14:57,1500,The main experiment item,yes,Week4submit.osexp,C:\Users\DLGoupil\Desktop,no,mono,no,18,no,white,no,yes,768,legacy,67,67,C:/Users/DLGoupil/Desktop/dg-subject-1.csv,legacy,Kafkaesque Koffka,3.2.8,0,h,NA,s,NA,NA,h,NA,NA,739,NA,10987,NA,NA,739,NA,NA,2,legacy,1024,2,48000,-16,experiment,SSHSS,1,odd,13769,NA,NA,115255,2777,NA,NA,150303,2781,NA,NA,149199,150406,151146,150301,NA,NA,150406,Week4submit,63,53205,68,yes,1024
92.75362319,92.75362319,781.4492754,781.4492754,black,legacy,legacy,legacy,0,incongruent,uniform,1,undefined,1,s,0,0,0,68,0,68,0,68,0,0,0,68,68,68,68,NA,NA,68,9/19/19 14:57,1500,The main experiment item,yes,Week4submit.osexp,C:\Users\DLGoupil\Desktop,no,mono,no,18,no,white,no,yes,768,legacy,68,68,C:/Users/DLGoupil/Desktop/dg-subject-1.csv,legacy,Kafkaesque Koffka,3.2.8,0,s,NA,s,NA,NA,s,NA,NA,715,NA,10987,NA,NA,715,NA,NA,2,legacy,1024,2,48000,-16,experiment,HHSHH,1,odd,13769,NA,NA,115255,2777,NA,NA,152255,2781,NA,NA,151151,152358,153074,152252,NA,NA,152358,Week4submit,64,53920,69,yes,1024
92.85714286,92.85714286,778.7857143,778.7857143,black,legacy,legacy,legacy,0,congruent,uniform,1,undefined,1,s,0,0,0,69,0,69,0,69,0,0,0,69,69,69,69,NA,NA,69,9/19/19 14:57,1500,The main experiment item,yes,Week4submit.osexp,C:\Users\DLGoupil\Desktop,no,mono,no,18,no,white,no,yes,768,legacy,69,69,C:/Users/DLGoupil/Desktop/dg-subject-1.csv,legacy,Kafkaesque Koffka,3.2.8,0,s,NA,s,NA,NA,s,NA,NA,595,NA,10987,NA,NA,595,NA,NA,2,legacy,1024,2,48000,-16,experiment,SSSSS,1,odd,13769,NA,NA,115255,2777,NA,NA,154183,2781,NA,NA,153079,154286,154882,154180,NA,NA,154286,Week4submit,65,54515,70,yes,1024
92.95774648,92.95774648,775.2253521,775.2253521,black,legacy,legacy,legacy,0,congruent,uniform,1,undefined,1,s,0,0,0,70,0,70,0,70,0,0,0,70,70,70,70,NA,NA,70,9/19/19 14:57,1500,The main experiment item,yes,Week4submit.osexp,C:\Users\DLGoupil\Desktop,no,mono,no,18,no,white,no,yes,768,legacy,70,70,C:/Users/DLGoupil/Desktop/dg-subject-1.csv,legacy,Kafkaesque Koffka,3.2.8,0,s,NA,s,NA,NA,s,NA,NA,526,NA,10987,NA,NA,526,NA,NA,2,legacy,1024,2,48000,-16,experiment,SSSSS,1,odd,13769,NA,NA,115255,2777,NA,NA,155996,2781,NA,NA,154887,156099,156626,155993,NA,NA,156099,Week4submit,66,55041,71,yes,1024
93.05555556,93.05555556,772.1805556,772.1805556,black,legacy,legacy,legacy,0,congruent,uniform,1,undefined,1,h,0,0,0,71,0,71,0,71,0,0,0,71,71,71,71,NA,NA,71,9/19/19 14:57,1500,The main experiment item,yes,Week4submit.osexp,C:\Users\DLGoupil\Desktop,no,mono,no,18,no,white,no,yes,768,legacy,71,71,C:/Users/DLGoupil/Desktop/dg-subject-1.csv,legacy,Kafkaesque Koffka,3.2.8,0,h,NA,s,NA,NA,h,NA,NA,556,NA,10987,NA,NA,556,NA,NA,2,legacy,1024,2,48000,-16,experiment,HHHHH,1,odd,13769,NA,NA,115255,2777,NA,NA,157741,2781,NA,NA,156631,157844,158401,157738,NA,NA,157844,Week4submit,67,55597,72,yes,1024
93.15068493,93.15068493,770.4657534,770.4657534,black,legacy,legacy,legacy,0,incongruent,uniform,1,undefined,1,s,0,0,0,72,0,72,0,72,0,0,0,72,72,72,72,NA,NA,72,9/19/19 14:57,1500,The main experiment item,yes,Week4submit.osexp,C:\Users\DLGoupil\Desktop,no,mono,no,18,no,white,no,yes,768,legacy,72,72,C:/Users/DLGoupil/Desktop/dg-subject-1.csv,legacy,Kafkaesque Koffka,3.2.8,0,s,NA,s,NA,NA,s,NA,NA,647,NA,10987,NA,NA,647,NA,NA,2,legacy,1024,2,48000,-16,experiment,HHSHH,1,odd,13769,NA,NA,115255,2777,NA,NA,159515,2781,NA,NA,158407,159618,160266,159512,NA,NA,159618,Week4submit,68,56244,73,yes,1024
93.24324324,93.24324324,769.2972973,769.2972973,black,legacy,legacy,legacy,0,congruent,uniform,1,undefined,1,s,0,0,0,73,0,73,0,73,0,0,0,73,73,73,73,NA,NA,73,9/19/19 14:57,1500,The main experiment item,yes,Week4submit.osexp,C:\Users\DLGoupil\Desktop,no,mono,no,18,no,white,no,yes,768,legacy,73,73,C:/Users/DLGoupil/Desktop/dg-subject-1.csv,legacy,Kafkaesque Koffka,3.2.8,0,s,NA,s,NA,NA,s,NA,NA,684,NA,10987,NA,NA,684,NA,NA,2,legacy,1024,2,48000,-16,experiment,SSSSS,1,odd,13769,NA,NA,115255,2777,NA,NA,161374,2781,NA,NA,160271,161477,162162,161371,NA,NA,161477,Week4submit,69,56928,74,yes,1024
93.33333333,93.33333333,766.0266667,766.0266667,black,legacy,legacy,legacy,0,congruent,uniform,1,undefined,1,h,0,0,0,74,0,74,0,74,0,0,0,74,74,74,74,NA,NA,74,9/19/19 14:57,1500,The main experiment item,yes,Week4submit.osexp,C:\Users\DLGoupil\Desktop,no,mono,no,18,no,white,no,yes,768,legacy,74,74,C:/Users/DLGoupil/Desktop/dg-subject-1.csv,legacy,Kafkaesque Koffka,3.2.8,0,h,NA,s,NA,NA,h,NA,NA,524,NA,10987,NA,NA,524,NA,NA,2,legacy,1024,2,48000,-16,experiment,HHHHH,1,odd,13769,NA,NA,115255,2777,NA,NA,163270,2781,NA,NA,162168,163373,163898,163267,NA,NA,163373,Week4submit,70,57452,75,yes,1024
93.42105263,93.42105263,764.6447368,764.6447368,black,legacy,legacy,legacy,0,incongruent,uniform,1,undefined,1,h,0,0,0,75,0,75,0,75,0,0,0,75,75,75,75,NA,NA,75,9/19/19 14:57,1500,The main experiment item,yes,Week4submit.osexp,C:\Users\DLGoupil\Desktop,no,mono,no,18,no,white,no,yes,768,legacy,75,75,C:/Users/DLGoupil/Desktop/dg-subject-1.csv,legacy,Kafkaesque Koffka,3.2.8,0,h,NA,s,NA,NA,h,NA,NA,661,NA,10987,NA,NA,661,NA,NA,2,legacy,1024,2,48000,-16,experiment,SSHSS,1,odd,13769,NA,NA,115255,2777,NA,NA,165005,2781,NA,NA,163903,165108,165770,165002,NA,NA,165108,Week4submit,71,58113,76,yes,1024
93.50649351,93.50649351,764.5454545,764.5454545,black,legacy,legacy,legacy,0,incongruent,uniform,1,undefined,1,s,0,0,0,76,0,76,0,76,0,0,0,76,76,76,76,NA,NA,76,9/19/19 14:57,1500,The main experiment item,yes,Week4submit.osexp,C:\Users\DLGoupil\Desktop,no,mono,no,18,no,white,no,yes,768,legacy,76,76,C:/Users/DLGoupil/Desktop/dg-subject-1.csv,legacy,Kafkaesque Koffka,3.2.8,0,s,NA,s,NA,NA,s,NA,NA,757,NA,10987,NA,NA,757,NA,NA,2,legacy,1024,2,48000,-16,experiment,HHSHH,1,odd,13769,NA,NA,115255,2777,NA,NA,166877,2781,NA,NA,165776,166980,167738,166874,NA,NA,166980,Week4submit,72,58870,77,yes,1024
93.58974359,93.58974359,763.2948718,763.2948718,black,legacy,legacy,legacy,0,congruent,uniform,1,undefined,1,h,0,0,0,77,0,77,0,77,0,0,0,77,77,77,77,NA,NA,77,9/19/19 14:57,1500,The main experiment item,yes,Week4submit.osexp,C:\Users\DLGoupil\Desktop,no,mono,no,18,no,white,no,yes,768,legacy,77,77,C:/Users/DLGoupil/Desktop/dg-subject-1.csv,legacy,Kafkaesque Koffka,3.2.8,0,h,NA,s,NA,NA,h,NA,NA,667,NA,10987,NA,NA,667,NA,NA,2,legacy,1024,2,48000,-16,experiment,HHHHH,1,odd,13769,NA,NA,115255,2777,NA,NA,168847,2781,NA,NA,167744,168950,169618,168844,NA,NA,168950,Week4submit,73,59537,78,yes,1024
93.67088608,93.67088608,761.9367089,761.9367089,black,legacy,legacy,legacy,0,congruent,uniform,1,undefined,1,h,0,0,0,78,0,78,0,78,0,0,0,78,78,78,78,NA,NA,78,9/19/19 14:57,1500,The main experiment item,yes,Week4submit.osexp,C:\Users\DLGoupil\Desktop,no,mono,no,18,no,white,no,yes,768,legacy,78,78,C:/Users/DLGoupil/Desktop/dg-subject-1.csv,legacy,Kafkaesque Koffka,3.2.8,0,h,NA,s,NA,NA,h,NA,NA,656,NA,10987,NA,NA,656,NA,NA,2,legacy,1024,2,48000,-16,experiment,HHHHH,1,odd,13769,NA,NA,115255,2777,NA,NA,170730,2781,NA,NA,169623,170833,171490,170727,NA,NA,170833,Week4submit,74,60193,79,yes,1024
93.75,93.75,759.2625,759.2625,black,legacy,legacy,legacy,0,congruent,uniform,1,undefined,1,h,0,0,0,79,0,79,0,79,0,0,0,79,79,79,79,NA,NA,79,9/19/19 14:57,1500,The main experiment item,yes,Week4submit.osexp,C:\Users\DLGoupil\Desktop,no,mono,no,18,no,white,no,yes,768,legacy,79,79,C:/Users/DLGoupil/Desktop/dg-subject-1.csv,legacy,Kafkaesque Koffka,3.2.8,0,h,NA,s,NA,NA,h,NA,NA,548,NA,10987,NA,NA,548,NA,NA,2,legacy,1024,2,48000,-16,experiment,HHHHH,1,odd,13769,NA,NA,115255,2777,NA,NA,172597,2781,NA,NA,171495,172700,173250,172594,NA,NA,172700,Week4submit,75,60741,80,yes,1024
92.59259259,92.59259259,768.4074074,768.4074074,black,legacy,legacy,legacy,0,congruent,uniform,0,undefined,0,h,0,0,0,80,0,80,0,80,0,0,0,80,80,80,80,NA,NA,80,9/19/19 14:57,600,The main experiment item,yes,Week4submit.osexp,C:\Users\DLGoupil\Desktop,no,mono,no,18,no,white,no,yes,768,legacy,0,79,C:/Users/DLGoupil/Desktop/dg-subject-1.csv,legacy,Kafkaesque Koffka,3.2.8,0,None,NA,s,s,NA,None,NA,NA,1500,NA,10987,6234,NA,1500,NA,NA,2,legacy,1024,2,48000,-16,experiment,HHHHH,1,odd,13769,180514,NA,115255,2777,NA,NA,180608,2781,174279,NA,173255,180711,182212,180605,NA,NA,180711,Week4submit,75,62241,81,yes,1024
91.46341463,91.46341463,777.3292683,777.3292683,black,legacy,legacy,legacy,0,incongruent,uniform,0,undefined,0,h,0,0,0,81,0,81,0,81,0,0,0,81,81,81,81,NA,NA,81,9/19/19 14:57,600,The main experiment item,yes,Week4submit.osexp,C:\Users\DLGoupil\Desktop,no,mono,no,18,no,white,no,yes,768,legacy,1,79,C:/Users/DLGoupil/Desktop/dg-subject-1.csv,legacy,Kafkaesque Koffka,3.2.8,0,None,NA,s,s,NA,None,NA,NA,1500,NA,10987,6234,NA,1500,NA,NA,2,legacy,1024,2,48000,-16,experiment,SSHSS,1,odd,13769,180514,NA,182217,2777,182720,NA,184324,2781,174279,NA,183223,184428,185929,184322,NA,NA,184428,Week4submit,75,63741,82,yes,1024
91.56626506,91.56626506,777.8795181,777.8795181,black,legacy,legacy,legacy,0,congruent,uniform,1,undefined,1,s,0,0,0,82,0,82,0,82,0,0,0,82,82,82,82,NA,NA,82,9/19/19 14:57,600,The main experiment item,yes,Week4submit.osexp,C:\Users\DLGoupil\Desktop,no,mono,no,18,no,white,no,yes,768,legacy,2,79,C:/Users/DLGoupil/Desktop/dg-subject-1.csv,legacy,Kafkaesque Koffka,3.2.8,0,s,NA,s,s,NA,s,NA,NA,823,NA,10987,6234,NA,823,NA,NA,2,legacy,1024,2,48000,-16,experiment,SSSSS,1,odd,13769,180514,NA,185934,2777,186437,NA,188042,2781,174279,NA,186940,188145,188970,188039,NA,NA,188145,Week4submit,76,64564,83,yes,1024
91.66666667,91.66666667,777.6785714,777.6785714,black,legacy,legacy,legacy,0,congruent,uniform,1,undefined,1,s,0,0,0,83,0,83,0,83,0,0,0,83,83,83,83,NA,NA,83,9/19/19 14:57,600,The main experiment item,yes,Week4submit.osexp,C:\Users\DLGoupil\Desktop,no,mono,no,18,no,white,no,yes,768,legacy,3,79,C:/Users/DLGoupil/Desktop/dg-subject-1.csv,legacy,Kafkaesque Koffka,3.2.8,0,s,NA,s,s,NA,s,NA,NA,761,NA,10987,6234,NA,761,NA,NA,2,legacy,1024,2,48000,-16,experiment,SSSSS,1,odd,13769,180514,NA,185934,2777,188975,NA,190585,2781,174279,NA,189478,190688,191450,190582,NA,NA,190688,Week4submit,77,65325,84,yes,1024
91.76470588,91.76470588,782.7411765,782.7411765,black,legacy,legacy,legacy,0,incongruent,uniform,1,undefined,1,h,0,0,0,84,0,84,0,84,0,0,0,84,84,84,84,NA,NA,84,9/19/19 14:57,600,The main experiment item,yes,Week4submit.osexp,C:\Users\DLGoupil\Desktop,no,mono,no,18,no,white,no,yes,768,legacy,4,79,C:/Users/DLGoupil/Desktop/dg-subject-1.csv,legacy,Kafkaesque Koffka,3.2.8,0,h,NA,s,s,NA,h,NA,NA,1208,NA,10987,6234,NA,1208,NA,NA,2,legacy,1024,2,48000,-16,experiment,SSHSS,1,odd,13769,180514,NA,185934,2777,191455,NA,193057,2781,174279,NA,191958,193160,194370,193055,NA,NA,193160,Week4submit,78,66533,85,yes,1024
91.86046512,91.86046512,785.7209302,785.7209302,black,legacy,legacy,legacy,0,incongruent,uniform,1,undefined,1,s,0,0,0,85,0,85,0,85,0,0,0,85,85,85,85,NA,NA,85,9/19/19 14:57,600,The main experiment item,yes,Week4submit.osexp,C:\Users\DLGoupil\Desktop,no,mono,no,18,no,white,no,yes,768,legacy,5,79,C:/Users/DLGoupil/Desktop/dg-subject-1.csv,legacy,Kafkaesque Koffka,3.2.8,0,s,NA,s,s,NA,s,NA,NA,1039,NA,10987,6234,NA,1039,NA,NA,2,legacy,1024,2,48000,-16,experiment,HHSHH,1,odd,13769,180514,NA,185934,2777,194375,NA,195986,2781,174279,NA,194878,196089,197130,195983,NA,NA,196089,Week4submit,79,67572,86,yes,1024
91.95402299,91.95402299,783.5747126,783.5747126,black,legacy,legacy,legacy,0,incongruent,uniform,1,undefined,1,s,0,0,0,86,0,86,0,86,0,0,0,86,86,86,86,NA,NA,86,9/19/19 14:57,600,The main experiment item,yes,Week4submit.osexp,C:\Users\DLGoupil\Desktop,no,mono,no,18,no,white,no,yes,768,legacy,6,79,C:/Users/DLGoupil/Desktop/dg-subject-1.csv,legacy,Kafkaesque Koffka,3.2.8,0,s,NA,s,s,NA,s,NA,NA,599,NA,10987,6234,NA,599,NA,NA,2,legacy,1024,2,48000,-16,experiment,HHSHH,1,odd,13769,180514,NA,185934,2777,197135,NA,198746,2781,174279,NA,197638,198849,199450,198744,NA,NA,198849,Week4submit,80,68171,87,yes,1024
92.04545455,92.04545455,782.4545455,782.4545455,black,legacy,legacy,legacy,0,incongruent,uniform,1,undefined,1,h,0,0,0,87,0,87,0,87,0,0,0,87,87,87,87,NA,NA,87,9/19/19 14:57,600,The main experiment item,yes,Week4submit.osexp,C:\Users\DLGoupil\Desktop,no,mono,no,18,no,white,no,yes,768,legacy,7,79,C:/Users/DLGoupil/Desktop/dg-subject-1.csv,legacy,Kafkaesque Koffka,3.2.8,0,h,NA,s,s,NA,h,NA,NA,685,NA,10987,6234,NA,685,NA,NA,2,legacy,1024,2,48000,-16,experiment,SSHSS,1,odd,13769,180514,NA,185934,2777,197135,NA,200556,2781,174279,NA,199455,200659,201346,200553,NA,NA,200659,Week4submit,81,68856,88,yes,1024
92.13483146,92.13483146,781.1011236,781.1011236,black,legacy,legacy,legacy,0,congruent,uniform,1,undefined,1,s,0,0,0,88,0,88,0,88,0,0,0,88,88,88,88,NA,NA,88,9/19/19 14:57,600,The main experiment item,yes,Week4submit.osexp,C:\Users\DLGoupil\Desktop,no,mono,no,18,no,white,no,yes,768,legacy,8,79,C:/Users/DLGoupil/Desktop/dg-subject-1.csv,legacy,Kafkaesque Koffka,3.2.8,0,s,NA,s,s,NA,s,NA,NA,662,NA,10987,6234,NA,662,NA,NA,2,legacy,1024,2,48000,-16,experiment,SSSSS,1,odd,13769,180514,NA,185934,2777,201351,NA,202955,2781,174279,NA,201854,203058,203722,202952,NA,NA,203058,Week4submit,82,69518,89,yes,1024
92.22222222,92.22222222,778.1222222,778.1222222,black,legacy,legacy,legacy,0,congruent,uniform,1,undefined,1,s,0,0,0,89,0,89,0,89,0,0,0,89,89,89,89,NA,NA,89,9/19/19 14:57,600,The main experiment item,yes,Week4submit.osexp,C:\Users\DLGoupil\Desktop,no,mono,no,18,no,white,no,yes,768,legacy,9,79,C:/Users/DLGoupil/Desktop/dg-subject-1.csv,legacy,Kafkaesque Koffka,3.2.8,0,s,NA,s,s,NA,s,NA,NA,513,NA,10987,6234,NA,513,NA,NA,2,legacy,1024,2,48000,-16,experiment,SSSSS,1,odd,13769,180514,NA,185934,2777,203727,NA,205328,2781,174279,NA,204230,205431,205946,205325,NA,NA,205431,Week4submit,83,70031,90,yes,1024
92.30769231,92.30769231,775.7802198,775.7802198,black,legacy,legacy,legacy,0,congruent,uniform,1,undefined,1,h,0,0,0,90,0,90,0,90,0,0,0,90,90,90,90,NA,NA,90,9/19/19 14:57,600,The main experiment item,yes,Week4submit.osexp,C:\Users\DLGoupil\Desktop,no,mono,no,18,no,white,no,yes,768,legacy,10,79,C:/Users/DLGoupil/Desktop/dg-subject-1.csv,legacy,Kafkaesque Koffka,3.2.8,0,h,NA,s,s,NA,h,NA,NA,565,NA,10987,6234,NA,565,NA,NA,2,legacy,1024,2,48000,-16,experiment,HHHHH,1,odd,13769,180514,NA,185934,2777,203727,NA,207060,2781,174279,NA,205951,207163,207730,207057,NA,NA,207163,Week4submit,84,70596,91,yes,1024
92.39130435,92.39130435,773.6630435,773.6630435,black,legacy,legacy,legacy,0,incongruent,uniform,1,undefined,1,s,0,0,0,91,0,91,0,91,0,0,0,91,91,91,91,NA,NA,91,9/19/19 14:57,600,The main experiment item,yes,Week4submit.osexp,C:\Users\DLGoupil\Desktop,no,mono,no,18,no,white,no,yes,768,legacy,11,79,C:/Users/DLGoupil/Desktop/dg-subject-1.csv,legacy,Kafkaesque Koffka,3.2.8,0,s,NA,s,s,NA,s,NA,NA,581,NA,10987,6234,NA,581,NA,NA,2,legacy,1024,2,48000,-16,experiment,HHSHH,1,odd,13769,180514,NA,185934,2777,203727,NA,208836,2781,174279,NA,207735,208939,209522,208833,NA,NA,208939,Week4submit,85,71177,92,yes,1024
92.47311828,92.47311828,772.6666667,772.6666667,black,legacy,legacy,legacy,0,incongruent,uniform,1,undefined,1,h,0,0,0,92,0,92,0,92,0,0,0,92,92,92,92,NA,NA,92,9/19/19 14:57,600,The main experiment item,yes,Week4submit.osexp,C:\Users\DLGoupil\Desktop,no,mono,no,18,no,white,no,yes,768,legacy,12,79,C:/Users/DLGoupil/Desktop/dg-subject-1.csv,legacy,Kafkaesque Koffka,3.2.8,0,h,NA,s,s,NA,h,NA,NA,681,NA,10987,6234,NA,681,NA,NA,2,legacy,1024,2,48000,-16,experiment,SSHSS,1,odd,13769,180514,NA,185934,2777,203727,NA,210632,2781,174279,NA,209527,210735,211418,210629,NA,NA,210735,Week4submit,86,71858,93,yes,1024
92.55319149,92.55319149,770.7765957,770.7765957,black,legacy,legacy,legacy,0,congruent,uniform,1,undefined,1,s,0,0,0,93,0,93,0,93,0,0,0,93,93,93,93,NA,NA,93,9/19/19 14:57,600,The main experiment item,yes,Week4submit.osexp,C:\Users\DLGoupil\Desktop,no,mono,no,18,no,white,no,yes,768,legacy,13,79,C:/Users/DLGoupil/Desktop/dg-subject-1.csv,legacy,Kafkaesque Koffka,3.2.8,0,s,NA,s,s,NA,s,NA,NA,595,NA,10987,6234,NA,595,NA,NA,2,legacy,1024,2,48000,-16,experiment,SSSSS,1,odd,13769,180514,NA,185934,2777,211423,NA,213030,2781,174279,NA,211926,213133,213730,213027,NA,NA,213133,Week4submit,87,72453,94,yes,1024
92.63157895,92.63157895,769.5473684,769.5473684,black,legacy,legacy,legacy,0,congruent,uniform,1,undefined,1,s,0,0,0,94,0,94,0,94,0,0,0,94,94,94,94,NA,NA,94,9/19/19 14:57,600,The main experiment item,yes,Week4submit.osexp,C:\Users\DLGoupil\Desktop,no,mono,no,18,no,white,no,yes,768,legacy,14,79,C:/Users/DLGoupil/Desktop/dg-subject-1.csv,legacy,Kafkaesque Koffka,3.2.8,0,s,NA,s,s,NA,s,NA,NA,654,NA,10987,6234,NA,654,NA,NA,2,legacy,1024,2,48000,-16,experiment,SSSSS,1,odd,13769,180514,NA,185934,2777,211423,NA,214836,2781,174279,NA,213735,214939,215595,214833,NA,NA,214939,Week4submit,88,73107,95,yes,1024
92.70833333,92.70833333,767.84375,767.84375,black,legacy,legacy,legacy,0,incongruent,uniform,1,undefined,1,h,0,0,0,95,0,95,0,95,0,0,0,95,95,95,95,NA,NA,95,9/19/19 14:57,600,The main experiment item,yes,Week4submit.osexp,C:\Users\DLGoupil\Desktop,no,mono,no,18,no,white,no,yes,768,legacy,15,79,C:/Users/DLGoupil/Desktop/dg-subject-1.csv,legacy,Kafkaesque Koffka,3.2.8,0,h,NA,s,s,NA,h,NA,NA,606,NA,10987,6234,NA,606,NA,NA,2,legacy,1024,2,48000,-16,experiment,SSHSS,1,odd,13769,180514,NA,185934,2777,215600,NA,217204,2781,174279,NA,216103,217307,217915,217201,NA,NA,217307,Week4submit,89,73713,96,yes,1024
92.78350515,92.78350515,766.0515464,766.0515464,black,legacy,legacy,legacy,0,congruent,uniform,1,undefined,1,s,0,0,0,96,0,96,0,96,0,0,0,96,96,96,96,NA,NA,96,9/19/19 14:57,600,The main experiment item,yes,Week4submit.osexp,C:\Users\DLGoupil\Desktop,no,mono,no,18,no,white,no,yes,768,legacy,16,79,C:/Users/DLGoupil/Desktop/dg-subject-1.csv,legacy,Kafkaesque Koffka,3.2.8,0,s,NA,s,s,NA,s,NA,NA,594,NA,10987,6234,NA,594,NA,NA,2,legacy,1024,2,48000,-16,experiment,SSSSS,1,odd,13769,180514,NA,185934,2777,217920,NA,219520,2781,174279,NA,218422,219623,220218,219518,NA,NA,219623,Week4submit,90,74307,97,yes,1024
92.85714286,92.85714286,764.7346939,764.7346939,black,legacy,legacy,legacy,0,congruent,uniform,1,undefined,1,h,0,0,0,97,0,97,0,97,0,0,0,97,97,97,97,NA,NA,97,9/19/19 14:57,600,The main experiment item,yes,Week4submit.osexp,C:\Users\DLGoupil\Desktop,no,mono,no,18,no,white,no,yes,768,legacy,17,79,C:/Users/DLGoupil/Desktop/dg-subject-1.csv,legacy,Kafkaesque Koffka,3.2.8,0,h,NA,s,s,NA,h,NA,NA,637,NA,10987,6234,NA,637,NA,NA,2,legacy,1024,2,48000,-16,experiment,HHHHH,1,odd,13769,180514,NA,185934,2777,217920,NA,221333,2781,174279,NA,220223,221436,222075,221330,NA,NA,221436,Week4submit,91,74944,98,yes,1024
92.92929293,92.92929293,762.1717172,762.1717172,black,legacy,legacy,legacy,0,congruent,uniform,1,undefined,1,s,0,0,0,98,0,98,0,98,0,0,0,98,98,98,98,NA,NA,98,9/19/19 14:57,600,The main experiment item,yes,Week4submit.osexp,C:\Users\DLGoupil\Desktop,no,mono,no,18,no,white,no,yes,768,legacy,18,79,C:/Users/DLGoupil/Desktop/dg-subject-1.csv,legacy,Kafkaesque Koffka,3.2.8,0,s,NA,s,s,NA,s,NA,NA,511,NA,10987,6234,NA,511,NA,NA,2,legacy,1024,2,48000,-16,experiment,SSSSS,1,odd,13769,180514,NA,185934,2777,222080,NA,223683,2781,174279,NA,222582,223786,224298,223681,NA,NA,223786,Week4submit,92,75455,99,yes,1024
93,93,759.72,759.72,black,legacy,legacy,legacy,0,congruent,uniform,1,undefined,1,s,0,0,0,99,0,99,0,99,0,0,0,99,99,99,99,NA,NA,99,9/19/19 14:57,600,The main experiment item,yes,Week4submit.osexp,C:\Users\DLGoupil\Desktop,no,mono,no,18,no,white,no,yes,768,legacy,19,79,C:/Users/DLGoupil/Desktop/dg-subject-1.csv,legacy,Kafkaesque Koffka,3.2.8,0,s,NA,s,s,NA,s,NA,NA,517,NA,10987,6234,NA,517,NA,NA,2,legacy,1024,2,48000,-16,experiment,SSSSS,1,odd,13769,180514,NA,185934,2777,222080,NA,225413,2781,174279,NA,224303,225516,226034,225410,NA,NA,225516,Week4submit,93,75972,100,yes,1024
93.06930693,93.06930693,757.8118812,757.8118812,black,legacy,legacy,legacy,0,incongruent,uniform,1,undefined,1,h,0,0,0,100,0,100,0,100,0,0,0,100,100,100,100,NA,NA,100,9/19/19 14:57,600,The main experiment item,yes,Week4submit.osexp,C:\Users\DLGoupil\Desktop,no,mono,no,18,no,white,no,yes,768,legacy,20,79,C:/Users/DLGoupil/Desktop/dg-subject-1.csv,legacy,Kafkaesque Koffka,3.2.8,0,h,NA,s,s,NA,h,NA,NA,567,NA,10987,6234,NA,567,NA,NA,2,legacy,1024,2,48000,-16,experiment,SSHSS,1,odd,13769,180514,NA,185934,2777,222080,NA,227139,2781,174279,NA,226039,227242,227810,227136,NA,NA,227242,Week4submit,94,76539,101,yes,1024
93.1372549,93.1372549,757,757,black,legacy,legacy,legacy,0,incongruent,uniform,1,undefined,1,h,0,0,0,101,0,101,0,101,0,0,0,101,101,101,101,NA,NA,101,9/19/19 14:57,600,The main experiment item,yes,Week4submit.osexp,C:\Users\DLGoupil\Desktop,no,mono,no,18,no,white,no,yes,768,legacy,21,79,C:/Users/DLGoupil/Desktop/dg-subject-1.csv,legacy,Kafkaesque Koffka,3.2.8,0,h,NA,s,s,NA,h,NA,NA,675,NA,10987,6234,NA,675,NA,NA,2,legacy,1024,2,48000,-16,experiment,SSHSS,1,odd,13769,180514,NA,185934,2777,222080,NA,228926,2781,174279,NA,227815,229029,229706,228923,NA,NA,229029,Week4submit,95,77214,102,yes,1024
93.2038835,93.2038835,755.9514563,755.9514563,black,legacy,legacy,legacy,0,incongruent,uniform,1,undefined,1,s,0,0,0,102,0,102,0,102,0,0,0,102,102,102,102,NA,NA,102,9/19/19 14:57,600,The main experiment item,yes,Week4submit.osexp,C:\Users\DLGoupil\Desktop,no,mono,no,18,no,white,no,yes,768,legacy,22,79,C:/Users/DLGoupil/Desktop/dg-subject-1.csv,legacy,Kafkaesque Koffka,3.2.8,0,s,NA,s,s,NA,s,NA,NA,649,NA,10987,6234,NA,649,NA,NA,2,legacy,1024,2,48000,-16,experiment,HHSHH,1,odd,13769,180514,NA,185934,2777,229711,NA,231312,2781,174279,NA,230214,231415,232066,231309,NA,NA,231415,Week4submit,96,77863,103,yes,1024
93.26923077,93.26923077,754.9038462,754.9038462,black,legacy,legacy,legacy,0,incongruent,uniform,1,undefined,1,s,0,0,0,103,0,103,0,103,0,0,0,103,103,103,103,NA,NA,103,9/19/19 14:57,600,The main experiment item,yes,Week4submit.osexp,C:\Users\DLGoupil\Desktop,no,mono,no,18,no,white,no,yes,768,legacy,23,79,C:/Users/DLGoupil/Desktop/dg-subject-1.csv,legacy,Kafkaesque Koffka,3.2.8,0,s,NA,s,s,NA,s,NA,NA,647,NA,10987,6234,NA,647,NA,NA,2,legacy,1024,2,48000,-16,experiment,HHSHH,1,odd,13769,180514,NA,185934,2777,232071,NA,233674,2781,174279,NA,232574,233778,234426,233672,NA,NA,233778,Week4submit,97,78510,104,yes,1024
93.33333333,93.33333333,754.5047619,754.5047619,black,legacy,legacy,legacy,0,congruent,uniform,1,undefined,1,h,0,0,0,104,0,104,0,104,0,0,0,104,104,104,104,NA,NA,104,9/19/19 14:57,600,The main experiment item,yes,Week4submit.osexp,C:\Users\DLGoupil\Desktop,no,mono,no,18,no,white,no,yes,768,legacy,24,79,C:/Users/DLGoupil/Desktop/dg-subject-1.csv,legacy,Kafkaesque Koffka,3.2.8,0,h,NA,s,s,NA,h,NA,NA,713,NA,10987,6234,NA,713,NA,NA,2,legacy,1024,2,48000,-16,experiment,HHHHH,1,odd,13769,180514,NA,185934,2777,234431,NA,236040,2781,174279,NA,234934,236143,236858,236037,NA,NA,236143,Week4submit,98,79223,105,yes,1024
93.39622642,93.39622642,752.1698113,752.1698113,black,legacy,legacy,legacy,0,congruent,uniform,1,undefined,1,h,0,0,0,105,0,105,0,105,0,0,0,105,105,105,105,NA,NA,105,9/19/19 14:57,600,The main experiment item,yes,Week4submit.osexp,C:\Users\DLGoupil\Desktop,no,mono,no,18,no,white,no,yes,768,legacy,25,79,C:/Users/DLGoupil/Desktop/dg-subject-1.csv,legacy,Kafkaesque Koffka,3.2.8,0,h,NA,s,s,NA,h,NA,NA,507,NA,10987,6234,NA,507,NA,NA,2,legacy,1024,2,48000,-16,experiment,HHHHH,1,odd,13769,180514,NA,185934,2777,236863,NA,238470,2781,174279,NA,237366,238573,239082,238467,NA,NA,238573,Week4submit,99,79730,106,yes,1024
93.45794393,93.45794393,751.5327103,751.5327103,black,legacy,legacy,legacy,0,incongruent,uniform,1,undefined,1,s,0,0,0,106,0,106,0,106,0,0,0,106,106,106,106,NA,NA,106,9/19/19 14:57,600,The main experiment item,yes,Week4submit.osexp,C:\Users\DLGoupil\Desktop,no,mono,no,18,no,white,no,yes,768,legacy,26,79,C:/Users/DLGoupil/Desktop/dg-subject-1.csv,legacy,Kafkaesque Koffka,3.2.8,0,s,NA,s,s,NA,s,NA,NA,684,NA,10987,6234,NA,684,NA,NA,2,legacy,1024,2,48000,-16,experiment,HHSHH,1,odd,13769,180514,NA,185934,2777,236863,NA,240189,2781,174279,NA,239087,240292,240978,240186,NA,NA,240292,Week4submit,100,80414,107,yes,1024
93.51851852,93.51851852,749.1574074,749.1574074,black,legacy,legacy,legacy,0,congruent,uniform,1,undefined,1,h,0,0,0,107,0,107,0,107,0,0,0,107,107,107,107,NA,NA,107,9/19/19 14:57,600,The main experiment item,yes,Week4submit.osexp,C:\Users\DLGoupil\Desktop,no,mono,no,18,no,white,no,yes,768,legacy,27,79,C:/Users/DLGoupil/Desktop/dg-subject-1.csv,legacy,Kafkaesque Koffka,3.2.8,0,h,NA,s,s,NA,h,NA,NA,495,NA,10987,6234,NA,495,NA,NA,2,legacy,1024,2,48000,-16,experiment,HHHHH,1,odd,13769,180514,NA,185934,2777,240983,NA,242586,2781,174279,NA,241486,242689,243186,242583,NA,NA,242689,Week4submit,101,80909,108,yes,1024
93.57798165,93.57798165,746.266055,746.266055,black,legacy,legacy,legacy,0,congruent,uniform,1,undefined,1,s,0,0,0,108,0,108,0,108,0,0,0,108,108,108,108,NA,NA,108,9/19/19 14:57,600,The main experiment item,yes,Week4submit.osexp,C:\Users\DLGoupil\Desktop,no,mono,no,18,no,white,no,yes,768,legacy,28,79,C:/Users/DLGoupil/Desktop/dg-subject-1.csv,legacy,Kafkaesque Koffka,3.2.8,0,s,NA,s,s,NA,s,NA,NA,434,NA,10987,6234,NA,434,NA,NA,2,legacy,1024,2,48000,-16,experiment,SSSSS,1,odd,13769,180514,NA,185934,2777,240983,NA,244295,2781,174279,NA,243191,244398,244834,244292,NA,NA,244398,Week4submit,102,81343,109,yes,1024
93.63636364,93.63636364,745.3272727,745.3272727,black,legacy,legacy,legacy,0,incongruent,uniform,1,undefined,1,h,0,0,0,109,0,109,0,109,0,0,0,109,109,109,109,NA,NA,109,9/19/19 14:57,600,The main experiment item,yes,Week4submit.osexp,C:\Users\DLGoupil\Desktop,no,mono,no,18,no,white,no,yes,768,legacy,29,79,C:/Users/DLGoupil/Desktop/dg-subject-1.csv,legacy,Kafkaesque Koffka,3.2.8,0,h,NA,s,s,NA,h,NA,NA,643,NA,10987,6234,NA,643,NA,NA,2,legacy,1024,2,48000,-16,experiment,SSHSS,1,odd,13769,180514,NA,185934,2777,240983,NA,245942,2781,174279,NA,244839,246045,246690,245939,NA,NA,246045,Week4submit,103,81986,110,yes,1024
93.69369369,93.69369369,744.0630631,744.0630631,black,legacy,legacy,legacy,0,incongruent,uniform,1,undefined,1,h,0,0,0,110,0,110,0,110,0,0,0,110,110,110,110,NA,NA,110,9/19/19 14:57,600,The main experiment item,yes,Week4submit.osexp,C:\Users\DLGoupil\Desktop,no,mono,no,18,no,white,no,yes,768,legacy,30,79,C:/Users/DLGoupil/Desktop/dg-subject-1.csv,legacy,Kafkaesque Koffka,3.2.8,0,h,NA,s,s,NA,h,NA,NA,605,NA,10987,6234,NA,605,NA,NA,2,legacy,1024,2,48000,-16,experiment,SSHSS,1,odd,13769,180514,NA,185934,2777,246695,NA,248308,2781,174279,NA,247198,248411,249018,248305,NA,NA,248411,Week4submit,104,82591,111,yes,1024
93.75,93.75,743.7678571,743.7678571,black,legacy,legacy,legacy,0,incongruent,uniform,1,undefined,1,s,0,0,0,111,0,111,0,111,0,0,0,111,111,111,111,NA,NA,111,9/19/19 14:57,600,The main experiment item,yes,Week4submit.osexp,C:\Users\DLGoupil\Desktop,no,mono,no,18,no,white,no,yes,768,legacy,31,79,C:/Users/DLGoupil/Desktop/dg-subject-1.csv,legacy,Kafkaesque Koffka,3.2.8,0,s,NA,s,s,NA,s,NA,NA,711,NA,10987,6234,NA,711,NA,NA,2,legacy,1024,2,48000,-16,experiment,HHSHH,1,odd,13769,180514,NA,185934,2777,249023,NA,250626,2781,174279,NA,249525,250729,251442,250623,NA,NA,250729,Week4submit,105,83302,112,yes,1024
93.80530973,93.80530973,742.1769912,742.1769912,black,legacy,legacy,legacy,0,congruent,uniform,1,undefined,1,h,0,0,0,112,0,112,0,112,0,0,0,112,112,112,112,NA,NA,112,9/19/19 14:57,600,The main experiment item,yes,Week4submit.osexp,C:\Users\DLGoupil\Desktop,no,mono,no,18,no,white,no,yes,768,legacy,32,79,C:/Users/DLGoupil/Desktop/dg-subject-1.csv,legacy,Kafkaesque Koffka,3.2.8,0,h,NA,s,s,NA,h,NA,NA,564,NA,10987,6234,NA,564,NA,NA,2,legacy,1024,2,48000,-16,experiment,HHHHH,1,odd,13769,180514,NA,185934,2777,251447,NA,253052,2781,174279,NA,251950,253156,253722,253050,NA,NA,253156,Week4submit,106,83866,113,yes,1024
93.85964912,93.85964912,740.4824561,740.4824561,black,legacy,legacy,legacy,0,congruent,uniform,1,undefined,1,h,0,0,0,113,0,113,0,113,0,0,0,113,113,113,113,NA,NA,113,9/19/19 14:57,600,The main experiment item,yes,Week4submit.osexp,C:\Users\DLGoupil\Desktop,no,mono,no,18,no,white,no,yes,768,legacy,33,79,C:/Users/DLGoupil/Desktop/dg-subject-1.csv,legacy,Kafkaesque Koffka,3.2.8,0,h,NA,s,s,NA,h,NA,NA,549,NA,10987,6234,NA,549,NA,NA,2,legacy,1024,2,48000,-16,experiment,HHHHH,1,odd,13769,180514,NA,185934,2777,251447,NA,254820,2781,174279,NA,253727,254923,255474,254817,NA,NA,254923,Week4submit,107,84415,114,yes,1024
93.91304348,93.91304348,739.5130435,739.5130435,black,legacy,legacy,legacy,0,incongruent,uniform,1,undefined,1,h,0,0,0,114,0,114,0,114,0,0,0,114,114,114,114,NA,NA,114,9/19/19 14:57,600,The main experiment item,yes,Week4submit.osexp,C:\Users\DLGoupil\Desktop,no,mono,no,18,no,white,no,yes,768,legacy,34,79,C:/Users/DLGoupil/Desktop/dg-subject-1.csv,legacy,Kafkaesque Koffka,3.2.8,0,h,NA,s,s,NA,h,NA,NA,629,NA,10987,6234,NA,629,NA,NA,2,legacy,1024,2,48000,-16,experiment,SSHSS,1,odd,13769,180514,NA,185934,2777,251447,NA,256588,2781,174279,NA,255479,256691,257322,256585,NA,NA,256691,Week4submit,108,85044,115,yes,1024
93.96551724,93.96551724,737.2413793,737.2413793,black,legacy,legacy,legacy,0,congruent,uniform,1,undefined,1,s,0,0,0,115,0,115,0,115,0,0,0,115,115,115,115,NA,NA,115,9/19/19 14:57,600,The main experiment item,yes,Week4submit.osexp,C:\Users\DLGoupil\Desktop,no,mono,no,18,no,white,no,yes,768,legacy,35,79,C:/Users/DLGoupil/Desktop/dg-subject-1.csv,legacy,Kafkaesque Koffka,3.2.8,0,s,NA,s,s,NA,s,NA,NA,476,NA,10987,6234,NA,476,NA,NA,2,legacy,1024,2,48000,-16,experiment,SSSSS,1,odd,13769,180514,NA,185934,2777,257327,NA,258933,2781,174279,NA,257830,259036,259514,258930,NA,NA,259036,Week4submit,109,85520,116,yes,1024
94.01709402,94.01709402,735.5726496,735.5726496,black,legacy,legacy,legacy,0,incongruent,uniform,1,undefined,1,h,0,0,0,116,0,116,0,116,0,0,0,116,116,116,116,NA,NA,116,9/19/19 14:57,600,The main experiment item,yes,Week4submit.osexp,C:\Users\DLGoupil\Desktop,no,mono,no,18,no,white,no,yes,768,legacy,36,79,C:/Users/DLGoupil/Desktop/dg-subject-1.csv,legacy,Kafkaesque Koffka,3.2.8,0,h,NA,s,s,NA,h,NA,NA,542,NA,10987,6234,NA,542,NA,NA,2,legacy,1024,2,48000,-16,experiment,SSHSS,1,odd,13769,180514,NA,185934,2777,257327,NA,260619,2781,174279,NA,259519,260722,261266,260616,NA,NA,260722,Week4submit,110,86062,117,yes,1024
93.22033898,93.22033898,734.4830508,734.4830508,black,legacy,legacy,legacy,0,incongruent,uniform,0,undefined,0,h,0,0,0,117,0,117,0,117,0,0,0,117,117,117,117,NA,NA,117,9/19/19 14:57,600,The main experiment item,yes,Week4submit.osexp,C:\Users\DLGoupil\Desktop,no,mono,no,18,no,white,no,yes,768,legacy,37,79,C:/Users/DLGoupil/Desktop/dg-subject-1.csv,legacy,Kafkaesque Koffka,3.2.8,0,s,NA,s,s,NA,s,NA,NA,607,NA,10987,6234,NA,607,NA,NA,2,legacy,1024,2,48000,-16,experiment,SSHSS,1,odd,13769,180514,NA,185934,2777,257327,NA,262378,2781,174279,NA,261271,262481,263090,262375,NA,NA,262481,Week4submit,110,86669,118,yes,1024
93.27731092,93.27731092,734.0084034,734.0084034,black,legacy,legacy,legacy,0,incongruent,uniform,1,undefined,1,h,0,0,0,118,0,118,0,118,0,0,0,118,118,118,118,NA,NA,118,9/19/19 14:57,600,The main experiment item,yes,Week4submit.osexp,C:\Users\DLGoupil\Desktop,no,mono,no,18,no,white,no,yes,768,legacy,38,79,C:/Users/DLGoupil/Desktop/dg-subject-1.csv,legacy,Kafkaesque Koffka,3.2.8,0,h,NA,s,s,NA,h,NA,NA,678,NA,10987,6234,NA,678,NA,NA,2,legacy,1024,2,48000,-16,experiment,SSHSS,1,odd,13769,180514,NA,263095,2777,263598,NA,265203,2781,174279,NA,264101,265306,265986,265200,NA,NA,265306,Week4submit,111,87347,119,yes,1024
93.33333333,93.33333333,732.5083333,732.5083333,black,legacy,legacy,legacy,0,congruent,uniform,1,undefined,1,h,0,0,0,119,0,119,0,119,0,0,0,119,119,119,119,NA,NA,119,9/19/19 14:57,600,The main experiment item,yes,Week4submit.osexp,C:\Users\DLGoupil\Desktop,no,mono,no,18,no,white,no,yes,768,legacy,39,79,C:/Users/DLGoupil/Desktop/dg-subject-1.csv,legacy,Kafkaesque Koffka,3.2.8,0,h,NA,s,s,NA,h,NA,NA,554,NA,10987,6234,NA,554,NA,NA,2,legacy,1024,2,48000,-16,experiment,HHHHH,1,odd,13769,180514,NA,263095,2777,265991,NA,267599,2781,174279,NA,266494,267702,268258,267596,NA,NA,267702,Week4submit,112,87901,120,yes,1024
93.38842975,93.38842975,731.2231405,731.2231405,black,legacy,legacy,legacy,0,congruent,uniform,1,undefined,1,s,0,0,0,120,0,120,0,120,0,0,0,120,120,120,120,NA,NA,120,9/19/19 14:57,600,The main experiment item,yes,Week4submit.osexp,C:\Users\DLGoupil\Desktop,no,mono,no,18,no,white,no,yes,768,legacy,40,79,C:/Users/DLGoupil/Desktop/dg-subject-1.csv,legacy,Kafkaesque Koffka,3.2.8,0,s,NA,s,s,NA,s,NA,NA,577,NA,10987,6234,NA,577,NA,NA,2,legacy,1024,2,48000,-16,experiment,SSSSS,1,odd,13769,180514,NA,263095,2777,265991,NA,269368,2781,174279,NA,268263,269471,270050,269365,NA,NA,269471,Week4submit,113,88478,121,yes,1024
93.44262295,93.44262295,729.4754098,729.4754098,black,legacy,legacy,legacy,0,congruent,uniform,1,undefined,1,h,0,0,0,121,0,121,0,121,0,0,0,121,121,121,121,NA,NA,121,9/19/19 14:57,600,The main experiment item,yes,Week4submit.osexp,C:\Users\DLGoupil\Desktop,no,mono,no,18,no,white,no,yes,768,legacy,41,79,C:/Users/DLGoupil/Desktop/dg-subject-1.csv,legacy,Kafkaesque Koffka,3.2.8,0,h,NA,s,s,NA,h,NA,NA,518,NA,10987,6234,NA,518,NA,NA,2,legacy,1024,2,48000,-16,experiment,HHHHH,1,odd,13769,180514,NA,263095,2777,265991,NA,271155,2781,174279,NA,270055,271258,271778,271152,NA,NA,271258,Week4submit,114,88996,122,yes,1024
93.49593496,93.49593496,728.4552846,728.4552846,black,legacy,legacy,legacy,0,incongruent,uniform,1,undefined,1,s,0,0,0,122,0,122,0,122,0,0,0,122,122,122,122,NA,NA,122,9/19/19 14:57,600,The main experiment item,yes,Week4submit.osexp,C:\Users\DLGoupil\Desktop,no,mono,no,18,no,white,no,yes,768,legacy,42,79,C:/Users/DLGoupil/Desktop/dg-subject-1.csv,legacy,Kafkaesque Koffka,3.2.8,0,s,NA,s,s,NA,s,NA,NA,604,NA,10987,6234,NA,604,NA,NA,2,legacy,1024,2,48000,-16,experiment,HHSHH,1,odd,13769,180514,NA,263095,2777,265991,NA,272885,2781,174279,NA,271783,272988,273594,272882,NA,NA,272988,Week4submit,115,89600,123,yes,1024
93.5483871,93.5483871,727.3790323,727.3790323,black,legacy,legacy,legacy,0,congruent,uniform,1,undefined,1,s,0,0,0,123,0,123,0,123,0,0,0,123,123,123,123,NA,NA,123,9/19/19 14:57,600,The main experiment item,yes,Week4submit.osexp,C:\Users\DLGoupil\Desktop,no,mono,no,18,no,white,no,yes,768,legacy,43,79,C:/Users/DLGoupil/Desktop/dg-subject-1.csv,legacy,Kafkaesque Koffka,3.2.8,0,s,NA,s,s,NA,s,NA,NA,595,NA,10987,6234,NA,595,NA,NA,2,legacy,1024,2,48000,-16,experiment,SSSSS,1,odd,13769,180514,NA,263095,2777,273599,NA,275199,2781,174279,NA,274102,275302,275898,275196,NA,NA,275302,Week4submit,116,90195,124,yes,1024
93.6,93.6,725.552,725.552,black,legacy,legacy,legacy,0,incongruent,uniform,1,undefined,1,h,0,0,0,124,0,124,0,124,0,0,0,124,124,124,124,NA,NA,124,9/19/19 14:57,600,The main experiment item,yes,Week4submit.osexp,C:\Users\DLGoupil\Desktop,no,mono,no,18,no,white,no,yes,768,legacy,44,79,C:/Users/DLGoupil/Desktop/dg-subject-1.csv,legacy,Kafkaesque Koffka,3.2.8,0,h,NA,s,s,NA,h,NA,NA,499,NA,10987,6234,NA,499,NA,NA,2,legacy,1024,2,48000,-16,experiment,SSHSS,1,odd,13769,180514,NA,263095,2777,273599,NA,277015,2781,174279,NA,275903,277118,277618,277012,NA,NA,277118,Week4submit,117,90694,125,yes,1024
93.65079365,93.65079365,725.3174603,725.3174603,black,legacy,legacy,legacy,0,incongruent,uniform,1,undefined,1,s,0,0,0,125,0,125,0,125,0,0,0,125,125,125,125,NA,NA,125,9/19/19 14:57,600,The main experiment item,yes,Week4submit.osexp,C:\Users\DLGoupil\Desktop,no,mono,no,18,no,white,no,yes,768,legacy,45,79,C:/Users/DLGoupil/Desktop/dg-subject-1.csv,legacy,Kafkaesque Koffka,3.2.8,0,s,NA,s,s,NA,s,NA,NA,696,NA,10987,6234,NA,696,NA,NA,2,legacy,1024,2,48000,-16,experiment,HHSHH,1,odd,13769,180514,NA,263095,2777,273599,NA,278730,2781,174279,NA,277623,278833,279531,278727,NA,NA,278833,Week4submit,118,91390,126,yes,1024
92.91338583,92.91338583,723.6929134,723.6929134,black,legacy,legacy,legacy,0,incongruent,uniform,0,undefined,0,s,0,0,0,126,0,126,0,126,0,0,0,126,126,126,126,NA,NA,126,9/19/19 14:57,600,The main experiment item,yes,Week4submit.osexp,C:\Users\DLGoupil\Desktop,no,mono,no,18,no,white,no,yes,768,legacy,46,79,C:/Users/DLGoupil/Desktop/dg-subject-1.csv,legacy,Kafkaesque Koffka,3.2.8,0,h,NA,s,s,NA,h,NA,NA,519,NA,10987,6234,NA,519,NA,NA,2,legacy,1024,2,48000,-16,experiment,HHSHH,1,odd,13769,180514,NA,263095,2777,279536,NA,281138,2781,174279,NA,280039,281241,281762,281135,NA,NA,281241,Week4submit,118,91909,127,yes,1024
92.96875,92.96875,723.359375,723.359375,black,legacy,legacy,legacy,0,incongruent,uniform,1,undefined,1,h,0,0,0,127,0,127,0,127,0,0,0,127,127,127,127,NA,NA,127,9/19/19 14:57,600,The main experiment item,yes,Week4submit.osexp,C:\Users\DLGoupil\Desktop,no,mono,no,18,no,white,no,yes,768,legacy,47,79,C:/Users/DLGoupil/Desktop/dg-subject-1.csv,legacy,Kafkaesque Koffka,3.2.8,0,h,NA,s,s,NA,h,NA,NA,681,NA,10987,6234,NA,681,NA,NA,2,legacy,1024,2,48000,-16,experiment,SSHSS,1,odd,13769,180514,NA,281767,2777,279536,NA,283368,2781,174279,NA,282270,283471,284154,283365,NA,NA,283471,Week4submit,119,92590,128,yes,1024
93.02325581,93.02325581,722.1007752,722.1007752,black,legacy,legacy,legacy,0,incongruent,uniform,1,undefined,1,s,0,0,0,128,0,128,0,128,0,0,0,128,128,128,128,NA,NA,128,9/19/19 14:57,600,The main experiment item,yes,Week4submit.osexp,C:\Users\DLGoupil\Desktop,no,mono,no,18,no,white,no,yes,768,legacy,48,79,C:/Users/DLGoupil/Desktop/dg-subject-1.csv,legacy,Kafkaesque Koffka,3.2.8,0,s,NA,s,s,NA,s,NA,NA,561,NA,10987,6234,NA,561,NA,NA,2,legacy,1024,2,48000,-16,experiment,HHSHH,1,odd,13769,180514,NA,281767,2777,284159,NA,285760,2781,174279,NA,284662,285864,286427,285758,NA,NA,285864,Week4submit,120,93151,129,yes,1024
93.07692308,93.07692308,721.2538462,721.2538462,black,legacy,legacy,legacy,0,incongruent,uniform,1,undefined,1,s,0,0,0,129,0,129,0,129,0,0,0,129,129,129,129,NA,NA,129,9/19/19 14:57,600,The main experiment item,yes,Week4submit.osexp,C:\Users\DLGoupil\Desktop,no,mono,no,18,no,white,no,yes,768,legacy,49,79,C:/Users/DLGoupil/Desktop/dg-subject-1.csv,legacy,Kafkaesque Koffka,3.2.8,0,s,NA,s,s,NA,s,NA,NA,612,NA,10987,6234,NA,612,NA,NA,2,legacy,1024,2,48000,-16,experiment,HHSHH,1,odd,13769,180514,NA,281767,2777,284159,NA,287533,2781,174279,NA,286432,287637,288251,287531,NA,NA,287637,Week4submit,121,93763,130,yes,1024
93.12977099,93.12977099,719.5725191,719.5725191,black,legacy,legacy,legacy,0,congruent,uniform,1,undefined,1,h,0,0,0,130,0,130,0,130,0,0,0,130,130,130,130,NA,NA,130,9/19/19 14:57,600,The main experiment item,yes,Week4submit.osexp,C:\Users\DLGoupil\Desktop,no,mono,no,18,no,white,no,yes,768,legacy,50,79,C:/Users/DLGoupil/Desktop/dg-subject-1.csv,legacy,Kafkaesque Koffka,3.2.8,0,h,NA,s,s,NA,h,NA,NA,501,NA,10987,6234,NA,501,NA,NA,2,legacy,1024,2,48000,-16,experiment,HHHHH,1,odd,13769,180514,NA,281767,2777,288256,NA,289862,2781,174279,NA,288759,289964,290467,289859,NA,NA,289964,Week4submit,122,94264,131,yes,1024
93.18181818,93.18181818,717.9621212,717.9621212,black,legacy,legacy,legacy,0,congruent,uniform,1,undefined,1,h,0,0,0,131,0,131,0,131,0,0,0,131,131,131,131,NA,NA,131,9/19/19 14:57,600,The main experiment item,yes,Week4submit.osexp,C:\Users\DLGoupil\Desktop,no,mono,no,18,no,white,no,yes,768,legacy,51,79,C:/Users/DLGoupil/Desktop/dg-subject-1.csv,legacy,Kafkaesque Koffka,3.2.8,0,h,NA,s,s,NA,h,NA,NA,507,NA,10987,6234,NA,507,NA,NA,2,legacy,1024,2,48000,-16,experiment,HHHHH,1,odd,13769,180514,NA,281767,2777,288256,NA,291574,2781,174279,NA,290471,291677,292186,291571,NA,NA,291677,Week4submit,123,94771,132,yes,1024
93.23308271,93.23308271,716.0827068,716.0827068,black,legacy,legacy,legacy,0,congruent,uniform,1,undefined,1,h,0,0,0,132,0,132,0,132,0,0,0,132,132,132,132,NA,NA,132,9/19/19 14:57,600,The main experiment item,yes,Week4submit.osexp,C:\Users\DLGoupil\Desktop,no,mono,no,18,no,white,no,yes,768,legacy,52,79,C:/Users/DLGoupil/Desktop/dg-subject-1.csv,legacy,Kafkaesque Koffka,3.2.8,0,h,NA,s,s,NA,h,NA,NA,468,NA,10987,6234,NA,468,NA,NA,2,legacy,1024,2,48000,-16,experiment,HHHHH,1,odd,13769,180514,NA,281767,2777,288256,NA,293293,2781,174279,NA,292191,293396,293866,293290,NA,NA,293396,Week4submit,124,95239,133,yes,1024
93.28358209,93.28358209,715.3731343,715.3731343,black,legacy,legacy,legacy,0,congruent,uniform,1,undefined,1,s,0,0,0,133,0,133,0,133,0,0,0,133,133,133,133,NA,NA,133,9/19/19 14:57,600,The main experiment item,yes,Week4submit.osexp,C:\Users\DLGoupil\Desktop,no,mono,no,18,no,white,no,yes,768,legacy,53,79,C:/Users/DLGoupil/Desktop/dg-subject-1.csv,legacy,Kafkaesque Koffka,3.2.8,0,s,NA,s,s,NA,s,NA,NA,621,NA,10987,6234,NA,621,NA,NA,2,legacy,1024,2,48000,-16,experiment,SSSSS,1,odd,13769,180514,NA,281767,2777,288256,NA,294973,2781,174279,NA,293871,295076,295699,294970,NA,NA,295076,Week4submit,125,95860,134,yes,1024
93.33333333,93.33333333,714.562963,714.562963,black,legacy,legacy,legacy,0,incongruent,uniform,1,undefined,1,s,0,0,0,134,0,134,0,134,0,0,0,134,134,134,134,NA,NA,134,9/19/19 14:57,600,The main experiment item,yes,Week4submit.osexp,C:\Users\DLGoupil\Desktop,no,mono,no,18,no,white,no,yes,768,legacy,54,79,C:/Users/DLGoupil/Desktop/dg-subject-1.csv,legacy,Kafkaesque Koffka,3.2.8,0,s,NA,s,s,NA,s,NA,NA,606,NA,10987,6234,NA,606,NA,NA,2,legacy,1024,2,48000,-16,experiment,HHSHH,1,odd,13769,180514,NA,281767,2777,295704,NA,297308,2781,174279,NA,296207,297411,298019,297305,NA,NA,297411,Week4submit,126,96466,135,yes,1024
92.64705882,92.64705882,713.4191176,713.4191176,black,legacy,legacy,legacy,0,incongruent,uniform,0,undefined,0,h,0,0,0,135,0,135,0,135,0,0,0,135,135,135,135,NA,NA,135,9/19/19 14:57,600,The main experiment item,yes,Week4submit.osexp,C:\Users\DLGoupil\Desktop,no,mono,no,18,no,white,no,yes,768,legacy,55,79,C:/Users/DLGoupil/Desktop/dg-subject-1.csv,legacy,Kafkaesque Koffka,3.2.8,0,s,NA,s,s,NA,s,NA,NA,559,NA,10987,6234,NA,559,NA,NA,2,legacy,1024,2,48000,-16,experiment,SSHSS,1,odd,13769,180514,NA,281767,2777,298024,NA,299635,2781,174279,NA,298527,299738,300299,299632,NA,NA,299738,Week4submit,126,97025,136,yes,1024
92.70072993,92.70072993,713.6277372,713.6277372,black,legacy,legacy,legacy,0,incongruent,uniform,1,undefined,1,s,0,0,0,136,0,136,0,136,0,0,0,136,136,136,136,NA,NA,136,9/19/19 14:57,600,The main experiment item,yes,Week4submit.osexp,C:\Users\DLGoupil\Desktop,no,mono,no,18,no,white,no,yes,768,legacy,56,79,C:/Users/DLGoupil/Desktop/dg-subject-1.csv,legacy,Kafkaesque Koffka,3.2.8,0,s,NA,s,s,NA,s,NA,NA,742,NA,10987,6234,NA,742,NA,NA,2,legacy,1024,2,48000,-16,experiment,HHSHH,1,odd,13769,180514,NA,300304,2777,298024,NA,301916,2781,174279,NA,300807,302019,302763,301913,NA,NA,302019,Week4submit,127,97767,137,yes,1024
92.75362319,92.75362319,714.3768116,714.3768116,black,legacy,legacy,legacy,0,incongruent,uniform,1,undefined,1,s,0,0,0,137,0,137,0,137,0,0,0,137,137,137,137,NA,NA,137,9/19/19 14:57,600,The main experiment item,yes,Week4submit.osexp,C:\Users\DLGoupil\Desktop,no,mono,no,18,no,white,no,yes,768,legacy,57,79,C:/Users/DLGoupil/Desktop/dg-subject-1.csv,legacy,Kafkaesque Koffka,3.2.8,0,s,NA,s,s,NA,s,NA,NA,817,NA,10987,6234,NA,817,NA,NA,2,legacy,1024,2,48000,-16,experiment,HHSHH,1,odd,13769,180514,NA,300304,2777,302768,NA,304369,2781,174279,NA,303271,304472,305291,304367,NA,NA,304472,Week4submit,128,98584,138,yes,1024
92.8057554,92.8057554,713.294964,713.294964,black,legacy,legacy,legacy,0,congruent,uniform,1,undefined,1,h,0,0,0,138,0,138,0,138,0,0,0,138,138,138,138,NA,NA,138,9/19/19 14:57,600,The main experiment item,yes,Week4submit.osexp,C:\Users\DLGoupil\Desktop,no,mono,no,18,no,white,no,yes,768,legacy,58,79,C:/Users/DLGoupil/Desktop/dg-subject-1.csv,legacy,Kafkaesque Koffka,3.2.8,0,h,NA,s,s,NA,h,NA,NA,564,NA,10987,6234,NA,564,NA,NA,2,legacy,1024,2,48000,-16,experiment,HHHHH,1,odd,13769,180514,NA,300304,2777,305296,NA,306903,2781,174279,NA,305799,307005,307571,306901,NA,NA,307005,Week4submit,129,99148,139,yes,1024
92.85714286,92.85714286,712.9071429,712.9071429,black,legacy,legacy,legacy,0,congruent,uniform,1,undefined,1,s,0,0,0,139,0,139,0,139,0,0,0,139,139,139,139,NA,NA,139,9/19/19 14:57,600,The main experiment item,yes,Week4submit.osexp,C:\Users\DLGoupil\Desktop,no,mono,no,18,no,white,no,yes,768,legacy,59,79,C:/Users/DLGoupil/Desktop/dg-subject-1.csv,legacy,Kafkaesque Koffka,3.2.8,0,s,NA,s,s,NA,s,NA,NA,659,NA,10987,6234,NA,659,NA,NA,2,legacy,1024,2,48000,-16,experiment,SSSSS,1,odd,13769,180514,NA,300304,2777,305296,NA,308679,2781,174279,NA,307576,308782,309442,308676,NA,NA,308782,Week4submit,130,99807,140,yes,1024
92.90780142,92.90780142,712.7943262,712.7943262,black,legacy,legacy,legacy,0,incongruent,uniform,1,undefined,1,s,0,0,0,140,0,140,0,140,0,0,0,140,140,140,140,NA,NA,140,9/19/19 14:57,600,The main experiment item,yes,Week4submit.osexp,C:\Users\DLGoupil\Desktop,no,mono,no,18,no,white,no,yes,768,legacy,60,79,C:/Users/DLGoupil/Desktop/dg-subject-1.csv,legacy,Kafkaesque Koffka,3.2.8,0,s,NA,s,s,NA,s,NA,NA,697,NA,10987,6234,NA,697,NA,NA,2,legacy,1024,2,48000,-16,experiment,HHSHH,1,odd,13769,180514,NA,300304,2777,309448,NA,311049,2781,174279,NA,309951,311152,311851,311046,NA,NA,311152,Week4submit,131,100504,141,yes,1024
92.95774648,92.95774648,712.2253521,712.2253521,black,legacy,legacy,legacy,0,congruent,uniform,1,undefined,1,s,0,0,0,141,0,141,0,141,0,0,0,141,141,141,141,NA,NA,141,9/19/19 14:57,600,The main experiment item,yes,Week4submit.osexp,C:\Users\DLGoupil\Desktop,no,mono,no,18,no,white,no,yes,768,legacy,61,79,C:/Users/DLGoupil/Desktop/dg-subject-1.csv,legacy,Kafkaesque Koffka,3.2.8,0,s,NA,s,s,NA,s,NA,NA,632,NA,10987,6234,NA,632,NA,NA,2,legacy,1024,2,48000,-16,experiment,SSSSS,1,odd,13769,180514,NA,300304,2777,311856,NA,313466,2781,174279,NA,312359,313569,314203,313463,NA,NA,313569,Week4submit,132,101136,142,yes,1024
93.00699301,93.00699301,712.1538462,712.1538462,black,legacy,legacy,legacy,0,incongruent,uniform,1,undefined,1,h,0,0,0,142,0,142,0,142,0,0,0,142,142,142,142,NA,NA,142,9/19/19 14:57,600,The main experiment item,yes,Week4submit.osexp,C:\Users\DLGoupil\Desktop,no,mono,no,18,no,white,no,yes,768,legacy,62,79,C:/Users/DLGoupil/Desktop/dg-subject-1.csv,legacy,Kafkaesque Koffka,3.2.8,0,h,NA,s,s,NA,h,NA,NA,702,NA,10987,6234,NA,702,NA,NA,2,legacy,1024,2,48000,-16,experiment,SSHSS,1,odd,13769,180514,NA,300304,2777,314208,NA,315813,2781,174279,NA,314711,315915,316619,315810,NA,NA,315915,Week4submit,133,101838,143,yes,1024
93.05555556,93.05555556,710.7847222,710.7847222,black,legacy,legacy,legacy,0,congruent,uniform,1,undefined,1,h,0,0,0,143,0,143,0,143,0,0,0,143,143,143,143,NA,NA,143,9/19/19 14:57,600,The main experiment item,yes,Week4submit.osexp,C:\Users\DLGoupil\Desktop,no,mono,no,18,no,white,no,yes,768,legacy,63,79,C:/Users/DLGoupil/Desktop/dg-subject-1.csv,legacy,Kafkaesque Koffka,3.2.8,0,h,NA,s,s,NA,h,NA,NA,515,NA,10987,6234,NA,515,NA,NA,2,legacy,1024,2,48000,-16,experiment,HHHHH,1,odd,13769,180514,NA,300304,2777,316624,NA,318223,2781,174279,NA,317127,318326,318843,318220,NA,NA,318326,Week4submit,134,102353,144,yes,1024
93.10344828,93.10344828,709.7655172,709.7655172,black,legacy,legacy,legacy,0,congruent,uniform,1,undefined,1,s,0,0,0,144,0,144,0,144,0,0,0,144,144,144,144,NA,NA,144,9/19/19 14:57,600,The main experiment item,yes,Week4submit.osexp,C:\Users\DLGoupil\Desktop,no,mono,no,18,no,white,no,yes,768,legacy,64,79,C:/Users/DLGoupil/Desktop/dg-subject-1.csv,legacy,Kafkaesque Koffka,3.2.8,0,s,NA,s,s,NA,s,NA,NA,563,NA,10987,6234,NA,563,NA,NA,2,legacy,1024,2,48000,-16,experiment,SSSSS,1,odd,13769,180514,NA,300304,2777,316624,NA,319952,2781,174279,NA,318848,320054,320619,319949,NA,NA,320054,Week4submit,135,102916,145,yes,1024
93.15068493,93.15068493,708.4931507,708.4931507,black,legacy,legacy,legacy,0,congruent,uniform,1,undefined,1,h,0,0,0,145,0,145,0,145,0,0,0,145,145,145,145,NA,NA,145,9/19/19 14:57,600,The main experiment item,yes,Week4submit.osexp,C:\Users\DLGoupil\Desktop,no,mono,no,18,no,white,no,yes,768,legacy,65,79,C:/Users/DLGoupil/Desktop/dg-subject-1.csv,legacy,Kafkaesque Koffka,3.2.8,0,h,NA,s,s,NA,h,NA,NA,524,NA,10987,6234,NA,524,NA,NA,2,legacy,1024,2,48000,-16,experiment,HHHHH,1,odd,13769,180514,NA,300304,2777,316624,NA,321725,2781,174279,NA,320624,321829,322355,321723,NA,NA,321829,Week4submit,136,103440,146,yes,1024
93.19727891,93.19727891,707.877551,707.877551,black,legacy,legacy,legacy,0,congruent,uniform,1,undefined,1,h,0,0,0,146,0,146,0,146,0,0,0,146,146,146,146,NA,NA,146,9/19/19 14:57,600,The main experiment item,yes,Week4submit.osexp,C:\Users\DLGoupil\Desktop,no,mono,no,18,no,white,no,yes,768,legacy,66,79,C:/Users/DLGoupil/Desktop/dg-subject-1.csv,legacy,Kafkaesque Koffka,3.2.8,0,h,NA,s,s,NA,h,NA,NA,618,NA,10987,6234,NA,618,NA,NA,2,legacy,1024,2,48000,-16,experiment,HHHHH,1,odd,13769,180514,NA,300304,2777,316624,NA,323464,2781,174279,NA,322360,323567,324187,323461,NA,NA,323567,Week4submit,137,104058,147,yes,1024
93.24324324,93.24324324,706.3513514,706.3513514,black,legacy,legacy,legacy,0,congruent,uniform,1,undefined,1,h,0,0,0,147,0,147,0,147,0,0,0,147,147,147,147,NA,NA,147,9/19/19 14:57,600,The main experiment item,yes,Week4submit.osexp,C:\Users\DLGoupil\Desktop,no,mono,no,18,no,white,no,yes,768,legacy,67,79,C:/Users/DLGoupil/Desktop/dg-subject-1.csv,legacy,Kafkaesque Koffka,3.2.8,0,h,NA,s,s,NA,h,NA,NA,482,NA,10987,6234,NA,482,NA,NA,2,legacy,1024,2,48000,-16,experiment,HHHHH,1,odd,13769,180514,NA,300304,2777,324192,NA,325800,2781,174279,NA,324695,325903,326386,325797,NA,NA,325903,Week4submit,138,104540,148,yes,1024
93.2885906,93.2885906,706.4697987,706.4697987,black,legacy,legacy,legacy,0,incongruent,uniform,1,undefined,1,s,0,0,0,148,0,148,0,148,0,0,0,148,148,148,148,NA,NA,148,9/19/19 14:57,600,The main experiment item,yes,Week4submit.osexp,C:\Users\DLGoupil\Desktop,no,mono,no,18,no,white,no,yes,768,legacy,68,79,C:/Users/DLGoupil/Desktop/dg-subject-1.csv,legacy,Kafkaesque Koffka,3.2.8,0,s,NA,s,s,NA,s,NA,NA,724,NA,10987,6234,NA,724,NA,NA,2,legacy,1024,2,48000,-16,experiment,HHSHH,1,odd,13769,180514,NA,300304,2777,324192,NA,327494,2781,174279,NA,326392,327597,328323,327491,NA,NA,327597,Week4submit,139,105264,149,yes,1024
93.33333333,93.33333333,704.7466667,704.7466667,black,legacy,legacy,legacy,0,congruent,uniform,1,undefined,1,h,0,0,0,149,0,149,0,149,0,0,0,149,149,149,149,NA,NA,149,9/19/19 14:57,600,The main experiment item,yes,Week4submit.osexp,C:\Users\DLGoupil\Desktop,no,mono,no,18,no,white,no,yes,768,legacy,69,79,C:/Users/DLGoupil/Desktop/dg-subject-1.csv,legacy,Kafkaesque Koffka,3.2.8,0,h,NA,s,s,NA,h,NA,NA,448,NA,10987,6234,NA,448,NA,NA,2,legacy,1024,2,48000,-16,experiment,HHHHH,1,odd,13769,180514,NA,300304,2777,328328,NA,329938,2781,174279,NA,328831,330041,330491,329935,NA,NA,330041,Week4submit,140,105712,150,yes,1024
93.37748344,93.37748344,704.9801325,704.9801325,black,legacy,legacy,legacy,0,incongruent,uniform,1,undefined,1,s,0,0,0,150,0,150,0,150,0,0,0,150,150,150,150,NA,NA,150,9/19/19 14:57,600,The main experiment item,yes,Week4submit.osexp,C:\Users\DLGoupil\Desktop,no,mono,no,18,no,white,no,yes,768,legacy,70,79,C:/Users/DLGoupil/Desktop/dg-subject-1.csv,legacy,Kafkaesque Koffka,3.2.8,0,s,NA,s,s,NA,s,NA,NA,740,NA,10987,6234,NA,740,NA,NA,2,legacy,1024,2,48000,-16,experiment,HHSHH,1,odd,13769,180514,NA,300304,2777,328328,NA,331598,2781,174279,NA,330496,331701,332443,331595,NA,NA,331701,Week4submit,141,106452,151,yes,1024
93.42105263,93.42105263,704.6907895,704.6907895,black,legacy,legacy,legacy,0,incongruent,uniform,1,undefined,1,h,0,0,0,151,0,151,0,151,0,0,0,151,151,151,151,NA,NA,151,9/19/19 14:57,600,The main experiment item,yes,Week4submit.osexp,C:\Users\DLGoupil\Desktop,no,mono,no,18,no,white,no,yes,768,legacy,71,79,C:/Users/DLGoupil/Desktop/dg-subject-1.csv,legacy,Kafkaesque Koffka,3.2.8,0,h,NA,s,s,NA,h,NA,NA,661,NA,10987,6234,NA,661,NA,NA,2,legacy,1024,2,48000,-16,experiment,SSHSS,1,odd,13769,180514,NA,300304,2777,332448,NA,334053,2781,174279,NA,332951,334156,334819,334050,NA,NA,334156,Week4submit,142,107113,152,yes,1024
93.46405229,93.46405229,704.0522876,704.0522876,black,legacy,legacy,legacy,0,congruent,uniform,1,undefined,1,s,0,0,0,152,0,152,0,152,0,0,0,152,152,152,152,NA,NA,152,9/19/19 14:57,600,The main experiment item,yes,Week4submit.osexp,C:\Users\DLGoupil\Desktop,no,mono,no,18,no,white,no,yes,768,legacy,72,79,C:/Users/DLGoupil/Desktop/dg-subject-1.csv,legacy,Kafkaesque Koffka,3.2.8,0,s,NA,s,s,NA,s,NA,NA,607,NA,10987,6234,NA,607,NA,NA,2,legacy,1024,2,48000,-16,experiment,SSSSS,1,odd,13769,180514,NA,300304,2777,334824,NA,336426,2781,174279,NA,335327,336530,337139,336424,NA,NA,336530,Week4submit,143,107720,153,yes,1024
92.85714286,92.85714286,702.7662338,702.7662338,black,legacy,legacy,legacy,0,incongruent,uniform,0,undefined,0,h,0,0,0,153,0,153,0,153,0,0,0,153,153,153,153,NA,NA,153,9/19/19 14:57,600,The main experiment item,yes,Week4submit.osexp,C:\Users\DLGoupil\Desktop,no,mono,no,18,no,white,no,yes,768,legacy,73,79,C:/Users/DLGoupil/Desktop/dg-subject-1.csv,legacy,Kafkaesque Koffka,3.2.8,0,s,NA,s,s,NA,s,NA,NA,506,NA,10987,6234,NA,506,NA,NA,2,legacy,1024,2,48000,-16,experiment,SSHSS,1,odd,13769,180514,NA,300304,2777,337144,NA,338743,2781,174279,NA,337646,338846,339354,338740,NA,NA,338846,Week4submit,143,108226,154,yes,1024
92.90322581,92.90322581,701.3354839,701.3354839,black,legacy,legacy,legacy,0,congruent,uniform,1,undefined,1,h,0,0,0,154,0,154,0,154,0,0,0,154,154,154,154,NA,NA,154,9/19/19 14:57,600,The main experiment item,yes,Week4submit.osexp,C:\Users\DLGoupil\Desktop,no,mono,no,18,no,white,no,yes,768,legacy,74,79,C:/Users/DLGoupil/Desktop/dg-subject-1.csv,legacy,Kafkaesque Koffka,3.2.8,0,h,NA,s,s,NA,h,NA,NA,481,NA,10987,6234,NA,481,NA,NA,2,legacy,1024,2,48000,-16,experiment,HHHHH,1,odd,13769,180514,NA,339359,2777,337144,NA,340960,2781,174279,NA,339862,341063,341546,340957,NA,NA,341063,Week4submit,144,108707,155,yes,1024
92.94871795,92.94871795,701.3397436,701.3397436,black,legacy,legacy,legacy,0,incongruent,uniform,1,undefined,1,s,0,0,0,155,0,155,0,155,0,0,0,155,155,155,155,NA,NA,155,9/19/19 14:57,600,The main experiment item,yes,Week4submit.osexp,C:\Users\DLGoupil\Desktop,no,mono,no,18,no,white,no,yes,768,legacy,75,79,C:/Users/DLGoupil/Desktop/dg-subject-1.csv,legacy,Kafkaesque Koffka,3.2.8,0,s,NA,s,s,NA,s,NA,NA,702,NA,10987,6234,NA,702,NA,NA,2,legacy,1024,2,48000,-16,experiment,HHSHH,1,odd,13769,180514,NA,339359,2777,337144,NA,342659,2781,174279,NA,341551,342762,343466,342656,NA,NA,342762,Week4submit,145,109409,156,yes,1024
92.99363057,92.99363057,699.9617834,699.9617834,black,legacy,legacy,legacy,0,congruent,uniform,1,undefined,1,s,0,0,0,156,0,156,0,156,0,0,0,156,156,156,156,NA,NA,156,9/19/19 14:57,600,The main experiment item,yes,Week4submit.osexp,C:\Users\DLGoupil\Desktop,no,mono,no,18,no,white,no,yes,768,legacy,76,79,C:/Users/DLGoupil/Desktop/dg-subject-1.csv,legacy,Kafkaesque Koffka,3.2.8,0,s,NA,s,s,NA,s,NA,NA,485,NA,10987,6234,NA,485,NA,NA,2,legacy,1024,2,48000,-16,experiment,SSSSS,1,odd,13769,180514,NA,339359,2777,343471,NA,345068,2781,174279,NA,343974,345171,345658,345065,NA,NA,345171,Week4submit,146,109894,157,yes,1024
93.03797468,93.03797468,699.1329114,699.1329114,black,legacy,legacy,legacy,0,incongruent,uniform,1,undefined,1,h,0,0,0,157,0,157,0,157,0,0,0,157,157,157,157,NA,NA,157,9/19/19 14:57,600,The main experiment item,yes,Week4submit.osexp,C:\Users\DLGoupil\Desktop,no,mono,no,18,no,white,no,yes,768,legacy,77,79,C:/Users/DLGoupil/Desktop/dg-subject-1.csv,legacy,Kafkaesque Koffka,3.2.8,0,h,NA,s,s,NA,h,NA,NA,569,NA,10987,6234,NA,569,NA,NA,2,legacy,1024,2,48000,-16,experiment,SSHSS,1,odd,13769,180514,NA,339359,2777,343471,NA,346769,2781,174279,NA,345663,346872,347443,346766,NA,NA,346872,Week4submit,147,110463,158,yes,1024
93.08176101,93.08176101,697.9308176,697.9308176,black,legacy,legacy,legacy,0,congruent,uniform,1,undefined,1,s,0,0,0,158,0,158,0,158,0,0,0,158,158,158,158,NA,NA,158,9/19/19 14:57,600,The main experiment item,yes,Week4submit.osexp,C:\Users\DLGoupil\Desktop,no,mono,no,18,no,white,no,yes,768,legacy,78,79,C:/Users/DLGoupil/Desktop/dg-subject-1.csv,legacy,Kafkaesque Koffka,3.2.8,0,s,NA,s,s,NA,s,NA,NA,508,NA,10987,6234,NA,508,NA,NA,2,legacy,1024,2,48000,-16,experiment,SSSSS,1,odd,13769,180514,NA,339359,2777,343471,NA,348541,2781,174279,NA,347449,348644,349154,348538,NA,NA,348644,Week4submit,148,110971,159,yes,1024
92.5,92.5,697.55625,697.55625,black,legacy,legacy,legacy,0,incongruent,uniform,0,undefined,0,s,0,0,0,159,0,159,0,159,0,0,0,159,159,159,159,NA,NA,159,9/19/19 14:57,600,The main experiment item,yes,Week4submit.osexp,C:\Users\DLGoupil\Desktop,no,mono,no,18,no,white,no,yes,768,legacy,79,79,C:/Users/DLGoupil/Desktop/dg-subject-1.csv,legacy,Kafkaesque Koffka,3.2.8,0,h,NA,s,s,NA,h,NA,NA,638,NA,10987,6234,NA,638,NA,NA,2,legacy,1024,2,48000,-16,experiment,HHSHH,1,odd,13769,180514,NA,339359,2777,343471,NA,350259,2781,174279,NA,349159,350362,351002,350256,NA,NA,350362,Week4submit,148,111609,160,yes,1024
92.54658385,92.54658385,698.0559006,698.0559006,black,legacy,legacy,legacy,0,congruent,uniform,1,undefined,1,h,0,0,0,160,0,160,0,160,0,0,0,160,160,160,160,NA,NA,160,9/19/19 14:57,300,The main experiment item,yes,Week4submit.osexp,C:\Users\DLGoupil\Desktop,no,mono,no,18,no,white,no,yes,768,legacy,0,79,C:/Users/DLGoupil/Desktop/dg-subject-1.csv,legacy,Kafkaesque Koffka,3.2.8,0,h,NA,s,s,h,h,NA,NA,778,NA,10987,6234,25769,778,NA,NA,2,legacy,1024,2,48000,-16,experiment,HHHHH,1,odd,13769,180514,378803,351007,2777,351510,NA,378903,2781,174279,353032,352013,379007,379787,378901,NA,NA,379007,Week4submit,149,112387,161,yes,1024
92.59259259,92.59259259,697.0432099,697.0432099,black,legacy,legacy,legacy,0,congruent,uniform,1,undefined,1,s,0,0,0,161,0,161,0,161,0,0,0,161,161,161,161,NA,NA,161,9/19/19 14:57,300,The main experiment item,yes,Week4submit.osexp,C:\Users\DLGoupil\Desktop,no,mono,no,18,no,white,no,yes,768,legacy,1,79,C:/Users/DLGoupil/Desktop/dg-subject-1.csv,legacy,Kafkaesque Koffka,3.2.8,0,s,NA,s,s,h,s,NA,NA,534,NA,10987,6234,25769,534,NA,NA,2,legacy,1024,2,48000,-16,experiment,SSSSS,1,odd,13769,180514,378803,351007,2777,379792,NA,381396,2781,174279,353032,380295,381499,382035,381393,NA,NA,381499,Week4submit,150,112921,162,yes,1024
92.63803681,92.63803681,696.6809816,696.6809816,black,legacy,legacy,legacy,0,congruent,uniform,1,undefined,1,s,0,0,0,162,0,162,0,162,0,0,0,162,162,162,162,NA,NA,162,9/19/19 14:57,300,The main experiment item,yes,Week4submit.osexp,C:\Users\DLGoupil\Desktop,no,mono,no,18,no,white,no,yes,768,legacy,2,79,C:/Users/DLGoupil/Desktop/dg-subject-1.csv,legacy,Kafkaesque Koffka,3.2.8,0,s,NA,s,s,h,s,NA,NA,638,NA,10987,6234,25769,638,NA,NA,2,legacy,1024,2,48000,-16,experiment,SSSSS,1,odd,13769,180514,378803,351007,2777,382040,NA,383644,2781,174279,353032,382543,383747,384387,383641,NA,NA,383747,Week4submit,151,113559,163,yes,1024
92.07317073,92.07317073,695.5060976,695.5060976,black,legacy,legacy,legacy,0,incongruent,uniform,0,undefined,0,h,0,0,0,163,0,163,0,163,0,0,0,163,163,163,163,NA,NA,163,9/19/19 14:57,300,The main experiment item,yes,Week4submit.osexp,C:\Users\DLGoupil\Desktop,no,mono,no,18,no,white,no,yes,768,legacy,3,79,C:/Users/DLGoupil/Desktop/dg-subject-1.csv,legacy,Kafkaesque Koffka,3.2.8,0,s,NA,s,s,h,s,NA,NA,504,NA,10987,6234,25769,504,NA,NA,2,legacy,1024,2,48000,-16,experiment,SSHSS,1,odd,13769,180514,378803,351007,2777,384392,NA,385994,2781,174279,353032,384895,386097,386603,385991,NA,NA,386097,Week4submit,151,114063,164,yes,1024
