acc,accuracy,average_response_time,avg_rt,background,canvas_backend,clock_backend,color_backend,compensation,condition,coordinates,correct,correct_Instruction1,correct_keyboard_response,correct_response,count_Block1,count_Block2,count_Block3,count_Faster,count_Finish,count_ISI,count_Instruction1,count_Instruction2,count_Instruction3,count_errorFeedback,count_experiment,count_fixation,count_keyboard_response,count_logger,count_sequence,count_stimulus,datetime,deadline,description,disable_garbage_collection,experiment_file,experiment_path,font_bold,font_family,font_italic,font_size,font_underline,foreground,form_clicks,fullscreen,height,keyboard_backend,live_row,live_row_Block1,logfile,mouse_backend,opensesame_codename,opensesame_version,repeat_cycle,response,response_Finish,response_Instruction1,response_Instruction2,response_Instruction3,response_keyboard_response,response_time,response_time_Finish,response_time_Instruction1,response_time_Instruction2,response_time_Instruction3,response_time_keyboard_response,round_decimals,sampler_backend,sound_buf_size,sound_channels,sound_freq,sound_sample_size,start,stimulus,subject_nr,subject_parity,time_Block1,time_Block2,time_Block3,time_Faster,time_Finish,time_ISI,time_Instruction1,time_Instruction2,time_Instruction3,time_errorFeedback,time_experiment,time_fixation,time_keyboard_response,time_logger,time_sequence,time_stimulus,title,total_correct,total_response_time,total_responses,uniform_coordinates,width
100,100,691,691,black,legacy,legacy,legacy,0,congruent,uniform,1,undefined,1,h,0,0,0,0,0,0,0,0,0,0,0,0,0,0,0,0,9/17/19 14:52,1500,The main experiment item,yes,Flankertask2.osexp,C:/Users/Carolyn/OneDrive,no,mono,no,18,no,white,no,yes,768,legacy,0,0,C:/Users/Carolyn/OneDrive/cp-subject-1.csv,legacy,Kafkaesque Koffka,3.2.8,0,h,NA,s,NA,NA,h,691,NA,5583,NA,NA,691,2,legacy,1024,2,48000,-16,experiment,HHHHH,1,odd,11175,NA,NA,NA,NA,NA,5589,NA,NA,NA,5584,11490,11593,12285,11484,11593,Flankertask2,1,691,1,yes,1024
100,100,580.5,580.5,black,legacy,legacy,legacy,0,congruent,uniform,1,undefined,1,s,0,0,0,1,0,1,0,0,0,1,0,1,1,1,1,1,9/17/19 14:52,1500,The main experiment item,yes,Flankertask2.osexp,C:/Users/Carolyn/OneDrive,no,mono,no,18,no,white,no,yes,768,legacy,1,1,C:/Users/Carolyn/OneDrive/cp-subject-1.csv,legacy,Kafkaesque Koffka,3.2.8,0,s,NA,s,NA,NA,s,470,NA,5583,NA,NA,470,2,legacy,1024,2,48000,-16,experiment,SSSSS,1,odd,11175,NA,NA,NA,NA,12393,5589,NA,NA,NA,5584,13543,13647,14117,13538,13645,Flankertask2,2,1161,2,yes,1024
100,100,539.3333333,539.3333333,black,legacy,legacy,legacy,0,congruent,uniform,1,undefined,1,h,0,0,0,2,0,2,0,0,0,2,0,2,2,2,2,2,9/17/19 14:52,1500,The main experiment item,yes,Flankertask2.osexp,C:/Users/Carolyn/OneDrive,no,mono,no,18,no,white,no,yes,768,legacy,2,2,C:/Users/Carolyn/OneDrive/cp-subject-1.csv,legacy,Kafkaesque Koffka,3.2.8,0,h,NA,s,NA,NA,h,457,NA,5583,NA,NA,457,2,legacy,1024,2,48000,-16,experiment,HHHHH,1,odd,11175,NA,NA,NA,NA,14168,5589,NA,NA,NA,5584,15315,15419,15877,15310,15419,Flankertask2,3,1618,3,yes,1024
100,100,559.75,559.75,black,legacy,legacy,legacy,0,incongruent,uniform,1,undefined,1,h,0,0,0,3,0,3,0,0,0,3,0,3,3,3,3,3,9/17/19 14:52,1500,The main experiment item,yes,Flankertask2.osexp,C:/Users/Carolyn/OneDrive,no,mono,no,18,no,white,no,yes,768,legacy,3,3,C:/Users/Carolyn/OneDrive/cp-subject-1.csv,legacy,Kafkaesque Koffka,3.2.8,0,h,NA,s,NA,NA,h,621,NA,5583,NA,NA,621,2,legacy,1024,2,48000,-16,experiment,SSHSS,1,odd,11175,NA,NA,NA,NA,15926,5589,NA,NA,NA,5584,17072,17175,17797,17068,17175,Flankertask2,4,2239,4,yes,1024
100,100,557.2,557.2,black,legacy,legacy,legacy,0,incongruent,uniform,1,undefined,1,h,0,0,0,4,0,4,0,0,0,4,0,4,4,4,4,4,9/17/19 14:52,1500,The main experiment item,yes,Flankertask2.osexp,C:/Users/Carolyn/OneDrive,no,mono,no,18,no,white,no,yes,768,legacy,4,4,C:/Users/Carolyn/OneDrive/cp-subject-1.csv,legacy,Kafkaesque Koffka,3.2.8,0,h,NA,s,NA,NA,h,547,NA,5583,NA,NA,547,2,legacy,1024,2,48000,-16,experiment,SSHSS,1,odd,11175,NA,NA,NA,NA,17843,5589,NA,NA,NA,5584,18995,19098,19646,18990,19098,Flankertask2,5,2786,5,yes,1024
100,100,555.8333333,555.8333333,black,legacy,legacy,legacy,0,congruent,uniform,1,undefined,1,s,0,0,0,5,0,5,0,0,0,5,0,5,5,5,5,5,9/17/19 14:52,1500,The main experiment item,yes,Flankertask2.osexp,C:/Users/Carolyn/OneDrive,no,mono,no,18,no,white,no,yes,768,legacy,5,5,C:/Users/Carolyn/OneDrive/cp-subject-1.csv,legacy,Kafkaesque Koffka,3.2.8,0,s,NA,s,NA,NA,s,549,NA,5583,NA,NA,549,2,legacy,1024,2,48000,-16,experiment,SSSSS,1,odd,11175,NA,NA,NA,NA,19701,5589,NA,NA,NA,5584,20847,20951,21502,20842,20951,Flankertask2,6,3335,6,yes,1024
100,100,596.8571429,596.8571429,black,legacy,legacy,legacy,0,incongruent,uniform,1,undefined,1,s,0,0,0,6,0,6,0,0,0,6,0,6,6,6,6,6,9/17/19 14:52,1500,The main experiment item,yes,Flankertask2.osexp,C:/Users/Carolyn/OneDrive,no,mono,no,18,no,white,no,yes,768,legacy,6,6,C:/Users/Carolyn/OneDrive/cp-subject-1.csv,legacy,Kafkaesque Koffka,3.2.8,0,s,NA,s,NA,NA,s,843,NA,5583,NA,NA,843,2,legacy,1024,2,48000,-16,experiment,HHSHH,1,odd,11175,NA,NA,NA,NA,21572,5589,NA,NA,NA,5584,22720,22826,23670,22716,22825,Flankertask2,7,4178,7,yes,1024
100,100,603.75,603.75,black,legacy,legacy,legacy,0,incongruent,uniform,1,undefined,1,s,0,0,0,7,0,7,0,0,0,7,0,7,7,7,7,7,9/17/19 14:52,1500,The main experiment item,yes,Flankertask2.osexp,C:/Users/Carolyn/OneDrive,no,mono,no,18,no,white,no,yes,768,legacy,7,7,C:/Users/Carolyn/OneDrive/cp-subject-1.csv,legacy,Kafkaesque Koffka,3.2.8,0,s,NA,s,NA,NA,s,652,NA,5583,NA,NA,652,2,legacy,1024,2,48000,-16,experiment,HHSHH,1,odd,11175,NA,NA,NA,NA,23718,5589,NA,NA,NA,5584,24865,24969,25622,24861,24969,Flankertask2,8,4830,8,yes,1024
88.88888889,88.88888889,587.1111111,587.1111111,black,legacy,legacy,legacy,0,incongruent,uniform,0,undefined,0,s,0,0,0,8,0,8,0,0,0,8,0,8,8,8,8,8,9/17/19 14:52,1500,The main experiment item,yes,Flankertask2.osexp,C:/Users/Carolyn/OneDrive,no,mono,no,18,no,white,no,yes,768,legacy,8,8,C:/Users/Carolyn/OneDrive/cp-subject-1.csv,legacy,Kafkaesque Koffka,3.2.8,0,h,NA,s,NA,NA,h,454,NA,5583,NA,NA,454,2,legacy,1024,2,48000,-16,experiment,HHSHH,1,odd,11175,NA,NA,NA,NA,25667,5589,NA,NA,NA,5584,26815,26918,27374,26810,26918,Flankertask2,8,5284,9,yes,1024
90,90,584.3,584.3,black,legacy,legacy,legacy,0,congruent,uniform,1,undefined,1,s,0,0,0,9,0,9,0,0,0,9,0,9,9,9,9,9,9/17/19 14:52,1500,The main experiment item,yes,Flankertask2.osexp,C:/Users/Carolyn/OneDrive,no,mono,no,18,no,white,no,yes,768,legacy,9,9,C:/Users/Carolyn/OneDrive/cp-subject-1.csv,legacy,Kafkaesque Koffka,3.2.8,0,s,NA,s,NA,NA,s,559,NA,5583,NA,NA,559,2,legacy,1024,2,48000,-16,experiment,SSSSS,1,odd,11175,NA,NA,NA,NA,27921,5589,NA,NA,27418,5584,29069,29173,29734,29064,29173,Flankertask2,9,5843,10,yes,1024
90.90909091,90.90909091,584.3636364,584.3636364,black,legacy,legacy,legacy,0,congruent,uniform,1,undefined,1,h,0,0,0,10,0,10,0,0,0,10,0,10,10,10,10,10,9/17/19 14:52,1500,The main experiment item,yes,Flankertask2.osexp,C:/Users/Carolyn/OneDrive,no,mono,no,18,no,white,no,yes,768,legacy,10,10,C:/Users/Carolyn/OneDrive/cp-subject-1.csv,legacy,Kafkaesque Koffka,3.2.8,0,h,NA,s,NA,NA,h,585,NA,5583,NA,NA,585,2,legacy,1024,2,48000,-16,experiment,HHHHH,1,odd,11175,NA,NA,NA,NA,29784,5589,NA,NA,27418,5584,30932,31036,31622,30927,31035,Flankertask2,10,6428,11,yes,1024
91.66666667,91.66666667,582.8333333,582.8333333,black,legacy,legacy,legacy,0,congruent,uniform,1,undefined,1,h,0,0,0,11,0,11,0,0,0,11,0,11,11,11,11,11,9/17/19 14:52,1500,The main experiment item,yes,Flankertask2.osexp,C:/Users/Carolyn/OneDrive,no,mono,no,18,no,white,no,yes,768,legacy,11,11,C:/Users/Carolyn/OneDrive/cp-subject-1.csv,legacy,Kafkaesque Koffka,3.2.8,0,h,NA,s,NA,NA,h,566,NA,5583,NA,NA,566,2,legacy,1024,2,48000,-16,experiment,HHHHH,1,odd,11175,NA,NA,NA,NA,31676,5589,NA,NA,27418,5584,32821,32926,33494,32818,32924,Flankertask2,11,6994,12,yes,1024
92.30769231,92.30769231,574.4615385,574.4615385,black,legacy,legacy,legacy,0,congruent,uniform,1,undefined,1,h,0,0,0,12,0,12,0,0,0,12,0,12,12,12,12,12,9/17/19 14:52,1500,The main experiment item,yes,Flankertask2.osexp,C:/Users/Carolyn/OneDrive,no,mono,no,18,no,white,no,yes,768,legacy,12,12,C:/Users/Carolyn/OneDrive/cp-subject-1.csv,legacy,Kafkaesque Koffka,3.2.8,0,h,NA,s,NA,NA,h,474,NA,5583,NA,NA,474,2,legacy,1024,2,48000,-16,experiment,HHHHH,1,odd,11175,NA,NA,NA,NA,33576,5589,NA,NA,27418,5584,34721,34826,35301,34717,34825,Flankertask2,12,7468,13,yes,1024
92.85714286,92.85714286,577.0714286,577.0714286,black,legacy,legacy,legacy,0,incongruent,uniform,1,undefined,1,h,0,0,0,13,0,13,0,0,0,13,0,13,13,13,13,13,9/17/19 14:52,1500,The main experiment item,yes,Flankertask2.osexp,C:/Users/Carolyn/OneDrive,no,mono,no,18,no,white,no,yes,768,legacy,13,13,C:/Users/Carolyn/OneDrive/cp-subject-1.csv,legacy,Kafkaesque Koffka,3.2.8,0,h,NA,s,NA,NA,h,611,NA,5583,NA,NA,611,2,legacy,1024,2,48000,-16,experiment,SSHSS,1,odd,11175,NA,NA,NA,NA,35343,5589,NA,NA,27418,5584,36490,36593,37205,36486,36593,Flankertask2,13,8079,14,yes,1024
93.33333333,93.33333333,576.2666667,576.2666667,black,legacy,legacy,legacy,0,incongruent,uniform,1,undefined,1,h,0,0,0,14,0,14,0,0,0,14,0,14,14,14,14,14,9/17/19 14:52,1500,The main experiment item,yes,Flankertask2.osexp,C:/Users/Carolyn/OneDrive,no,mono,no,18,no,white,no,yes,768,legacy,14,14,C:/Users/Carolyn/OneDrive/cp-subject-1.csv,legacy,Kafkaesque Koffka,3.2.8,0,h,NA,s,NA,NA,h,565,NA,5583,NA,NA,565,2,legacy,1024,2,48000,-16,experiment,SSHSS,1,odd,11175,NA,NA,NA,NA,37284,5589,NA,NA,27418,5584,38431,38535,39101,38427,38534,Flankertask2,14,8644,15,yes,1024
93.75,93.75,573.9375,573.9375,black,legacy,legacy,legacy,0,congruent,uniform,1,undefined,1,s,0,0,0,15,0,15,0,0,0,15,0,15,15,15,15,15,9/17/19 14:52,1500,The main experiment item,yes,Flankertask2.osexp,C:/Users/Carolyn/OneDrive,no,mono,no,18,no,white,no,yes,768,legacy,15,15,C:/Users/Carolyn/OneDrive/cp-subject-1.csv,legacy,Kafkaesque Koffka,3.2.8,0,s,NA,s,NA,NA,s,539,NA,5583,NA,NA,539,2,legacy,1024,2,48000,-16,experiment,SSSSS,1,odd,11175,NA,NA,NA,NA,39168,5589,NA,NA,27418,5584,40314,40418,40958,40309,40417,Flankertask2,15,9183,16,yes,1024
94.11764706,94.11764706,569.3529412,569.3529412,black,legacy,legacy,legacy,0,incongruent,uniform,1,undefined,1,s,0,0,0,16,0,16,0,0,0,16,0,16,16,16,16,16,9/17/19 14:52,1500,The main experiment item,yes,Flankertask2.osexp,C:/Users/Carolyn/OneDrive,no,mono,no,18,no,white,no,yes,768,legacy,16,16,C:/Users/Carolyn/OneDrive/cp-subject-1.csv,legacy,Kafkaesque Koffka,3.2.8,0,s,NA,s,NA,NA,s,496,NA,5583,NA,NA,496,2,legacy,1024,2,48000,-16,experiment,HHSHH,1,odd,11175,NA,NA,NA,NA,41009,5589,NA,NA,27418,5584,42156,42260,42758,42151,42259,Flankertask2,16,9679,17,yes,1024
94.44444444,94.44444444,566.2777778,566.2777778,black,legacy,legacy,legacy,0,congruent,uniform,1,undefined,1,s,0,0,0,17,0,17,0,0,0,17,0,17,17,17,17,17,9/17/19 14:52,1500,The main experiment item,yes,Flankertask2.osexp,C:/Users/Carolyn/OneDrive,no,mono,no,18,no,white,no,yes,768,legacy,17,17,C:/Users/Carolyn/OneDrive/cp-subject-1.csv,legacy,Kafkaesque Koffka,3.2.8,0,s,NA,s,NA,NA,s,514,NA,5583,NA,NA,514,2,legacy,1024,2,48000,-16,experiment,SSSSS,1,odd,11175,NA,NA,NA,NA,42801,5589,NA,NA,27418,5584,43947,44051,44566,43943,44050,Flankertask2,17,10193,18,yes,1024
94.73684211,94.73684211,566.8421053,566.8421053,black,legacy,legacy,legacy,0,incongruent,uniform,1,undefined,1,h,0,0,0,18,0,18,0,0,0,18,0,18,18,18,18,18,9/17/19 14:52,1500,The main experiment item,yes,Flankertask2.osexp,C:/Users/Carolyn/OneDrive,no,mono,no,18,no,white,no,yes,768,legacy,18,18,C:/Users/Carolyn/OneDrive/cp-subject-1.csv,legacy,Kafkaesque Koffka,3.2.8,0,h,NA,s,NA,NA,h,577,NA,5583,NA,NA,577,2,legacy,1024,2,48000,-16,experiment,SSHSS,1,odd,11175,NA,NA,NA,NA,44609,5589,NA,NA,27418,5584,45756,45859,46438,45752,45859,Flankertask2,18,10770,19,yes,1024
95,95,574.35,574.35,black,legacy,legacy,legacy,0,incongruent,uniform,1,undefined,1,s,0,0,0,19,0,19,0,0,0,19,0,19,19,19,19,19,9/17/19 14:52,1500,The main experiment item,yes,Flankertask2.osexp,C:/Users/Carolyn/OneDrive,no,mono,no,18,no,white,no,yes,768,legacy,19,19,C:/Users/Carolyn/OneDrive/cp-subject-1.csv,legacy,Kafkaesque Koffka,3.2.8,0,s,NA,s,NA,NA,s,717,NA,5583,NA,NA,717,2,legacy,1024,2,48000,-16,experiment,HHSHH,1,odd,11175,NA,NA,NA,NA,46476,5589,NA,NA,27418,5584,47624,47727,48446,47619,47727,Flankertask2,19,11487,20,yes,1024
95.23809524,95.23809524,576.1904762,576.1904762,black,legacy,legacy,legacy,0,congruent,uniform,1,undefined,1,s,0,0,0,20,0,20,0,0,0,20,0,20,20,20,20,20,9/17/19 14:52,1500,The main experiment item,yes,Flankertask2.osexp,C:/Users/Carolyn/OneDrive,no,mono,no,18,no,white,no,yes,768,legacy,20,20,C:/Users/Carolyn/OneDrive/cp-subject-1.csv,legacy,Kafkaesque Koffka,3.2.8,0,s,NA,s,NA,NA,s,613,NA,5583,NA,NA,613,2,legacy,1024,2,48000,-16,experiment,SSSSS,1,odd,11175,NA,NA,NA,NA,48484,5589,NA,NA,27418,5584,49632,49735,50349,49627,49735,Flankertask2,20,12100,21,yes,1024
95.45454545,95.45454545,575.2272727,575.2272727,black,legacy,legacy,legacy,0,congruent,uniform,1,undefined,1,h,0,0,0,21,0,21,0,0,0,21,0,21,21,21,21,21,9/17/19 14:52,1500,The main experiment item,yes,Flankertask2.osexp,C:/Users/Carolyn/OneDrive,no,mono,no,18,no,white,no,yes,768,legacy,21,21,C:/Users/Carolyn/OneDrive/cp-subject-1.csv,legacy,Kafkaesque Koffka,3.2.8,0,h,NA,s,NA,NA,h,555,NA,5583,NA,NA,555,2,legacy,1024,2,48000,-16,experiment,HHHHH,1,odd,11175,NA,NA,NA,NA,50392,5589,NA,NA,27418,5584,51538,51642,52198,51533,51642,Flankertask2,21,12655,22,yes,1024
95.65217391,95.65217391,579.3043478,579.3043478,black,legacy,legacy,legacy,0,congruent,uniform,1,undefined,1,s,0,0,0,22,0,22,0,0,0,22,0,22,22,22,22,22,9/17/19 14:52,1500,The main experiment item,yes,Flankertask2.osexp,C:/Users/Carolyn/OneDrive,no,mono,no,18,no,white,no,yes,768,legacy,22,22,C:/Users/Carolyn/OneDrive/cp-subject-1.csv,legacy,Kafkaesque Koffka,3.2.8,0,s,NA,s,NA,NA,s,669,NA,5583,NA,NA,669,2,legacy,1024,2,48000,-16,experiment,SSSSS,1,odd,11175,NA,NA,NA,NA,52234,5589,NA,NA,27418,5584,53384,53488,54158,53379,53488,Flankertask2,22,13324,23,yes,1024
95.83333333,95.83333333,581.8333333,581.8333333,black,legacy,legacy,legacy,0,congruent,uniform,1,undefined,1,h,0,0,0,23,0,23,0,0,0,23,0,23,23,23,23,23,9/17/19 14:52,1500,The main experiment item,yes,Flankertask2.osexp,C:/Users/Carolyn/OneDrive,no,mono,no,18,no,white,no,yes,768,legacy,23,23,C:/Users/Carolyn/OneDrive/cp-subject-1.csv,legacy,Kafkaesque Koffka,3.2.8,0,h,NA,s,NA,NA,h,640,NA,5583,NA,NA,640,2,legacy,1024,2,48000,-16,experiment,HHHHH,1,odd,11175,NA,NA,NA,NA,54209,5589,NA,NA,27418,5584,55357,55461,56102,55352,55461,Flankertask2,23,13964,24,yes,1024
96,96,582.16,582.16,black,legacy,legacy,legacy,0,incongruent,uniform,1,undefined,1,h,0,0,0,24,0,24,0,0,0,24,0,24,24,24,24,24,9/17/19 14:52,1500,The main experiment item,yes,Flankertask2.osexp,C:/Users/Carolyn/OneDrive,no,mono,no,18,no,white,no,yes,768,legacy,24,24,C:/Users/Carolyn/OneDrive/cp-subject-1.csv,legacy,Kafkaesque Koffka,3.2.8,0,h,NA,s,NA,NA,h,590,NA,5583,NA,NA,590,2,legacy,1024,2,48000,-16,experiment,SSHSS,1,odd,11175,NA,NA,NA,NA,56151,5589,NA,NA,27418,5584,57296,57399,57990,57292,57399,Flankertask2,24,14554,25,yes,1024
96.15384615,96.15384615,584.6538462,584.6538462,black,legacy,legacy,legacy,0,congruent,uniform,1,undefined,1,s,0,0,0,25,0,25,0,0,0,25,0,25,25,25,25,25,9/17/19 14:52,1500,The main experiment item,yes,Flankertask2.osexp,C:/Users/Carolyn/OneDrive,no,mono,no,18,no,white,no,yes,768,legacy,25,25,C:/Users/Carolyn/OneDrive/cp-subject-1.csv,legacy,Kafkaesque Koffka,3.2.8,0,s,NA,s,NA,NA,s,647,NA,5583,NA,NA,647,2,legacy,1024,2,48000,-16,experiment,SSSSS,1,odd,11175,NA,NA,NA,NA,58025,5589,NA,NA,27418,5584,59173,59277,59926,59168,59277,Flankertask2,25,15201,26,yes,1024
96.2962963,96.2962963,587.962963,587.962963,black,legacy,legacy,legacy,0,incongruent,uniform,1,undefined,1,s,0,0,0,26,0,26,0,0,0,26,0,26,26,26,26,26,9/17/19 14:52,1500,The main experiment item,yes,Flankertask2.osexp,C:/Users/Carolyn/OneDrive,no,mono,no,18,no,white,no,yes,768,legacy,26,26,C:/Users/Carolyn/OneDrive/cp-subject-1.csv,legacy,Kafkaesque Koffka,3.2.8,0,s,NA,s,NA,NA,s,674,NA,5583,NA,NA,674,2,legacy,1024,2,48000,-16,experiment,HHSHH,1,odd,11175,NA,NA,NA,NA,59968,5589,NA,NA,27418,5584,61115,61219,61893,61109,61218,Flankertask2,26,15875,27,yes,1024
96.42857143,96.42857143,589.6071429,589.6071429,black,legacy,legacy,legacy,0,congruent,uniform,1,undefined,1,h,0,0,0,27,0,27,0,0,0,27,0,27,27,27,27,27,9/17/19 14:52,1500,The main experiment item,yes,Flankertask2.osexp,C:/Users/Carolyn/OneDrive,no,mono,no,18,no,white,no,yes,768,legacy,27,27,C:/Users/Carolyn/OneDrive/cp-subject-1.csv,legacy,Kafkaesque Koffka,3.2.8,0,h,NA,s,NA,NA,h,634,NA,5583,NA,NA,634,2,legacy,1024,2,48000,-16,experiment,HHHHH,1,odd,11175,NA,NA,NA,NA,61934,5589,NA,NA,27418,5584,63083,63187,63822,63078,63185,Flankertask2,27,16509,28,yes,1024
96.55172414,96.55172414,586.862069,586.862069,black,legacy,legacy,legacy,0,congruent,uniform,1,undefined,1,s,0,0,0,28,0,28,0,0,0,28,0,28,28,28,28,28,9/17/19 14:52,1500,The main experiment item,yes,Flankertask2.osexp,C:/Users/Carolyn/OneDrive,no,mono,no,18,no,white,no,yes,768,legacy,28,28,C:/Users/Carolyn/OneDrive/cp-subject-1.csv,legacy,Kafkaesque Koffka,3.2.8,0,s,NA,s,NA,NA,s,510,NA,5583,NA,NA,510,2,legacy,1024,2,48000,-16,experiment,SSSSS,1,odd,11175,NA,NA,NA,NA,63867,5589,NA,NA,27418,5584,65016,65119,65630,65011,65119,Flankertask2,28,17019,29,yes,1024
96.66666667,96.66666667,587.7333333,587.7333333,black,legacy,legacy,legacy,0,incongruent,uniform,1,undefined,1,h,0,0,0,29,0,29,0,0,0,29,0,29,29,29,29,29,9/17/19 14:52,1500,The main experiment item,yes,Flankertask2.osexp,C:/Users/Carolyn/OneDrive,no,mono,no,18,no,white,no,yes,768,legacy,29,29,C:/Users/Carolyn/OneDrive/cp-subject-1.csv,legacy,Kafkaesque Koffka,3.2.8,0,h,NA,s,NA,NA,h,613,NA,5583,NA,NA,613,2,legacy,1024,2,48000,-16,experiment,SSHSS,1,odd,11175,NA,NA,NA,NA,65667,5589,NA,NA,27418,5584,66815,66919,67534,66810,66919,Flankertask2,29,17632,30,yes,1024
96.77419355,96.77419355,588.2258065,588.2258065,black,legacy,legacy,legacy,0,incongruent,uniform,1,undefined,1,h,0,0,0,30,0,30,0,0,0,30,0,30,30,30,30,30,9/17/19 14:52,1500,The main experiment item,yes,Flankertask2.osexp,C:/Users/Carolyn/OneDrive,no,mono,no,18,no,white,no,yes,768,legacy,30,30,C:/Users/Carolyn/OneDrive/cp-subject-1.csv,legacy,Kafkaesque Koffka,3.2.8,0,h,NA,s,NA,NA,h,603,NA,5583,NA,NA,603,2,legacy,1024,2,48000,-16,experiment,SSHSS,1,odd,11175,NA,NA,NA,NA,67576,5589,NA,NA,27418,5584,68723,68826,69430,68718,68826,Flankertask2,30,18235,31,yes,1024
96.875,96.875,584.28125,584.28125,black,legacy,legacy,legacy,0,congruent,uniform,1,undefined,1,h,0,0,0,31,0,31,0,0,0,31,0,31,31,31,31,31,9/17/19 14:52,1500,The main experiment item,yes,Flankertask2.osexp,C:/Users/Carolyn/OneDrive,no,mono,no,18,no,white,no,yes,768,legacy,31,31,C:/Users/Carolyn/OneDrive/cp-subject-1.csv,legacy,Kafkaesque Koffka,3.2.8,0,h,NA,s,NA,NA,h,462,NA,5583,NA,NA,462,2,legacy,1024,2,48000,-16,experiment,HHHHH,1,odd,11175,NA,NA,NA,NA,69475,5589,NA,NA,27418,5584,70624,70726,71190,70619,70726,Flankertask2,31,18697,32,yes,1024
96.96969697,96.96969697,585.1818182,585.1818182,black,legacy,legacy,legacy,0,incongruent,uniform,1,undefined,1,h,0,0,0,32,0,32,0,0,0,32,0,32,32,32,32,32,9/17/19 14:52,1500,The main experiment item,yes,Flankertask2.osexp,C:/Users/Carolyn/OneDrive,no,mono,no,18,no,white,no,yes,768,legacy,32,32,C:/Users/Carolyn/OneDrive/cp-subject-1.csv,legacy,Kafkaesque Koffka,3.2.8,0,h,NA,s,NA,NA,h,614,NA,5583,NA,NA,614,2,legacy,1024,2,48000,-16,experiment,SSHSS,1,odd,11175,NA,NA,NA,NA,71258,5589,NA,NA,27418,5584,72406,72511,73126,72402,72510,Flankertask2,32,19311,33,yes,1024
97.05882353,97.05882353,583.5294118,583.5294118,black,legacy,legacy,legacy,0,incongruent,uniform,1,undefined,1,s,0,0,0,33,0,33,0,0,0,33,0,33,33,33,33,33,9/17/19 14:52,1500,The main experiment item,yes,Flankertask2.osexp,C:/Users/Carolyn/OneDrive,no,mono,no,18,no,white,no,yes,768,legacy,33,33,C:/Users/Carolyn/OneDrive/cp-subject-1.csv,legacy,Kafkaesque Koffka,3.2.8,0,s,NA,s,NA,NA,s,529,NA,5583,NA,NA,529,2,legacy,1024,2,48000,-16,experiment,HHSHH,1,odd,11175,NA,NA,NA,NA,73184,5589,NA,NA,27418,5584,74331,74435,74966,74326,74434,Flankertask2,33,19840,34,yes,1024
97.14285714,97.14285714,587.4857143,587.4857143,black,legacy,legacy,legacy,0,congruent,uniform,1,undefined,1,s,0,0,0,34,0,34,0,0,0,34,0,34,34,34,34,34,9/17/19 14:52,1500,The main experiment item,yes,Flankertask2.osexp,C:/Users/Carolyn/OneDrive,no,mono,no,18,no,white,no,yes,768,legacy,34,34,C:/Users/Carolyn/OneDrive/cp-subject-1.csv,legacy,Kafkaesque Koffka,3.2.8,0,s,NA,s,NA,NA,s,722,NA,5583,NA,NA,722,2,legacy,1024,2,48000,-16,experiment,SSSSS,1,odd,11175,NA,NA,NA,NA,75009,5589,NA,NA,27418,5584,76155,76259,76982,76151,76259,Flankertask2,34,20562,35,yes,1024
97.22222222,97.22222222,583.6944444,583.6944444,black,legacy,legacy,legacy,0,congruent,uniform,1,undefined,1,h,0,0,0,35,0,35,0,0,0,35,0,35,35,35,35,35,9/17/19 14:52,1500,The main experiment item,yes,Flankertask2.osexp,C:/Users/Carolyn/OneDrive,no,mono,no,18,no,white,no,yes,768,legacy,35,35,C:/Users/Carolyn/OneDrive/cp-subject-1.csv,legacy,Kafkaesque Koffka,3.2.8,0,h,NA,s,NA,NA,h,451,NA,5583,NA,NA,451,2,legacy,1024,2,48000,-16,experiment,HHHHH,1,odd,11175,NA,NA,NA,NA,77017,5589,NA,NA,27418,5584,78163,78266,78718,78158,78266,Flankertask2,35,21013,36,yes,1024
97.2972973,97.2972973,585.5135135,585.5135135,black,legacy,legacy,legacy,0,incongruent,uniform,1,undefined,1,h,0,0,0,36,0,36,0,0,0,36,0,36,36,36,36,36,9/17/19 14:52,1500,The main experiment item,yes,Flankertask2.osexp,C:/Users/Carolyn/OneDrive,no,mono,no,18,no,white,no,yes,768,legacy,36,36,C:/Users/Carolyn/OneDrive/cp-subject-1.csv,legacy,Kafkaesque Koffka,3.2.8,0,h,NA,s,NA,NA,h,651,NA,5583,NA,NA,651,2,legacy,1024,2,48000,-16,experiment,SSHSS,1,odd,11175,NA,NA,NA,NA,78759,5589,NA,NA,27418,5584,79907,80009,80662,79902,80009,Flankertask2,36,21664,37,yes,1024
97.36842105,97.36842105,587.6842105,587.6842105,black,legacy,legacy,legacy,0,congruent,uniform,1,undefined,1,s,0,0,0,37,0,37,0,0,0,37,0,37,37,37,37,37,9/17/19 14:52,1500,The main experiment item,yes,Flankertask2.osexp,C:/Users/Carolyn/OneDrive,no,mono,no,18,no,white,no,yes,768,legacy,37,37,C:/Users/Carolyn/OneDrive/cp-subject-1.csv,legacy,Kafkaesque Koffka,3.2.8,0,s,NA,s,NA,NA,s,668,NA,5583,NA,NA,668,2,legacy,1024,2,48000,-16,experiment,SSSSS,1,odd,11175,NA,NA,NA,NA,80701,5589,NA,NA,27418,5584,81848,81953,82623,81843,81952,Flankertask2,37,22332,38,yes,1024
97.43589744,97.43589744,601.2820513,601.2820513,black,legacy,legacy,legacy,0,incongruent,uniform,1,undefined,1,h,0,0,0,38,0,38,0,0,0,38,0,38,38,38,38,38,9/17/19 14:52,1500,The main experiment item,yes,Flankertask2.osexp,C:/Users/Carolyn/OneDrive,no,mono,no,18,no,white,no,yes,768,legacy,38,38,C:/Users/Carolyn/OneDrive/cp-subject-1.csv,legacy,Kafkaesque Koffka,3.2.8,0,h,NA,s,NA,NA,h,1118,NA,5583,NA,NA,1118,2,legacy,1024,2,48000,-16,experiment,SSHSS,1,odd,11175,NA,NA,NA,NA,82666,5589,NA,NA,27418,5584,83813,83918,85038,83808,83916,Flankertask2,38,23450,39,yes,1024
97.5,97.5,598.625,598.625,black,legacy,legacy,legacy,0,congruent,uniform,1,undefined,1,s,0,0,0,39,0,39,0,0,0,39,0,39,39,39,39,39,9/17/19 14:52,1500,The main experiment item,yes,Flankertask2.osexp,C:/Users/Carolyn/OneDrive,no,mono,no,18,no,white,no,yes,768,legacy,39,39,C:/Users/Carolyn/OneDrive/cp-subject-1.csv,legacy,Kafkaesque Koffka,3.2.8,0,s,NA,s,NA,NA,s,495,NA,5583,NA,NA,495,2,legacy,1024,2,48000,-16,experiment,SSSSS,1,odd,11175,NA,NA,NA,NA,85076,5589,NA,NA,27418,5584,86223,86326,86822,86217,86326,Flankertask2,39,23945,40,yes,1024
97.56097561,97.56097561,595.7804878,595.7804878,black,legacy,legacy,legacy,0,congruent,uniform,1,undefined,1,h,0,0,0,40,0,40,0,0,0,40,0,40,40,40,40,40,9/17/19 14:52,1500,The main experiment item,yes,Flankertask2.osexp,C:/Users/Carolyn/OneDrive,no,mono,no,18,no,white,no,yes,768,legacy,40,40,C:/Users/Carolyn/OneDrive/cp-subject-1.csv,legacy,Kafkaesque Koffka,3.2.8,0,h,NA,s,NA,NA,h,482,NA,5583,NA,NA,482,2,legacy,1024,2,48000,-16,experiment,HHHHH,1,odd,11175,NA,NA,NA,NA,86867,5589,NA,NA,27418,5584,88012,88115,88599,88007,88115,Flankertask2,40,24427,41,yes,1024
97.61904762,97.61904762,596.2619048,596.2619048,black,legacy,legacy,legacy,0,incongruent,uniform,1,undefined,1,s,0,0,0,41,0,41,0,0,0,41,0,41,41,41,41,41,9/17/19 14:52,1500,The main experiment item,yes,Flankertask2.osexp,C:/Users/Carolyn/OneDrive,no,mono,no,18,no,white,no,yes,768,legacy,41,41,C:/Users/Carolyn/OneDrive/cp-subject-1.csv,legacy,Kafkaesque Koffka,3.2.8,0,s,NA,s,NA,NA,s,616,NA,5583,NA,NA,616,2,legacy,1024,2,48000,-16,experiment,HHSHH,1,odd,11175,NA,NA,NA,NA,88641,5589,NA,NA,27418,5584,89789,89893,90510,89784,89891,Flankertask2,41,25043,42,yes,1024
97.6744186,97.6744186,597.3488372,597.3488372,black,legacy,legacy,legacy,0,incongruent,uniform,1,undefined,1,s,0,0,0,42,0,42,0,0,0,42,0,42,42,42,42,42,9/17/19 14:52,1500,The main experiment item,yes,Flankertask2.osexp,C:/Users/Carolyn/OneDrive,no,mono,no,18,no,white,no,yes,768,legacy,42,42,C:/Users/Carolyn/OneDrive/cp-subject-1.csv,legacy,Kafkaesque Koffka,3.2.8,0,s,NA,s,NA,NA,s,643,NA,5583,NA,NA,643,2,legacy,1024,2,48000,-16,experiment,HHSHH,1,odd,11175,NA,NA,NA,NA,90550,5589,NA,NA,27418,5584,91697,91801,92447,91692,91801,Flankertask2,42,25686,43,yes,1024
95.45454545,95.45454545,593.8863636,593.8863636,black,legacy,legacy,legacy,0,incongruent,uniform,0,undefined,0,s,0,0,0,43,0,43,0,0,0,43,0,43,43,43,43,43,9/17/19 14:52,1500,The main experiment item,yes,Flankertask2.osexp,C:/Users/Carolyn/OneDrive,no,mono,no,18,no,white,no,yes,768,legacy,43,43,C:/Users/Carolyn/OneDrive/cp-subject-1.csv,legacy,Kafkaesque Koffka,3.2.8,0,h,NA,s,NA,NA,h,445,NA,5583,NA,NA,445,2,legacy,1024,2,48000,-16,experiment,HHSHH,1,odd,11175,NA,NA,NA,NA,92804,5589,NA,NA,27418,5584,93952,94056,94502,93947,94056,Flankertask2,42,26131,44,yes,1024
95.55555556,95.55555556,592.4888889,592.4888889,black,legacy,legacy,legacy,0,incongruent,uniform,1,undefined,1,s,0,0,0,44,0,44,0,0,0,44,0,44,44,44,44,44,9/17/19 14:52,1500,The main experiment item,yes,Flankertask2.osexp,C:/Users/Carolyn/OneDrive,no,mono,no,18,no,white,no,yes,768,legacy,44,44,C:/Users/Carolyn/OneDrive/cp-subject-1.csv,legacy,Kafkaesque Koffka,3.2.8,0,s,NA,s,NA,NA,s,531,NA,5583,NA,NA,531,2,legacy,1024,2,48000,-16,experiment,HHSHH,1,odd,11175,NA,NA,NA,NA,95079,5589,NA,NA,94575,5584,96226,96329,96862,96222,96329,Flankertask2,43,26662,45,yes,1024
95.65217391,95.65217391,589.4347826,589.4347826,black,legacy,legacy,legacy,0,congruent,uniform,1,undefined,1,h,0,0,0,45,0,45,0,0,0,45,0,45,45,45,45,45,9/17/19 14:52,1500,The main experiment item,yes,Flankertask2.osexp,C:/Users/Carolyn/OneDrive,no,mono,no,18,no,white,no,yes,768,legacy,45,45,C:/Users/Carolyn/OneDrive/cp-subject-1.csv,legacy,Kafkaesque Koffka,3.2.8,0,h,NA,s,NA,NA,h,452,NA,5583,NA,NA,452,2,legacy,1024,2,48000,-16,experiment,HHHHH,1,odd,11175,NA,NA,NA,NA,96900,5589,NA,NA,94575,5584,98047,98152,98607,98043,98152,Flankertask2,44,27114,46,yes,1024
95.74468085,95.74468085,587.893617,587.893617,black,legacy,legacy,legacy,0,congruent,uniform,1,undefined,1,h,0,0,0,46,0,46,0,0,0,46,0,46,46,46,46,46,9/17/19 14:52,1500,The main experiment item,yes,Flankertask2.osexp,C:/Users/Carolyn/OneDrive,no,mono,no,18,no,white,no,yes,768,legacy,46,46,C:/Users/Carolyn/OneDrive/cp-subject-1.csv,legacy,Kafkaesque Koffka,3.2.8,0,h,NA,s,NA,NA,h,517,NA,5583,NA,NA,517,2,legacy,1024,2,48000,-16,experiment,HHHHH,1,odd,11175,NA,NA,NA,NA,98659,5589,NA,NA,94575,5584,99806,99911,100431,99802,99911,Flankertask2,45,27631,47,yes,1024
95.83333333,95.83333333,588.625,588.625,black,legacy,legacy,legacy,0,congruent,uniform,1,undefined,1,s,0,0,0,47,0,47,0,0,0,47,0,47,47,47,47,47,9/17/19 14:52,1500,The main experiment item,yes,Flankertask2.osexp,C:/Users/Carolyn/OneDrive,no,mono,no,18,no,white,no,yes,768,legacy,47,47,C:/Users/Carolyn/OneDrive/cp-subject-1.csv,legacy,Kafkaesque Koffka,3.2.8,0,s,NA,s,NA,NA,s,623,NA,5583,NA,NA,623,2,legacy,1024,2,48000,-16,experiment,SSSSS,1,odd,11175,NA,NA,NA,NA,100467,5589,NA,NA,94575,5584,101614,101718,102343,101609,101718,Flankertask2,46,28254,48,yes,1024
95.91836735,95.91836735,590.3877551,590.3877551,black,legacy,legacy,legacy,0,incongruent,uniform,1,undefined,1,s,0,0,0,48,0,48,0,0,0,48,0,48,48,48,48,48,9/17/19 14:52,1500,The main experiment item,yes,Flankertask2.osexp,C:/Users/Carolyn/OneDrive,no,mono,no,18,no,white,no,yes,768,legacy,48,48,C:/Users/Carolyn/OneDrive/cp-subject-1.csv,legacy,Kafkaesque Koffka,3.2.8,0,s,NA,s,NA,NA,s,675,NA,5583,NA,NA,675,2,legacy,1024,2,48000,-16,experiment,HHSHH,1,odd,11175,NA,NA,NA,NA,102376,5589,NA,NA,94575,5584,103523,103626,104303,103519,103626,Flankertask2,47,28929,49,yes,1024
96,96,592.76,592.76,black,legacy,legacy,legacy,0,congruent,uniform,1,undefined,1,s,0,0,0,49,0,49,0,0,0,49,0,49,49,49,49,49,9/17/19 14:52,1500,The main experiment item,yes,Flankertask2.osexp,C:/Users/Carolyn/OneDrive,no,mono,no,18,no,white,no,yes,768,legacy,49,49,C:/Users/Carolyn/OneDrive/cp-subject-1.csv,legacy,Kafkaesque Koffka,3.2.8,0,s,NA,s,NA,NA,s,709,NA,5583,NA,NA,709,2,legacy,1024,2,48000,-16,experiment,SSSSS,1,odd,11175,NA,NA,NA,NA,104333,5589,NA,NA,94575,5584,105481,105584,106295,105477,105584,Flankertask2,48,29638,50,yes,1024
96.07843137,96.07843137,595.7647059,595.7647059,black,legacy,legacy,legacy,0,incongruent,uniform,1,undefined,1,h,0,0,0,50,0,50,0,0,0,50,0,50,50,50,50,50,9/17/19 14:52,1500,The main experiment item,yes,Flankertask2.osexp,C:/Users/Carolyn/OneDrive,no,mono,no,18,no,white,no,yes,768,legacy,50,50,C:/Users/Carolyn/OneDrive/cp-subject-1.csv,legacy,Kafkaesque Koffka,3.2.8,0,h,NA,s,NA,NA,h,746,NA,5583,NA,NA,746,2,legacy,1024,2,48000,-16,experiment,SSHSS,1,odd,11175,NA,NA,NA,NA,106333,5589,NA,NA,94575,5584,107483,107587,108335,107478,107586,Flankertask2,49,30384,51,yes,1024
96.15384615,96.15384615,597.2115385,597.2115385,black,legacy,legacy,legacy,0,congruent,uniform,1,undefined,1,s,0,0,0,51,0,51,0,0,0,51,0,51,51,51,51,51,9/17/19 14:52,1500,The main experiment item,yes,Flankertask2.osexp,C:/Users/Carolyn/OneDrive,no,mono,no,18,no,white,no,yes,768,legacy,51,51,C:/Users/Carolyn/OneDrive/cp-subject-1.csv,legacy,Kafkaesque Koffka,3.2.8,0,s,NA,s,NA,NA,s,671,NA,5583,NA,NA,671,2,legacy,1024,2,48000,-16,experiment,SSSSS,1,odd,11175,NA,NA,NA,NA,108367,5589,NA,NA,94575,5584,109518,109622,110294,109513,109622,Flankertask2,50,31055,52,yes,1024
96.22641509,96.22641509,599,599,black,legacy,legacy,legacy,0,incongruent,uniform,1,undefined,1,s,0,0,0,52,0,52,0,0,0,52,0,52,52,52,52,52,9/17/19 14:52,1500,The main experiment item,yes,Flankertask2.osexp,C:/Users/Carolyn/OneDrive,no,mono,no,18,no,white,no,yes,768,legacy,52,52,C:/Users/Carolyn/OneDrive/cp-subject-1.csv,legacy,Kafkaesque Koffka,3.2.8,0,s,NA,s,NA,NA,s,692,NA,5583,NA,NA,692,2,legacy,1024,2,48000,-16,experiment,HHSHH,1,odd,11175,NA,NA,NA,NA,110333,5589,NA,NA,94575,5584,111480,111584,112279,111476,111584,Flankertask2,51,31747,53,yes,1024
96.2962963,96.2962963,600,600,black,legacy,legacy,legacy,0,incongruent,uniform,1,undefined,1,h,0,0,0,53,0,53,0,0,0,53,0,53,53,53,53,53,9/17/19 14:52,1500,The main experiment item,yes,Flankertask2.osexp,C:/Users/Carolyn/OneDrive,no,mono,no,18,no,white,no,yes,768,legacy,53,53,C:/Users/Carolyn/OneDrive/cp-subject-1.csv,legacy,Kafkaesque Koffka,3.2.8,0,h,NA,s,NA,NA,h,653,NA,5583,NA,NA,653,2,legacy,1024,2,48000,-16,experiment,SSHSS,1,odd,11175,NA,NA,NA,NA,112317,5589,NA,NA,94575,5584,113463,113567,114223,113458,113567,Flankertask2,52,32400,54,yes,1024
96.36363636,96.36363636,598.8545455,598.8545455,black,legacy,legacy,legacy,0,congruent,uniform,1,undefined,1,s,0,0,0,54,0,54,0,0,0,54,0,54,54,54,54,54,9/17/19 14:52,1500,The main experiment item,yes,Flankertask2.osexp,C:/Users/Carolyn/OneDrive,no,mono,no,18,no,white,no,yes,768,legacy,54,54,C:/Users/Carolyn/OneDrive/cp-subject-1.csv,legacy,Kafkaesque Koffka,3.2.8,0,s,NA,s,NA,NA,s,537,NA,5583,NA,NA,537,2,legacy,1024,2,48000,-16,experiment,SSSSS,1,odd,11175,NA,NA,NA,NA,114258,5589,NA,NA,94575,5584,115404,115507,116047,115399,115507,Flankertask2,53,32937,55,yes,1024
96.42857143,96.42857143,598.9821429,598.9821429,black,legacy,legacy,legacy,0,congruent,uniform,1,undefined,1,h,0,0,0,55,0,55,0,0,0,55,0,55,55,55,55,55,9/17/19 14:52,1500,The main experiment item,yes,Flankertask2.osexp,C:/Users/Carolyn/OneDrive,no,mono,no,18,no,white,no,yes,768,legacy,55,55,C:/Users/Carolyn/OneDrive/cp-subject-1.csv,legacy,Kafkaesque Koffka,3.2.8,0,h,NA,s,NA,NA,h,606,NA,5583,NA,NA,606,2,legacy,1024,2,48000,-16,experiment,HHHHH,1,odd,11175,NA,NA,NA,NA,116075,5589,NA,NA,94575,5584,117222,117326,117934,117218,117325,Flankertask2,54,33543,56,yes,1024
96.49122807,96.49122807,601.8596491,601.8596491,black,legacy,legacy,legacy,0,congruent,uniform,1,undefined,1,h,0,0,0,56,0,56,0,0,0,56,0,56,56,56,56,56,9/17/19 14:52,1500,The main experiment item,yes,Flankertask2.osexp,C:/Users/Carolyn/OneDrive,no,mono,no,18,no,white,no,yes,768,legacy,56,56,C:/Users/Carolyn/OneDrive/cp-subject-1.csv,legacy,Kafkaesque Koffka,3.2.8,0,h,NA,s,NA,NA,h,763,NA,5583,NA,NA,763,2,legacy,1024,2,48000,-16,experiment,HHHHH,1,odd,11175,NA,NA,NA,NA,117967,5589,NA,NA,94575,5584,119114,119218,119983,119109,119218,Flankertask2,55,34306,57,yes,1024
96.55172414,96.55172414,600.4310345,600.4310345,black,legacy,legacy,legacy,0,congruent,uniform,1,undefined,1,h,0,0,0,57,0,57,0,0,0,57,0,57,57,57,57,57,9/17/19 14:52,1500,The main experiment item,yes,Flankertask2.osexp,C:/Users/Carolyn/OneDrive,no,mono,no,18,no,white,no,yes,768,legacy,57,57,C:/Users/Carolyn/OneDrive/cp-subject-1.csv,legacy,Kafkaesque Koffka,3.2.8,0,h,NA,s,NA,NA,h,519,NA,5583,NA,NA,519,2,legacy,1024,2,48000,-16,experiment,HHHHH,1,odd,11175,NA,NA,NA,NA,120017,5589,NA,NA,94575,5584,121164,121269,121791,121159,121268,Flankertask2,56,34825,58,yes,1024
96.61016949,96.61016949,599.1864407,599.1864407,black,legacy,legacy,legacy,0,congruent,uniform,1,undefined,1,h,0,0,0,58,0,58,0,0,0,58,0,58,58,58,58,58,9/17/19 14:52,1500,The main experiment item,yes,Flankertask2.osexp,C:/Users/Carolyn/OneDrive,no,mono,no,18,no,white,no,yes,768,legacy,58,58,C:/Users/Carolyn/OneDrive/cp-subject-1.csv,legacy,Kafkaesque Koffka,3.2.8,0,h,NA,s,NA,NA,h,527,NA,5583,NA,NA,527,2,legacy,1024,2,48000,-16,experiment,HHHHH,1,odd,11175,NA,NA,NA,NA,121834,5589,NA,NA,94575,5584,122983,123086,123615,122978,123086,Flankertask2,57,35352,59,yes,1024
96.66666667,96.66666667,598.15,598.15,black,legacy,legacy,legacy,0,congruent,uniform,1,undefined,1,s,0,0,0,59,0,59,0,0,0,59,0,59,59,59,59,59,9/17/19 14:52,1500,The main experiment item,yes,Flankertask2.osexp,C:/Users/Carolyn/OneDrive,no,mono,no,18,no,white,no,yes,768,legacy,59,59,C:/Users/Carolyn/OneDrive/cp-subject-1.csv,legacy,Kafkaesque Koffka,3.2.8,0,s,NA,s,NA,NA,s,537,NA,5583,NA,NA,537,2,legacy,1024,2,48000,-16,experiment,SSSSS,1,odd,11175,NA,NA,NA,NA,123650,5589,NA,NA,94575,5584,124795,124899,125439,124791,124899,Flankertask2,58,35889,60,yes,1024
96.72131148,96.72131148,596.6885246,596.6885246,black,legacy,legacy,legacy,0,incongruent,uniform,1,undefined,1,h,0,0,0,60,0,60,0,0,0,60,0,60,60,60,60,60,9/17/19 14:52,1500,The main experiment item,yes,Flankertask2.osexp,C:/Users/Carolyn/OneDrive,no,mono,no,18,no,white,no,yes,768,legacy,60,60,C:/Users/Carolyn/OneDrive/cp-subject-1.csv,legacy,Kafkaesque Koffka,3.2.8,0,h,NA,s,NA,NA,h,509,NA,5583,NA,NA,509,2,legacy,1024,2,48000,-16,experiment,SSHSS,1,odd,11175,NA,NA,NA,NA,125467,5589,NA,NA,94575,5584,126616,126720,127230,126611,126719,Flankertask2,59,36398,61,yes,1024
96.77419355,96.77419355,595.7096774,595.7096774,black,legacy,legacy,legacy,0,congruent,uniform,1,undefined,1,s,0,0,0,61,0,61,0,0,0,61,0,61,61,61,61,61,9/17/19 14:52,1500,The main experiment item,yes,Flankertask2.osexp,C:/Users/Carolyn/OneDrive,no,mono,no,18,no,white,no,yes,768,legacy,61,61,C:/Users/Carolyn/OneDrive/cp-subject-1.csv,legacy,Kafkaesque Koffka,3.2.8,0,s,NA,s,NA,NA,s,536,NA,5583,NA,NA,536,2,legacy,1024,2,48000,-16,experiment,SSSSS,1,odd,11175,NA,NA,NA,NA,127265,5589,NA,NA,94575,5584,128412,128516,129054,128408,128516,Flankertask2,60,36934,62,yes,1024
96.82539683,96.82539683,595.984127,595.984127,black,legacy,legacy,legacy,0,congruent,uniform,1,undefined,1,h,0,0,0,62,0,62,0,0,0,62,0,62,62,62,62,62,9/17/19 14:52,1500,The main experiment item,yes,Flankertask2.osexp,C:/Users/Carolyn/OneDrive,no,mono,no,18,no,white,no,yes,768,legacy,62,62,C:/Users/Carolyn/OneDrive/cp-subject-1.csv,legacy,Kafkaesque Koffka,3.2.8,0,h,NA,s,NA,NA,h,613,NA,5583,NA,NA,613,2,legacy,1024,2,48000,-16,experiment,HHHHH,1,odd,11175,NA,NA,NA,NA,129092,5589,NA,NA,94575,5584,130240,130343,130959,130236,130343,Flankertask2,61,37547,63,yes,1024
96.875,96.875,595.9375,595.9375,black,legacy,legacy,legacy,0,incongruent,uniform,1,undefined,1,s,0,0,0,63,0,63,0,0,0,63,0,63,63,63,63,63,9/17/19 14:52,1500,The main experiment item,yes,Flankertask2.osexp,C:/Users/Carolyn/OneDrive,no,mono,no,18,no,white,no,yes,768,legacy,63,63,C:/Users/Carolyn/OneDrive/cp-subject-1.csv,legacy,Kafkaesque Koffka,3.2.8,0,s,NA,s,NA,NA,s,593,NA,5583,NA,NA,593,2,legacy,1024,2,48000,-16,experiment,HHSHH,1,odd,11175,NA,NA,NA,NA,131000,5589,NA,NA,94575,5584,132149,132252,132847,132144,132252,Flankertask2,62,38140,64,yes,1024
96.92307692,96.92307692,597.2769231,597.2769231,black,legacy,legacy,legacy,0,incongruent,uniform,1,undefined,1,h,0,0,0,64,0,64,0,0,0,64,0,64,64,64,64,64,9/17/19 14:52,1500,The main experiment item,yes,Flankertask2.osexp,C:/Users/Carolyn/OneDrive,no,mono,no,18,no,white,no,yes,768,legacy,64,64,C:/Users/Carolyn/OneDrive/cp-subject-1.csv,legacy,Kafkaesque Koffka,3.2.8,0,h,NA,s,NA,NA,h,683,NA,5583,NA,NA,683,2,legacy,1024,2,48000,-16,experiment,SSHSS,1,odd,11175,NA,NA,NA,NA,132900,5589,NA,NA,94575,5584,134049,134153,134839,134045,134152,Flankertask2,63,38823,65,yes,1024
96.96969697,96.96969697,597.1060606,597.1060606,black,legacy,legacy,legacy,0,incongruent,uniform,1,undefined,1,s,0,0,0,65,0,65,0,0,0,65,0,65,65,65,65,65,9/17/19 14:52,1500,The main experiment item,yes,Flankertask2.osexp,C:/Users/Carolyn/OneDrive,no,mono,no,18,no,white,no,yes,768,legacy,65,65,C:/Users/Carolyn/OneDrive/cp-subject-1.csv,legacy,Kafkaesque Koffka,3.2.8,0,s,NA,s,NA,NA,s,586,NA,5583,NA,NA,586,2,legacy,1024,2,48000,-16,experiment,HHSHH,1,odd,11175,NA,NA,NA,NA,134874,5589,NA,NA,94575,5584,136028,136131,136718,136023,136131,Flankertask2,64,39409,66,yes,1024
95.52238806,95.52238806,610.5820896,610.5820896,black,legacy,legacy,legacy,0,congruent,uniform,0,undefined,0,s,0,0,0,66,0,66,0,0,0,66,0,66,66,66,66,66,9/17/19 14:52,1500,The main experiment item,yes,Flankertask2.osexp,C:/Users/Carolyn/OneDrive,no,mono,no,18,no,white,no,yes,768,legacy,66,66,C:/Users/Carolyn/OneDrive/cp-subject-1.csv,legacy,Kafkaesque Koffka,3.2.8,0,None,NA,s,NA,NA,None,1500,NA,5583,NA,NA,1500,2,legacy,1024,2,48000,-16,experiment,SSSSS,1,odd,11175,NA,NA,NA,NA,136758,5589,NA,NA,94575,5584,137908,138012,139513,137903,138012,Flankertask2,64,40909,67,yes,1024
95.58823529,95.58823529,610.7794118,610.7794118,black,legacy,legacy,legacy,0,incongruent,uniform,1,undefined,1,h,0,0,0,67,0,67,0,0,0,67,0,67,67,67,67,67,9/17/19 14:52,1500,The main experiment item,yes,Flankertask2.osexp,C:/Users/Carolyn/OneDrive,no,mono,no,18,no,white,no,yes,768,legacy,67,67,C:/Users/Carolyn/OneDrive/cp-subject-1.csv,legacy,Kafkaesque Koffka,3.2.8,0,h,NA,s,NA,NA,h,624,NA,5583,NA,NA,624,2,legacy,1024,2,48000,-16,experiment,SSHSS,1,odd,11175,NA,NA,NA,NA,140062,5589,NA,NA,139558,5584,141212,141316,141943,141208,141315,Flankertask2,65,41533,68,yes,1024
95.65217391,95.65217391,609.5072464,609.5072464,black,legacy,legacy,legacy,0,incongruent,uniform,1,undefined,1,s,0,0,0,68,0,68,0,0,0,68,0,68,68,68,68,68,9/17/19 14:52,1500,The main experiment item,yes,Flankertask2.osexp,C:/Users/Carolyn/OneDrive,no,mono,no,18,no,white,no,yes,768,legacy,68,68,C:/Users/Carolyn/OneDrive/cp-subject-1.csv,legacy,Kafkaesque Koffka,3.2.8,0,s,NA,s,NA,NA,s,523,NA,5583,NA,NA,523,2,legacy,1024,2,48000,-16,experiment,HHSHH,1,odd,11175,NA,NA,NA,NA,141975,5589,NA,NA,139558,5584,143127,143233,143759,143123,143232,Flankertask2,66,42056,69,yes,1024
95.71428571,95.71428571,609.2571429,609.2571429,black,legacy,legacy,legacy,0,congruent,uniform,1,undefined,1,s,0,0,0,69,0,69,0,0,0,69,0,69,69,69,69,69,9/17/19 14:52,1500,The main experiment item,yes,Flankertask2.osexp,C:/Users/Carolyn/OneDrive,no,mono,no,18,no,white,no,yes,768,legacy,69,69,C:/Users/Carolyn/OneDrive/cp-subject-1.csv,legacy,Kafkaesque Koffka,3.2.8,0,s,NA,s,NA,NA,s,592,NA,5583,NA,NA,592,2,legacy,1024,2,48000,-16,experiment,SSSSS,1,odd,11175,NA,NA,NA,NA,143800,5589,NA,NA,139558,5584,144950,145053,145646,144945,145053,Flankertask2,67,42648,70,yes,1024
95.77464789,95.77464789,608.2394366,608.2394366,black,legacy,legacy,legacy,0,incongruent,uniform,1,undefined,1,h,0,0,0,70,0,70,0,0,0,70,0,70,70,70,70,70,9/17/19 14:52,1500,The main experiment item,yes,Flankertask2.osexp,C:/Users/Carolyn/OneDrive,no,mono,no,18,no,white,no,yes,768,legacy,70,70,C:/Users/Carolyn/OneDrive/cp-subject-1.csv,legacy,Kafkaesque Koffka,3.2.8,0,h,NA,s,NA,NA,h,537,NA,5583,NA,NA,537,2,legacy,1024,2,48000,-16,experiment,SSHSS,1,odd,11175,NA,NA,NA,NA,145684,5589,NA,NA,139558,5584,146835,146939,147479,146830,146938,Flankertask2,68,43185,71,yes,1024
95.83333333,95.83333333,606.4861111,606.4861111,black,legacy,legacy,legacy,0,incongruent,uniform,1,undefined,1,s,0,0,0,71,0,71,0,0,0,71,0,71,71,71,71,71,9/17/19 14:52,1500,The main experiment item,yes,Flankertask2.osexp,C:/Users/Carolyn/OneDrive,no,mono,no,18,no,white,no,yes,768,legacy,71,71,C:/Users/Carolyn/OneDrive/cp-subject-1.csv,legacy,Kafkaesque Koffka,3.2.8,0,s,NA,s,NA,NA,s,482,NA,5583,NA,NA,482,2,legacy,1024,2,48000,-16,experiment,HHSHH,1,odd,11175,NA,NA,NA,NA,147508,5589,NA,NA,139558,5584,148658,148763,149247,148654,148762,Flankertask2,69,43667,72,yes,1024
95.89041096,95.89041096,604.9315068,604.9315068,black,legacy,legacy,legacy,0,congruent,uniform,1,undefined,1,h,0,0,0,72,0,72,0,0,0,72,0,72,72,72,72,72,9/17/19 14:52,1500,The main experiment item,yes,Flankertask2.osexp,C:/Users/Carolyn/OneDrive,no,mono,no,18,no,white,no,yes,768,legacy,72,72,C:/Users/Carolyn/OneDrive/cp-subject-1.csv,legacy,Kafkaesque Koffka,3.2.8,0,h,NA,s,NA,NA,h,493,NA,5583,NA,NA,493,2,legacy,1024,2,48000,-16,experiment,HHHHH,1,odd,11175,NA,NA,NA,NA,149283,5589,NA,NA,139558,5584,150433,150536,151030,150428,150536,Flankertask2,70,44160,73,yes,1024
95.94594595,95.94594595,603.4864865,603.4864865,black,legacy,legacy,legacy,0,incongruent,uniform,1,undefined,1,s,0,0,0,73,0,73,0,0,0,73,0,73,73,73,73,73,9/17/19 14:52,1500,The main experiment item,yes,Flankertask2.osexp,C:/Users/Carolyn/OneDrive,no,mono,no,18,no,white,no,yes,768,legacy,73,73,C:/Users/Carolyn/OneDrive/cp-subject-1.csv,legacy,Kafkaesque Koffka,3.2.8,0,s,NA,s,NA,NA,s,498,NA,5583,NA,NA,498,2,legacy,1024,2,48000,-16,experiment,HHSHH,1,odd,11175,NA,NA,NA,NA,151067,5589,NA,NA,139558,5584,152218,152323,152822,152214,152323,Flankertask2,71,44658,74,yes,1024
96,96,601.48,601.48,black,legacy,legacy,legacy,0,congruent,uniform,1,undefined,1,h,0,0,0,74,0,74,0,0,0,74,0,74,74,74,74,74,9/17/19 14:52,1500,The main experiment item,yes,Flankertask2.osexp,C:/Users/Carolyn/OneDrive,no,mono,no,18,no,white,no,yes,768,legacy,74,74,C:/Users/Carolyn/OneDrive/cp-subject-1.csv,legacy,Kafkaesque Koffka,3.2.8,0,h,NA,s,NA,NA,h,453,NA,5583,NA,NA,453,2,legacy,1024,2,48000,-16,experiment,HHHHH,1,odd,11175,NA,NA,NA,NA,152858,5589,NA,NA,139558,5584,154007,154111,154567,154002,154111,Flankertask2,72,45111,75,yes,1024
96.05263158,96.05263158,601.4605263,601.4605263,black,legacy,legacy,legacy,0,incongruent,uniform,1,undefined,1,h,0,0,0,75,0,75,0,0,0,75,0,75,75,75,75,75,9/17/19 14:52,1500,The main experiment item,yes,Flankertask2.osexp,C:/Users/Carolyn/OneDrive,no,mono,no,18,no,white,no,yes,768,legacy,75,75,C:/Users/Carolyn/OneDrive/cp-subject-1.csv,legacy,Kafkaesque Koffka,3.2.8,0,h,NA,s,NA,NA,h,600,NA,5583,NA,NA,600,2,legacy,1024,2,48000,-16,experiment,SSHSS,1,odd,11175,NA,NA,NA,NA,154600,5589,NA,NA,139558,5584,155749,155853,156454,155745,155852,Flankertask2,73,45711,76,yes,1024
96.1038961,96.1038961,599.5974026,599.5974026,black,legacy,legacy,legacy,0,incongruent,uniform,1,undefined,1,s,0,0,0,76,0,76,0,0,0,76,0,76,76,76,76,76,9/17/19 14:52,1500,The main experiment item,yes,Flankertask2.osexp,C:/Users/Carolyn/OneDrive,no,mono,no,18,no,white,no,yes,768,legacy,76,76,C:/Users/Carolyn/OneDrive/cp-subject-1.csv,legacy,Kafkaesque Koffka,3.2.8,0,s,NA,s,NA,NA,s,458,NA,5583,NA,NA,458,2,legacy,1024,2,48000,-16,experiment,HHSHH,1,odd,11175,NA,NA,NA,NA,156508,5589,NA,NA,139558,5584,157660,157763,158223,157655,157763,Flankertask2,74,46169,77,yes,1024
96.15384615,96.15384615,597.9230769,597.9230769,black,legacy,legacy,legacy,0,incongruent,uniform,1,undefined,1,h,0,0,0,77,0,77,0,0,0,77,0,77,77,77,77,77,9/17/19 14:52,1500,The main experiment item,yes,Flankertask2.osexp,C:/Users/Carolyn/OneDrive,no,mono,no,18,no,white,no,yes,768,legacy,77,77,C:/Users/Carolyn/OneDrive/cp-subject-1.csv,legacy,Kafkaesque Koffka,3.2.8,0,h,NA,s,NA,NA,h,469,NA,5583,NA,NA,469,2,legacy,1024,2,48000,-16,experiment,SSHSS,1,odd,11175,NA,NA,NA,NA,158258,5589,NA,NA,139558,5584,159408,159512,159983,159403,159511,Flankertask2,75,46638,78,yes,1024
96.20253165,96.20253165,596.2025316,596.2025316,black,legacy,legacy,legacy,0,incongruent,uniform,1,undefined,1,s,0,0,0,78,0,78,0,0,0,78,0,78,78,78,78,78,9/17/19 14:52,1500,The main experiment item,yes,Flankertask2.osexp,C:/Users/Carolyn/OneDrive,no,mono,no,18,no,white,no,yes,768,legacy,78,78,C:/Users/Carolyn/OneDrive/cp-subject-1.csv,legacy,Kafkaesque Koffka,3.2.8,0,s,NA,s,NA,NA,s,462,NA,5583,NA,NA,462,2,legacy,1024,2,48000,-16,experiment,HHSHH,1,odd,11175,NA,NA,NA,NA,160016,5589,NA,NA,139558,5584,161168,161271,161735,161163,161271,Flankertask2,76,47100,79,yes,1024
96.25,96.25,594.85,594.85,black,legacy,legacy,legacy,0,incongruent,uniform,1,undefined,1,h,0,0,0,79,0,79,0,0,0,79,0,79,79,79,79,79,9/17/19 14:52,1500,The main experiment item,yes,Flankertask2.osexp,C:/Users/Carolyn/OneDrive,no,mono,no,18,no,white,no,yes,768,legacy,79,79,C:/Users/Carolyn/OneDrive/cp-subject-1.csv,legacy,Kafkaesque Koffka,3.2.8,0,h,NA,s,NA,NA,h,488,NA,5583,NA,NA,488,2,legacy,1024,2,48000,-16,experiment,SSHSS,1,odd,11175,NA,NA,NA,NA,161775,5589,NA,NA,139558,5584,162926,163029,163519,162921,163029,Flankertask2,77,47588,80,yes,1024
96.2962963,96.2962963,596.7901235,596.7901235,black,legacy,legacy,legacy,0,incongruent,uniform,1,undefined,1,s,0,0,0,80,0,80,0,0,0,80,0,80,80,80,80,80,9/17/19 14:52,600,The main experiment item,yes,Flankertask2.osexp,C:/Users/Carolyn/OneDrive,no,mono,no,18,no,white,no,yes,768,legacy,0,79,C:/Users/Carolyn/OneDrive/cp-subject-1.csv,legacy,Kafkaesque Koffka,3.2.8,0,s,NA,s,h,NA,s,752,NA,5583,14019,NA,752,2,legacy,1024,2,48000,-16,experiment,HHSHH,1,odd,11175,178607,NA,NA,NA,163558,5589,164586,NA,139558,5584,178749,178853,179607,178745,178853,Flankertask2,78,48340,81,yes,1024
96.34146341,96.34146341,593.2195122,593.2195122,black,legacy,legacy,legacy,0,congruent,uniform,1,undefined,1,h,0,0,0,81,0,81,0,0,0,81,0,81,81,81,81,81,9/17/19 14:52,600,The main experiment item,yes,Flankertask2.osexp,C:/Users/Carolyn/OneDrive,no,mono,no,18,no,white,no,yes,768,legacy,1,79,C:/Users/Carolyn/OneDrive/cp-subject-1.csv,legacy,Kafkaesque Koffka,3.2.8,0,h,NA,s,h,NA,h,304,NA,5583,14019,NA,304,2,legacy,1024,2,48000,-16,experiment,HHHHH,1,odd,11175,178607,NA,179672,NA,180176,5589,164586,NA,139558,5584,181326,181429,181735,181321,181429,Flankertask2,79,48644,82,yes,1024
96.38554217,96.38554217,591,591,black,legacy,legacy,legacy,0,congruent,uniform,1,undefined,1,h,0,0,0,82,0,82,0,0,0,82,0,82,82,82,82,82,9/17/19 14:52,600,The main experiment item,yes,Flankertask2.osexp,C:/Users/Carolyn/OneDrive,no,mono,no,18,no,white,no,yes,768,legacy,2,79,C:/Users/Carolyn/OneDrive/cp-subject-1.csv,legacy,Kafkaesque Koffka,3.2.8,0,h,NA,s,h,NA,h,409,NA,5583,14019,NA,409,2,legacy,1024,2,48000,-16,experiment,HHHHH,1,odd,11175,178607,NA,179672,NA,181766,5589,164586,NA,139558,5584,182917,183020,183431,182912,183020,Flankertask2,80,49053,83,yes,1024
96.42857143,96.42857143,587.9285714,587.9285714,black,legacy,legacy,legacy,0,incongruent,uniform,1,undefined,1,h,0,0,0,83,0,83,0,0,0,83,0,83,83,83,83,83,9/17/19 14:52,600,The main experiment item,yes,Flankertask2.osexp,C:/Users/Carolyn/OneDrive,no,mono,no,18,no,white,no,yes,768,legacy,3,79,C:/Users/Carolyn/OneDrive/cp-subject-1.csv,legacy,Kafkaesque Koffka,3.2.8,0,h,NA,s,h,NA,h,333,NA,5583,14019,NA,333,2,legacy,1024,2,48000,-16,experiment,SSHSS,1,odd,11175,178607,NA,179672,NA,183466,5589,164586,NA,139558,5584,184616,184720,185055,184611,184719,Flankertask2,81,49386,84,yes,1024
96.47058824,96.47058824,585.8705882,585.8705882,black,legacy,legacy,legacy,0,congruent,uniform,1,undefined,1,h,0,0,0,84,0,84,0,0,0,84,0,84,84,84,84,84,9/17/19 14:52,600,The main experiment item,yes,Flankertask2.osexp,C:/Users/Carolyn/OneDrive,no,mono,no,18,no,white,no,yes,768,legacy,4,79,C:/Users/Carolyn/OneDrive/cp-subject-1.csv,legacy,Kafkaesque Koffka,3.2.8,0,h,NA,s,h,NA,h,413,NA,5583,14019,NA,413,2,legacy,1024,2,48000,-16,experiment,HHHHH,1,odd,11175,178607,NA,179672,NA,185108,5589,164586,NA,139558,5584,186257,186360,186775,186252,186360,Flankertask2,82,49799,85,yes,1024
96.51162791,96.51162791,584.1046512,584.1046512,black,legacy,legacy,legacy,0,congruent,uniform,1,undefined,1,s,0,0,0,85,0,85,0,0,0,85,0,85,85,85,85,85,9/17/19 14:52,600,The main experiment item,yes,Flankertask2.osexp,C:/Users/Carolyn/OneDrive,no,mono,no,18,no,white,no,yes,768,legacy,5,79,C:/Users/Carolyn/OneDrive/cp-subject-1.csv,legacy,Kafkaesque Koffka,3.2.8,0,s,NA,s,h,NA,s,434,NA,5583,14019,NA,434,2,legacy,1024,2,48000,-16,experiment,SSSSS,1,odd,11175,178607,NA,179672,NA,186808,5589,164586,NA,139558,5584,187956,188059,188495,187951,188059,Flankertask2,83,50233,86,yes,1024
95.40229885,95.40229885,580.3563218,580.3563218,black,legacy,legacy,legacy,0,congruent,uniform,0,undefined,0,h,0,0,0,86,0,86,0,0,0,86,0,86,86,86,86,86,9/17/19 14:52,600,The main experiment item,yes,Flankertask2.osexp,C:/Users/Carolyn/OneDrive,no,mono,no,18,no,white,no,yes,768,legacy,6,79,C:/Users/Carolyn/OneDrive/cp-subject-1.csv,legacy,Kafkaesque Koffka,3.2.8,0,s,NA,s,h,NA,s,258,NA,5583,14019,NA,258,2,legacy,1024,2,48000,-16,experiment,HHHHH,1,odd,11175,178607,NA,179672,NA,188532,5589,164586,NA,139558,5584,189683,189787,190047,189679,189787,Flankertask2,83,50491,87,yes,1024
94.31818182,94.31818182,578.6363636,578.6363636,black,legacy,legacy,legacy,0,congruent,uniform,0,undefined,0,s,0,0,0,87,0,87,0,0,0,87,0,87,87,87,87,87,9/17/19 14:52,600,The main experiment item,yes,Flankertask2.osexp,C:/Users/Carolyn/OneDrive,no,mono,no,18,no,white,no,yes,768,legacy,7,79,C:/Users/Carolyn/OneDrive/cp-subject-1.csv,legacy,Kafkaesque Koffka,3.2.8,0,h,NA,s,h,NA,h,429,NA,5583,14019,NA,429,2,legacy,1024,2,48000,-16,experiment,SSSSS,1,odd,11175,178607,NA,179672,NA,190586,5589,164586,NA,190083,5584,191737,191840,192271,191732,191840,Flankertask2,83,50920,88,yes,1024
94.38202247,94.38202247,577.6966292,577.6966292,black,legacy,legacy,legacy,0,congruent,uniform,1,undefined,1,h,0,0,0,88,0,88,0,0,0,88,0,88,88,88,88,88,9/17/19 14:52,600,The main experiment item,yes,Flankertask2.osexp,C:/Users/Carolyn/OneDrive,no,mono,no,18,no,white,no,yes,768,legacy,8,79,C:/Users/Carolyn/OneDrive/cp-subject-1.csv,legacy,Kafkaesque Koffka,3.2.8,0,h,NA,s,h,NA,h,495,NA,5583,14019,NA,495,2,legacy,1024,2,48000,-16,experiment,HHHHH,1,odd,11175,178607,NA,179672,NA,192811,5589,164586,NA,192308,5584,193959,194062,194559,193955,194062,Flankertask2,84,51415,89,yes,1024
94.44444444,94.44444444,577.9222222,577.9222222,black,legacy,legacy,legacy,0,incongruent,uniform,1,undefined,1,s,0,0,0,89,0,89,0,0,0,89,0,89,89,89,89,89,9/17/19 14:52,600,The main experiment item,yes,Flankertask2.osexp,C:/Users/Carolyn/OneDrive,no,mono,no,18,no,white,no,yes,768,legacy,9,79,C:/Users/Carolyn/OneDrive/cp-subject-1.csv,legacy,Kafkaesque Koffka,3.2.8,0,s,NA,s,h,NA,s,598,NA,5583,14019,NA,598,2,legacy,1024,2,48000,-16,experiment,HHSHH,1,odd,11175,178607,NA,179672,NA,194591,5589,164586,NA,192308,5584,195744,195847,196447,195739,195847,Flankertask2,85,52013,90,yes,1024
93.40659341,93.40659341,577.4945055,577.4945055,black,legacy,legacy,legacy,0,incongruent,uniform,0,undefined,0,h,0,0,0,90,0,90,0,0,0,90,0,90,90,90,90,90,9/17/19 14:52,600,The main experiment item,yes,Flankertask2.osexp,C:/Users/Carolyn/OneDrive,no,mono,no,18,no,white,no,yes,768,legacy,10,79,C:/Users/Carolyn/OneDrive/cp-subject-1.csv,legacy,Kafkaesque Koffka,3.2.8,0,s,NA,s,h,NA,s,539,NA,5583,14019,NA,539,2,legacy,1024,2,48000,-16,experiment,SSHSS,1,odd,11175,178607,NA,179672,NA,196491,5589,164586,NA,192308,5584,197642,197746,198287,197637,197745,Flankertask2,85,52552,91,yes,1024
93.47826087,93.47826087,577.8804348,577.8804348,black,legacy,legacy,legacy,0,incongruent,uniform,1,undefined,1,h,0,0,0,91,0,91,0,0,0,91,0,91,91,91,91,91,9/17/19 14:52,600,The main experiment item,yes,Flankertask2.osexp,C:/Users/Carolyn/OneDrive,no,mono,no,18,no,white,no,yes,768,legacy,11,79,C:/Users/Carolyn/OneDrive/cp-subject-1.csv,legacy,Kafkaesque Koffka,3.2.8,0,h,NA,s,h,NA,h,613,NA,5583,14019,NA,613,2,legacy,1024,2,48000,-16,experiment,SSHSS,1,odd,11175,178607,NA,179672,NA,198828,5589,164586,NA,198324,5584,199977,200080,200695,199972,200080,Flankertask2,86,53165,92,yes,1024
93.5483871,93.5483871,576.9247312,576.9247312,black,legacy,legacy,legacy,0,incongruent,uniform,1,undefined,1,h,0,0,0,92,0,92,0,0,0,92,0,92,92,92,92,92,9/17/19 14:52,600,The main experiment item,yes,Flankertask2.osexp,C:/Users/Carolyn/OneDrive,no,mono,no,18,no,white,no,yes,768,legacy,12,79,C:/Users/Carolyn/OneDrive/cp-subject-1.csv,legacy,Kafkaesque Koffka,3.2.8,0,h,NA,s,h,NA,h,489,NA,5583,14019,NA,489,2,legacy,1024,2,48000,-16,experiment,SSHSS,1,odd,11175,178607,NA,200733,NA,201236,5589,164586,NA,198324,5584,202387,202492,202984,202382,202491,Flankertask2,87,53654,93,yes,1024
93.61702128,93.61702128,575.9574468,575.9574468,black,legacy,legacy,legacy,0,congruent,uniform,1,undefined,1,s,0,0,0,93,0,93,0,0,0,93,0,93,93,93,93,93,9/17/19 14:52,600,The main experiment item,yes,Flankertask2.osexp,C:/Users/Carolyn/OneDrive,no,mono,no,18,no,white,no,yes,768,legacy,13,79,C:/Users/Carolyn/OneDrive/cp-subject-1.csv,legacy,Kafkaesque Koffka,3.2.8,0,s,NA,s,h,NA,s,486,NA,5583,14019,NA,486,2,legacy,1024,2,48000,-16,experiment,SSSSS,1,odd,11175,178607,NA,200733,NA,203024,5589,164586,NA,198324,5584,204175,204279,204767,204171,204279,Flankertask2,88,54140,94,yes,1024
93.68421053,93.68421053,575.0105263,575.0105263,black,legacy,legacy,legacy,0,incongruent,uniform,1,undefined,1,h,0,0,0,94,0,94,0,0,0,94,0,94,94,94,94,94,9/17/19 14:52,600,The main experiment item,yes,Flankertask2.osexp,C:/Users/Carolyn/OneDrive,no,mono,no,18,no,white,no,yes,768,legacy,14,79,C:/Users/Carolyn/OneDrive/cp-subject-1.csv,legacy,Kafkaesque Koffka,3.2.8,0,h,NA,s,h,NA,h,486,NA,5583,14019,NA,486,2,legacy,1024,2,48000,-16,experiment,SSHSS,1,odd,11175,178607,NA,200733,NA,204808,5589,164586,NA,198324,5584,205959,206063,206552,205955,206063,Flankertask2,89,54626,95,yes,1024
93.75,93.75,572.9479167,572.9479167,black,legacy,legacy,legacy,0,congruent,uniform,1,undefined,1,s,0,0,0,95,0,95,0,0,0,95,0,95,95,95,95,95,9/17/19 14:52,600,The main experiment item,yes,Flankertask2.osexp,C:/Users/Carolyn/OneDrive,no,mono,no,18,no,white,no,yes,768,legacy,15,79,C:/Users/Carolyn/OneDrive/cp-subject-1.csv,legacy,Kafkaesque Koffka,3.2.8,0,s,NA,s,h,NA,s,377,NA,5583,14019,NA,377,2,legacy,1024,2,48000,-16,experiment,SSSSS,1,odd,11175,178607,NA,200733,NA,206582,5589,164586,NA,198324,5584,207733,207836,208216,207728,207836,Flankertask2,90,55003,96,yes,1024
92.78350515,92.78350515,570.7319588,570.7319588,black,legacy,legacy,legacy,0,incongruent,uniform,0,undefined,0,s,0,0,0,96,0,96,0,0,0,96,0,96,96,96,96,96,9/17/19 14:52,600,The main experiment item,yes,Flankertask2.osexp,C:/Users/Carolyn/OneDrive,no,mono,no,18,no,white,no,yes,768,legacy,16,79,C:/Users/Carolyn/OneDrive/cp-subject-1.csv,legacy,Kafkaesque Koffka,3.2.8,0,h,NA,s,h,NA,h,358,NA,5583,14019,NA,358,2,legacy,1024,2,48000,-16,experiment,HHSHH,1,odd,11175,178607,NA,200733,NA,208250,5589,164586,NA,198324,5584,209400,209503,209864,209396,209503,Flankertask2,90,55361,97,yes,1024
92.85714286,92.85714286,569.2959184,569.2959184,black,legacy,legacy,legacy,0,congruent,uniform,1,undefined,1,h,0,0,0,97,0,97,0,0,0,97,0,97,97,97,97,97,9/17/19 14:52,600,The main experiment item,yes,Flankertask2.osexp,C:/Users/Carolyn/OneDrive,no,mono,no,18,no,white,no,yes,768,legacy,17,79,C:/Users/Carolyn/OneDrive/cp-subject-1.csv,legacy,Kafkaesque Koffka,3.2.8,0,h,NA,s,h,NA,h,430,NA,5583,14019,NA,430,2,legacy,1024,2,48000,-16,experiment,HHHHH,1,odd,11175,178607,NA,200733,NA,210402,5589,164586,NA,209899,5584,211550,211655,212088,211546,211654,Flankertask2,91,55791,98,yes,1024
91.91919192,91.91919192,568.3232323,568.3232323,black,legacy,legacy,legacy,0,incongruent,uniform,0,undefined,0,s,0,0,0,98,0,98,0,0,0,98,0,98,98,98,98,98,9/17/19 14:52,600,The main experiment item,yes,Flankertask2.osexp,C:/Users/Carolyn/OneDrive,no,mono,no,18,no,white,no,yes,768,legacy,18,79,C:/Users/Carolyn/OneDrive/cp-subject-1.csv,legacy,Kafkaesque Koffka,3.2.8,0,h,NA,s,h,NA,h,473,NA,5583,14019,NA,473,2,legacy,1024,2,48000,-16,experiment,HHSHH,1,odd,11175,178607,NA,200733,NA,212132,5589,164586,NA,209899,5584,213284,213388,213864,213279,213387,Flankertask2,91,56264,99,yes,1024
92,92,569.24,569.24,black,legacy,legacy,legacy,0,congruent,uniform,1,undefined,1,s,0,0,0,99,0,99,0,0,0,99,0,99,99,99,99,99,9/17/19 14:52,600,The main experiment item,yes,Flankertask2.osexp,C:/Users/Carolyn/OneDrive,no,mono,no,18,no,white,no,yes,768,legacy,19,79,C:/Users/Carolyn/OneDrive/cp-subject-1.csv,legacy,Kafkaesque Koffka,3.2.8,0,s,NA,s,h,NA,s,660,NA,5583,14019,NA,660,2,legacy,1024,2,48000,-16,experiment,SSSSS,1,odd,11175,178607,NA,200733,NA,214403,5589,164586,NA,213899,5584,215554,215657,216320,215549,215657,Flankertask2,92,56924,100,yes,1024
92.07920792,92.07920792,567.9108911,567.9108911,black,legacy,legacy,legacy,0,congruent,uniform,1,undefined,1,h,0,0,0,100,0,100,0,0,0,100,0,100,100,100,100,100,9/17/19 14:52,600,The main experiment item,yes,Flankertask2.osexp,C:/Users/Carolyn/OneDrive,no,mono,no,18,no,white,no,yes,768,legacy,20,79,C:/Users/Carolyn/OneDrive/cp-subject-1.csv,legacy,Kafkaesque Koffka,3.2.8,0,h,NA,s,h,NA,h,435,NA,5583,14019,NA,435,2,legacy,1024,2,48000,-16,experiment,HHHHH,1,odd,11175,178607,NA,216349,NA,216853,5589,164586,NA,213899,5584,218002,218106,218544,217997,218105,Flankertask2,93,57359,101,yes,1024
92.15686275,92.15686275,566.9705882,566.9705882,black,legacy,legacy,legacy,0,incongruent,uniform,1,undefined,1,s,0,0,0,101,0,101,0,0,0,101,0,101,101,101,101,101,9/17/19 14:52,600,The main experiment item,yes,Flankertask2.osexp,C:/Users/Carolyn/OneDrive,no,mono,no,18,no,white,no,yes,768,legacy,21,79,C:/Users/Carolyn/OneDrive/cp-subject-1.csv,legacy,Kafkaesque Koffka,3.2.8,0,s,NA,s,h,NA,s,472,NA,5583,14019,NA,472,2,legacy,1024,2,48000,-16,experiment,HHSHH,1,odd,11175,178607,NA,216349,NA,218582,5589,164586,NA,213899,5584,219734,219837,220312,219729,219837,Flankertask2,94,57831,102,yes,1024
91.26213592,91.26213592,564.6699029,564.6699029,black,legacy,legacy,legacy,0,incongruent,uniform,0,undefined,0,s,0,0,0,102,0,102,0,0,0,102,0,102,102,102,102,102,9/17/19 14:52,600,The main experiment item,yes,Flankertask2.osexp,C:/Users/Carolyn/OneDrive,no,mono,no,18,no,white,no,yes,768,legacy,22,79,C:/Users/Carolyn/OneDrive/cp-subject-1.csv,legacy,Kafkaesque Koffka,3.2.8,0,h,NA,s,h,NA,h,330,NA,5583,14019,NA,330,2,legacy,1024,2,48000,-16,experiment,HHSHH,1,odd,11175,178607,NA,216349,NA,220349,5589,164586,NA,213899,5584,221500,221603,221936,221495,221603,Flankertask2,94,58161,103,yes,1024
91.34615385,91.34615385,563.2692308,563.2692308,black,legacy,legacy,legacy,0,congruent,uniform,1,undefined,1,h,0,0,0,103,0,103,0,0,0,103,0,103,103,103,103,103,9/17/19 14:52,600,The main experiment item,yes,Flankertask2.osexp,C:/Users/Carolyn/OneDrive,no,mono,no,18,no,white,no,yes,768,legacy,23,79,C:/Users/Carolyn/OneDrive/cp-subject-1.csv,legacy,Kafkaesque Koffka,3.2.8,0,h,NA,s,h,NA,h,419,NA,5583,14019,NA,419,2,legacy,1024,2,48000,-16,experiment,HHHHH,1,odd,11175,178607,NA,216349,NA,222477,5589,164586,NA,221974,5584,223627,223730,224152,223622,223730,Flankertask2,95,58580,104,yes,1024
91.42857143,91.42857143,562.4857143,562.4857143,black,legacy,legacy,legacy,0,incongruent,uniform,1,undefined,1,h,0,0,0,104,0,104,0,0,0,104,0,104,104,104,104,104,9/17/19 14:52,600,The main experiment item,yes,Flankertask2.osexp,C:/Users/Carolyn/OneDrive,no,mono,no,18,no,white,no,yes,768,legacy,24,79,C:/Users/Carolyn/OneDrive/cp-subject-1.csv,legacy,Kafkaesque Koffka,3.2.8,0,h,NA,s,h,NA,h,481,NA,5583,14019,NA,481,2,legacy,1024,2,48000,-16,experiment,SSHSS,1,odd,11175,178607,NA,216349,NA,224216,5589,164586,NA,221974,5584,225365,225468,225952,225360,225468,Flankertask2,96,59061,105,yes,1024
91.50943396,91.50943396,561.1886792,561.1886792,black,legacy,legacy,legacy,0,congruent,uniform,1,undefined,1,h,0,0,0,105,0,105,0,0,0,105,0,105,105,105,105,105,9/17/19 14:52,600,The main experiment item,yes,Flankertask2.osexp,C:/Users/Carolyn/OneDrive,no,mono,no,18,no,white,no,yes,768,legacy,25,79,C:/Users/Carolyn/OneDrive/cp-subject-1.csv,legacy,Kafkaesque Koffka,3.2.8,0,h,NA,s,h,NA,h,425,NA,5583,14019,NA,425,2,legacy,1024,2,48000,-16,experiment,HHHHH,1,odd,11175,178607,NA,216349,NA,226014,5589,164586,NA,221974,5584,227165,227268,227696,227160,227268,Flankertask2,97,59486,106,yes,1024
91.58878505,91.58878505,560.0093458,560.0093458,black,legacy,legacy,legacy,0,congruent,uniform,1,undefined,1,h,0,0,0,106,0,106,0,0,0,106,0,106,106,106,106,106,9/17/19 14:52,600,The main experiment item,yes,Flankertask2.osexp,C:/Users/Carolyn/OneDrive,no,mono,no,18,no,white,no,yes,768,legacy,26,79,C:/Users/Carolyn/OneDrive/cp-subject-1.csv,legacy,Kafkaesque Koffka,3.2.8,0,h,NA,s,h,NA,h,435,NA,5583,14019,NA,435,2,legacy,1024,2,48000,-16,experiment,HHHHH,1,odd,11175,178607,NA,216349,NA,227733,5589,164586,NA,221974,5584,228883,228986,229424,228878,228986,Flankertask2,98,59921,107,yes,1024
91.66666667,91.66666667,560,560,black,legacy,legacy,legacy,0,congruent,uniform,1,undefined,1,s,0,0,0,107,0,107,0,0,0,107,0,107,107,107,107,107,9/17/19 14:52,600,The main experiment item,yes,Flankertask2.osexp,C:/Users/Carolyn/OneDrive,no,mono,no,18,no,white,no,yes,768,legacy,27,79,C:/Users/Carolyn/OneDrive/cp-subject-1.csv,legacy,Kafkaesque Koffka,3.2.8,0,s,NA,s,h,NA,s,559,NA,5583,14019,NA,559,2,legacy,1024,2,48000,-16,experiment,SSSSS,1,odd,11175,178607,NA,216349,NA,229457,5589,164586,NA,221974,5584,230607,230710,231272,230602,230710,Flankertask2,99,60480,108,yes,1024
91.74311927,91.74311927,559.587156,559.587156,black,legacy,legacy,legacy,0,incongruent,uniform,1,undefined,1,s,0,0,0,108,0,108,0,0,0,108,0,108,108,108,108,108,9/17/19 14:52,600,The main experiment item,yes,Flankertask2.osexp,C:/Users/Carolyn/OneDrive,no,mono,no,18,no,white,no,yes,768,legacy,28,79,C:/Users/Carolyn/OneDrive/cp-subject-1.csv,legacy,Kafkaesque Koffka,3.2.8,0,s,NA,s,h,NA,s,515,NA,5583,14019,NA,515,2,legacy,1024,2,48000,-16,experiment,HHSHH,1,odd,11175,178607,NA,216349,NA,231324,5589,164586,NA,221974,5584,232475,232578,233096,232470,232578,Flankertask2,100,60995,109,yes,1024
91.81818182,91.81818182,558.8090909,558.8090909,black,legacy,legacy,legacy,0,congruent,uniform,1,undefined,1,h,0,0,0,109,0,109,0,0,0,109,0,109,109,109,109,109,9/17/19 14:52,600,The main experiment item,yes,Flankertask2.osexp,C:/Users/Carolyn/OneDrive,no,mono,no,18,no,white,no,yes,768,legacy,29,79,C:/Users/Carolyn/OneDrive/cp-subject-1.csv,legacy,Kafkaesque Koffka,3.2.8,0,h,NA,s,h,NA,h,474,NA,5583,14019,NA,474,2,legacy,1024,2,48000,-16,experiment,HHHHH,1,odd,11175,178607,NA,216349,NA,233132,5589,164586,NA,221974,5584,234282,234387,234864,234278,234386,Flankertask2,101,61469,110,yes,1024
91.89189189,91.89189189,559.4234234,559.4234234,black,legacy,legacy,legacy,0,incongruent,uniform,1,undefined,1,h,0,0,0,110,0,110,0,0,0,110,0,110,110,110,110,110,9/17/19 14:52,600,The main experiment item,yes,Flankertask2.osexp,C:/Users/Carolyn/OneDrive,no,mono,no,18,no,white,no,yes,768,legacy,30,79,C:/Users/Carolyn/OneDrive/cp-subject-1.csv,legacy,Kafkaesque Koffka,3.2.8,0,h,NA,s,h,NA,h,627,NA,5583,14019,NA,627,2,legacy,1024,2,48000,-16,experiment,SSHSS,1,odd,11175,178607,NA,216349,NA,234899,5589,164586,NA,221974,5584,236051,236154,236784,236046,236154,Flankertask2,102,62096,111,yes,1024
91.07142857,91.07142857,557.7142857,557.7142857,black,legacy,legacy,legacy,0,incongruent,uniform,0,undefined,0,s,0,0,0,111,0,111,0,0,0,111,0,111,111,111,111,111,9/17/19 14:52,600,The main experiment item,yes,Flankertask2.osexp,C:/Users/Carolyn/OneDrive,no,mono,no,18,no,white,no,yes,768,legacy,31,79,C:/Users/Carolyn/OneDrive/cp-subject-1.csv,legacy,Kafkaesque Koffka,3.2.8,0,h,NA,s,h,NA,h,368,NA,5583,14019,NA,368,2,legacy,1024,2,48000,-16,experiment,HHSHH,1,odd,11175,178607,NA,236824,NA,237327,5589,164586,NA,221974,5584,238477,238581,238952,238472,238580,Flankertask2,102,62464,112,yes,1024
91.15044248,91.15044248,556.3274336,556.3274336,black,legacy,legacy,legacy,0,congruent,uniform,1,undefined,1,h,0,0,0,112,0,112,0,0,0,112,0,112,112,112,112,112,9/17/19 14:52,600,The main experiment item,yes,Flankertask2.osexp,C:/Users/Carolyn/OneDrive,no,mono,no,18,no,white,no,yes,768,legacy,32,79,C:/Users/Carolyn/OneDrive/cp-subject-1.csv,legacy,Kafkaesque Koffka,3.2.8,0,h,NA,s,h,NA,h,401,NA,5583,14019,NA,401,2,legacy,1024,2,48000,-16,experiment,HHHHH,1,odd,11175,178607,NA,236824,NA,239494,5589,164586,NA,238991,5584,240645,240748,241152,240640,240748,Flankertask2,103,62865,113,yes,1024
90.35087719,90.35087719,555.9385965,555.9385965,black,legacy,legacy,legacy,0,incongruent,uniform,0,undefined,0,h,0,0,0,113,0,113,0,0,0,113,0,113,113,113,113,113,9/17/19 14:52,600,The main experiment item,yes,Flankertask2.osexp,C:/Users/Carolyn/OneDrive,no,mono,no,18,no,white,no,yes,768,legacy,33,79,C:/Users/Carolyn/OneDrive/cp-subject-1.csv,legacy,Kafkaesque Koffka,3.2.8,0,s,NA,s,h,NA,s,512,NA,5583,14019,NA,512,2,legacy,1024,2,48000,-16,experiment,SSHSS,1,odd,11175,178607,NA,236824,NA,241190,5589,164586,NA,238991,5584,242341,242445,242960,242336,242444,Flankertask2,103,63377,114,yes,1024
90.43478261,90.43478261,554.7304348,554.7304348,black,legacy,legacy,legacy,0,congruent,uniform,1,undefined,1,h,0,0,0,114,0,114,0,0,0,114,0,114,114,114,114,114,9/17/19 14:52,600,The main experiment item,yes,Flankertask2.osexp,C:/Users/Carolyn/OneDrive,no,mono,no,18,no,white,no,yes,768,legacy,34,79,C:/Users/Carolyn/OneDrive/cp-subject-1.csv,legacy,Kafkaesque Koffka,3.2.8,0,h,NA,s,h,NA,h,417,NA,5583,14019,NA,417,2,legacy,1024,2,48000,-16,experiment,HHHHH,1,odd,11175,178607,NA,236824,NA,243502,5589,164586,NA,242999,5584,244653,244756,245176,244648,244756,Flankertask2,104,63794,115,yes,1024
90.51724138,90.51724138,554.8362069,554.8362069,black,legacy,legacy,legacy,0,incongruent,uniform,1,undefined,1,s,0,0,0,115,0,115,0,0,0,115,0,115,115,115,115,115,9/17/19 14:52,600,The main experiment item,yes,Flankertask2.osexp,C:/Users/Carolyn/OneDrive,no,mono,no,18,no,white,no,yes,768,legacy,35,79,C:/Users/Carolyn/OneDrive/cp-subject-1.csv,legacy,Kafkaesque Koffka,3.2.8,0,s,NA,s,h,NA,s,567,NA,5583,14019,NA,567,2,legacy,1024,2,48000,-16,experiment,HHSHH,1,odd,11175,178607,NA,236824,NA,245216,5589,164586,NA,242999,5584,246367,246470,247040,246362,246470,Flankertask2,105,64361,116,yes,1024
90.5982906,90.5982906,555.5299145,555.5299145,black,legacy,legacy,legacy,0,incongruent,uniform,1,undefined,1,s,0,0,0,116,0,116,0,0,0,116,0,116,116,116,116,116,9/17/19 14:52,600,The main experiment item,yes,Flankertask2.osexp,C:/Users/Carolyn/OneDrive,no,mono,no,18,no,white,no,yes,768,legacy,36,79,C:/Users/Carolyn/OneDrive/cp-subject-1.csv,legacy,Kafkaesque Koffka,3.2.8,0,s,NA,s,h,NA,s,636,NA,5583,14019,NA,636,2,legacy,1024,2,48000,-16,experiment,HHSHH,1,odd,11175,178607,NA,236824,NA,247074,5589,164586,NA,242999,5584,248226,248329,248968,248221,248329,Flankertask2,106,64997,117,yes,1024
90.6779661,90.6779661,553.9576271,553.9576271,black,legacy,legacy,legacy,0,incongruent,uniform,1,undefined,1,h,0,0,0,117,0,117,0,0,0,117,0,117,117,117,117,117,9/17/19 14:52,600,The main experiment item,yes,Flankertask2.osexp,C:/Users/Carolyn/OneDrive,no,mono,no,18,no,white,no,yes,768,legacy,37,79,C:/Users/Carolyn/OneDrive/cp-subject-1.csv,legacy,Kafkaesque Koffka,3.2.8,0,h,NA,s,h,NA,h,370,NA,5583,14019,NA,370,2,legacy,1024,2,48000,-16,experiment,SSHSS,1,odd,11175,178607,NA,249007,NA,249511,5589,164586,NA,242999,5584,250660,250763,251136,250655,250763,Flankertask2,107,65367,118,yes,1024
90.75630252,90.75630252,553.5378151,553.5378151,black,legacy,legacy,legacy,0,congruent,uniform,1,undefined,1,s,0,0,0,118,0,118,0,0,0,118,0,118,118,118,118,118,9/17/19 14:52,600,The main experiment item,yes,Flankertask2.osexp,C:/Users/Carolyn/OneDrive,no,mono,no,18,no,white,no,yes,768,legacy,38,79,C:/Users/Carolyn/OneDrive/cp-subject-1.csv,legacy,Kafkaesque Koffka,3.2.8,0,s,NA,s,h,NA,s,504,NA,5583,14019,NA,504,2,legacy,1024,2,48000,-16,experiment,SSSSS,1,odd,11175,178607,NA,249007,NA,251174,5589,164586,NA,242999,5584,252325,252429,252936,252321,252429,Flankertask2,108,65871,119,yes,1024
90.83333333,90.83333333,553.4833333,553.4833333,black,legacy,legacy,legacy,0,congruent,uniform,1,undefined,1,s,0,0,0,119,0,119,0,0,0,119,0,119,119,119,119,119,9/17/19 14:52,600,The main experiment item,yes,Flankertask2.osexp,C:/Users/Carolyn/OneDrive,no,mono,no,18,no,white,no,yes,768,legacy,39,79,C:/Users/Carolyn/OneDrive/cp-subject-1.csv,legacy,Kafkaesque Koffka,3.2.8,0,s,NA,s,h,NA,s,547,NA,5583,14019,NA,547,2,legacy,1024,2,48000,-16,experiment,SSSSS,1,odd,11175,178607,NA,249007,NA,252974,5589,164586,NA,242999,5584,254123,254226,254776,254118,254226,Flankertask2,109,66418,120,yes,1024
90.90909091,90.90909091,553.2644628,553.2644628,black,legacy,legacy,legacy,0,incongruent,uniform,1,undefined,1,s,0,0,0,120,0,120,0,0,0,120,0,120,120,120,120,120,9/17/19 14:52,600,The main experiment item,yes,Flankertask2.osexp,C:/Users/Carolyn/OneDrive,no,mono,no,18,no,white,no,yes,768,legacy,40,79,C:/Users/Carolyn/OneDrive/cp-subject-1.csv,legacy,Kafkaesque Koffka,3.2.8,0,s,NA,s,h,NA,s,527,NA,5583,14019,NA,527,2,legacy,1024,2,48000,-16,experiment,HHSHH,1,odd,11175,178607,NA,249007,NA,254816,5589,164586,NA,242999,5584,255967,256070,256600,255962,256070,Flankertask2,110,66945,121,yes,1024
90.98360656,90.98360656,552.7704918,552.7704918,black,legacy,legacy,legacy,0,incongruent,uniform,1,undefined,1,s,0,0,0,121,0,121,0,0,0,121,0,121,121,121,121,121,9/17/19 14:52,600,The main experiment item,yes,Flankertask2.osexp,C:/Users/Carolyn/OneDrive,no,mono,no,18,no,white,no,yes,768,legacy,41,79,C:/Users/Carolyn/OneDrive/cp-subject-1.csv,legacy,Kafkaesque Koffka,3.2.8,0,s,NA,s,h,NA,s,493,NA,5583,14019,NA,493,2,legacy,1024,2,48000,-16,experiment,HHSHH,1,odd,11175,178607,NA,249007,NA,256641,5589,164586,NA,242999,5584,257792,257896,258392,257787,257895,Flankertask2,111,67438,122,yes,1024
91.05691057,91.05691057,551.6341463,551.6341463,black,legacy,legacy,legacy,0,congruent,uniform,1,undefined,1,s,0,0,0,122,0,122,0,0,0,122,0,122,122,122,122,122,9/17/19 14:52,600,The main experiment item,yes,Flankertask2.osexp,C:/Users/Carolyn/OneDrive,no,mono,no,18,no,white,no,yes,768,legacy,42,79,C:/Users/Carolyn/OneDrive/cp-subject-1.csv,legacy,Kafkaesque Koffka,3.2.8,0,s,NA,s,h,NA,s,413,NA,5583,14019,NA,413,2,legacy,1024,2,48000,-16,experiment,SSSSS,1,odd,11175,178607,NA,249007,NA,258432,5589,164586,NA,242999,5584,259584,259688,260104,259579,259687,Flankertask2,112,67851,123,yes,1024
91.12903226,91.12903226,550.0967742,550.0967742,black,legacy,legacy,legacy,0,congruent,uniform,1,undefined,1,h,0,0,0,123,0,123,0,0,0,123,0,123,123,123,123,123,9/17/19 14:52,600,The main experiment item,yes,Flankertask2.osexp,C:/Users/Carolyn/OneDrive,no,mono,no,18,no,white,no,yes,768,legacy,43,79,C:/Users/Carolyn/OneDrive/cp-subject-1.csv,legacy,Kafkaesque Koffka,3.2.8,0,h,NA,s,h,NA,h,361,NA,5583,14019,NA,361,2,legacy,1024,2,48000,-16,experiment,HHHHH,1,odd,11175,178607,NA,249007,NA,260140,5589,164586,NA,242999,5584,261292,261396,261760,261287,261395,Flankertask2,113,68212,124,yes,1024
91.2,91.2,548.648,548.648,black,legacy,legacy,legacy,0,congruent,uniform,1,undefined,1,h,0,0,0,124,0,124,0,0,0,124,0,124,124,124,124,124,9/17/19 14:52,600,The main experiment item,yes,Flankertask2.osexp,C:/Users/Carolyn/OneDrive,no,mono,no,18,no,white,no,yes,768,legacy,44,79,C:/Users/Carolyn/OneDrive/cp-subject-1.csv,legacy,Kafkaesque Koffka,3.2.8,0,h,NA,s,h,NA,h,369,NA,5583,14019,NA,369,2,legacy,1024,2,48000,-16,experiment,HHHHH,1,odd,11175,178607,NA,249007,NA,261799,5589,164586,NA,242999,5584,262949,263052,263424,262944,263052,Flankertask2,114,68581,125,yes,1024
91.26984127,91.26984127,547.4603175,547.4603175,black,legacy,legacy,legacy,0,congruent,uniform,1,undefined,1,h,0,0,0,125,0,125,0,0,0,125,0,125,125,125,125,125,9/17/19 14:52,600,The main experiment item,yes,Flankertask2.osexp,C:/Users/Carolyn/OneDrive,no,mono,no,18,no,white,no,yes,768,legacy,45,79,C:/Users/Carolyn/OneDrive/cp-subject-1.csv,legacy,Kafkaesque Koffka,3.2.8,0,h,NA,s,h,NA,h,399,NA,5583,14019,NA,399,2,legacy,1024,2,48000,-16,experiment,HHHHH,1,odd,11175,178607,NA,249007,NA,263457,5589,164586,NA,242999,5584,264607,264710,265112,264603,264710,Flankertask2,115,68980,126,yes,1024
91.33858268,91.33858268,547.6771654,547.6771654,black,legacy,legacy,legacy,0,incongruent,uniform,1,undefined,1,h,0,0,0,126,0,126,0,0,0,126,0,126,126,126,126,126,9/17/19 14:52,600,The main experiment item,yes,Flankertask2.osexp,C:/Users/Carolyn/OneDrive,no,mono,no,18,no,white,no,yes,768,legacy,46,79,C:/Users/Carolyn/OneDrive/cp-subject-1.csv,legacy,Kafkaesque Koffka,3.2.8,0,h,NA,s,h,NA,h,575,NA,5583,14019,NA,575,2,legacy,1024,2,48000,-16,experiment,SSHSS,1,odd,11175,178607,NA,249007,NA,265149,5589,164586,NA,242999,5584,266302,266406,266984,266298,266405,Flankertask2,116,69555,127,yes,1024
91.40625,91.40625,547.203125,547.203125,black,legacy,legacy,legacy,0,congruent,uniform,1,undefined,1,s,0,0,0,127,0,127,0,0,0,127,0,127,127,127,127,127,9/17/19 14:52,600,The main experiment item,yes,Flankertask2.osexp,C:/Users/Carolyn/OneDrive,no,mono,no,18,no,white,no,yes,768,legacy,47,79,C:/Users/Carolyn/OneDrive/cp-subject-1.csv,legacy,Kafkaesque Koffka,3.2.8,0,s,NA,s,h,NA,s,487,NA,5583,14019,NA,487,2,legacy,1024,2,48000,-16,experiment,SSSSS,1,odd,11175,178607,NA,249007,NA,267024,5589,164586,NA,242999,5584,268174,268278,268768,268169,268277,Flankertask2,117,70042,128,yes,1024
91.47286822,91.47286822,545.7054264,545.7054264,black,legacy,legacy,legacy,0,congruent,uniform,1,undefined,1,s,0,0,0,128,0,128,0,0,0,128,0,128,128,128,128,128,9/17/19 14:52,600,The main experiment item,yes,Flankertask2.osexp,C:/Users/Carolyn/OneDrive,no,mono,no,18,no,white,no,yes,768,legacy,48,79,C:/Users/Carolyn/OneDrive/cp-subject-1.csv,legacy,Kafkaesque Koffka,3.2.8,0,s,NA,s,h,NA,s,354,NA,5583,14019,NA,354,2,legacy,1024,2,48000,-16,experiment,SSSSS,1,odd,11175,178607,NA,249007,NA,268807,5589,164586,NA,242999,5584,269956,270059,270416,269951,270059,Flankertask2,118,70396,129,yes,1024
90.76923077,90.76923077,544.5692308,544.5692308,black,legacy,legacy,legacy,0,incongruent,uniform,0,undefined,0,h,0,0,0,129,0,129,0,0,0,129,0,129,129,129,129,129,9/17/19 14:52,600,The main experiment item,yes,Flankertask2.osexp,C:/Users/Carolyn/OneDrive,no,mono,no,18,no,white,no,yes,768,legacy,49,79,C:/Users/Carolyn/OneDrive/cp-subject-1.csv,legacy,Kafkaesque Koffka,3.2.8,0,s,NA,s,h,NA,s,398,NA,5583,14019,NA,398,2,legacy,1024,2,48000,-16,experiment,SSHSS,1,odd,11175,178607,NA,249007,NA,270457,5589,164586,NA,242999,5584,271608,271711,272112,271603,271711,Flankertask2,118,70794,130,yes,1024
90.83969466,90.83969466,543.4351145,543.4351145,black,legacy,legacy,legacy,0,congruent,uniform,1,undefined,1,s,0,0,0,130,0,130,0,0,0,130,0,130,130,130,130,130,9/17/19 14:52,600,The main experiment item,yes,Flankertask2.osexp,C:/Users/Carolyn/OneDrive,no,mono,no,18,no,white,no,yes,768,legacy,50,79,C:/Users/Carolyn/OneDrive/cp-subject-1.csv,legacy,Kafkaesque Koffka,3.2.8,0,s,NA,s,h,NA,s,396,NA,5583,14019,NA,396,2,legacy,1024,2,48000,-16,experiment,SSSSS,1,odd,11175,178607,NA,249007,NA,272660,5589,164586,NA,272157,5584,273810,273913,274312,273805,273913,Flankertask2,119,71190,131,yes,1024
90.90909091,90.90909091,542.969697,542.969697,black,legacy,legacy,legacy,0,congruent,uniform,1,undefined,1,s,0,0,0,131,0,131,0,0,0,131,0,131,131,131,131,131,9/17/19 14:52,600,The main experiment item,yes,Flankertask2.osexp,C:/Users/Carolyn/OneDrive,no,mono,no,18,no,white,no,yes,768,legacy,51,79,C:/Users/Carolyn/OneDrive/cp-subject-1.csv,legacy,Kafkaesque Koffka,3.2.8,0,s,NA,s,h,NA,s,482,NA,5583,14019,NA,482,2,legacy,1024,2,48000,-16,experiment,SSSSS,1,odd,11175,178607,NA,249007,NA,274357,5589,164586,NA,272157,5584,275508,275611,276096,275503,275611,Flankertask2,120,71672,132,yes,1024
90.97744361,90.97744361,542.5714286,542.5714286,black,legacy,legacy,legacy,0,incongruent,uniform,1,undefined,1,s,0,0,0,132,0,132,0,0,0,132,0,132,132,132,132,132,9/17/19 14:52,600,The main experiment item,yes,Flankertask2.osexp,C:/Users/Carolyn/OneDrive,no,mono,no,18,no,white,no,yes,768,legacy,52,79,C:/Users/Carolyn/OneDrive/cp-subject-1.csv,legacy,Kafkaesque Koffka,3.2.8,0,s,NA,s,h,NA,s,490,NA,5583,14019,NA,490,2,legacy,1024,2,48000,-16,experiment,HHSHH,1,odd,11175,178607,NA,249007,NA,276140,5589,164586,NA,272157,5584,277291,277395,277888,277287,277395,Flankertask2,121,72162,133,yes,1024
91.04477612,91.04477612,542.4104478,542.4104478,black,legacy,legacy,legacy,0,incongruent,uniform,1,undefined,1,s,0,0,0,133,0,133,0,0,0,133,0,133,133,133,133,133,9/17/19 14:52,600,The main experiment item,yes,Flankertask2.osexp,C:/Users/Carolyn/OneDrive,no,mono,no,18,no,white,no,yes,768,legacy,53,79,C:/Users/Carolyn/OneDrive/cp-subject-1.csv,legacy,Kafkaesque Koffka,3.2.8,0,s,NA,s,h,NA,s,521,NA,5583,14019,NA,521,2,legacy,1024,2,48000,-16,experiment,HHSHH,1,odd,11175,178607,NA,249007,NA,277932,5589,164586,NA,272157,5584,279084,279188,279712,279080,279188,Flankertask2,122,72683,134,yes,1024
91.11111111,91.11111111,541.7407407,541.7407407,black,legacy,legacy,legacy,0,incongruent,uniform,1,undefined,1,h,0,0,0,134,0,134,0,0,0,134,0,134,134,134,134,134,9/17/19 14:52,600,The main experiment item,yes,Flankertask2.osexp,C:/Users/Carolyn/OneDrive,no,mono,no,18,no,white,no,yes,768,legacy,54,79,C:/Users/Carolyn/OneDrive/cp-subject-1.csv,legacy,Kafkaesque Koffka,3.2.8,0,h,NA,s,h,NA,h,452,NA,5583,14019,NA,452,2,legacy,1024,2,48000,-16,experiment,SSHSS,1,odd,11175,178607,NA,249007,NA,279757,5589,164586,NA,272157,5584,280906,281009,281464,280902,281009,Flankertask2,123,73135,135,yes,1024
90.44117647,90.44117647,540.4926471,540.4926471,black,legacy,legacy,legacy,0,incongruent,uniform,0,undefined,0,s,0,0,0,135,0,135,0,0,0,135,0,135,135,135,135,135,9/17/19 14:52,600,The main experiment item,yes,Flankertask2.osexp,C:/Users/Carolyn/OneDrive,no,mono,no,18,no,white,no,yes,768,legacy,55,79,C:/Users/Carolyn/OneDrive/cp-subject-1.csv,legacy,Kafkaesque Koffka,3.2.8,0,h,NA,s,h,NA,h,372,NA,5583,14019,NA,372,2,legacy,1024,2,48000,-16,experiment,HHSHH,1,odd,11175,178607,NA,249007,NA,281507,5589,164586,NA,272157,5584,282658,282761,283137,282653,282761,Flankertask2,123,73507,136,yes,1024
90.51094891,90.51094891,540.0145985,540.0145985,black,legacy,legacy,legacy,0,congruent,uniform,1,undefined,1,s,0,0,0,136,0,136,0,0,0,136,0,136,136,136,136,136,9/17/19 14:52,600,The main experiment item,yes,Flankertask2.osexp,C:/Users/Carolyn/OneDrive,no,mono,no,18,no,white,no,yes,768,legacy,56,79,C:/Users/Carolyn/OneDrive/cp-subject-1.csv,legacy,Kafkaesque Koffka,3.2.8,0,s,NA,s,h,NA,s,475,NA,5583,14019,NA,475,2,legacy,1024,2,48000,-16,experiment,SSSSS,1,odd,11175,178607,NA,249007,NA,283685,5589,164586,NA,283182,5584,284834,284938,285416,284830,284938,Flankertask2,124,73982,137,yes,1024
90.57971014,90.57971014,540.1594203,540.1594203,black,legacy,legacy,legacy,0,incongruent,uniform,1,undefined,1,h,0,0,0,137,0,137,0,0,0,137,0,137,137,137,137,137,9/17/19 14:52,600,The main experiment item,yes,Flankertask2.osexp,C:/Users/Carolyn/OneDrive,no,mono,no,18,no,white,no,yes,768,legacy,57,79,C:/Users/Carolyn/OneDrive/cp-subject-1.csv,legacy,Kafkaesque Koffka,3.2.8,0,h,NA,s,h,NA,h,560,NA,5583,14019,NA,560,2,legacy,1024,2,48000,-16,experiment,SSHSS,1,odd,11175,178607,NA,249007,NA,285457,5589,164586,NA,283182,5584,286606,286709,287272,286601,286709,Flankertask2,125,74542,138,yes,1024
90.64748201,90.64748201,539.2230216,539.2230216,black,legacy,legacy,legacy,0,incongruent,uniform,1,undefined,1,s,0,0,0,138,0,138,0,0,0,138,0,138,138,138,138,138,9/17/19 14:52,600,The main experiment item,yes,Flankertask2.osexp,C:/Users/Carolyn/OneDrive,no,mono,no,18,no,white,no,yes,768,legacy,58,79,C:/Users/Carolyn/OneDrive/cp-subject-1.csv,legacy,Kafkaesque Koffka,3.2.8,0,s,NA,s,h,NA,s,410,NA,5583,14019,NA,410,2,legacy,1024,2,48000,-16,experiment,HHSHH,1,odd,11175,178607,NA,249007,NA,287316,5589,164586,NA,283182,5584,288467,288571,288984,288462,288570,Flankertask2,126,74952,139,yes,1024
90.71428571,90.71428571,538.5785714,538.5785714,black,legacy,legacy,legacy,0,incongruent,uniform,1,undefined,1,h,0,0,0,139,0,139,0,0,0,139,0,139,139,139,139,139,9/17/19 14:52,600,The main experiment item,yes,Flankertask2.osexp,C:/Users/Carolyn/OneDrive,no,mono,no,18,no,white,no,yes,768,legacy,59,79,C:/Users/Carolyn/OneDrive/cp-subject-1.csv,legacy,Kafkaesque Koffka,3.2.8,0,h,NA,s,h,NA,h,449,NA,5583,14019,NA,449,2,legacy,1024,2,48000,-16,experiment,SSHSS,1,odd,11175,178607,NA,249007,NA,289024,5589,164586,NA,283182,5584,290172,290276,290728,290168,290276,Flankertask2,127,75401,140,yes,1024
90.78014184,90.78014184,538.9361702,538.9361702,black,legacy,legacy,legacy,0,incongruent,uniform,1,undefined,1,h,0,0,0,140,0,140,0,0,0,140,0,140,140,140,140,140,9/17/19 14:52,600,The main experiment item,yes,Flankertask2.osexp,C:/Users/Carolyn/OneDrive,no,mono,no,18,no,white,no,yes,768,legacy,60,79,C:/Users/Carolyn/OneDrive/cp-subject-1.csv,legacy,Kafkaesque Koffka,3.2.8,0,h,NA,s,h,NA,h,589,NA,5583,14019,NA,589,2,legacy,1024,2,48000,-16,experiment,SSHSS,1,odd,11175,178607,NA,249007,NA,290765,5589,164586,NA,283182,5584,291913,292016,292608,291908,292016,Flankertask2,128,75990,141,yes,1024
90.84507042,90.84507042,538.3028169,538.3028169,black,legacy,legacy,legacy,0,congruent,uniform,1,undefined,1,h,0,0,0,141,0,141,0,0,0,141,0,141,141,141,141,141,9/17/19 14:52,600,The main experiment item,yes,Flankertask2.osexp,C:/Users/Carolyn/OneDrive,no,mono,no,18,no,white,no,yes,768,legacy,61,79,C:/Users/Carolyn/OneDrive/cp-subject-1.csv,legacy,Kafkaesque Koffka,3.2.8,0,h,NA,s,h,NA,h,449,NA,5583,14019,NA,449,2,legacy,1024,2,48000,-16,experiment,HHHHH,1,odd,11175,178607,NA,249007,NA,292648,5589,164586,NA,283182,5584,293797,293900,294352,293792,293900,Flankertask2,129,76439,142,yes,1024
90.90909091,90.90909091,538.7972028,538.7972028,black,legacy,legacy,legacy,0,congruent,uniform,1,undefined,1,h,0,0,0,142,0,142,0,0,0,142,0,142,142,142,142,142,9/17/19 14:52,600,The main experiment item,yes,Flankertask2.osexp,C:/Users/Carolyn/OneDrive,no,mono,no,18,no,white,no,yes,768,legacy,62,79,C:/Users/Carolyn/OneDrive/cp-subject-1.csv,legacy,Kafkaesque Koffka,3.2.8,0,h,NA,s,h,NA,h,609,NA,5583,14019,NA,609,2,legacy,1024,2,48000,-16,experiment,HHHHH,1,odd,11175,178607,NA,249007,NA,294390,5589,164586,NA,283182,5584,295540,295644,296256,295536,295644,Flankertask2,130,77048,143,yes,1024
90.97222222,90.97222222,539.9861111,539.9861111,black,legacy,legacy,legacy,0,congruent,uniform,1,undefined,1,s,0,0,0,143,0,143,0,0,0,143,0,143,143,143,143,143,9/17/19 14:52,600,The main experiment item,yes,Flankertask2.osexp,C:/Users/Carolyn/OneDrive,no,mono,no,18,no,white,no,yes,768,legacy,63,79,C:/Users/Carolyn/OneDrive/cp-subject-1.csv,legacy,Kafkaesque Koffka,3.2.8,0,s,NA,s,h,NA,s,710,NA,5583,14019,NA,710,2,legacy,1024,2,48000,-16,experiment,SSSSS,1,odd,11175,178607,NA,296290,NA,296794,5589,164586,NA,283182,5584,297942,298047,298761,297938,298046,Flankertask2,131,77758,144,yes,1024
91.03448276,91.03448276,539.1448276,539.1448276,black,legacy,legacy,legacy,0,incongruent,uniform,1,undefined,1,s,0,0,0,144,0,144,0,0,0,144,0,144,144,144,144,144,9/17/19 14:52,600,The main experiment item,yes,Flankertask2.osexp,C:/Users/Carolyn/OneDrive,no,mono,no,18,no,white,no,yes,768,legacy,64,79,C:/Users/Carolyn/OneDrive/cp-subject-1.csv,legacy,Kafkaesque Koffka,3.2.8,0,s,NA,s,h,NA,s,418,NA,5583,14019,NA,418,2,legacy,1024,2,48000,-16,experiment,HHSHH,1,odd,11175,178607,NA,298798,NA,299301,5589,164586,NA,283182,5584,300451,300555,300976,300446,300554,Flankertask2,132,78176,145,yes,1024
91.09589041,91.09589041,538.5205479,538.5205479,black,legacy,legacy,legacy,0,incongruent,uniform,1,undefined,1,h,0,0,0,145,0,145,0,0,0,145,0,145,145,145,145,145,9/17/19 14:52,600,The main experiment item,yes,Flankertask2.osexp,C:/Users/Carolyn/OneDrive,no,mono,no,18,no,white,no,yes,768,legacy,65,79,C:/Users/Carolyn/OneDrive/cp-subject-1.csv,legacy,Kafkaesque Koffka,3.2.8,0,h,NA,s,h,NA,h,448,NA,5583,14019,NA,448,2,legacy,1024,2,48000,-16,experiment,SSHSS,1,odd,11175,178607,NA,298798,NA,301032,5589,164586,NA,283182,5584,302182,302285,302736,302177,302285,Flankertask2,133,78624,146,yes,1024
91.15646259,91.15646259,538.0408163,538.0408163,black,legacy,legacy,legacy,0,incongruent,uniform,1,undefined,1,h,0,0,0,146,0,146,0,0,0,146,0,146,146,146,146,146,9/17/19 14:52,600,The main experiment item,yes,Flankertask2.osexp,C:/Users/Carolyn/OneDrive,no,mono,no,18,no,white,no,yes,768,legacy,66,79,C:/Users/Carolyn/OneDrive/cp-subject-1.csv,legacy,Kafkaesque Koffka,3.2.8,0,h,NA,s,h,NA,h,468,NA,5583,14019,NA,468,2,legacy,1024,2,48000,-16,experiment,SSHSS,1,odd,11175,178607,NA,298798,NA,302781,5589,164586,NA,283182,5584,303930,304033,304504,303925,304033,Flankertask2,134,79092,147,yes,1024
91.21621622,91.21621622,538.1621622,538.1621622,black,legacy,legacy,legacy,0,incongruent,uniform,1,undefined,1,h,0,0,0,147,0,147,0,0,0,147,0,147,147,147,147,147,9/17/19 14:52,600,The main experiment item,yes,Flankertask2.osexp,C:/Users/Carolyn/OneDrive,no,mono,no,18,no,white,no,yes,768,legacy,67,79,C:/Users/Carolyn/OneDrive/cp-subject-1.csv,legacy,Kafkaesque Koffka,3.2.8,0,h,NA,s,h,NA,h,556,NA,5583,14019,NA,556,2,legacy,1024,2,48000,-16,experiment,SSHSS,1,odd,11175,178607,NA,298798,NA,304540,5589,164586,NA,283182,5584,305689,305793,306352,305684,305792,Flankertask2,135,79648,148,yes,1024
91.27516779,91.27516779,538.7583893,538.7583893,black,legacy,legacy,legacy,0,congruent,uniform,1,undefined,1,s,0,0,0,148,0,148,0,0,0,148,0,148,148,148,148,148,9/17/19 14:52,600,The main experiment item,yes,Flankertask2.osexp,C:/Users/Carolyn/OneDrive,no,mono,no,18,no,white,no,yes,768,legacy,68,79,C:/Users/Carolyn/OneDrive/cp-subject-1.csv,legacy,Kafkaesque Koffka,3.2.8,0,s,NA,s,h,NA,s,627,NA,5583,14019,NA,627,2,legacy,1024,2,48000,-16,experiment,SSSSS,1,odd,11175,178607,NA,298798,NA,306390,5589,164586,NA,283182,5584,307539,307642,308272,307534,307642,Flankertask2,136,80275,149,yes,1024
91.33333333,91.33333333,538.0533333,538.0533333,black,legacy,legacy,legacy,0,congruent,uniform,1,undefined,1,s,0,0,0,149,0,149,0,0,0,149,0,149,149,149,149,149,9/17/19 14:52,600,The main experiment item,yes,Flankertask2.osexp,C:/Users/Carolyn/OneDrive,no,mono,no,18,no,white,no,yes,768,legacy,69,79,C:/Users/Carolyn/OneDrive/cp-subject-1.csv,legacy,Kafkaesque Koffka,3.2.8,0,s,NA,s,h,NA,s,433,NA,5583,14019,NA,433,2,legacy,1024,2,48000,-16,experiment,SSSSS,1,odd,11175,178607,NA,308306,NA,308809,5589,164586,NA,283182,5584,309957,310060,310496,309952,310060,Flankertask2,137,80708,150,yes,1024
91.39072848,91.39072848,538.384106,538.384106,black,legacy,legacy,legacy,0,incongruent,uniform,1,undefined,1,s,0,0,0,150,0,150,0,0,0,150,0,150,150,150,150,150,9/17/19 14:52,600,The main experiment item,yes,Flankertask2.osexp,C:/Users/Carolyn/OneDrive,no,mono,no,18,no,white,no,yes,768,legacy,70,79,C:/Users/Carolyn/OneDrive/cp-subject-1.csv,legacy,Kafkaesque Koffka,3.2.8,0,s,NA,s,h,NA,s,588,NA,5583,14019,NA,588,2,legacy,1024,2,48000,-16,experiment,HHSHH,1,odd,11175,178607,NA,308306,NA,310573,5589,164586,NA,283182,5584,311722,311825,312416,311718,311825,Flankertask2,138,81296,151,yes,1024
91.44736842,91.44736842,538.2039474,538.2039474,black,legacy,legacy,legacy,0,congruent,uniform,1,undefined,1,s,0,0,0,151,0,151,0,0,0,151,0,151,151,151,151,151,9/17/19 14:52,600,The main experiment item,yes,Flankertask2.osexp,C:/Users/Carolyn/OneDrive,no,mono,no,18,no,white,no,yes,768,legacy,71,79,C:/Users/Carolyn/OneDrive/cp-subject-1.csv,legacy,Kafkaesque Koffka,3.2.8,0,s,NA,s,h,NA,s,511,NA,5583,14019,NA,511,2,legacy,1024,2,48000,-16,experiment,SSSSS,1,odd,11175,178607,NA,308306,NA,312456,5589,164586,NA,283182,5584,313607,313710,314224,313602,313710,Flankertask2,139,81807,152,yes,1024
91.50326797,91.50326797,537.869281,537.869281,black,legacy,legacy,legacy,0,congruent,uniform,1,undefined,1,h,0,0,0,152,0,152,0,0,0,152,0,152,152,152,152,152,9/17/19 14:52,600,The main experiment item,yes,Flankertask2.osexp,C:/Users/Carolyn/OneDrive,no,mono,no,18,no,white,no,yes,768,legacy,72,79,C:/Users/Carolyn/OneDrive/cp-subject-1.csv,legacy,Kafkaesque Koffka,3.2.8,0,h,NA,s,h,NA,h,487,NA,5583,14019,NA,487,2,legacy,1024,2,48000,-16,experiment,HHHHH,1,odd,11175,178607,NA,308306,NA,314265,5589,164586,NA,283182,5584,315415,315518,316008,315410,315518,Flankertask2,140,82294,153,yes,1024
91.55844156,91.55844156,538.1298701,538.1298701,black,legacy,legacy,legacy,0,incongruent,uniform,1,undefined,1,s,0,0,0,153,0,153,0,0,0,153,0,153,153,153,153,153,9/17/19 14:52,600,The main experiment item,yes,Flankertask2.osexp,C:/Users/Carolyn/OneDrive,no,mono,no,18,no,white,no,yes,768,legacy,73,79,C:/Users/Carolyn/OneDrive/cp-subject-1.csv,legacy,Kafkaesque Koffka,3.2.8,0,s,NA,s,h,NA,s,578,NA,5583,14019,NA,578,2,legacy,1024,2,48000,-16,experiment,HHSHH,1,odd,11175,178607,NA,308306,NA,316048,5589,164586,NA,283182,5584,317196,317299,317880,317191,317299,Flankertask2,141,82872,154,yes,1024
91.61290323,91.61290323,538.0516129,538.0516129,black,legacy,legacy,legacy,0,congruent,uniform,1,undefined,1,s,0,0,0,154,0,154,0,0,0,154,0,154,154,154,154,154,9/17/19 14:52,600,The main experiment item,yes,Flankertask2.osexp,C:/Users/Carolyn/OneDrive,no,mono,no,18,no,white,no,yes,768,legacy,74,79,C:/Users/Carolyn/OneDrive/cp-subject-1.csv,legacy,Kafkaesque Koffka,3.2.8,0,s,NA,s,h,NA,s,526,NA,5583,14019,NA,526,2,legacy,1024,2,48000,-16,experiment,SSSSS,1,odd,11175,178607,NA,308306,NA,317915,5589,164586,NA,283182,5584,319064,319167,319696,319059,319167,Flankertask2,142,83398,155,yes,1024
91.66666667,91.66666667,538.3269231,538.3269231,black,legacy,legacy,legacy,0,congruent,uniform,1,undefined,1,h,0,0,0,155,0,155,0,0,0,155,0,155,155,155,155,155,9/17/19 14:52,600,The main experiment item,yes,Flankertask2.osexp,C:/Users/Carolyn/OneDrive,no,mono,no,18,no,white,no,yes,768,legacy,75,79,C:/Users/Carolyn/OneDrive/cp-subject-1.csv,legacy,Kafkaesque Koffka,3.2.8,0,h,NA,s,h,NA,h,581,NA,5583,14019,NA,581,2,legacy,1024,2,48000,-16,experiment,HHHHH,1,odd,11175,178607,NA,308306,NA,319732,5589,164586,NA,283182,5584,320881,320984,321568,320876,320984,Flankertask2,143,83979,156,yes,1024
91.71974522,91.71974522,538.7898089,538.7898089,black,legacy,legacy,legacy,0,incongruent,uniform,1,undefined,1,h,0,0,0,156,0,156,0,0,0,156,0,156,156,156,156,156,9/17/19 14:52,600,The main experiment item,yes,Flankertask2.osexp,C:/Users/Carolyn/OneDrive,no,mono,no,18,no,white,no,yes,768,legacy,76,79,C:/Users/Carolyn/OneDrive/cp-subject-1.csv,legacy,Kafkaesque Koffka,3.2.8,0,h,NA,s,h,NA,h,611,NA,5583,14019,NA,611,2,legacy,1024,2,48000,-16,experiment,SSHSS,1,odd,11175,178607,NA,308306,NA,321606,5589,164586,NA,283182,5584,322755,322858,323472,322750,322858,Flankertask2,144,84590,157,yes,1024
91.7721519,91.7721519,539.2151899,539.2151899,black,legacy,legacy,legacy,0,congruent,uniform,1,undefined,1,s,0,0,0,157,0,157,0,0,0,157,0,157,157,157,157,157,9/17/19 14:52,600,The main experiment item,yes,Flankertask2.osexp,C:/Users/Carolyn/OneDrive,no,mono,no,18,no,white,no,yes,768,legacy,77,79,C:/Users/Carolyn/OneDrive/cp-subject-1.csv,legacy,Kafkaesque Koffka,3.2.8,0,s,NA,s,h,NA,s,606,NA,5583,14019,NA,606,2,legacy,1024,2,48000,-16,experiment,SSSSS,1,odd,11175,178607,NA,323506,NA,324010,5589,164586,NA,283182,5584,325160,325263,325872,325156,325263,Flankertask2,145,85196,158,yes,1024
91.19496855,91.19496855,538.2389937,538.2389937,black,legacy,legacy,legacy,0,incongruent,uniform,0,undefined,0,s,0,0,0,158,0,158,0,0,0,158,0,158,158,158,158,158,9/17/19 14:52,600,The main experiment item,yes,Flankertask2.osexp,C:/Users/Carolyn/OneDrive,no,mono,no,18,no,white,no,yes,768,legacy,78,79,C:/Users/Carolyn/OneDrive/cp-subject-1.csv,legacy,Kafkaesque Koffka,3.2.8,0,h,NA,s,h,NA,h,384,NA,5583,14019,NA,384,2,legacy,1024,2,48000,-16,experiment,HHSHH,1,odd,11175,178607,NA,325906,NA,326409,5589,164586,NA,283182,5584,327558,327661,328048,327553,327661,Flankertask2,145,85580,159,yes,1024
91.25,91.25,537.81875,537.81875,black,legacy,legacy,legacy,0,incongruent,uniform,1,undefined,1,h,0,0,0,159,0,159,0,0,0,159,0,159,159,159,159,159,9/17/19 14:52,600,The main experiment item,yes,Flankertask2.osexp,C:/Users/Carolyn/OneDrive,no,mono,no,18,no,white,no,yes,768,legacy,79,79,C:/Users/Carolyn/OneDrive/cp-subject-1.csv,legacy,Kafkaesque Koffka,3.2.8,0,h,NA,s,h,NA,h,471,NA,5583,14019,NA,471,2,legacy,1024,2,48000,-16,experiment,SSHSS,1,odd,11175,178607,NA,325906,NA,328585,5589,164586,NA,328081,5584,329734,329838,330312,329729,329837,Flankertask2,146,86051,160,yes,1024
91.30434783,91.30434783,537.0807453,537.0807453,black,legacy,legacy,legacy,0,congruent,uniform,1,undefined,1,h,0,0,0,160,0,160,0,0,0,160,0,160,160,160,160,160,9/17/19 14:52,300,The main experiment item,yes,Flankertask2.osexp,C:/Users/Carolyn/OneDrive,no,mono,no,18,no,white,no,yes,768,legacy,0,79,C:/Users/Carolyn/OneDrive/cp-subject-1.csv,legacy,Kafkaesque Koffka,3.2.8,0,h,NA,s,h,h,h,419,NA,5583,14019,62172,419,2,legacy,1024,2,48000,-16,experiment,HHHHH,1,odd,11175,178607,393577,325906,NA,330373,5589,164586,331401,328081,5584,393722,393826,394248,393718,393825,Flankertask2,147,86470,161,yes,1024
90.74074074,90.74074074,535.8765432,535.8765432,black,legacy,legacy,legacy,0,incongruent,uniform,0,undefined,0,s,0,0,0,161,0,161,0,0,0,161,0,161,161,161,161,161,9/17/19 14:52,300,The main experiment item,yes,Flankertask2.osexp,C:/Users/Carolyn/OneDrive,no,mono,no,18,no,white,no,yes,768,legacy,1,79,C:/Users/Carolyn/OneDrive/cp-subject-1.csv,legacy,Kafkaesque Koffka,3.2.8,0,h,NA,s,h,h,h,342,NA,5583,14019,62172,342,2,legacy,1024,2,48000,-16,experiment,HHSHH,1,odd,11175,178607,393577,394289,NA,394792,5589,164586,331401,328081,5584,395942,396047,396392,395938,396046,Flankertask2,147,86812,162,yes,1024
90.18404908,90.18404908,535.3067485,535.3067485,black,legacy,legacy,legacy,0,incongruent,uniform,0,undefined,0,h,0,0,0,162,0,162,0,0,0,162,0,162,162,162,162,162,9/17/19 14:52,300,The main experiment item,yes,Flankertask2.osexp,C:/Users/Carolyn/OneDrive,no,mono,no,18,no,white,no,yes,768,legacy,2,79,C:/Users/Carolyn/OneDrive/cp-subject-1.csv,legacy,Kafkaesque Koffka,3.2.8,0,s,NA,s,h,h,s,443,NA,5583,14019,62172,443,2,legacy,1024,2,48000,-16,experiment,SSHSS,1,odd,11175,178607,393577,396933,NA,397437,5589,164586,331401,396430,5584,398586,398690,399136,398582,398690,Flankertask2,147,87255,163,yes,1024
90.24390244,90.24390244,533.9817073,533.9817073,black,legacy,legacy,legacy,0,incongruent,uniform,1,undefined,1,h,0,0,0,163,0,163,0,0,0,163,0,163,163,163,163,163,9/17/19 14:52,300,The main experiment item,yes,Flankertask2.osexp,C:/Users/Carolyn/OneDrive,no,mono,no,18,no,white,no,yes,768,legacy,3,79,C:/Users/Carolyn/OneDrive/cp-subject-1.csv,legacy,Kafkaesque Koffka,3.2.8,0,h,NA,s,h,h,h,318,NA,5583,14019,62172,318,2,legacy,1024,2,48000,-16,experiment,SSHSS,1,odd,11175,178607,393577,399676,NA,400179,5589,164586,331401,399173,5584,401328,401431,401752,401323,401431,Flankertask2,148,87573,164,yes,1024
90.3030303,90.3030303,532.9515152,532.9515152,black,legacy,legacy,legacy,0,incongruent,uniform,1,undefined,1,h,0,0,0,164,0,164,0,0,0,164,0,164,164,164,164,164,9/17/19 14:52,300,The main experiment item,yes,Flankertask2.osexp,C:/Users/Carolyn/OneDrive,no,mono,no,18,no,white,no,yes,768,legacy,4,79,C:/Users/Carolyn/OneDrive/cp-subject-1.csv,legacy,Kafkaesque Koffka,3.2.8,0,h,NA,s,h,h,h,364,NA,5583,14019,62172,364,2,legacy,1024,2,48000,-16,experiment,SSHSS,1,odd,11175,178607,393577,401789,NA,402292,5589,164586,331401,399173,5584,403441,403545,403912,403436,403544,Flankertask2,149,87937,165,yes,1024
90.36144578,90.36144578,532.5783133,532.5783133,black,legacy,legacy,legacy,0,incongruent,uniform,1,undefined,1,s,0,0,0,165,0,165,0,0,0,165,0,165,165,165,165,165,9/17/19 14:52,300,The main experiment item,yes,Flankertask2.osexp,C:/Users/Carolyn/OneDrive,no,mono,no,18,no,white,no,yes,768,legacy,5,79,C:/Users/Carolyn/OneDrive/cp-subject-1.csv,legacy,Kafkaesque Koffka,3.2.8,0,s,NA,s,h,h,s,471,NA,5583,14019,62172,471,2,legacy,1024,2,48000,-16,experiment,HHSHH,1,odd,11175,178607,393577,403947,NA,404450,5589,164586,331401,399173,5584,405599,405702,406176,405594,405702,Flankertask2,150,88408,166,yes,1024
89.82035928,89.82035928,531.4610778,531.4610778,black,legacy,legacy,legacy,0,incongruent,uniform,0,undefined,0,s,0,0,0,166,0,166,0,0,0,166,0,166,166,166,166,166,9/17/19 14:52,300,The main experiment item,yes,Flankertask2.osexp,C:/Users/Carolyn/OneDrive,no,mono,no,18,no,white,no,yes,768,legacy,6,79,C:/Users/Carolyn/OneDrive/cp-subject-1.csv,legacy,Kafkaesque Koffka,3.2.8,0,h,NA,s,h,h,h,346,NA,5583,14019,62172,346,2,legacy,1024,2,48000,-16,experiment,HHSHH,1,odd,11175,178607,393577,406214,NA,406717,5589,164586,331401,399173,5584,407867,407971,408320,407862,407970,Flankertask2,150,88754,167,yes,1024
89.88095238,89.88095238,531.4285714,531.4285714,black,legacy,legacy,legacy,0,congruent,uniform,1,undefined,1,s,0,0,0,167,0,167,0,0,0,167,0,167,167,167,167,167,9/17/19 14:52,300,The main experiment item,yes,Flankertask2.osexp,C:/Users/Carolyn/OneDrive,no,mono,no,18,no,white,no,yes,768,legacy,7,79,C:/Users/Carolyn/OneDrive/cp-subject-1.csv,legacy,Kafkaesque Koffka,3.2.8,0,s,NA,s,h,h,s,526,NA,5583,14019,62172,526,2,legacy,1024,2,48000,-16,experiment,SSSSS,1,odd,11175,178607,393577,408859,NA,409362,5589,164586,331401,408355,5584,410511,410615,411144,410506,410614,Flankertask2,151,89280,168,yes,1024
89.34911243,89.34911243,531.4378698,531.4378698,black,legacy,legacy,legacy,0,incongruent,uniform,0,undefined,0,h,0,0,0,168,0,168,0,0,0,168,0,168,168,168,168,168,9/17/19 14:52,300,The main experiment item,yes,Flankertask2.osexp,C:/Users/Carolyn/OneDrive,no,mono,no,18,no,white,no,yes,768,legacy,8,79,C:/Users/Carolyn/OneDrive/cp-subject-1.csv,legacy,Kafkaesque Koffka,3.2.8,0,s,NA,s,h,h,s,533,NA,5583,14019,62172,533,2,legacy,1024,2,48000,-16,experiment,SSHSS,1,odd,11175,178607,393577,411180,NA,411684,5589,164586,331401,408355,5584,412833,412936,413472,412828,412936,Flankertask2,151,89813,169,yes,1024
89.41176471,89.41176471,532.0294118,532.0294118,black,legacy,legacy,legacy,0,incongruent,uniform,1,undefined,1,h,0,0,0,169,0,169,0,0,0,169,0,169,169,169,169,169,9/17/19 14:52,300,The main experiment item,yes,Flankertask2.osexp,C:/Users/Carolyn/OneDrive,no,mono,no,18,no,white,no,yes,768,legacy,9,79,C:/Users/Carolyn/OneDrive/cp-subject-1.csv,legacy,Kafkaesque Koffka,3.2.8,0,h,NA,s,h,h,h,632,NA,5583,14019,62172,632,2,legacy,1024,2,48000,-16,experiment,SSHSS,1,odd,11175,178607,393577,414009,NA,414512,5589,164586,331401,413506,5584,415661,415765,416401,415656,415764,Flankertask2,152,90445,170,yes,1024
