"acc","accuracy","average_response_time","avg_rt","background","canvas_backend","clock_backend","color_backend","compensation","condition","coordinates","correct","correct_Instruction","correct_keyboard_response","correct_response","count_Block1","count_Block2","count_Block3","count_Errorfeedback","count_Finish","count_Fixation","count_ISI","count_Instruction","count_Instruction2","count_Instruction3","count_experiment","count_faster","count_keyboard_response","count_logger","count_sequence","count_stimulus","datetime","deadline","description","disable_garbage_collection","experiment_file","experiment_path","font_bold","font_family","font_italic","font_size","font_underline","foreground","form_clicks","fullscreen","height","keyboard_backend","live_row","live_row_Block1","logfile","mouse_backend","opensesame_codename","opensesame_version","repeat_cycle","response","response_Finish","response_Instruction","response_Instruction2","response_Instruction3","response_keyboard_response","response_time","response_time_Finish","response_time_Instruction","response_time_Instruction2","response_time_Instruction3","response_time_keyboard_response","round_decimals","sampler_backend","sound_buf_size","sound_channels","sound_freq","sound_sample_size","start","stimulus","subject_nr","subject_parity","time_Block1","time_Block2","time_Block3","time_Errorfeedback","time_Finish","time_Fixation","time_ISI","time_Instruction","time_Instruction2","time_Instruction3","time_experiment","time_faster","time_keyboard_response","time_logger","time_sequence","time_stimulus","title","total_correct","total_response_time","total_responses","uniform_coordinates","width"
"0","0","1500","1500","black","legacy","legacy","legacy","0","congruent","uniform","0","undefined","0","h","0","0","0","0","0","0","0","0","0","0","0","0","0","0","0","0","Thu Sep 24 19:15:17 2020","1500","The main experiment item","yes","FlankerTask.osexp","/Users/kaylaredder/Desktop","no","mono","no","18","no","white","no","yes","768","legacy","0","0","/Users/kaylaredder/Desktop/jg-subject-4.csv","legacy","Lentiform Loewenfeld","3.3.3","0","None","NA","s","NA","NA","None","1500","NA","67614","NA","NA","1500","2","legacy","1024","2","48000","-16","experiment","HHHHH","4","even","70126","NA","NA","NA","NA","70179","NA","2496","NA","NA","2481","NA","70294","71794","70167","70294","Flanker Task ","0","1500","1","yes","1024"
"0","0","984.5","984.5","black","legacy","legacy","legacy","0","incongruent ","uniform","0","undefined","0","h","0","0","0","1","0","1","1","0","0","0","0","1","1","1","1","1","Thu Sep 24 19:15:17 2020","1500","The main experiment item","yes","FlankerTask.osexp","/Users/kaylaredder/Desktop","no","mono","no","18","no","white","no","yes","768","legacy","1","1","/Users/kaylaredder/Desktop/jg-subject-4.csv","legacy","Lentiform Loewenfeld","3.3.3","0","s","NA","s","NA","NA","s","469","NA","67614","NA","NA","469","2","legacy","1024","2","48000","-16","experiment","SSHSS","4","even","70126","NA","NA","71817","NA","73401","72332","2496","NA","NA","2481","NA","73516","73986","73389","73515","Flanker Task ","0","1969","2","yes","1024"
"0","0","946","946","black","legacy","legacy","legacy","0","incongruent","uniform","0","undefined","0","s","0","0","0","2","0","2","2","0","0","0","0","2","2","2","2","2","Thu Sep 24 19:15:17 2020","1500","The main experiment item","yes","FlankerTask.osexp","/Users/kaylaredder/Desktop","no","mono","no","18","no","white","no","yes","768","legacy","2","2","/Users/kaylaredder/Desktop/jg-subject-4.csv","legacy","Lentiform Loewenfeld","3.3.3","0","h","NA","s","NA","NA","h","869","NA","67614","NA","NA","869","2","legacy","1024","2","48000","-16","experiment","HHSHH","4","even","70126","NA","NA","74006","NA","75577","74519","2496","NA","NA","2481","NA","75692","76562","75565","75692","Flanker Task ","0","2838","3","yes","1024"
"25","25","872.5","872.5","black","legacy","legacy","legacy","0","congruent ","uniform","1","undefined","1","s","0","0","0","3","0","3","3","0","0","0","0","3","3","3","3","3","Thu Sep 24 19:15:17 2020","1500","The main experiment item","yes","FlankerTask.osexp","/Users/kaylaredder/Desktop","no","mono","no","18","no","white","no","yes","768","legacy","3","3","/Users/kaylaredder/Desktop/jg-subject-4.csv","legacy","Lentiform Loewenfeld","3.3.3","0","s","NA","s","NA","NA","s","652","NA","67614","NA","NA","652","2","legacy","1024","2","48000","-16","experiment","SSSSS","4","even","70126","NA","NA","76580","NA","78152","77094","2496","NA","NA","2481","NA","78267","78920","78140","78267","Flanker Task ","1","3490","4","yes","1024"
"40","40","897","897","black","legacy","legacy","legacy","0","incongruent","uniform","1","undefined","1","s","0","0","0","4","0","4","4","0","0","0","0","4","4","4","4","4","Thu Sep 24 19:15:17 2020","1500","The main experiment item","yes","FlankerTask.osexp","/Users/kaylaredder/Desktop","no","mono","no","18","no","white","no","yes","768","legacy","4","4","/Users/kaylaredder/Desktop/jg-subject-4.csv","legacy","Lentiform Loewenfeld","3.3.3","0","s","NA","s","NA","NA","s","995","NA","67614","NA","NA","995","2","legacy","1024","2","48000","-16","experiment","HHSHH","4","even","70126","NA","NA","76580","NA","79997","78939","2496","NA","NA","2481","NA","80111","81107","79985","80111","Flanker Task ","2","4485","5","yes","1024"
"50","50","866.5","866.5","black","legacy","legacy","legacy","0","congruent ","uniform","1","undefined","1","s","0","0","0","5","0","5","5","0","0","0","0","5","5","5","5","5","Thu Sep 24 19:15:17 2020","1500","The main experiment item","yes","FlankerTask.osexp","/Users/kaylaredder/Desktop","no","mono","no","18","no","white","no","yes","768","legacy","5","5","/Users/kaylaredder/Desktop/jg-subject-4.csv","legacy","Lentiform Loewenfeld","3.3.3","0","s","NA","s","NA","NA","s","714","NA","67614","NA","NA","714","2","legacy","1024","2","48000","-16","experiment","SSSSS","4","even","70126","NA","NA","76580","NA","82183","81126","2496","NA","NA","2481","NA","82298","83013","82171","82298","Flanker Task ","3","5199","6","yes","1024"
"57.142857142857146","57.142857142857146","895.7142857142857","895.7142857142857","black","legacy","legacy","legacy","0","incongruent","uniform","1","undefined","1","s","0","0","0","6","0","6","6","0","0","0","0","6","6","6","6","6","Thu Sep 24 19:15:17 2020","1500","The main experiment item","yes","FlankerTask.osexp","/Users/kaylaredder/Desktop","no","mono","no","18","no","white","no","yes","768","legacy","6","6","/Users/kaylaredder/Desktop/jg-subject-4.csv","legacy","Lentiform Loewenfeld","3.3.3","0","s","NA","s","NA","NA","s","1071","NA","67614","NA","NA","1071","2","legacy","1024","2","48000","-16","experiment","HHSHH","4","even","70126","NA","NA","76580","NA","84092","83034","2496","NA","NA","2481","NA","84206","85279","84080","84206","Flanker Task ","4","6270","7","yes","1024"
"62.5","62.5","855","855","black","legacy","legacy","legacy","0","incongruent ","uniform","1","undefined","1","h","0","0","0","7","0","7","7","0","0","0","0","7","7","7","7","7","Thu Sep 24 19:15:17 2020","1500","The main experiment item","yes","FlankerTask.osexp","/Users/kaylaredder/Desktop","no","mono","no","18","no","white","no","yes","768","legacy","7","7","/Users/kaylaredder/Desktop/jg-subject-4.csv","legacy","Lentiform Loewenfeld","3.3.3","0","h","NA","s","NA","NA","h","570","NA","67614","NA","NA","570","2","legacy","1024","2","48000","-16","experiment","SSHSS","4","even","70126","NA","NA","76580","NA","86360","85301","2496","NA","NA","2481","NA","86474","87045","86348","86474","Flanker Task ","5","6840","8","yes","1024"
"66.66666666666667","66.66666666666667","826.4444444444445","826.4444444444445","black","legacy","legacy","legacy","0","congruent ","uniform","1","undefined","1","s","0","0","0","8","0","8","8","0","0","0","0","8","8","8","8","8","Thu Sep 24 19:15:17 2020","1500","The main experiment item","yes","FlankerTask.osexp","/Users/kaylaredder/Desktop","no","mono","no","18","no","white","no","yes","768","legacy","8","8","/Users/kaylaredder/Desktop/jg-subject-4.csv","legacy","Lentiform Loewenfeld","3.3.3","0","s","NA","s","NA","NA","s","598","NA","67614","NA","NA","598","2","legacy","1024","2","48000","-16","experiment","SSSSS","4","even","70126","NA","NA","76580","NA","88124","87066","2496","NA","NA","2481","NA","88238","88837","88112","88238","Flanker Task ","6","7438","9","yes","1024"
"70","70","802.5","802.5","black","legacy","legacy","legacy","0","congruent ","uniform","1","undefined","1","s","0","0","0","9","0","9","9","0","0","0","0","9","9","9","9","9","Thu Sep 24 19:15:17 2020","1500","The main experiment item","yes","FlankerTask.osexp","/Users/kaylaredder/Desktop","no","mono","no","18","no","white","no","yes","768","legacy","9","9","/Users/kaylaredder/Desktop/jg-subject-4.csv","legacy","Lentiform Loewenfeld","3.3.3","0","s","NA","s","NA","NA","s","587","NA","67614","NA","NA","587","2","legacy","1024","2","48000","-16","experiment","SSSSS","4","even","70126","NA","NA","76580","NA","89917","88858","2496","NA","NA","2481","NA","90031","90619","89905","90031","Flanker Task ","7","8025","10","yes","1024"
"72.72727272727273","72.72727272727273","783.5454545454545","783.5454545454545","black","legacy","legacy","legacy","0","congruent","uniform","1","undefined","1","h","0","0","0","10","0","10","10","0","0","0","0","10","10","10","10","10","Thu Sep 24 19:15:17 2020","1500","The main experiment item","yes","FlankerTask.osexp","/Users/kaylaredder/Desktop","no","mono","no","18","no","white","no","yes","768","legacy","10","10","/Users/kaylaredder/Desktop/jg-subject-4.csv","legacy","Lentiform Loewenfeld","3.3.3","0","h","NA","s","NA","NA","h","594","NA","67614","NA","NA","594","2","legacy","1024","2","48000","-16","experiment","HHHHH","4","even","70126","NA","NA","76580","NA","91698","90640","2496","NA","NA","2481","NA","91812","92407","91686","91812","Flanker Task ","8","8619","11","yes","1024"
"75","75","800.5833333333334","800.5833333333334","black","legacy","legacy","legacy","0","incongruent ","uniform","1","undefined","1","h","0","0","0","11","0","11","11","0","0","0","0","11","11","11","11","11","Thu Sep 24 19:15:17 2020","1500","The main experiment item","yes","FlankerTask.osexp","/Users/kaylaredder/Desktop","no","mono","no","18","no","white","no","yes","768","legacy","11","11","/Users/kaylaredder/Desktop/jg-subject-4.csv","legacy","Lentiform Loewenfeld","3.3.3","0","h","NA","s","NA","NA","h","988","NA","67614","NA","NA","988","2","legacy","1024","2","48000","-16","experiment","SSHSS","4","even","70126","NA","NA","76580","NA","93486","92428","2496","NA","NA","2481","NA","93601","94590","93474","93601","Flanker Task ","9","9607","12","yes","1024"
"76.92307692307692","76.92307692307692","795.6153846153846","795.6153846153846","black","legacy","legacy","legacy","0","congruent","uniform","1","undefined","1","h","0","0","0","12","0","12","12","0","0","0","0","12","12","12","12","12","Thu Sep 24 19:15:17 2020","1500","The main experiment item","yes","FlankerTask.osexp","/Users/kaylaredder/Desktop","no","mono","no","18","no","white","no","yes","768","legacy","12","12","/Users/kaylaredder/Desktop/jg-subject-4.csv","legacy","Lentiform Loewenfeld","3.3.3","0","h","NA","s","NA","NA","h","736","NA","67614","NA","NA","736","2","legacy","1024","2","48000","-16","experiment","HHHHH","4","even","70126","NA","NA","76580","NA","95683","94612","2496","NA","NA","2481","NA","95798","96535","95670","95798","Flanker Task ","10","10343","13","yes","1024"
"78.57142857142857","78.57142857142857","783.2142857142857","783.2142857142857","black","legacy","legacy","legacy","0","congruent ","uniform","1","undefined","1","s","0","0","0","13","0","13","13","0","0","0","0","13","13","13","13","13","Thu Sep 24 19:15:17 2020","1500","The main experiment item","yes","FlankerTask.osexp","/Users/kaylaredder/Desktop","no","mono","no","18","no","white","no","yes","768","legacy","13","13","/Users/kaylaredder/Desktop/jg-subject-4.csv","legacy","Lentiform Loewenfeld","3.3.3","0","s","NA","s","NA","NA","s","622","NA","67614","NA","NA","622","2","legacy","1024","2","48000","-16","experiment","SSSSS","4","even","70126","NA","NA","76580","NA","97622","96564","2496","NA","NA","2481","NA","97737","98360","97610","97736","Flanker Task ","11","10965","14","yes","1024"
"80","80","776.6","776.6","black","legacy","legacy","legacy","0","incongruent ","uniform","1","undefined","1","h","0","0","0","14","0","14","14","0","0","0","0","14","14","14","14","14","Thu Sep 24 19:15:17 2020","1500","The main experiment item","yes","FlankerTask.osexp","/Users/kaylaredder/Desktop","no","mono","no","18","no","white","no","yes","768","legacy","14","14","/Users/kaylaredder/Desktop/jg-subject-4.csv","legacy","Lentiform Loewenfeld","3.3.3","0","h","NA","s","NA","NA","h","684","NA","67614","NA","NA","684","2","legacy","1024","2","48000","-16","experiment","SSHSS","4","even","70126","NA","NA","76580","NA","99440","98381","2496","NA","NA","2481","NA","99554","100239","99427","99554","Flanker Task ","12","11649","15","yes","1024"
"81.25","81.25","763.25","763.25","black","legacy","legacy","legacy","0","congruent","uniform","1","undefined","1","h","0","0","0","15","0","15","15","0","0","0","0","15","15","15","15","15","Thu Sep 24 19:15:17 2020","1500","The main experiment item","yes","FlankerTask.osexp","/Users/kaylaredder/Desktop","no","mono","no","18","no","white","no","yes","768","legacy","15","15","/Users/kaylaredder/Desktop/jg-subject-4.csv","legacy","Lentiform Loewenfeld","3.3.3","0","h","NA","s","NA","NA","h","563","NA","67614","NA","NA","563","2","legacy","1024","2","48000","-16","experiment","HHHHH","4","even","70126","NA","NA","76580","NA","101319","100260","2496","NA","NA","2481","NA","101434","101998","101306","101434","Flanker Task ","13","12212","16","yes","1024"
"82.3529411764706","82.3529411764706","752.6470588235294","752.6470588235294","black","legacy","legacy","legacy","0","congruent","uniform","1","undefined","1","h","0","0","0","16","0","16","16","0","0","0","0","16","16","16","16","16","Thu Sep 24 19:15:17 2020","1500","The main experiment item","yes","FlankerTask.osexp","/Users/kaylaredder/Desktop","no","mono","no","18","no","white","no","yes","768","legacy","16","16","/Users/kaylaredder/Desktop/jg-subject-4.csv","legacy","Lentiform Loewenfeld","3.3.3","0","h","NA","s","NA","NA","h","583","NA","67614","NA","NA","583","2","legacy","1024","2","48000","-16","experiment","HHHHH","4","even","70126","NA","NA","76580","NA","103077","102018","2496","NA","NA","2481","NA","103192","103776","103064","103192","Flanker Task ","14","12795","17","yes","1024"
"83.33333333333333","83.33333333333333","755.8333333333334","755.8333333333334","black","legacy","legacy","legacy","0","incongruent ","uniform","1","undefined","1","h","0","0","0","17","0","17","17","0","0","0","0","17","17","17","17","17","Thu Sep 24 19:15:17 2020","1500","The main experiment item","yes","FlankerTask.osexp","/Users/kaylaredder/Desktop","no","mono","no","18","no","white","no","yes","768","legacy","17","17","/Users/kaylaredder/Desktop/jg-subject-4.csv","legacy","Lentiform Loewenfeld","3.3.3","0","h","NA","s","NA","NA","h","810","NA","67614","NA","NA","810","2","legacy","1024","2","48000","-16","experiment","SSHSS","4","even","70126","NA","NA","76580","NA","104857","103798","2496","NA","NA","2481","NA","104972","105783","104844","104972","Flanker Task ","15","13605","18","yes","1024"
"84.21052631578948","84.21052631578948","754.7894736842105","754.7894736842105","black","legacy","legacy","legacy","0","congruent","uniform","1","undefined","1","h","0","0","0","18","0","18","18","0","0","0","0","18","18","18","18","18","Thu Sep 24 19:15:17 2020","1500","The main experiment item","yes","FlankerTask.osexp","/Users/kaylaredder/Desktop","no","mono","no","18","no","white","no","yes","768","legacy","18","18","/Users/kaylaredder/Desktop/jg-subject-4.csv","legacy","Lentiform Loewenfeld","3.3.3","0","h","NA","s","NA","NA","h","736","NA","67614","NA","NA","736","2","legacy","1024","2","48000","-16","experiment","HHHHH","4","even","70126","NA","NA","76580","NA","106864","105805","2496","NA","NA","2481","NA","106978","107715","106851","106978","Flanker Task ","16","14341","19","yes","1024"
"85","85","745.8","745.8","black","legacy","legacy","legacy","0","congruent","uniform","1","undefined","1","h","0","0","0","19","0","19","19","0","0","0","0","19","19","19","19","19","Thu Sep 24 19:15:17 2020","1500","The main experiment item","yes","FlankerTask.osexp","/Users/kaylaredder/Desktop","no","mono","no","18","no","white","no","yes","768","legacy","19","19","/Users/kaylaredder/Desktop/jg-subject-4.csv","legacy","Lentiform Loewenfeld","3.3.3","0","h","NA","s","NA","NA","h","575","NA","67614","NA","NA","575","2","legacy","1024","2","48000","-16","experiment","HHHHH","4","even","70126","NA","NA","76580","NA","108795","107736","2496","NA","NA","2481","NA","108910","109486","108782","108910","Flanker Task ","17","14916","20","yes","1024"
"85.71428571428571","85.71428571428571","750.4761904761905","750.4761904761905","black","legacy","legacy","legacy","0","incongruent ","uniform","1","undefined","1","h","0","0","0","20","0","20","20","0","0","0","0","20","20","20","20","20","Thu Sep 24 19:15:17 2020","1500","The main experiment item","yes","FlankerTask.osexp","/Users/kaylaredder/Desktop","no","mono","no","18","no","white","no","yes","768","legacy","20","20","/Users/kaylaredder/Desktop/jg-subject-4.csv","legacy","Lentiform Loewenfeld","3.3.3","0","h","NA","s","NA","NA","h","844","NA","67614","NA","NA","844","2","legacy","1024","2","48000","-16","experiment","SSHSS","4","even","70126","NA","NA","76580","NA","110567","109507","2496","NA","NA","2481","NA","110682","111527","110555","110682","Flanker Task ","18","15760","21","yes","1024"
"86.36363636363636","86.36363636363636","745.5","745.5","black","legacy","legacy","legacy","0","incongruent","uniform","1","undefined","1","s","0","0","0","21","0","21","21","0","0","0","0","21","21","21","21","21","Thu Sep 24 19:15:17 2020","1500","The main experiment item","yes","FlankerTask.osexp","/Users/kaylaredder/Desktop","no","mono","no","18","no","white","no","yes","768","legacy","21","21","/Users/kaylaredder/Desktop/jg-subject-4.csv","legacy","Lentiform Loewenfeld","3.3.3","0","s","NA","s","NA","NA","s","641","NA","67614","NA","NA","641","2","legacy","1024","2","48000","-16","experiment","HHSHH","4","even","70126","NA","NA","76580","NA","112625","111566","2496","NA","NA","2481","NA","112740","113382","112612","112739","Flanker Task ","19","16401","22","yes","1024"
"86.95652173913044","86.95652173913044","740.9130434782609","740.9130434782609","black","legacy","legacy","legacy","0","incongruent ","uniform","1","undefined","1","h","0","0","0","22","0","22","22","0","0","0","0","22","22","22","22","22","Thu Sep 24 19:15:17 2020","1500","The main experiment item","yes","FlankerTask.osexp","/Users/kaylaredder/Desktop","no","mono","no","18","no","white","no","yes","768","legacy","22","22","/Users/kaylaredder/Desktop/jg-subject-4.csv","legacy","Lentiform Loewenfeld","3.3.3","0","h","NA","s","NA","NA","h","640","NA","67614","NA","NA","640","2","legacy","1024","2","48000","-16","experiment","SSHSS","4","even","70126","NA","NA","76580","NA","114461","113403","2496","NA","NA","2481","NA","114576","115218","114449","114576","Flanker Task ","20","17041","23","yes","1024"
"87.5","87.5","733.625","733.625","black","legacy","legacy","legacy","0","incongruent ","uniform","1","undefined","1","h","0","0","0","23","0","23","23","0","0","0","0","23","23","23","23","23","Thu Sep 24 19:15:17 2020","1500","The main experiment item","yes","FlankerTask.osexp","/Users/kaylaredder/Desktop","no","mono","no","18","no","white","no","yes","768","legacy","23","23","/Users/kaylaredder/Desktop/jg-subject-4.csv","legacy","Lentiform Loewenfeld","3.3.3","0","h","NA","s","NA","NA","h","566","NA","67614","NA","NA","566","2","legacy","1024","2","48000","-16","experiment","SSHSS","4","even","70126","NA","NA","76580","NA","116298","115239","2496","NA","NA","2481","NA","116413","116980","116286","116413","Flanker Task ","21","17607","24","yes","1024"
"88","88","740.28","740.28","black","legacy","legacy","legacy","0","incongruent","uniform","1","undefined","1","s","0","0","0","24","0","24","24","0","0","0","0","24","24","24","24","24","Thu Sep 24 19:15:17 2020","1500","The main experiment item","yes","FlankerTask.osexp","/Users/kaylaredder/Desktop","no","mono","no","18","no","white","no","yes","768","legacy","24","24","/Users/kaylaredder/Desktop/jg-subject-4.csv","legacy","Lentiform Loewenfeld","3.3.3","0","s","NA","s","NA","NA","s","900","NA","67614","NA","NA","900","2","legacy","1024","2","48000","-16","experiment","HHSHH","4","even","70126","NA","NA","76580","NA","118060","117001","2496","NA","NA","2481","NA","118175","119076","118047","118175","Flanker Task ","22","18507","25","yes","1024"
"88.46153846153847","88.46153846153847","737.8846153846154","737.8846153846154","black","legacy","legacy","legacy","0","congruent","uniform","1","undefined","1","h","0","0","0","25","0","25","25","0","0","0","0","25","25","25","25","25","Thu Sep 24 19:15:17 2020","1500","The main experiment item","yes","FlankerTask.osexp","/Users/kaylaredder/Desktop","no","mono","no","18","no","white","no","yes","768","legacy","25","25","/Users/kaylaredder/Desktop/jg-subject-4.csv","legacy","Lentiform Loewenfeld","3.3.3","0","h","NA","s","NA","NA","h","678","NA","67614","NA","NA","678","2","legacy","1024","2","48000","-16","experiment","HHHHH","4","even","70126","NA","NA","76580","NA","120158","119098","2496","NA","NA","2481","NA","120273","120952","120145","120273","Flanker Task ","23","19185","26","yes","1024"
"88.88888888888889","88.88888888888889","731.9629629629629","731.9629629629629","black","legacy","legacy","legacy","0","congruent ","uniform","1","undefined","1","s","0","0","0","26","0","26","26","0","0","0","0","26","26","26","26","26","Thu Sep 24 19:15:17 2020","1500","The main experiment item","yes","FlankerTask.osexp","/Users/kaylaredder/Desktop","no","mono","no","18","no","white","no","yes","768","legacy","26","26","/Users/kaylaredder/Desktop/jg-subject-4.csv","legacy","Lentiform Loewenfeld","3.3.3","0","s","NA","s","NA","NA","s","578","NA","67614","NA","NA","578","2","legacy","1024","2","48000","-16","experiment","SSSSS","4","even","70126","NA","NA","76580","NA","122030","120973","2496","NA","NA","2481","NA","122145","122724","122018","122145","Flanker Task ","24","19763","27","yes","1024"
"89.28571428571429","89.28571428571429","730.1071428571429","730.1071428571429","black","legacy","legacy","legacy","0","incongruent ","uniform","1","undefined","1","h","0","0","0","27","0","27","27","0","0","0","0","27","27","27","27","27","Thu Sep 24 19:15:17 2020","1500","The main experiment item","yes","FlankerTask.osexp","/Users/kaylaredder/Desktop","no","mono","no","18","no","white","no","yes","768","legacy","27","27","/Users/kaylaredder/Desktop/jg-subject-4.csv","legacy","Lentiform Loewenfeld","3.3.3","0","h","NA","s","NA","NA","h","680","NA","67614","NA","NA","680","2","legacy","1024","2","48000","-16","experiment","SSHSS","4","even","70126","NA","NA","76580","NA","123804","122746","2496","NA","NA","2481","NA","123920","124602","123791","123920","Flanker Task ","25","20443","28","yes","1024"
"89.65517241379311","89.65517241379311","728.0689655172414","728.0689655172414","black","legacy","legacy","legacy","0","incongruent","uniform","1","undefined","1","s","0","0","0","28","0","28","28","0","0","0","0","28","28","28","28","28","Thu Sep 24 19:15:17 2020","1500","The main experiment item","yes","FlankerTask.osexp","/Users/kaylaredder/Desktop","no","mono","no","18","no","white","no","yes","768","legacy","28","28","/Users/kaylaredder/Desktop/jg-subject-4.csv","legacy","Lentiform Loewenfeld","3.3.3","0","s","NA","s","NA","NA","s","671","NA","67614","NA","NA","671","2","legacy","1024","2","48000","-16","experiment","HHSHH","4","even","70126","NA","NA","76580","NA","125692","124623","2496","NA","NA","2481","NA","125807","126479","125680","125807","Flanker Task ","26","21114","29","yes","1024"
"90","90","731.0333333333333","731.0333333333333","black","legacy","legacy","legacy","0","incongruent","uniform","1","undefined","1","s","0","0","0","29","0","29","29","0","0","0","0","29","29","29","29","29","Thu Sep 24 19:15:17 2020","1500","The main experiment item","yes","FlankerTask.osexp","/Users/kaylaredder/Desktop","no","mono","no","18","no","white","no","yes","768","legacy","29","29","/Users/kaylaredder/Desktop/jg-subject-4.csv","legacy","Lentiform Loewenfeld","3.3.3","0","s","NA","s","NA","NA","s","817","NA","67614","NA","NA","817","2","legacy","1024","2","48000","-16","experiment","HHSHH","4","even","70126","NA","NA","76580","NA","127562","126504","2496","NA","NA","2481","NA","127677","128495","127550","127677","Flanker Task ","27","21931","30","yes","1024"
"90.3225806451613","90.3225806451613","725.6774193548387","725.6774193548387","black","legacy","legacy","legacy","0","incongruent ","uniform","1","undefined","1","h","0","0","0","30","0","30","30","0","0","0","0","30","30","30","30","30","Thu Sep 24 19:15:17 2020","1500","The main experiment item","yes","FlankerTask.osexp","/Users/kaylaredder/Desktop","no","mono","no","18","no","white","no","yes","768","legacy","30","30","/Users/kaylaredder/Desktop/jg-subject-4.csv","legacy","Lentiform Loewenfeld","3.3.3","0","h","NA","s","NA","NA","h","565","NA","67614","NA","NA","565","2","legacy","1024","2","48000","-16","experiment","SSHSS","4","even","70126","NA","NA","76580","NA","129574","128516","2496","NA","NA","2481","NA","129689","130256","129561","129689","Flanker Task ","28","22496","31","yes","1024"
"90.625","90.625","726.75","726.75","black","legacy","legacy","legacy","0","incongruent ","uniform","1","undefined","1","h","0","0","0","31","0","31","31","0","0","0","0","31","31","31","31","31","Thu Sep 24 19:15:17 2020","1500","The main experiment item","yes","FlankerTask.osexp","/Users/kaylaredder/Desktop","no","mono","no","18","no","white","no","yes","768","legacy","31","31","/Users/kaylaredder/Desktop/jg-subject-4.csv","legacy","Lentiform Loewenfeld","3.3.3","0","h","NA","s","NA","NA","h","760","NA","67614","NA","NA","760","2","legacy","1024","2","48000","-16","experiment","SSHSS","4","even","70126","NA","NA","76580","NA","131336","130277","2496","NA","NA","2481","NA","131451","132212","131323","131451","Flanker Task ","29","23256","32","yes","1024"
"90.9090909090909","90.9090909090909","720.2424242424242","720.2424242424242","black","legacy","legacy","legacy","0","incongruent","uniform","1","undefined","1","s","0","0","0","32","0","32","32","0","0","0","0","32","32","32","32","32","Thu Sep 24 19:15:17 2020","1500","The main experiment item","yes","FlankerTask.osexp","/Users/kaylaredder/Desktop","no","mono","no","18","no","white","no","yes","768","legacy","32","32","/Users/kaylaredder/Desktop/jg-subject-4.csv","legacy","Lentiform Loewenfeld","3.3.3","0","s","NA","s","NA","NA","s","512","NA","67614","NA","NA","512","2","legacy","1024","2","48000","-16","experiment","HHSHH","4","even","70126","NA","NA","76580","NA","133290","132232","2496","NA","NA","2481","NA","133405","133918","133278","133405","Flanker Task ","30","23768","33","yes","1024"
"91.17647058823529","91.17647058823529","717.7647058823529","717.7647058823529","black","legacy","legacy","legacy","0","incongruent ","uniform","1","undefined","1","h","0","0","0","33","0","33","33","0","0","0","0","33","33","33","33","33","Thu Sep 24 19:15:17 2020","1500","The main experiment item","yes","FlankerTask.osexp","/Users/kaylaredder/Desktop","no","mono","no","18","no","white","no","yes","768","legacy","33","33","/Users/kaylaredder/Desktop/jg-subject-4.csv","legacy","Lentiform Loewenfeld","3.3.3","0","h","NA","s","NA","NA","h","636","NA","67614","NA","NA","636","2","legacy","1024","2","48000","-16","experiment","SSHSS","4","even","70126","NA","NA","76580","NA","134997","133938","2496","NA","NA","2481","NA","135111","135749","134984","135111","Flanker Task ","31","24404","34","yes","1024"
"91.42857142857143","91.42857142857143","715.9428571428572","715.9428571428572","black","legacy","legacy","legacy","0","incongruent ","uniform","1","undefined","1","h","0","0","0","34","0","34","34","0","0","0","0","34","34","34","34","34","Thu Sep 24 19:15:17 2020","1500","The main experiment item","yes","FlankerTask.osexp","/Users/kaylaredder/Desktop","no","mono","no","18","no","white","no","yes","768","legacy","34","34","/Users/kaylaredder/Desktop/jg-subject-4.csv","legacy","Lentiform Loewenfeld","3.3.3","0","h","NA","s","NA","NA","h","654","NA","67614","NA","NA","654","2","legacy","1024","2","48000","-16","experiment","SSHSS","4","even","70126","NA","NA","76580","NA","136829","135770","2496","NA","NA","2481","NA","136944","137600","136816","136944","Flanker Task ","32","25058","35","yes","1024"
"91.66666666666667","91.66666666666667","714.6388888888889","714.6388888888889","black","legacy","legacy","legacy","0","congruent","uniform","1","undefined","1","h","0","0","0","35","0","35","35","0","0","0","0","35","35","35","35","35","Thu Sep 24 19:15:17 2020","1500","The main experiment item","yes","FlankerTask.osexp","/Users/kaylaredder/Desktop","no","mono","no","18","no","white","no","yes","768","legacy","35","35","/Users/kaylaredder/Desktop/jg-subject-4.csv","legacy","Lentiform Loewenfeld","3.3.3","0","h","NA","s","NA","NA","h","669","NA","67614","NA","NA","669","2","legacy","1024","2","48000","-16","experiment","HHHHH","4","even","70126","NA","NA","76580","NA","138679","137621","2496","NA","NA","2481","NA","138794","139465","138667","138794","Flanker Task ","33","25727","36","yes","1024"
"91.89189189189189","91.89189189189189","709.1351351351351","709.1351351351351","black","legacy","legacy","legacy","0","congruent ","uniform","1","undefined","1","s","0","0","0","36","0","36","36","0","0","0","0","36","36","36","36","36","Thu Sep 24 19:15:17 2020","1500","The main experiment item","yes","FlankerTask.osexp","/Users/kaylaredder/Desktop","no","mono","no","18","no","white","no","yes","768","legacy","36","36","/Users/kaylaredder/Desktop/jg-subject-4.csv","legacy","Lentiform Loewenfeld","3.3.3","0","s","NA","s","NA","NA","s","511","NA","67614","NA","NA","511","2","legacy","1024","2","48000","-16","experiment","SSSSS","4","even","70126","NA","NA","76580","NA","140546","139487","2496","NA","NA","2481","NA","140661","141174","140533","140661","Flanker Task ","34","26238","37","yes","1024"
"92.10526315789474","92.10526315789474","708.4736842105264","708.4736842105264","black","legacy","legacy","legacy","0","incongruent","uniform","1","undefined","1","s","0","0","0","37","0","37","37","0","0","0","0","37","37","37","37","37","Thu Sep 24 19:15:17 2020","1500","The main experiment item","yes","FlankerTask.osexp","/Users/kaylaredder/Desktop","no","mono","no","18","no","white","no","yes","768","legacy","37","37","/Users/kaylaredder/Desktop/jg-subject-4.csv","legacy","Lentiform Loewenfeld","3.3.3","0","s","NA","s","NA","NA","s","684","NA","67614","NA","NA","684","2","legacy","1024","2","48000","-16","experiment","HHSHH","4","even","70126","NA","NA","76580","NA","142254","141195","2496","NA","NA","2481","NA","142369","143055","142242","142369","Flanker Task ","35","26922","38","yes","1024"
"92.3076923076923","92.3076923076923","703.974358974359","703.974358974359","black","legacy","legacy","legacy","0","congruent","uniform","1","undefined","1","h","0","0","0","38","0","38","38","0","0","0","0","38","38","38","38","38","Thu Sep 24 19:15:17 2020","1500","The main experiment item","yes","FlankerTask.osexp","/Users/kaylaredder/Desktop","no","mono","no","18","no","white","no","yes","768","legacy","38","38","/Users/kaylaredder/Desktop/jg-subject-4.csv","legacy","Lentiform Loewenfeld","3.3.3","0","h","NA","s","NA","NA","h","533","NA","67614","NA","NA","533","2","legacy","1024","2","48000","-16","experiment","HHHHH","4","even","70126","NA","NA","76580","NA","144135","143077","2496","NA","NA","2481","NA","144250","144785","144123","144250","Flanker Task ","36","27455","39","yes","1024"
"92.5","92.5","704.175","704.175","black","legacy","legacy","legacy","0","incongruent","uniform","1","undefined","1","s","0","0","0","39","0","39","39","0","0","0","0","39","39","39","39","39","Thu Sep 24 19:15:17 2020","1500","The main experiment item","yes","FlankerTask.osexp","/Users/kaylaredder/Desktop","no","mono","no","18","no","white","no","yes","768","legacy","39","39","/Users/kaylaredder/Desktop/jg-subject-4.csv","legacy","Lentiform Loewenfeld","3.3.3","0","s","NA","s","NA","NA","s","712","NA","67614","NA","NA","712","2","legacy","1024","2","48000","-16","experiment","HHSHH","4","even","70126","NA","NA","76580","NA","145865","144807","2496","NA","NA","2481","NA","145980","146694","145853","145980","Flanker Task ","37","28167","40","yes","1024"
"92.6829268292683","92.6829268292683","698.8536585365854","698.8536585365854","black","legacy","legacy","legacy","0","congruent ","uniform","1","undefined","1","s","0","0","0","40","0","40","40","0","0","0","0","40","40","40","40","40","Thu Sep 24 19:15:17 2020","1500","The main experiment item","yes","FlankerTask.osexp","/Users/kaylaredder/Desktop","no","mono","no","18","no","white","no","yes","768","legacy","40","40","/Users/kaylaredder/Desktop/jg-subject-4.csv","legacy","Lentiform Loewenfeld","3.3.3","0","s","NA","s","NA","NA","s","486","NA","67614","NA","NA","486","2","legacy","1024","2","48000","-16","experiment","SSSSS","4","even","70126","NA","NA","76580","NA","147772","146714","2496","NA","NA","2481","NA","147888","148376","147759","147888","Flanker Task ","38","28653","41","yes","1024"
"92.85714285714286","92.85714285714286","694.9285714285714","694.9285714285714","black","legacy","legacy","legacy","0","incongruent ","uniform","1","undefined","1","h","0","0","0","41","0","41","41","0","0","0","0","41","41","41","41","41","Thu Sep 24 19:15:17 2020","1500","The main experiment item","yes","FlankerTask.osexp","/Users/kaylaredder/Desktop","no","mono","no","18","no","white","no","yes","768","legacy","41","41","/Users/kaylaredder/Desktop/jg-subject-4.csv","legacy","Lentiform Loewenfeld","3.3.3","0","h","NA","s","NA","NA","h","534","NA","67614","NA","NA","534","2","legacy","1024","2","48000","-16","experiment","SSHSS","4","even","70126","NA","NA","76580","NA","149454","148396","2496","NA","NA","2481","NA","149568","150104","149442","149568","Flanker Task ","39","29187","42","yes","1024"
"93.02325581395348","93.02325581395348","690.7906976744187","690.7906976744187","black","legacy","legacy","legacy","0","incongruent","uniform","1","undefined","1","s","0","0","0","42","0","42","42","0","0","0","0","42","42","42","42","42","Thu Sep 24 19:15:17 2020","1500","The main experiment item","yes","FlankerTask.osexp","/Users/kaylaredder/Desktop","no","mono","no","18","no","white","no","yes","768","legacy","42","42","/Users/kaylaredder/Desktop/jg-subject-4.csv","legacy","Lentiform Loewenfeld","3.3.3","0","s","NA","s","NA","NA","s","517","NA","67614","NA","NA","517","2","legacy","1024","2","48000","-16","experiment","HHSHH","4","even","70126","NA","NA","76580","NA","151183","150124","2496","NA","NA","2481","NA","151298","151817","151170","151298","Flanker Task ","40","29704","43","yes","1024"
"93.18181818181819","93.18181818181819","686.6818181818181","686.6818181818181","black","legacy","legacy","legacy","0","congruent","uniform","1","undefined","1","h","0","0","0","43","0","43","43","0","0","0","0","43","43","43","43","43","Thu Sep 24 19:15:17 2020","1500","The main experiment item","yes","FlankerTask.osexp","/Users/kaylaredder/Desktop","no","mono","no","18","no","white","no","yes","768","legacy","43","43","/Users/kaylaredder/Desktop/jg-subject-4.csv","legacy","Lentiform Loewenfeld","3.3.3","0","h","NA","s","NA","NA","h","510","NA","67614","NA","NA","510","2","legacy","1024","2","48000","-16","experiment","HHHHH","4","even","70126","NA","NA","76580","NA","152898","151838","2496","NA","NA","2481","NA","153011","153523","152885","153011","Flanker Task ","41","30214","44","yes","1024"
"93.33333333333333","93.33333333333333","684.5111111111111","684.5111111111111","black","legacy","legacy","legacy","0","congruent","uniform","1","undefined","1","h","0","0","0","44","0","44","44","0","0","0","0","44","44","44","44","44","Thu Sep 24 19:15:17 2020","1500","The main experiment item","yes","FlankerTask.osexp","/Users/kaylaredder/Desktop","no","mono","no","18","no","white","no","yes","768","legacy","44","44","/Users/kaylaredder/Desktop/jg-subject-4.csv","legacy","Lentiform Loewenfeld","3.3.3","0","h","NA","s","NA","NA","h","589","NA","67614","NA","NA","589","2","legacy","1024","2","48000","-16","experiment","HHHHH","4","even","70126","NA","NA","76580","NA","154602","153543","2496","NA","NA","2481","NA","154716","155307","154590","154716","Flanker Task ","42","30803","45","yes","1024"
"93.47826086956522","93.47826086956522","684.1521739130435","684.1521739130435","black","legacy","legacy","legacy","0","incongruent ","uniform","1","undefined","1","h","0","0","0","45","0","45","45","0","0","0","0","45","45","45","45","45","Thu Sep 24 19:15:17 2020","1500","The main experiment item","yes","FlankerTask.osexp","/Users/kaylaredder/Desktop","no","mono","no","18","no","white","no","yes","768","legacy","45","45","/Users/kaylaredder/Desktop/jg-subject-4.csv","legacy","Lentiform Loewenfeld","3.3.3","0","h","NA","s","NA","NA","h","668","NA","67614","NA","NA","668","2","legacy","1024","2","48000","-16","experiment","SSHSS","4","even","70126","NA","NA","76580","NA","156385","155327","2496","NA","NA","2481","NA","156499","157169","156373","156499","Flanker Task ","43","31471","46","yes","1024"
"93.61702127659575","93.61702127659575","682.531914893617","682.531914893617","black","legacy","legacy","legacy","0","congruent ","uniform","1","undefined","1","s","0","0","0","46","0","46","46","0","0","0","0","46","46","46","46","46","Thu Sep 24 19:15:17 2020","1500","The main experiment item","yes","FlankerTask.osexp","/Users/kaylaredder/Desktop","no","mono","no","18","no","white","no","yes","768","legacy","46","46","/Users/kaylaredder/Desktop/jg-subject-4.csv","legacy","Lentiform Loewenfeld","3.3.3","0","s","NA","s","NA","NA","s","608","NA","67614","NA","NA","608","2","legacy","1024","2","48000","-16","experiment","SSSSS","4","even","70126","NA","NA","76580","NA","158251","157194","2496","NA","NA","2481","NA","158367","158977","158239","158367","Flanker Task ","44","32079","47","yes","1024"
"93.75","93.75","681.7083333333334","681.7083333333334","black","legacy","legacy","legacy","0","incongruent","uniform","1","undefined","1","s","0","0","0","47","0","47","47","0","0","0","0","47","47","47","47","47","Thu Sep 24 19:15:17 2020","1500","The main experiment item","yes","FlankerTask.osexp","/Users/kaylaredder/Desktop","no","mono","no","18","no","white","no","yes","768","legacy","47","47","/Users/kaylaredder/Desktop/jg-subject-4.csv","legacy","Lentiform Loewenfeld","3.3.3","0","s","NA","s","NA","NA","s","643","NA","67614","NA","NA","643","2","legacy","1024","2","48000","-16","experiment","HHSHH","4","even","70126","NA","NA","76580","NA","160056","158998","2496","NA","NA","2481","NA","160170","160814","160043","160170","Flanker Task ","45","32722","48","yes","1024"
"93.87755102040816","93.87755102040816","677.8367346938776","677.8367346938776","black","legacy","legacy","legacy","0","congruent","uniform","1","undefined","1","h","0","0","0","48","0","48","48","0","0","0","0","48","48","48","48","48","Thu Sep 24 19:15:17 2020","1500","The main experiment item","yes","FlankerTask.osexp","/Users/kaylaredder/Desktop","no","mono","no","18","no","white","no","yes","768","legacy","48","48","/Users/kaylaredder/Desktop/jg-subject-4.csv","legacy","Lentiform Loewenfeld","3.3.3","0","h","NA","s","NA","NA","h","492","NA","67614","NA","NA","492","2","legacy","1024","2","48000","-16","experiment","HHHHH","4","even","70126","NA","NA","76580","NA","161896","160835","2496","NA","NA","2481","NA","162009","162502","161883","162009","Flanker Task ","46","33214","49","yes","1024"
"94","94","677.36","677.36","black","legacy","legacy","legacy","0","congruent ","uniform","1","undefined","1","s","0","0","0","49","0","49","49","0","0","0","0","49","49","49","49","49","Thu Sep 24 19:15:17 2020","1500","The main experiment item","yes","FlankerTask.osexp","/Users/kaylaredder/Desktop","no","mono","no","18","no","white","no","yes","768","legacy","49","49","/Users/kaylaredder/Desktop/jg-subject-4.csv","legacy","Lentiform Loewenfeld","3.3.3","0","s","NA","s","NA","NA","s","654","NA","67614","NA","NA","654","2","legacy","1024","2","48000","-16","experiment","SSSSS","4","even","70126","NA","NA","76580","NA","163584","162525","2496","NA","NA","2481","NA","163699","164355","163571","163698","Flanker Task ","47","33868","50","yes","1024"
"94.11764705882354","94.11764705882354","676.0392156862745","676.0392156862745","black","legacy","legacy","legacy","0","congruent ","uniform","1","undefined","1","s","0","0","0","50","0","50","50","0","0","0","0","50","50","50","50","50","Thu Sep 24 19:15:17 2020","1500","The main experiment item","yes","FlankerTask.osexp","/Users/kaylaredder/Desktop","no","mono","no","18","no","white","no","yes","768","legacy","50","50","/Users/kaylaredder/Desktop/jg-subject-4.csv","legacy","Lentiform Loewenfeld","3.3.3","0","s","NA","s","NA","NA","s","610","NA","67614","NA","NA","610","2","legacy","1024","2","48000","-16","experiment","SSSSS","4","even","70126","NA","NA","76580","NA","165434","164375","2496","NA","NA","2481","NA","165548","166160","165421","165548","Flanker Task ","48","34478","51","yes","1024"
"94.23076923076923","94.23076923076923","674.4230769230769","674.4230769230769","black","legacy","legacy","legacy","0","congruent ","uniform","1","undefined","1","s","0","0","0","51","0","51","51","0","0","0","0","51","51","51","51","51","Thu Sep 24 19:15:17 2020","1500","The main experiment item","yes","FlankerTask.osexp","/Users/kaylaredder/Desktop","no","mono","no","18","no","white","no","yes","768","legacy","51","51","/Users/kaylaredder/Desktop/jg-subject-4.csv","legacy","Lentiform Loewenfeld","3.3.3","0","s","NA","s","NA","NA","s","592","NA","67614","NA","NA","592","2","legacy","1024","2","48000","-16","experiment","SSSSS","4","even","70126","NA","NA","76580","NA","167240","166181","2496","NA","NA","2481","NA","167354","167947","167227","167354","Flanker Task ","49","35070","52","yes","1024"
"92.45283018867924","92.45283018867924","672.3396226415094","672.3396226415094","black","legacy","legacy","legacy","0","incongruent","uniform","0","undefined","0","s","0","0","0","52","0","52","52","0","0","0","0","52","52","52","52","52","Thu Sep 24 19:15:17 2020","1500","The main experiment item","yes","FlankerTask.osexp","/Users/kaylaredder/Desktop","no","mono","no","18","no","white","no","yes","768","legacy","52","52","/Users/kaylaredder/Desktop/jg-subject-4.csv","legacy","Lentiform Loewenfeld","3.3.3","0","h","NA","s","NA","NA","h","564","NA","67614","NA","NA","564","2","legacy","1024","2","48000","-16","experiment","HHSHH","4","even","70126","NA","NA","76580","NA","169027","167970","2496","NA","NA","2481","NA","169142","169707","169015","169141","Flanker Task ","49","35634","53","yes","1024"
"92.5925925925926","92.5925925925926","675.1111111111111","675.1111111111111","black","legacy","legacy","legacy","0","incongruent","uniform","1","undefined","1","s","0","0","0","53","0","53","53","0","0","0","0","53","53","53","53","53","Thu Sep 24 19:15:17 2020","1500","The main experiment item","yes","FlankerTask.osexp","/Users/kaylaredder/Desktop","no","mono","no","18","no","white","no","yes","768","legacy","53","53","/Users/kaylaredder/Desktop/jg-subject-4.csv","legacy","Lentiform Loewenfeld","3.3.3","0","s","NA","s","NA","NA","s","822","NA","67614","NA","NA","822","2","legacy","1024","2","48000","-16","experiment","HHSHH","4","even","70126","NA","NA","169728","NA","171300","170241","2496","NA","NA","2481","NA","171414","172237","171287","171414","Flanker Task ","50","36456","54","yes","1024"
"92.72727272727273","92.72727272727273","671.4545454545455","671.4545454545455","black","legacy","legacy","legacy","0","congruent ","uniform","1","undefined","1","s","0","0","0","54","0","54","54","0","0","0","0","54","54","54","54","54","Thu Sep 24 19:15:17 2020","1500","The main experiment item","yes","FlankerTask.osexp","/Users/kaylaredder/Desktop","no","mono","no","18","no","white","no","yes","768","legacy","54","54","/Users/kaylaredder/Desktop/jg-subject-4.csv","legacy","Lentiform Loewenfeld","3.3.3","0","s","NA","s","NA","NA","s","474","NA","67614","NA","NA","474","2","legacy","1024","2","48000","-16","experiment","SSSSS","4","even","70126","NA","NA","169728","NA","173318","172260","2496","NA","NA","2481","NA","173432","173907","173306","173432","Flanker Task ","51","36930","55","yes","1024"
"92.85714285714286","92.85714285714286","667.5892857142857","667.5892857142857","black","legacy","legacy","legacy","0","congruent ","uniform","1","undefined","1","s","0","0","0","55","0","55","55","0","0","0","0","55","55","55","55","55","Thu Sep 24 19:15:17 2020","1500","The main experiment item","yes","FlankerTask.osexp","/Users/kaylaredder/Desktop","no","mono","no","18","no","white","no","yes","768","legacy","55","55","/Users/kaylaredder/Desktop/jg-subject-4.csv","legacy","Lentiform Loewenfeld","3.3.3","0","s","NA","s","NA","NA","s","455","NA","67614","NA","NA","455","2","legacy","1024","2","48000","-16","experiment","SSSSS","4","even","70126","NA","NA","169728","NA","174988","173929","2496","NA","NA","2481","NA","175102","175558","174975","175102","Flanker Task ","52","37385","56","yes","1024"
"92.98245614035088","92.98245614035088","668.5438596491229","668.5438596491229","black","legacy","legacy","legacy","0","incongruent","uniform","1","undefined","1","s","0","0","0","56","0","56","56","0","0","0","0","56","56","56","56","56","Thu Sep 24 19:15:17 2020","1500","The main experiment item","yes","FlankerTask.osexp","/Users/kaylaredder/Desktop","no","mono","no","18","no","white","no","yes","768","legacy","56","56","/Users/kaylaredder/Desktop/jg-subject-4.csv","legacy","Lentiform Loewenfeld","3.3.3","0","s","NA","s","NA","NA","s","722","NA","67614","NA","NA","722","2","legacy","1024","2","48000","-16","experiment","HHSHH","4","even","70126","NA","NA","169728","NA","176637","175579","2496","NA","NA","2481","NA","176752","177476","176625","176751","Flanker Task ","53","38107","57","yes","1024"
"93.10344827586206","93.10344827586206","666.3620689655172","666.3620689655172","black","legacy","legacy","legacy","0","congruent ","uniform","1","undefined","1","s","0","0","0","57","0","57","57","0","0","0","0","57","57","57","57","57","Thu Sep 24 19:15:17 2020","1500","The main experiment item","yes","FlankerTask.osexp","/Users/kaylaredder/Desktop","no","mono","no","18","no","white","no","yes","768","legacy","57","57","/Users/kaylaredder/Desktop/jg-subject-4.csv","legacy","Lentiform Loewenfeld","3.3.3","0","s","NA","s","NA","NA","s","542","NA","67614","NA","NA","542","2","legacy","1024","2","48000","-16","experiment","SSSSS","4","even","70126","NA","NA","169728","NA","178556","177498","2496","NA","NA","2481","NA","178671","179214","178544","178671","Flanker Task ","54","38649","58","yes","1024"
"93.22033898305085","93.22033898305085","664.6101694915254","664.6101694915254","black","legacy","legacy","legacy","0","incongruent","uniform","1","undefined","1","s","0","0","0","58","0","58","58","0","0","0","0","58","58","58","58","58","Thu Sep 24 19:15:17 2020","1500","The main experiment item","yes","FlankerTask.osexp","/Users/kaylaredder/Desktop","no","mono","no","18","no","white","no","yes","768","legacy","58","58","/Users/kaylaredder/Desktop/jg-subject-4.csv","legacy","Lentiform Loewenfeld","3.3.3","0","s","NA","s","NA","NA","s","563","NA","67614","NA","NA","563","2","legacy","1024","2","48000","-16","experiment","HHSHH","4","even","70126","NA","NA","169728","NA","180294","179235","2496","NA","NA","2481","NA","180409","180973","180281","180409","Flanker Task ","55","39212","59","yes","1024"
"93.33333333333333","93.33333333333333","664.7833333333333","664.7833333333333","black","legacy","legacy","legacy","0","congruent","uniform","1","undefined","1","h","0","0","0","59","0","59","59","0","0","0","0","59","59","59","59","59","Thu Sep 24 19:15:17 2020","1500","The main experiment item","yes","FlankerTask.osexp","/Users/kaylaredder/Desktop","no","mono","no","18","no","white","no","yes","768","legacy","59","59","/Users/kaylaredder/Desktop/jg-subject-4.csv","legacy","Lentiform Loewenfeld","3.3.3","0","h","NA","s","NA","NA","h","675","NA","67614","NA","NA","675","2","legacy","1024","2","48000","-16","experiment","HHHHH","4","even","70126","NA","NA","169728","NA","182054","180996","2496","NA","NA","2481","NA","182168","182844","182042","182168","Flanker Task ","56","39887","60","yes","1024"
"93.44262295081967","93.44262295081967","667.0327868852459","667.0327868852459","black","legacy","legacy","legacy","0","incongruent ","uniform","1","undefined","1","h","0","0","0","60","0","60","60","0","0","0","0","60","60","60","60","60","Thu Sep 24 19:15:17 2020","1500","The main experiment item","yes","FlankerTask.osexp","/Users/kaylaredder/Desktop","no","mono","no","18","no","white","no","yes","768","legacy","60","60","/Users/kaylaredder/Desktop/jg-subject-4.csv","legacy","Lentiform Loewenfeld","3.3.3","0","h","NA","s","NA","NA","h","802","NA","67614","NA","NA","802","2","legacy","1024","2","48000","-16","experiment","SSHSS","4","even","70126","NA","NA","169728","NA","183926","182866","2496","NA","NA","2481","NA","184040","184843","183913","184040","Flanker Task ","57","40689","61","yes","1024"
"93.54838709677419","93.54838709677419","666.741935483871","666.741935483871","black","legacy","legacy","legacy","0","congruent ","uniform","1","undefined","1","s","0","0","0","61","0","61","61","0","0","0","0","61","61","61","61","61","Thu Sep 24 19:15:17 2020","1500","The main experiment item","yes","FlankerTask.osexp","/Users/kaylaredder/Desktop","no","mono","no","18","no","white","no","yes","768","legacy","61","61","/Users/kaylaredder/Desktop/jg-subject-4.csv","legacy","Lentiform Loewenfeld","3.3.3","0","s","NA","s","NA","NA","s","649","NA","67614","NA","NA","649","2","legacy","1024","2","48000","-16","experiment","SSSSS","4","even","70126","NA","NA","169728","NA","185925","184865","2496","NA","NA","2481","NA","186039","186689","185912","186039","Flanker Task ","58","41338","62","yes","1024"
"93.65079365079364","93.65079365079364","666.7936507936508","666.7936507936508","black","legacy","legacy","legacy","0","incongruent ","uniform","1","undefined","1","h","0","0","0","62","0","62","62","0","0","0","0","62","62","62","62","62","Thu Sep 24 19:15:17 2020","1500","The main experiment item","yes","FlankerTask.osexp","/Users/kaylaredder/Desktop","no","mono","no","18","no","white","no","yes","768","legacy","62","62","/Users/kaylaredder/Desktop/jg-subject-4.csv","legacy","Lentiform Loewenfeld","3.3.3","0","h","NA","s","NA","NA","h","670","NA","67614","NA","NA","670","2","legacy","1024","2","48000","-16","experiment","SSHSS","4","even","70126","NA","NA","169728","NA","187773","186714","2496","NA","NA","2481","NA","187888","188559","187761","187888","Flanker Task ","59","42008","63","yes","1024"
"93.75","93.75","667.21875","667.21875","black","legacy","legacy","legacy","0","incongruent ","uniform","1","undefined","1","h","0","0","0","63","0","63","63","0","0","0","0","63","63","63","63","63","Thu Sep 24 19:15:17 2020","1500","The main experiment item","yes","FlankerTask.osexp","/Users/kaylaredder/Desktop","no","mono","no","18","no","white","no","yes","768","legacy","63","63","/Users/kaylaredder/Desktop/jg-subject-4.csv","legacy","Lentiform Loewenfeld","3.3.3","0","h","NA","s","NA","NA","h","694","NA","67614","NA","NA","694","2","legacy","1024","2","48000","-16","experiment","SSHSS","4","even","70126","NA","NA","169728","NA","189638","188580","2496","NA","NA","2481","NA","189753","190448","189626","189753","Flanker Task ","60","42702","64","yes","1024"
"93.84615384615384","93.84615384615384","668.6461538461539","668.6461538461539","black","legacy","legacy","legacy","0","incongruent","uniform","1","undefined","1","s","0","0","0","64","0","64","64","0","0","0","0","64","64","64","64","64","Thu Sep 24 19:15:17 2020","1500","The main experiment item","yes","FlankerTask.osexp","/Users/kaylaredder/Desktop","no","mono","no","18","no","white","no","yes","768","legacy","64","64","/Users/kaylaredder/Desktop/jg-subject-4.csv","legacy","Lentiform Loewenfeld","3.3.3","0","s","NA","s","NA","NA","s","760","NA","67614","NA","NA","760","2","legacy","1024","2","48000","-16","experiment","HHSHH","4","even","70126","NA","NA","169728","NA","191530","190471","2496","NA","NA","2481","NA","191644","192405","191518","191644","Flanker Task ","61","43462","65","yes","1024"
"93.93939393939394","93.93939393939394","667.1363636363636","667.1363636363636","black","legacy","legacy","legacy","0","incongruent","uniform","1","undefined","1","s","0","0","0","65","0","65","65","0","0","0","0","65","65","65","65","65","Thu Sep 24 19:15:17 2020","1500","The main experiment item","yes","FlankerTask.osexp","/Users/kaylaredder/Desktop","no","mono","no","18","no","white","no","yes","768","legacy","65","65","/Users/kaylaredder/Desktop/jg-subject-4.csv","legacy","Lentiform Loewenfeld","3.3.3","0","s","NA","s","NA","NA","s","569","NA","67614","NA","NA","569","2","legacy","1024","2","48000","-16","experiment","HHSHH","4","even","70126","NA","NA","169728","NA","193485","192427","2496","NA","NA","2481","NA","193600","194170","193472","193599","Flanker Task ","62","44031","66","yes","1024"
"94.02985074626865","94.02985074626865","666.9402985074627","666.9402985074627","black","legacy","legacy","legacy","0","incongruent","uniform","1","undefined","1","s","0","0","0","66","0","66","66","0","0","0","0","66","66","66","66","66","Thu Sep 24 19:15:17 2020","1500","The main experiment item","yes","FlankerTask.osexp","/Users/kaylaredder/Desktop","no","mono","no","18","no","white","no","yes","768","legacy","66","66","/Users/kaylaredder/Desktop/jg-subject-4.csv","legacy","Lentiform Loewenfeld","3.3.3","0","s","NA","s","NA","NA","s","654","NA","67614","NA","NA","654","2","legacy","1024","2","48000","-16","experiment","HHSHH","4","even","70126","NA","NA","169728","NA","195250","194191","2496","NA","NA","2481","NA","195365","196020","195238","195364","Flanker Task ","63","44685","67","yes","1024"
"94.11764705882354","94.11764705882354","665.8529411764706","665.8529411764706","black","legacy","legacy","legacy","0","congruent","uniform","1","undefined","1","h","0","0","0","67","0","67","67","0","0","0","0","67","67","67","67","67","Thu Sep 24 19:15:17 2020","1500","The main experiment item","yes","FlankerTask.osexp","/Users/kaylaredder/Desktop","no","mono","no","18","no","white","no","yes","768","legacy","67","67","/Users/kaylaredder/Desktop/jg-subject-4.csv","legacy","Lentiform Loewenfeld","3.3.3","0","h","NA","s","NA","NA","h","593","NA","67614","NA","NA","593","2","legacy","1024","2","48000","-16","experiment","HHHHH","4","even","70126","NA","NA","169728","NA","197100","196042","2496","NA","NA","2481","NA","197215","197809","197087","197215","Flanker Task ","64","45278","68","yes","1024"
"94.20289855072464","94.20289855072464","664.8695652173913","664.8695652173913","black","legacy","legacy","legacy","0","congruent","uniform","1","undefined","1","h","0","0","0","68","0","68","68","0","0","0","0","68","68","68","68","68","Thu Sep 24 19:15:17 2020","1500","The main experiment item","yes","FlankerTask.osexp","/Users/kaylaredder/Desktop","no","mono","no","18","no","white","no","yes","768","legacy","68","68","/Users/kaylaredder/Desktop/jg-subject-4.csv","legacy","Lentiform Loewenfeld","3.3.3","0","h","NA","s","NA","NA","h","598","NA","67614","NA","NA","598","2","legacy","1024","2","48000","-16","experiment","HHHHH","4","even","70126","NA","NA","169728","NA","198891","197832","2496","NA","NA","2481","NA","199005","199604","198878","199005","Flanker Task ","65","45876","69","yes","1024"
"94.28571428571429","94.28571428571429","664.9857142857143","664.9857142857143","black","legacy","legacy","legacy","0","incongruent ","uniform","1","undefined","1","h","0","0","0","69","0","69","69","0","0","0","0","69","69","69","69","69","Thu Sep 24 19:15:17 2020","1500","The main experiment item","yes","FlankerTask.osexp","/Users/kaylaredder/Desktop","no","mono","no","18","no","white","no","yes","768","legacy","69","69","/Users/kaylaredder/Desktop/jg-subject-4.csv","legacy","Lentiform Loewenfeld","3.3.3","0","h","NA","s","NA","NA","h","673","NA","67614","NA","NA","673","2","legacy","1024","2","48000","-16","experiment","SSHSS","4","even","70126","NA","NA","169728","NA","200684","199626","2496","NA","NA","2481","NA","200799","201473","200672","200799","Flanker Task ","66","46549","70","yes","1024"
"94.36619718309859","94.36619718309859","662.1830985915493","662.1830985915493","black","legacy","legacy","legacy","0","congruent ","uniform","1","undefined","1","s","0","0","0","70","0","70","70","0","0","0","0","70","70","70","70","70","Thu Sep 24 19:15:17 2020","1500","The main experiment item","yes","FlankerTask.osexp","/Users/kaylaredder/Desktop","no","mono","no","18","no","white","no","yes","768","legacy","70","70","/Users/kaylaredder/Desktop/jg-subject-4.csv","legacy","Lentiform Loewenfeld","3.3.3","0","s","NA","s","NA","NA","s","466","NA","67614","NA","NA","466","2","legacy","1024","2","48000","-16","experiment","SSSSS","4","even","70126","NA","NA","169728","NA","202554","201495","2496","NA","NA","2481","NA","202669","203136","202542","202669","Flanker Task ","67","47015","71","yes","1024"
"94.44444444444444","94.44444444444444","659.3611111111111","659.3611111111111","black","legacy","legacy","legacy","0","congruent ","uniform","1","undefined","1","s","0","0","0","71","0","71","71","0","0","0","0","71","71","71","71","71","Thu Sep 24 19:15:17 2020","1500","The main experiment item","yes","FlankerTask.osexp","/Users/kaylaredder/Desktop","no","mono","no","18","no","white","no","yes","768","legacy","71","71","/Users/kaylaredder/Desktop/jg-subject-4.csv","legacy","Lentiform Loewenfeld","3.3.3","0","s","NA","s","NA","NA","s","459","NA","67614","NA","NA","459","2","legacy","1024","2","48000","-16","experiment","SSSSS","4","even","70126","NA","NA","169728","NA","204217","203159","2496","NA","NA","2481","NA","204332","204792","204205","204331","Flanker Task ","68","47474","72","yes","1024"
"94.52054794520548","94.52054794520548","658.1917808219179","658.1917808219179","black","legacy","legacy","legacy","0","incongruent ","uniform","1","undefined","1","h","0","0","0","72","0","72","72","0","0","0","0","72","72","72","72","72","Thu Sep 24 19:15:17 2020","1500","The main experiment item","yes","FlankerTask.osexp","/Users/kaylaredder/Desktop","no","mono","no","18","no","white","no","yes","768","legacy","72","72","/Users/kaylaredder/Desktop/jg-subject-4.csv","legacy","Lentiform Loewenfeld","3.3.3","0","h","NA","s","NA","NA","h","574","NA","67614","NA","NA","574","2","legacy","1024","2","48000","-16","experiment","SSHSS","4","even","70126","NA","NA","169728","NA","205871","204813","2496","NA","NA","2481","NA","205986","206561","205859","205986","Flanker Task ","69","48048","73","yes","1024"
"94.5945945945946","94.5945945945946","658.6891891891892","658.6891891891892","black","legacy","legacy","legacy","0","incongruent","uniform","1","undefined","1","s","0","0","0","73","0","73","73","0","0","0","0","73","73","73","73","73","Thu Sep 24 19:15:17 2020","1500","The main experiment item","yes","FlankerTask.osexp","/Users/kaylaredder/Desktop","no","mono","no","18","no","white","no","yes","768","legacy","73","73","/Users/kaylaredder/Desktop/jg-subject-4.csv","legacy","Lentiform Loewenfeld","3.3.3","0","s","NA","s","NA","NA","s","695","NA","67614","NA","NA","695","2","legacy","1024","2","48000","-16","experiment","HHSHH","4","even","70126","NA","NA","169728","NA","207641","206582","2496","NA","NA","2481","NA","207756","208453","207628","207755","Flanker Task ","70","48743","74","yes","1024"
"94.66666666666667","94.66666666666667","656.4666666666667","656.4666666666667","black","legacy","legacy","legacy","0","congruent","uniform","1","undefined","1","h","0","0","0","74","0","74","74","0","0","0","0","74","74","74","74","74","Thu Sep 24 19:15:17 2020","1500","The main experiment item","yes","FlankerTask.osexp","/Users/kaylaredder/Desktop","no","mono","no","18","no","white","no","yes","768","legacy","74","74","/Users/kaylaredder/Desktop/jg-subject-4.csv","legacy","Lentiform Loewenfeld","3.3.3","0","h","NA","s","NA","NA","h","492","NA","67614","NA","NA","492","2","legacy","1024","2","48000","-16","experiment","HHHHH","4","even","70126","NA","NA","169728","NA","209532","208474","2496","NA","NA","2481","NA","209647","210140","209519","209646","Flanker Task ","71","49235","75","yes","1024"
"94.73684210526316","94.73684210526316","654.671052631579","654.671052631579","black","legacy","legacy","legacy","0","congruent","uniform","1","undefined","1","h","0","0","0","75","0","75","75","0","0","0","0","75","75","75","75","75","Thu Sep 24 19:15:17 2020","1500","The main experiment item","yes","FlankerTask.osexp","/Users/kaylaredder/Desktop","no","mono","no","18","no","white","no","yes","768","legacy","75","75","/Users/kaylaredder/Desktop/jg-subject-4.csv","legacy","Lentiform Loewenfeld","3.3.3","0","h","NA","s","NA","NA","h","520","NA","67614","NA","NA","520","2","legacy","1024","2","48000","-16","experiment","HHHHH","4","even","70126","NA","NA","169728","NA","211220","210161","2496","NA","NA","2481","NA","211335","211856","211207","211334","Flanker Task ","72","49755","76","yes","1024"
"94.8051948051948","94.8051948051948","652.5974025974026","652.5974025974026","black","legacy","legacy","legacy","0","congruent ","uniform","1","undefined","1","s","0","0","0","76","0","76","76","0","0","0","0","76","76","76","76","76","Thu Sep 24 19:15:17 2020","1500","The main experiment item","yes","FlankerTask.osexp","/Users/kaylaredder/Desktop","no","mono","no","18","no","white","no","yes","768","legacy","76","76","/Users/kaylaredder/Desktop/jg-subject-4.csv","legacy","Lentiform Loewenfeld","3.3.3","0","s","NA","s","NA","NA","s","495","NA","67614","NA","NA","495","2","legacy","1024","2","48000","-16","experiment","SSSSS","4","even","70126","NA","NA","169728","NA","212937","211878","2496","NA","NA","2481","NA","213052","213548","212925","213052","Flanker Task ","73","50250","77","yes","1024"
"94.87179487179488","94.87179487179488","650.4487179487179","650.4487179487179","black","legacy","legacy","legacy","0","congruent ","uniform","1","undefined","1","s","0","0","0","77","0","77","77","0","0","0","0","77","77","77","77","77","Thu Sep 24 19:15:17 2020","1500","The main experiment item","yes","FlankerTask.osexp","/Users/kaylaredder/Desktop","no","mono","no","18","no","white","no","yes","768","legacy","77","77","/Users/kaylaredder/Desktop/jg-subject-4.csv","legacy","Lentiform Loewenfeld","3.3.3","0","s","NA","s","NA","NA","s","485","NA","67614","NA","NA","485","2","legacy","1024","2","48000","-16","experiment","SSSSS","4","even","70126","NA","NA","169728","NA","214629","213570","2496","NA","NA","2481","NA","214744","215230","214616","214744","Flanker Task ","74","50735","78","yes","1024"
"94.9367088607595","94.9367088607595","648.6708860759494","648.6708860759494","black","legacy","legacy","legacy","0","congruent","uniform","1","undefined","1","h","0","0","0","78","0","78","78","0","0","0","0","78","78","78","78","78","Thu Sep 24 19:15:17 2020","1500","The main experiment item","yes","FlankerTask.osexp","/Users/kaylaredder/Desktop","no","mono","no","18","no","white","no","yes","768","legacy","78","78","/Users/kaylaredder/Desktop/jg-subject-4.csv","legacy","Lentiform Loewenfeld","3.3.3","0","h","NA","s","NA","NA","h","510","NA","67614","NA","NA","510","2","legacy","1024","2","48000","-16","experiment","HHHHH","4","even","70126","NA","NA","169728","NA","216311","215252","2496","NA","NA","2481","NA","216426","216937","216299","216426","Flanker Task ","75","51245","79","yes","1024"
"95","95","646.25","646.25","black","legacy","legacy","legacy","0","congruent","uniform","1","undefined","1","h","0","0","0","79","0","79","79","0","0","0","0","79","79","79","79","79","Thu Sep 24 19:15:17 2020","1500","The main experiment item","yes","FlankerTask.osexp","/Users/kaylaredder/Desktop","no","mono","no","18","no","white","no","yes","768","legacy","79","79","/Users/kaylaredder/Desktop/jg-subject-4.csv","legacy","Lentiform Loewenfeld","3.3.3","0","h","NA","s","NA","NA","h","455","NA","67614","NA","NA","455","2","legacy","1024","2","48000","-16","experiment","HHHHH","4","even","70126","NA","NA","169728","NA","218020","216962","2496","NA","NA","2481","NA","218135","218591","218007","218134","Flanker Task ","76","51700","80","yes","1024"
"95.06172839506173","95.06172839506173","648.395061728395","648.395061728395","black","legacy","legacy","legacy","0","incongruent ","uniform","1","undefined","1","h","0","0","0","80","0","80","80","0","0","0","0","80","80","80","80","80","Thu Sep 24 19:15:17 2020","600","The main experiment item","yes","FlankerTask.osexp","/Users/kaylaredder/Desktop","no","mono","no","18","no","white","no","yes","768","legacy","0","79","/Users/kaylaredder/Desktop/jg-subject-4.csv","legacy","Lentiform Loewenfeld","3.3.3","0","h","NA","s","s","NA","h","820","NA","67614","50579","NA","820","2","legacy","1024","2","48000","-16","experiment","SSHSS","4","even","70126","270228","NA","169728","NA","270268","218612","2496","219647","NA","2481","NA","270383","271204","270255","270383","Flanker Task ","77","52520","81","yes","1024"
"95.1219512195122","95.1219512195122","647.9146341463414","647.9146341463414","black","legacy","legacy","legacy","0","congruent","uniform","1","undefined","1","h","0","0","0","81","0","81","81","0","0","0","0","81","81","81","81","81","Thu Sep 24 19:15:17 2020","600","The main experiment item","yes","FlankerTask.osexp","/Users/kaylaredder/Desktop","no","mono","no","18","no","white","no","yes","768","legacy","1","79","/Users/kaylaredder/Desktop/jg-subject-4.csv","legacy","Lentiform Loewenfeld","3.3.3","0","h","NA","s","s","NA","h","609","NA","67614","50579","NA","609","2","legacy","1024","2","48000","-16","experiment","HHHHH","4","even","70126","270228","NA","169728","NA","272798","271740","2496","219647","NA","2481","271226","272916","273527","272786","272916","Flanker Task ","78","53129","82","yes","1024"
"95.18072289156626","95.18072289156626","644.843373493976","644.843373493976","black","legacy","legacy","legacy","0","congrunent ","uniform","1","undefined","1","s","0","0","0","82","0","82","82","0","0","0","0","82","82","82","82","82","Thu Sep 24 19:15:17 2020","600","The main experiment item","yes","FlankerTask.osexp","/Users/kaylaredder/Desktop","no","mono","no","18","no","white","no","yes","768","legacy","2","79","/Users/kaylaredder/Desktop/jg-subject-4.csv","legacy","Lentiform Loewenfeld","3.3.3","0","s","NA","s","s","NA","s","393","NA","67614","50579","NA","393","2","legacy","1024","2","48000","-16","experiment","SSSSS","4","even","70126","270228","NA","169728","NA","275121","274062","2496","219647","NA","2481","273548","275236","275631","275109","275236","Flanker Task ","79","53522","83","yes","1024"
"95.23809523809524","95.23809523809524","641","641","black","legacy","legacy","legacy","0","congruent","uniform","1","undefined","1","h","0","0","0","83","0","83","83","0","0","0","0","83","83","83","83","83","Thu Sep 24 19:15:17 2020","600","The main experiment item","yes","FlankerTask.osexp","/Users/kaylaredder/Desktop","no","mono","no","18","no","white","no","yes","768","legacy","3","79","/Users/kaylaredder/Desktop/jg-subject-4.csv","legacy","Lentiform Loewenfeld","3.3.3","0","h","NA","s","s","NA","h","322","NA","67614","50579","NA","322","2","legacy","1024","2","48000","-16","experiment","HHHHH","4","even","70126","270228","NA","169728","NA","276705","275647","2496","219647","NA","2481","273548","276820","277144","276693","276819","Flanker Task ","80","53844","84","yes","1024"
"94.11764705882354","94.11764705882354","637.0235294117647","637.0235294117647","black","legacy","legacy","legacy","0","incongruent ","uniform","0","undefined","0","h","0","0","0","84","0","84","84","0","0","0","0","84","84","84","84","84","Thu Sep 24 19:15:17 2020","600","The main experiment item","yes","FlankerTask.osexp","/Users/kaylaredder/Desktop","no","mono","no","18","no","white","no","yes","768","legacy","4","79","/Users/kaylaredder/Desktop/jg-subject-4.csv","legacy","Lentiform Loewenfeld","3.3.3","0","s","NA","s","s","NA","s","303","NA","67614","50579","NA","303","2","legacy","1024","2","48000","-16","experiment","SSHSS","4","even","70126","270228","NA","169728","NA","278226","277168","2496","219647","NA","2481","273548","278341","278646","278214","278341","Flanker Task ","80","54147","85","yes","1024"
"94.18604651162791","94.18604651162791","635.7325581395348","635.7325581395348","black","legacy","legacy","legacy","0","congrunent ","uniform","1","undefined","1","s","0","0","0","85","0","85","85","0","0","0","0","85","85","85","85","85","Thu Sep 24 19:15:17 2020","600","The main experiment item","yes","FlankerTask.osexp","/Users/kaylaredder/Desktop","no","mono","no","18","no","white","no","yes","768","legacy","5","79","/Users/kaylaredder/Desktop/jg-subject-4.csv","legacy","Lentiform Loewenfeld","3.3.3","0","s","NA","s","s","NA","s","526","NA","67614","50579","NA","526","2","legacy","1024","2","48000","-16","experiment","SSSSS","4","even","70126","270228","NA","278666","NA","280239","279181","2496","219647","NA","2481","273548","280354","280882","280227","280354","Flanker Task ","81","54673","86","yes","1024"
"94.25287356321839","94.25287356321839","633.816091954023","633.816091954023","black","legacy","legacy","legacy","0","incongruent ","uniform","1","undefined","1","h","0","0","0","86","0","86","86","0","0","0","0","86","86","86","86","86","Thu Sep 24 19:15:17 2020","600","The main experiment item","yes","FlankerTask.osexp","/Users/kaylaredder/Desktop","no","mono","no","18","no","white","no","yes","768","legacy","6","79","/Users/kaylaredder/Desktop/jg-subject-4.csv","legacy","Lentiform Loewenfeld","3.3.3","0","h","NA","s","s","NA","h","469","NA","67614","50579","NA","469","2","legacy","1024","2","48000","-16","experiment","SSHSS","4","even","70126","270228","NA","278666","NA","281961","280903","2496","219647","NA","2481","273548","282075","282545","281949","282075","Flanker Task ","82","55142","87","yes","1024"
"93.18181818181819","93.18181818181819","631.5227272727273","631.5227272727273","black","legacy","legacy","legacy","0","incongruent","uniform","0","undefined","0","s","0","0","0","87","0","87","87","0","0","0","0","87","87","87","87","87","Thu Sep 24 19:15:17 2020","600","The main experiment item","yes","FlankerTask.osexp","/Users/kaylaredder/Desktop","no","mono","no","18","no","white","no","yes","768","legacy","7","79","/Users/kaylaredder/Desktop/jg-subject-4.csv","legacy","Lentiform Loewenfeld","3.3.3","0","h","NA","s","s","NA","h","432","NA","67614","50579","NA","432","2","legacy","1024","2","48000","-16","experiment","HHSHH","4","even","70126","270228","NA","278666","NA","283625","282566","2496","219647","NA","2481","273548","283740","284173","283613","283739","Flanker Task ","82","55574","88","yes","1024"
"93.25842696629213","93.25842696629213","629.9550561797753","629.9550561797753","black","legacy","legacy","legacy","0","congrunent ","uniform","1","undefined","1","s","0","0","0","88","0","88","88","0","0","0","0","88","88","88","88","88","Thu Sep 24 19:15:17 2020","600","The main experiment item","yes","FlankerTask.osexp","/Users/kaylaredder/Desktop","no","mono","no","18","no","white","no","yes","768","legacy","8","79","/Users/kaylaredder/Desktop/jg-subject-4.csv","legacy","Lentiform Loewenfeld","3.3.3","0","s","NA","s","s","NA","s","492","NA","67614","50579","NA","492","2","legacy","1024","2","48000","-16","experiment","SSSSS","4","even","70126","270228","NA","284196","NA","285768","284710","2496","219647","NA","2481","273548","285884","286377","285756","285884","Flanker Task ","83","56066","89","yes","1024"
"93.33333333333333","93.33333333333333","628.3222222222222","628.3222222222222","black","legacy","legacy","legacy","0","congruent","uniform","1","undefined","1","h","0","0","0","89","0","89","89","0","0","0","0","89","89","89","89","89","Thu Sep 24 19:15:17 2020","600","The main experiment item","yes","FlankerTask.osexp","/Users/kaylaredder/Desktop","no","mono","no","18","no","white","no","yes","768","legacy","9","79","/Users/kaylaredder/Desktop/jg-subject-4.csv","legacy","Lentiform Loewenfeld","3.3.3","0","h","NA","s","s","NA","h","483","NA","67614","50579","NA","483","2","legacy","1024","2","48000","-16","experiment","HHHHH","4","even","70126","270228","NA","284196","NA","287457","286398","2496","219647","NA","2481","273548","287572","288056","287445","287572","Flanker Task ","84","56549","90","yes","1024"
"93.4065934065934","93.4065934065934","626.7692307692307","626.7692307692307","black","legacy","legacy","legacy","0","congrunent ","uniform","1","undefined","1","s","0","0","0","90","0","90","90","0","0","0","0","90","90","90","90","90","Thu Sep 24 19:15:17 2020","600","The main experiment item","yes","FlankerTask.osexp","/Users/kaylaredder/Desktop","no","mono","no","18","no","white","no","yes","768","legacy","10","79","/Users/kaylaredder/Desktop/jg-subject-4.csv","legacy","Lentiform Loewenfeld","3.3.3","0","s","NA","s","s","NA","s","487","NA","67614","50579","NA","487","2","legacy","1024","2","48000","-16","experiment","SSSSS","4","even","70126","270228","NA","284196","NA","289137","288077","2496","219647","NA","2481","273548","289251","289740","289125","289251","Flanker Task ","85","57036","91","yes","1024"
"93.47826086956522","93.47826086956522","625.1847826086956","625.1847826086956","black","legacy","legacy","legacy","0","incongruent ","uniform","1","undefined","1","h","0","0","0","91","0","91","91","0","0","0","0","91","91","91","91","91","Thu Sep 24 19:15:17 2020","600","The main experiment item","yes","FlankerTask.osexp","/Users/kaylaredder/Desktop","no","mono","no","18","no","white","no","yes","768","legacy","11","79","/Users/kaylaredder/Desktop/jg-subject-4.csv","legacy","Lentiform Loewenfeld","3.3.3","0","h","NA","s","s","NA","h","481","NA","67614","50579","NA","481","2","legacy","1024","2","48000","-16","experiment","SSHSS","4","even","70126","270228","NA","284196","NA","290819","289760","2496","219647","NA","2481","273548","290934","291416","290806","290934","Flanker Task ","86","57517","92","yes","1024"
"93.54838709677419","93.54838709677419","622.6021505376344","622.6021505376344","black","legacy","legacy","legacy","0","incongruent","uniform","1","undefined","1","s","0","0","0","92","0","92","92","0","0","0","0","92","92","92","92","92","Thu Sep 24 19:15:17 2020","600","The main experiment item","yes","FlankerTask.osexp","/Users/kaylaredder/Desktop","no","mono","no","18","no","white","no","yes","768","legacy","12","79","/Users/kaylaredder/Desktop/jg-subject-4.csv","legacy","Lentiform Loewenfeld","3.3.3","0","s","NA","s","s","NA","s","385","NA","67614","50579","NA","385","2","legacy","1024","2","48000","-16","experiment","HHSHH","4","even","70126","270228","NA","284196","NA","292496","291437","2496","219647","NA","2481","273548","292610","292996","292484","292610","Flanker Task ","87","57902","93","yes","1024"
"93.61702127659575","93.61702127659575","620.2127659574468","620.2127659574468","black","legacy","legacy","legacy","0","congruent","uniform","1","undefined","1","h","0","0","0","93","0","93","93","0","0","0","0","93","93","93","93","93","Thu Sep 24 19:15:17 2020","600","The main experiment item","yes","FlankerTask.osexp","/Users/kaylaredder/Desktop","no","mono","no","18","no","white","no","yes","768","legacy","13","79","/Users/kaylaredder/Desktop/jg-subject-4.csv","legacy","Lentiform Loewenfeld","3.3.3","0","h","NA","s","s","NA","h","398","NA","67614","50579","NA","398","2","legacy","1024","2","48000","-16","experiment","HHHHH","4","even","70126","270228","NA","284196","NA","294076","293018","2496","219647","NA","2481","273548","294191","294590","294064","294190","Flanker Task ","88","58300","94","yes","1024"
"92.63157894736842","92.63157894736842","617.7578947368421","617.7578947368421","black","legacy","legacy","legacy","0","incongruent ","uniform","0","undefined","0","h","0","0","0","94","0","94","94","0","0","0","0","94","94","94","94","94","Thu Sep 24 19:15:17 2020","600","The main experiment item","yes","FlankerTask.osexp","/Users/kaylaredder/Desktop","no","mono","no","18","no","white","no","yes","768","legacy","14","79","/Users/kaylaredder/Desktop/jg-subject-4.csv","legacy","Lentiform Loewenfeld","3.3.3","0","s","NA","s","s","NA","s","387","NA","67614","50579","NA","387","2","legacy","1024","2","48000","-16","experiment","SSHSS","4","even","70126","270228","NA","284196","NA","295670","294612","2496","219647","NA","2481","273548","295786","296174","295658","295785","Flanker Task ","88","58687","95","yes","1024"
"92.70833333333333","92.70833333333333","616.375","616.375","black","legacy","legacy","legacy","0","congruent","uniform","1","undefined","1","h","0","0","0","95","0","95","95","0","0","0","0","95","95","95","95","95","Thu Sep 24 19:15:17 2020","600","The main experiment item","yes","FlankerTask.osexp","/Users/kaylaredder/Desktop","no","mono","no","18","no","white","no","yes","768","legacy","15","79","/Users/kaylaredder/Desktop/jg-subject-4.csv","legacy","Lentiform Loewenfeld","3.3.3","0","h","NA","s","s","NA","h","485","NA","67614","50579","NA","485","2","legacy","1024","2","48000","-16","experiment","HHHHH","4","even","70126","270228","NA","296195","NA","297769","296710","2496","219647","NA","2481","273548","297884","298370","297757","297884","Flanker Task ","89","59172","96","yes","1024"
"92.78350515463917","92.78350515463917","615.7525773195877","615.7525773195877","black","legacy","legacy","legacy","0","incongruent ","uniform","1","undefined","1","h","0","0","0","96","0","96","96","0","0","0","0","96","96","96","96","96","Thu Sep 24 19:15:17 2020","600","The main experiment item","yes","FlankerTask.osexp","/Users/kaylaredder/Desktop","no","mono","no","18","no","white","no","yes","768","legacy","16","79","/Users/kaylaredder/Desktop/jg-subject-4.csv","legacy","Lentiform Loewenfeld","3.3.3","0","h","NA","s","s","NA","h","556","NA","67614","50579","NA","556","2","legacy","1024","2","48000","-16","experiment","SSHSS","4","even","70126","270228","NA","296195","NA","299449","298391","2496","219647","NA","2481","273548","299564","300121","299437","299564","Flanker Task ","90","59728","97","yes","1024"
"91.83673469387755","91.83673469387755","614.2448979591836","614.2448979591836","black","legacy","legacy","legacy","0","incongruent ","uniform","0","undefined","0","h","0","0","0","97","0","97","97","0","0","0","0","97","97","97","97","97","Thu Sep 24 19:15:17 2020","600","The main experiment item","yes","FlankerTask.osexp","/Users/kaylaredder/Desktop","no","mono","no","18","no","white","no","yes","768","legacy","17","79","/Users/kaylaredder/Desktop/jg-subject-4.csv","legacy","Lentiform Loewenfeld","3.3.3","0","s","NA","s","s","NA","s","468","NA","67614","50579","NA","468","2","legacy","1024","2","48000","-16","experiment","SSHSS","4","even","70126","270228","NA","296195","NA","301202","300142","2496","219647","NA","2481","273548","301316","301785","301189","301316","Flanker Task ","90","60196","98","yes","1024"
"91.91919191919192","91.91919191919192","613.3131313131313","613.3131313131313","black","legacy","legacy","legacy","0","congrunent ","uniform","1","undefined","1","s","0","0","0","98","0","98","98","0","0","0","0","98","98","98","98","98","Thu Sep 24 19:15:17 2020","600","The main experiment item","yes","FlankerTask.osexp","/Users/kaylaredder/Desktop","no","mono","no","18","no","white","no","yes","768","legacy","18","79","/Users/kaylaredder/Desktop/jg-subject-4.csv","legacy","Lentiform Loewenfeld","3.3.3","0","s","NA","s","s","NA","s","522","NA","67614","50579","NA","522","2","legacy","1024","2","48000","-16","experiment","SSSSS","4","even","70126","270228","NA","301806","NA","303378","302321","2496","219647","NA","2481","273548","303493","304016","303366","303492","Flanker Task ","91","60718","99","yes","1024"
"92","92","611.66","611.66","black","legacy","legacy","legacy","0","incongruent ","uniform","1","undefined","1","h","0","0","0","99","0","99","99","0","0","0","0","99","99","99","99","99","Thu Sep 24 19:15:17 2020","600","The main experiment item","yes","FlankerTask.osexp","/Users/kaylaredder/Desktop","no","mono","no","18","no","white","no","yes","768","legacy","19","79","/Users/kaylaredder/Desktop/jg-subject-4.csv","legacy","Lentiform Loewenfeld","3.3.3","0","h","NA","s","s","NA","h","448","NA","67614","50579","NA","448","2","legacy","1024","2","48000","-16","experiment","SSHSS","4","even","70126","270228","NA","301806","NA","305097","304039","2496","219647","NA","2481","273548","305211","305660","305084","305211","Flanker Task ","92","61166","100","yes","1024"
"92.07920792079207","92.07920792079207","609.950495049505","609.950495049505","black","legacy","legacy","legacy","0","incongruent ","uniform","1","undefined","1","h","0","0","0","100","0","100","100","0","0","0","0","100","100","100","100","100","Thu Sep 24 19:15:17 2020","600","The main experiment item","yes","FlankerTask.osexp","/Users/kaylaredder/Desktop","no","mono","no","18","no","white","no","yes","768","legacy","20","79","/Users/kaylaredder/Desktop/jg-subject-4.csv","legacy","Lentiform Loewenfeld","3.3.3","0","h","NA","s","s","NA","h","439","NA","67614","50579","NA","439","2","legacy","1024","2","48000","-16","experiment","SSHSS","4","even","70126","270228","NA","301806","NA","306737","305679","2496","219647","NA","2481","273548","306852","307292","306725","306852","Flanker Task ","93","61605","101","yes","1024"
"92.15686274509804","92.15686274509804","608.2156862745098","608.2156862745098","black","legacy","legacy","legacy","0","incongruent ","uniform","1","undefined","1","h","0","0","0","101","0","101","101","0","0","0","0","101","101","101","101","101","Thu Sep 24 19:15:17 2020","600","The main experiment item","yes","FlankerTask.osexp","/Users/kaylaredder/Desktop","no","mono","no","18","no","white","no","yes","768","legacy","21","79","/Users/kaylaredder/Desktop/jg-subject-4.csv","legacy","Lentiform Loewenfeld","3.3.3","0","h","NA","s","s","NA","h","433","NA","67614","50579","NA","433","2","legacy","1024","2","48000","-16","experiment","SSHSS","4","even","70126","270228","NA","301806","NA","308373","307314","2496","219647","NA","2481","273548","308488","308922","308361","308488","Flanker Task ","94","62038","102","yes","1024"
"92.23300970873787","92.23300970873787","606.0388349514564","606.0388349514564","black","legacy","legacy","legacy","0","incongruent ","uniform","1","undefined","1","h","0","0","0","102","0","102","102","0","0","0","0","102","102","102","102","102","Thu Sep 24 19:15:17 2020","600","The main experiment item","yes","FlankerTask.osexp","/Users/kaylaredder/Desktop","no","mono","no","18","no","white","no","yes","768","legacy","22","79","/Users/kaylaredder/Desktop/jg-subject-4.csv","legacy","Lentiform Loewenfeld","3.3.3","0","h","NA","s","s","NA","h","384","NA","67614","50579","NA","384","2","legacy","1024","2","48000","-16","experiment","SSHSS","4","even","70126","270228","NA","301806","NA","310000","308943","2496","219647","NA","2481","273548","310115","310500","309989","310115","Flanker Task ","95","62422","103","yes","1024"
"92.3076923076923","92.3076923076923","605.5384615384615","605.5384615384615","black","legacy","legacy","legacy","0","incongruent","uniform","1","undefined","1","s","0","0","0","103","0","103","103","0","0","0","0","103","103","103","103","103","Thu Sep 24 19:15:17 2020","600","The main experiment item","yes","FlankerTask.osexp","/Users/kaylaredder/Desktop","no","mono","no","18","no","white","no","yes","768","legacy","23","79","/Users/kaylaredder/Desktop/jg-subject-4.csv","legacy","Lentiform Loewenfeld","3.3.3","0","s","NA","s","s","NA","s","554","NA","67614","50579","NA","554","2","legacy","1024","2","48000","-16","experiment","HHSHH","4","even","70126","270228","NA","301806","NA","311580","310522","2496","219647","NA","2481","273548","311695","312250","311568","311694","Flanker Task ","96","62976","104","yes","1024"
"92.38095238095238","92.38095238095238","604.0285714285715","604.0285714285715","black","legacy","legacy","legacy","0","congruent","uniform","1","undefined","1","h","0","0","0","104","0","104","104","0","0","0","0","104","104","104","104","104","Thu Sep 24 19:15:17 2020","600","The main experiment item","yes","FlankerTask.osexp","/Users/kaylaredder/Desktop","no","mono","no","18","no","white","no","yes","768","legacy","24","79","/Users/kaylaredder/Desktop/jg-subject-4.csv","legacy","Lentiform Loewenfeld","3.3.3","0","h","NA","s","s","NA","h","447","NA","67614","50579","NA","447","2","legacy","1024","2","48000","-16","experiment","HHHHH","4","even","70126","270228","NA","301806","NA","313330","312272","2496","219647","NA","2481","273548","313445","313893","313318","313445","Flanker Task ","97","63423","105","yes","1024"
"92.45283018867924","92.45283018867924","603.5943396226415","603.5943396226415","black","legacy","legacy","legacy","0","incongruent ","uniform","1","undefined","1","h","0","0","0","105","0","105","105","0","0","0","0","105","105","105","105","105","Thu Sep 24 19:15:17 2020","600","The main experiment item","yes","FlankerTask.osexp","/Users/kaylaredder/Desktop","no","mono","no","18","no","white","no","yes","768","legacy","25","79","/Users/kaylaredder/Desktop/jg-subject-4.csv","legacy","Lentiform Loewenfeld","3.3.3","0","h","NA","s","s","NA","h","558","NA","67614","50579","NA","558","2","legacy","1024","2","48000","-16","experiment","SSHSS","4","even","70126","270228","NA","301806","NA","314972","313914","2496","219647","NA","2481","273548","315087","315646","314960","315086","Flanker Task ","98","63981","106","yes","1024"
"91.58878504672897","91.58878504672897","603.2149532710281","603.2149532710281","black","legacy","legacy","legacy","0","incongruent","uniform","0","undefined","0","s","0","0","0","106","0","106","106","0","0","0","0","106","106","106","106","106","Thu Sep 24 19:15:17 2020","600","The main experiment item","yes","FlankerTask.osexp","/Users/kaylaredder/Desktop","no","mono","no","18","no","white","no","yes","768","legacy","26","79","/Users/kaylaredder/Desktop/jg-subject-4.csv","legacy","Lentiform Loewenfeld","3.3.3","0","h","NA","s","s","NA","h","563","NA","67614","50579","NA","563","2","legacy","1024","2","48000","-16","experiment","HHSHH","4","even","70126","270228","NA","301806","NA","316727","315669","2496","219647","NA","2481","273548","316842","317406","316715","316841","Flanker Task ","98","64544","107","yes","1024"
"91.66666666666667","91.66666666666667","602.4814814814815","602.4814814814815","black","legacy","legacy","legacy","0","incongruent","uniform","1","undefined","1","s","0","0","0","107","0","107","107","0","0","0","0","107","107","107","107","107","Thu Sep 24 19:15:17 2020","600","The main experiment item","yes","FlankerTask.osexp","/Users/kaylaredder/Desktop","no","mono","no","18","no","white","no","yes","768","legacy","27","79","/Users/kaylaredder/Desktop/jg-subject-4.csv","legacy","Lentiform Loewenfeld","3.3.3","0","s","NA","s","s","NA","s","524","NA","67614","50579","NA","524","2","legacy","1024","2","48000","-16","experiment","HHSHH","4","even","70126","270228","NA","317428","NA","319000","317941","2496","219647","NA","2481","273548","319114","319639","318987","319114","Flanker Task ","99","65068","108","yes","1024"
"91.74311926605505","91.74311926605505","601.5321100917431","601.5321100917431","black","legacy","legacy","legacy","0","incongruent","uniform","1","undefined","1","s","0","0","0","108","0","108","108","0","0","0","0","108","108","108","108","108","Thu Sep 24 19:15:17 2020","600","The main experiment item","yes","FlankerTask.osexp","/Users/kaylaredder/Desktop","no","mono","no","18","no","white","no","yes","768","legacy","28","79","/Users/kaylaredder/Desktop/jg-subject-4.csv","legacy","Lentiform Loewenfeld","3.3.3","0","s","NA","s","s","NA","s","499","NA","67614","50579","NA","499","2","legacy","1024","2","48000","-16","experiment","HHSHH","4","even","70126","270228","NA","317428","NA","320719","319661","2496","219647","NA","2481","273548","320834","321334","320707","320833","Flanker Task ","100","65567","109","yes","1024"
"90.9090909090909","90.9090909090909","601.7636363636364","601.7636363636364","black","legacy","legacy","legacy","0","congrunent ","uniform","0","undefined","0","s","0","0","0","109","0","109","109","0","0","0","0","109","109","109","109","109","Thu Sep 24 19:15:17 2020","600","The main experiment item","yes","FlankerTask.osexp","/Users/kaylaredder/Desktop","no","mono","no","18","no","white","no","yes","768","legacy","29","79","/Users/kaylaredder/Desktop/jg-subject-4.csv","legacy","Lentiform Loewenfeld","3.3.3","0","h","NA","s","s","NA","h","627","NA","67614","50579","NA","627","2","legacy","1024","2","48000","-16","experiment","SSSSS","4","even","70126","270228","NA","317428","NA","322413","321355","2496","219647","NA","2481","273548","322527","323155","322401","322527","Flanker Task ","100","66194","110","yes","1024"
"90.990990990991","90.990990990991","600.9009009009009","600.9009009009009","black","legacy","legacy","legacy","0","incongruent","uniform","1","undefined","1","s","0","0","0","110","0","110","110","0","0","0","0","110","110","110","110","110","Thu Sep 24 19:15:17 2020","600","The main experiment item","yes","FlankerTask.osexp","/Users/kaylaredder/Desktop","no","mono","no","18","no","white","no","yes","768","legacy","30","79","/Users/kaylaredder/Desktop/jg-subject-4.csv","legacy","Lentiform Loewenfeld","3.3.3","0","s","NA","s","s","NA","s","506","NA","67614","50579","NA","506","2","legacy","1024","2","48000","-16","experiment","HHSHH","4","even","70126","270228","NA","323177","NA","325262","324204","2496","219647","NA","2481","323691","325377","325884","325250","325376","Flanker Task ","101","66700","111","yes","1024"
"91.07142857142857","91.07142857142857","599.6964285714286","599.6964285714286","black","legacy","legacy","legacy","0","incongruent","uniform","1","undefined","1","s","0","0","0","111","0","111","111","0","0","0","0","111","111","111","111","111","Thu Sep 24 19:15:17 2020","600","The main experiment item","yes","FlankerTask.osexp","/Users/kaylaredder/Desktop","no","mono","no","18","no","white","no","yes","768","legacy","31","79","/Users/kaylaredder/Desktop/jg-subject-4.csv","legacy","Lentiform Loewenfeld","3.3.3","0","s","NA","s","s","NA","s","466","NA","67614","50579","NA","466","2","legacy","1024","2","48000","-16","experiment","HHSHH","4","even","70126","270228","NA","323177","NA","326964","325905","2496","219647","NA","2481","323691","327078","327545","326951","327078","Flanker Task ","102","67166","112","yes","1024"
"91.15044247787611","91.15044247787611","598.9469026548672","598.9469026548672","black","legacy","legacy","legacy","0","incongruent ","uniform","1","undefined","1","h","0","0","0","112","0","112","112","0","0","0","0","112","112","112","112","112","Thu Sep 24 19:15:17 2020","600","The main experiment item","yes","FlankerTask.osexp","/Users/kaylaredder/Desktop","no","mono","no","18","no","white","no","yes","768","legacy","32","79","/Users/kaylaredder/Desktop/jg-subject-4.csv","legacy","Lentiform Loewenfeld","3.3.3","0","h","NA","s","s","NA","h","515","NA","67614","50579","NA","515","2","legacy","1024","2","48000","-16","experiment","SSHSS","4","even","70126","270228","NA","323177","NA","328624","327566","2496","219647","NA","2481","323691","328739","329255","328612","328738","Flanker Task ","103","67681","113","yes","1024"
"91.2280701754386","91.2280701754386","599.0087719298245","599.0087719298245","black","legacy","legacy","legacy","0","incongruent ","uniform","1","undefined","1","h","0","0","0","113","0","113","113","0","0","0","0","113","113","113","113","113","Thu Sep 24 19:15:17 2020","600","The main experiment item","yes","FlankerTask.osexp","/Users/kaylaredder/Desktop","no","mono","no","18","no","white","no","yes","768","legacy","33","79","/Users/kaylaredder/Desktop/jg-subject-4.csv","legacy","Lentiform Loewenfeld","3.3.3","0","h","NA","s","s","NA","h","606","NA","67614","50579","NA","606","2","legacy","1024","2","48000","-16","experiment","SSHSS","4","even","70126","270228","NA","323177","NA","330333","329275","2496","219647","NA","2481","323691","330448","331055","330321","330448","Flanker Task ","104","68287","114","yes","1024"
"91.30434782608695","91.30434782608695","597.4521739130435","597.4521739130435","black","legacy","legacy","legacy","0","congruent","uniform","1","undefined","1","h","0","0","0","114","0","114","114","0","0","0","0","114","114","114","114","114","Thu Sep 24 19:15:17 2020","600","The main experiment item","yes","FlankerTask.osexp","/Users/kaylaredder/Desktop","no","mono","no","18","no","white","no","yes","768","legacy","34","79","/Users/kaylaredder/Desktop/jg-subject-4.csv","legacy","Lentiform Loewenfeld","3.3.3","0","h","NA","s","s","NA","h","420","NA","67614","50579","NA","420","2","legacy","1024","2","48000","-16","experiment","HHHHH","4","even","70126","270228","NA","323177","NA","332647","331589","2496","219647","NA","2481","331076","332762","333183","332635","332762","Flanker Task ","105","68707","115","yes","1024"
"91.37931034482759","91.37931034482759","596.4051724137931","596.4051724137931","black","legacy","legacy","legacy","0","incongruent ","uniform","1","undefined","1","h","0","0","0","115","0","115","115","0","0","0","0","115","115","115","115","115","Thu Sep 24 19:15:17 2020","600","The main experiment item","yes","FlankerTask.osexp","/Users/kaylaredder/Desktop","no","mono","no","18","no","white","no","yes","768","legacy","35","79","/Users/kaylaredder/Desktop/jg-subject-4.csv","legacy","Lentiform Loewenfeld","3.3.3","0","h","NA","s","s","NA","h","476","NA","67614","50579","NA","476","2","legacy","1024","2","48000","-16","experiment","SSHSS","4","even","70126","270228","NA","323177","NA","334263","333204","2496","219647","NA","2481","331076","334377","334854","334251","334377","Flanker Task ","106","69183","116","yes","1024"
"91.45299145299145","91.45299145299145","594.6068376068376","594.6068376068376","black","legacy","legacy","legacy","0","congruent","uniform","1","undefined","1","h","0","0","0","116","0","116","116","0","0","0","0","116","116","116","116","116","Thu Sep 24 19:15:17 2020","600","The main experiment item","yes","FlankerTask.osexp","/Users/kaylaredder/Desktop","no","mono","no","18","no","white","no","yes","768","legacy","36","79","/Users/kaylaredder/Desktop/jg-subject-4.csv","legacy","Lentiform Loewenfeld","3.3.3","0","h","NA","s","s","NA","h","386","NA","67614","50579","NA","386","2","legacy","1024","2","48000","-16","experiment","HHHHH","4","even","70126","270228","NA","323177","NA","335935","334876","2496","219647","NA","2481","331076","336049","336436","335923","336049","Flanker Task ","107","69569","117","yes","1024"
"91.52542372881356","91.52542372881356","592.9745762711865","592.9745762711865","black","legacy","legacy","legacy","0","congrunent ","uniform","1","undefined","1","s","0","0","0","117","0","117","117","0","0","0","0","117","117","117","117","117","Thu Sep 24 19:15:17 2020","600","The main experiment item","yes","FlankerTask.osexp","/Users/kaylaredder/Desktop","no","mono","no","18","no","white","no","yes","768","legacy","37","79","/Users/kaylaredder/Desktop/jg-subject-4.csv","legacy","Lentiform Loewenfeld","3.3.3","0","s","NA","s","s","NA","s","402","NA","67614","50579","NA","402","2","legacy","1024","2","48000","-16","experiment","SSSSS","4","even","70126","270228","NA","323177","NA","337519","336460","2496","219647","NA","2481","331076","337633","338036","337506","337633","Flanker Task ","108","69971","118","yes","1024"
"91.59663865546219","91.59663865546219","592.0588235294117","592.0588235294117","black","legacy","legacy","legacy","0","congrunent ","uniform","1","undefined","1","s","0","0","0","118","0","118","118","0","0","0","0","118","118","118","118","118","Thu Sep 24 19:15:17 2020","600","The main experiment item","yes","FlankerTask.osexp","/Users/kaylaredder/Desktop","no","mono","no","18","no","white","no","yes","768","legacy","38","79","/Users/kaylaredder/Desktop/jg-subject-4.csv","legacy","Lentiform Loewenfeld","3.3.3","0","s","NA","s","s","NA","s","484","NA","67614","50579","NA","484","2","legacy","1024","2","48000","-16","experiment","SSSSS","4","even","70126","270228","NA","323177","NA","339115","338057","2496","219647","NA","2481","331076","339230","339715","339103","339230","Flanker Task ","109","70455","119","yes","1024"
"91.66666666666667","91.66666666666667","590.6166666666667","590.6166666666667","black","legacy","legacy","legacy","0","congruent","uniform","1","undefined","1","h","0","0","0","119","0","119","119","0","0","0","0","119","119","119","119","119","Thu Sep 24 19:15:17 2020","600","The main experiment item","yes","FlankerTask.osexp","/Users/kaylaredder/Desktop","no","mono","no","18","no","white","no","yes","768","legacy","39","79","/Users/kaylaredder/Desktop/jg-subject-4.csv","legacy","Lentiform Loewenfeld","3.3.3","0","h","NA","s","s","NA","h","419","NA","67614","50579","NA","419","2","legacy","1024","2","48000","-16","experiment","HHHHH","4","even","70126","270228","NA","323177","NA","340795","339737","2496","219647","NA","2481","331076","340910","341330","340783","340910","Flanker Task ","110","70874","120","yes","1024"
"91.73553719008264","91.73553719008264","589.2644628099174","589.2644628099174","black","legacy","legacy","legacy","0","congruent","uniform","1","undefined","1","h","0","0","0","120","0","120","120","0","0","0","0","120","120","120","120","120","Thu Sep 24 19:15:17 2020","600","The main experiment item","yes","FlankerTask.osexp","/Users/kaylaredder/Desktop","no","mono","no","18","no","white","no","yes","768","legacy","40","79","/Users/kaylaredder/Desktop/jg-subject-4.csv","legacy","Lentiform Loewenfeld","3.3.3","0","h","NA","s","s","NA","h","427","NA","67614","50579","NA","427","2","legacy","1024","2","48000","-16","experiment","HHHHH","4","even","70126","270228","NA","323177","NA","342410","341351","2496","219647","NA","2481","331076","342524","342952","342398","342524","Flanker Task ","111","71301","121","yes","1024"
"91.80327868852459","91.80327868852459","587.5491803278688","587.5491803278688","black","legacy","legacy","legacy","0","congruent","uniform","1","undefined","1","h","0","0","0","121","0","121","121","0","0","0","0","121","121","121","121","121","Thu Sep 24 19:15:17 2020","600","The main experiment item","yes","FlankerTask.osexp","/Users/kaylaredder/Desktop","no","mono","no","18","no","white","no","yes","768","legacy","41","79","/Users/kaylaredder/Desktop/jg-subject-4.csv","legacy","Lentiform Loewenfeld","3.3.3","0","h","NA","s","s","NA","h","380","NA","67614","50579","NA","380","2","legacy","1024","2","48000","-16","experiment","HHHHH","4","even","70126","270228","NA","323177","NA","344030","342973","2496","219647","NA","2481","331076","344145","344526","344018","344145","Flanker Task ","112","71681","122","yes","1024"
