"acc","accuracy","average_response_time","avg_rt","background","canvas_backend","clock_backend","color_backend","condition","correct","correct_Instructions1","correct_KeyboardResponse","correct_response","count_Block1","count_Block2","count_Block3","count_ErrorFeedback","count_Faster","count_Finish","count_Fixation","count_ISI","count_Instructions1","count_Instructions2","count_Instructions3","count_KeyboardResponse","count_Logger","count_Sequence","count_Stimulus","count_experiment","datetime","deadline","description","disable_garbage_collection","experiment_file","experiment_path","font_bold","font_family","font_italic","font_size","font_underline","foreground","form_clicks","fullscreen","height","keyboard_backend","live_row","live_row_Block1","logfile","mouse_backend","opensesame_codename","opensesame_version","repeat_cycle","response","response_Finish","response_Instructions1","response_Instructions2","response_Instructions3","response_KeyboardResponse","response_time","response_time_Finish","response_time_Instructions1","response_time_Instructions2","response_time_Instructions3","response_time_KeyboardResponse","round_decimals","sampler_backend","sound_buf_size","sound_channels","sound_freq","sound_sample_size","start","stimulus","subject_nr","subject_parity","time_Block1","time_Block2","time_Block3","time_ErrorFeedback","time_Faster","time_Finish","time_Fixation","time_ISI","time_Instructions1","time_Instructions2","time_Instructions3","time_KeyboardResponse","time_Logger","time_Sequence","time_Stimulus","time_experiment","title","total_correct","total_response_time","total_responses","width"
"100","100","534","534","#000000","legacy","legacy","legacy","congruent","1","undefined","1","h","0","0","0","0","0","0","0","0","0","0","0","0","0","0","0","0","Wed Sep 20 18:09:19 2023","1500","The main experiment item","False","Flanker Task.osexp","/Users/RMILLER1/Library/CloudStorage/OneDrive-tarleton.edu(NTNET)/TSU Online Classes/Graduate Class/ Adv Quant Methods and Design","False","mono","False","18","no","white","no","no","768","legacy","0","0","/Users/RMILLER1/Library/CloudStorage/OneDrive-tarleton.edu(NTNET)/TSU Online Classes/Graduate Class/ Adv Quant Methods and Design/RM-subject-2.csv","legacy","Melodramatic Milgram","4.0.5","0","h","NA","s","NA","NA","h","534.0","NA","3462","NA","NA","534","2","legacy","1024","2","48000","-16","experiment","HHHHH","1","odd","15562","NA","NA","NA","NA","NA","15584","NA","12084","NA","NA","15688","16223","15581","15687","12035","Flanker Task","1","534.0","1","1024"
"100","100","478","478","#000000","legacy","legacy","legacy","congruent","1","undefined","1","h","0","0","0","1","1","0","1","1","0","0","0","1","1","1","1","0","Wed Sep 20 18:09:19 2023","1500","The main experiment item","False","Flanker Task.osexp","/Users/RMILLER1/Library/CloudStorage/OneDrive-tarleton.edu(NTNET)/TSU Online Classes/Graduate Class/ Adv Quant Methods and Design","False","mono","False","18","no","white","no","no","768","legacy","1","1","/Users/RMILLER1/Library/CloudStorage/OneDrive-tarleton.edu(NTNET)/TSU Online Classes/Graduate Class/ Adv Quant Methods and Design/RM-subject-2.csv","legacy","Melodramatic Milgram","4.0.5","0","h","NA","s","NA","NA","h","423.0","NA","3462","NA","NA","423","2","legacy","1024","2","48000","-16","experiment","HHHHH","1","odd","15562","NA","NA","NA","NA","NA","17249","16228","12084","NA","NA","17351","17784","17247","17351","12035","Flanker Task","2","957.0","2","1024"
"100","100","457","457","#000000","legacy","legacy","legacy","congruent","1","undefined","1","h","0","0","0","2","2","0","2","2","0","0","0","2","2","2","2","0","Wed Sep 20 18:09:19 2023","1500","The main experiment item","False","Flanker Task.osexp","/Users/RMILLER1/Library/CloudStorage/OneDrive-tarleton.edu(NTNET)/TSU Online Classes/Graduate Class/ Adv Quant Methods and Design","False","mono","False","18","no","white","no","no","768","legacy","2","2","/Users/RMILLER1/Library/CloudStorage/OneDrive-tarleton.edu(NTNET)/TSU Online Classes/Graduate Class/ Adv Quant Methods and Design/RM-subject-2.csv","legacy","Melodramatic Milgram","4.0.5","0","h","NA","s","NA","NA","h","415.0","NA","3462","NA","NA","415","2","legacy","1024","2","48000","-16","experiment","HHHHH","1","odd","15562","NA","NA","NA","NA","NA","18810","17786","12084","NA","NA","18912","19328","18807","18912","12035","Flanker Task","3","1372.0","3","1024"
"75","75","476","476","#000000","legacy","legacy","legacy","incongruent","0","undefined","0","h","0","0","0","3","3","0","3","3","0","0","0","3","3","3","3","0","Wed Sep 20 18:09:19 2023","1500","The main experiment item","False","Flanker Task.osexp","/Users/RMILLER1/Library/CloudStorage/OneDrive-tarleton.edu(NTNET)/TSU Online Classes/Graduate Class/ Adv Quant Methods and Design","False","mono","False","18","no","white","no","no","768","legacy","3","3","/Users/RMILLER1/Library/CloudStorage/OneDrive-tarleton.edu(NTNET)/TSU Online Classes/Graduate Class/ Adv Quant Methods and Design/RM-subject-2.csv","legacy","Melodramatic Milgram","4.0.5","0","s","NA","s","NA","NA","s","532.0","NA","3462","NA","NA","532","2","legacy","1024","2","48000","-16","experiment","SSHSS","1","odd","15562","NA","NA","NA","NA","NA","20358","19331","12084","NA","NA","20461","20993","20355","20461","12035","Flanker Task","3","1904.0","4","1024"
"80","80","538","538","#000000","legacy","legacy","legacy","incongruent","1","undefined","1","h","0","0","0","4","4","0","4","4","0","0","0","4","4","4","4","0","Wed Sep 20 18:09:19 2023","1500","The main experiment item","False","Flanker Task.osexp","/Users/RMILLER1/Library/CloudStorage/OneDrive-tarleton.edu(NTNET)/TSU Online Classes/Graduate Class/ Adv Quant Methods and Design","False","mono","False","18","no","white","no","no","768","legacy","4","4","/Users/RMILLER1/Library/CloudStorage/OneDrive-tarleton.edu(NTNET)/TSU Online Classes/Graduate Class/ Adv Quant Methods and Design/RM-subject-2.csv","legacy","Melodramatic Milgram","4.0.5","0","h","NA","s","NA","NA","h","787.0","NA","3462","NA","NA","787","2","legacy","1024","2","48000","-16","experiment","SSHSS","1","odd","15562","NA","NA","20997","NA","NA","22533","21501","12084","NA","NA","22635","23423","22530","22635","12035","Flanker Task","4","2691.0","5","1024"
"83","83","534","534","#000000","legacy","legacy","legacy","incongruent","1","undefined","1","h","0","0","0","5","5","0","5","5","0","0","0","5","5","5","5","0","Wed Sep 20 18:09:19 2023","1500","The main experiment item","False","Flanker Task.osexp","/Users/RMILLER1/Library/CloudStorage/OneDrive-tarleton.edu(NTNET)/TSU Online Classes/Graduate Class/ Adv Quant Methods and Design","False","mono","False","18","no","white","no","no","768","legacy","5","5","/Users/RMILLER1/Library/CloudStorage/OneDrive-tarleton.edu(NTNET)/TSU Online Classes/Graduate Class/ Adv Quant Methods and Design/RM-subject-2.csv","legacy","Melodramatic Milgram","4.0.5","0","h","NA","s","NA","NA","h","514.0","NA","3462","NA","NA","514","2","legacy","1024","2","48000","-16","experiment","SSHSS","1","odd","15562","NA","NA","20997","NA","NA","24448","23427","12084","NA","NA","24550","25065","24445","24550","12035","Flanker Task","5","3205.0","6","1024"
"85","85","527","527","#000000","legacy","legacy","legacy","congruent","1","undefined","1","s","0","0","0","6","6","0","6","6","0","0","0","6","6","6","6","0","Wed Sep 20 18:09:19 2023","1500","The main experiment item","False","Flanker Task.osexp","/Users/RMILLER1/Library/CloudStorage/OneDrive-tarleton.edu(NTNET)/TSU Online Classes/Graduate Class/ Adv Quant Methods and Design","False","mono","False","18","no","white","no","no","768","legacy","6","6","/Users/RMILLER1/Library/CloudStorage/OneDrive-tarleton.edu(NTNET)/TSU Online Classes/Graduate Class/ Adv Quant Methods and Design/RM-subject-2.csv","legacy","Melodramatic Milgram","4.0.5","0","s","NA","s","NA","NA","s","489.0","NA","3462","NA","NA","489","2","legacy","1024","2","48000","-16","experiment","SSSSS","1","odd","15562","NA","NA","20997","NA","NA","26094","25068","12084","NA","NA","26197","26686","26091","26197","12035","Flanker Task","6","3694.0","7","1024"
"87","87","516","516","#000000","legacy","legacy","legacy","congruent","1","undefined","1","h","0","0","0","7","7","0","7","7","0","0","0","7","7","7","7","0","Wed Sep 20 18:09:19 2023","1500","The main experiment item","False","Flanker Task.osexp","/Users/RMILLER1/Library/CloudStorage/OneDrive-tarleton.edu(NTNET)/TSU Online Classes/Graduate Class/ Adv Quant Methods and Design","False","mono","False","18","no","white","no","no","768","legacy","7","7","/Users/RMILLER1/Library/CloudStorage/OneDrive-tarleton.edu(NTNET)/TSU Online Classes/Graduate Class/ Adv Quant Methods and Design/RM-subject-2.csv","legacy","Melodramatic Milgram","4.0.5","0","h","NA","s","NA","NA","h","441.0","NA","3462","NA","NA","441","2","legacy","1024","2","48000","-16","experiment","HHHHH","1","odd","15562","NA","NA","20997","NA","NA","27717","26689","12084","NA","NA","27819","28261","27715","27819","12035","Flanker Task","7","4135.0","8","1024"
"88","88","518","518","#000000","legacy","legacy","legacy","incongruent","1","undefined","1","s","0","0","0","8","8","0","8","8","0","0","0","8","8","8","8","0","Wed Sep 20 18:09:19 2023","1500","The main experiment item","False","Flanker Task.osexp","/Users/RMILLER1/Library/CloudStorage/OneDrive-tarleton.edu(NTNET)/TSU Online Classes/Graduate Class/ Adv Quant Methods and Design","False","mono","False","18","no","white","no","no","768","legacy","8","8","/Users/RMILLER1/Library/CloudStorage/OneDrive-tarleton.edu(NTNET)/TSU Online Classes/Graduate Class/ Adv Quant Methods and Design/RM-subject-2.csv","legacy","Melodramatic Milgram","4.0.5","0","s","NA","s","NA","NA","s","534.0","NA","3462","NA","NA","534","2","legacy","1024","2","48000","-16","experiment","HHSHH","1","odd","15562","NA","NA","20997","NA","NA","29287","28264","12084","NA","NA","29390","29924","29284","29389","12035","Flanker Task","8","4669.0","9","1024"
"90","90","509","509","#000000","legacy","legacy","legacy","congruent","1","undefined","1","s","0","0","0","9","9","0","9","9","0","0","0","9","9","9","9","0","Wed Sep 20 18:09:19 2023","1500","The main experiment item","False","Flanker Task.osexp","/Users/RMILLER1/Library/CloudStorage/OneDrive-tarleton.edu(NTNET)/TSU Online Classes/Graduate Class/ Adv Quant Methods and Design","False","mono","False","18","no","white","no","no","768","legacy","9","9","/Users/RMILLER1/Library/CloudStorage/OneDrive-tarleton.edu(NTNET)/TSU Online Classes/Graduate Class/ Adv Quant Methods and Design/RM-subject-2.csv","legacy","Melodramatic Milgram","4.0.5","0","s","NA","s","NA","NA","s","423.0","NA","3462","NA","NA","423","2","legacy","1024","2","48000","-16","experiment","SSSSS","1","odd","15562","NA","NA","20997","NA","NA","30952","29927","12084","NA","NA","31055","31478","30948","31055","12035","Flanker Task","9","5092.0","10","1024"
"90","90","505","505","#000000","legacy","legacy","legacy","incongruent","1","undefined","1","s","0","0","0","10","10","0","10","10","0","0","0","10","10","10","10","0","Wed Sep 20 18:09:19 2023","1500","The main experiment item","False","Flanker Task.osexp","/Users/RMILLER1/Library/CloudStorage/OneDrive-tarleton.edu(NTNET)/TSU Online Classes/Graduate Class/ Adv Quant Methods and Design","False","mono","False","18","no","white","no","no","768","legacy","10","10","/Users/RMILLER1/Library/CloudStorage/OneDrive-tarleton.edu(NTNET)/TSU Online Classes/Graduate Class/ Adv Quant Methods and Design/RM-subject-2.csv","legacy","Melodramatic Milgram","4.0.5","0","s","NA","s","NA","NA","s","469.0","NA","3462","NA","NA","469","2","legacy","1024","2","48000","-16","experiment","HHSHH","1","odd","15562","NA","NA","20997","NA","NA","32503","31481","12084","NA","NA","32606","33076","32499","32606","12035","Flanker Task","10","5561.0","11","1024"
"91","91","496","496","#000000","legacy","legacy","legacy","congruent","1","undefined","1","s","0","0","0","11","11","0","11","11","0","0","0","11","11","11","11","0","Wed Sep 20 18:09:19 2023","1500","The main experiment item","False","Flanker Task.osexp","/Users/RMILLER1/Library/CloudStorage/OneDrive-tarleton.edu(NTNET)/TSU Online Classes/Graduate Class/ Adv Quant Methods and Design","False","mono","False","18","no","white","no","no","768","legacy","11","11","/Users/RMILLER1/Library/CloudStorage/OneDrive-tarleton.edu(NTNET)/TSU Online Classes/Graduate Class/ Adv Quant Methods and Design/RM-subject-2.csv","legacy","Melodramatic Milgram","4.0.5","0","s","NA","s","NA","NA","s","398.0","NA","3462","NA","NA","398","2","legacy","1024","2","48000","-16","experiment","SSSSS","1","odd","15562","NA","NA","20997","NA","NA","34104","33079","12084","NA","NA","34207","34606","34100","34207","12035","Flanker Task","11","5959.0","12","1024"
"92","92","489","489","#000000","legacy","legacy","legacy","congruent","1","undefined","1","h","0","0","0","12","12","0","12","12","0","0","0","12","12","12","12","0","Wed Sep 20 18:09:19 2023","1500","The main experiment item","False","Flanker Task.osexp","/Users/RMILLER1/Library/CloudStorage/OneDrive-tarleton.edu(NTNET)/TSU Online Classes/Graduate Class/ Adv Quant Methods and Design","False","mono","False","18","no","white","no","no","768","legacy","12","12","/Users/RMILLER1/Library/CloudStorage/OneDrive-tarleton.edu(NTNET)/TSU Online Classes/Graduate Class/ Adv Quant Methods and Design/RM-subject-2.csv","legacy","Melodramatic Milgram","4.0.5","0","h","NA","s","NA","NA","h","404.0","NA","3462","NA","NA","404","2","legacy","1024","2","48000","-16","experiment","HHHHH","1","odd","15562","NA","NA","20997","NA","NA","35629","34609","12084","NA","NA","35731","36136","35626","35731","12035","Flanker Task","12","6363.0","13","1024"
"92","92","487","487","#000000","legacy","legacy","legacy","incongruent","1","undefined","1","s","0","0","0","13","13","0","13","13","0","0","0","13","13","13","13","0","Wed Sep 20 18:09:19 2023","1500","The main experiment item","False","Flanker Task.osexp","/Users/RMILLER1/Library/CloudStorage/OneDrive-tarleton.edu(NTNET)/TSU Online Classes/Graduate Class/ Adv Quant Methods and Design","False","mono","False","18","no","white","no","no","768","legacy","13","13","/Users/RMILLER1/Library/CloudStorage/OneDrive-tarleton.edu(NTNET)/TSU Online Classes/Graduate Class/ Adv Quant Methods and Design/RM-subject-2.csv","legacy","Melodramatic Milgram","4.0.5","0","s","NA","s","NA","NA","s","463.0","NA","3462","NA","NA","463","2","legacy","1024","2","48000","-16","experiment","HHSHH","1","odd","15562","NA","NA","20997","NA","NA","37166","36139","12084","NA","NA","37270","37733","37162","37269","12035","Flanker Task","13","6826.0","14","1024"
"86","86","490","490","#000000","legacy","legacy","legacy","incongruent","0","undefined","0","s","0","0","0","14","14","0","14","14","0","0","0","14","14","14","14","0","Wed Sep 20 18:09:19 2023","1500","The main experiment item","False","Flanker Task.osexp","/Users/RMILLER1/Library/CloudStorage/OneDrive-tarleton.edu(NTNET)/TSU Online Classes/Graduate Class/ Adv Quant Methods and Design","False","mono","False","18","no","white","no","no","768","legacy","14","14","/Users/RMILLER1/Library/CloudStorage/OneDrive-tarleton.edu(NTNET)/TSU Online Classes/Graduate Class/ Adv Quant Methods and Design/RM-subject-2.csv","legacy","Melodramatic Milgram","4.0.5","0","h","NA","s","NA","NA","h","534.0","NA","3462","NA","NA","534","2","legacy","1024","2","48000","-16","experiment","HHSHH","1","odd","15562","NA","NA","20997","NA","NA","38760","37737","12084","NA","NA","38864","39399","38757","38864","12035","Flanker Task","13","7360.0","15","1024"
"87","87","493","493","#000000","legacy","legacy","legacy","incongruent","1","undefined","1","s","0","0","0","15","15","0","15","15","0","0","0","15","15","15","15","0","Wed Sep 20 18:09:19 2023","1500","The main experiment item","False","Flanker Task.osexp","/Users/RMILLER1/Library/CloudStorage/OneDrive-tarleton.edu(NTNET)/TSU Online Classes/Graduate Class/ Adv Quant Methods and Design","False","mono","False","18","no","white","no","no","768","legacy","15","15","/Users/RMILLER1/Library/CloudStorage/OneDrive-tarleton.edu(NTNET)/TSU Online Classes/Graduate Class/ Adv Quant Methods and Design/RM-subject-2.csv","legacy","Melodramatic Milgram","4.0.5","0","s","NA","s","NA","NA","s","531.0","NA","3462","NA","NA","531","2","legacy","1024","2","48000","-16","experiment","HHSHH","1","odd","15562","NA","NA","39402","NA","NA","40946","39912","12084","NA","NA","41048","41580","40944","41048","12035","Flanker Task","14","7891.0","16","1024"
"88","88","490","490","#000000","legacy","legacy","legacy","congruent","1","undefined","1","h","0","0","0","16","16","0","16","16","0","0","0","16","16","16","16","0","Wed Sep 20 18:09:19 2023","1500","The main experiment item","False","Flanker Task.osexp","/Users/RMILLER1/Library/CloudStorage/OneDrive-tarleton.edu(NTNET)/TSU Online Classes/Graduate Class/ Adv Quant Methods and Design","False","mono","False","18","no","white","no","no","768","legacy","16","16","/Users/RMILLER1/Library/CloudStorage/OneDrive-tarleton.edu(NTNET)/TSU Online Classes/Graduate Class/ Adv Quant Methods and Design/RM-subject-2.csv","legacy","Melodramatic Milgram","4.0.5","0","h","NA","s","NA","NA","h","445.0","NA","3462","NA","NA","445","2","legacy","1024","2","48000","-16","experiment","HHHHH","1","odd","15562","NA","NA","39402","NA","NA","42606","41583","12084","NA","NA","42709","43154","42603","42709","12035","Flanker Task","15","8336.0","17","1024"
"88","88","496","496","#000000","legacy","legacy","legacy","incongruent","1","undefined","1","h","0","0","0","17","17","0","17","17","0","0","0","17","17","17","17","0","Wed Sep 20 18:09:19 2023","1500","The main experiment item","False","Flanker Task.osexp","/Users/RMILLER1/Library/CloudStorage/OneDrive-tarleton.edu(NTNET)/TSU Online Classes/Graduate Class/ Adv Quant Methods and Design","False","mono","False","18","no","white","no","no","768","legacy","17","17","/Users/RMILLER1/Library/CloudStorage/OneDrive-tarleton.edu(NTNET)/TSU Online Classes/Graduate Class/ Adv Quant Methods and Design/RM-subject-2.csv","legacy","Melodramatic Milgram","4.0.5","0","h","NA","s","NA","NA","h","607.0","NA","3462","NA","NA","607","2","legacy","1024","2","48000","-16","experiment","SSHSS","1","odd","15562","NA","NA","39402","NA","NA","44178","43157","12084","NA","NA","44281","44889","44174","44281","12035","Flanker Task","16","8943.0","18","1024"
"89","89","494","494","#000000","legacy","legacy","legacy","incongruent","1","undefined","1","s","0","0","0","18","18","0","18","18","0","0","0","18","18","18","18","0","Wed Sep 20 18:09:19 2023","1500","The main experiment item","False","Flanker Task.osexp","/Users/RMILLER1/Library/CloudStorage/OneDrive-tarleton.edu(NTNET)/TSU Online Classes/Graduate Class/ Adv Quant Methods and Design","False","mono","False","18","no","white","no","no","768","legacy","18","18","/Users/RMILLER1/Library/CloudStorage/OneDrive-tarleton.edu(NTNET)/TSU Online Classes/Graduate Class/ Adv Quant Methods and Design/RM-subject-2.csv","legacy","Melodramatic Milgram","4.0.5","0","s","NA","s","NA","NA","s","450.0","NA","3462","NA","NA","450","2","legacy","1024","2","48000","-16","experiment","HHSHH","1","odd","15562","NA","NA","39402","NA","NA","45912","44892","12084","NA","NA","46013","46464","45909","46013","12035","Flanker Task","17","9393.0","19","1024"
"90","90","491","491","#000000","legacy","legacy","legacy","incongruent","1","undefined","1","h","0","0","0","19","19","0","19","19","0","0","0","19","19","19","19","0","Wed Sep 20 18:09:19 2023","1500","The main experiment item","False","Flanker Task.osexp","/Users/RMILLER1/Library/CloudStorage/OneDrive-tarleton.edu(NTNET)/TSU Online Classes/Graduate Class/ Adv Quant Methods and Design","False","mono","False","18","no","white","no","no","768","legacy","19","19","/Users/RMILLER1/Library/CloudStorage/OneDrive-tarleton.edu(NTNET)/TSU Online Classes/Graduate Class/ Adv Quant Methods and Design/RM-subject-2.csv","legacy","Melodramatic Milgram","4.0.5","0","h","NA","s","NA","NA","h","430.0","NA","3462","NA","NA","430","2","legacy","1024","2","48000","-16","experiment","SSHSS","1","odd","15562","NA","NA","39402","NA","NA","47484","46467","12084","NA","NA","47586","48016","47481","47586","12035","Flanker Task","18","9823.0","20","1024"
"90","90","490","490","#000000","legacy","legacy","legacy","incongruent","1","undefined","1","s","0","0","0","20","20","0","20","20","0","0","0","20","20","20","20","0","Wed Sep 20 18:09:19 2023","1500","The main experiment item","False","Flanker Task.osexp","/Users/RMILLER1/Library/CloudStorage/OneDrive-tarleton.edu(NTNET)/TSU Online Classes/Graduate Class/ Adv Quant Methods and Design","False","mono","False","18","no","white","no","no","768","legacy","20","20","/Users/RMILLER1/Library/CloudStorage/OneDrive-tarleton.edu(NTNET)/TSU Online Classes/Graduate Class/ Adv Quant Methods and Design/RM-subject-2.csv","legacy","Melodramatic Milgram","4.0.5","0","s","NA","s","NA","NA","s","486.0","NA","3462","NA","NA","486","2","legacy","1024","2","48000","-16","experiment","HHSHH","1","odd","15562","NA","NA","39402","NA","NA","49048","48019","12084","NA","NA","49150","49636","49045","49149","12035","Flanker Task","19","10309.0","21","1024"
"90","90","488","488","#000000","legacy","legacy","legacy","congruent","1","undefined","1","s","0","0","0","21","21","0","21","21","0","0","0","21","21","21","21","0","Wed Sep 20 18:09:19 2023","1500","The main experiment item","False","Flanker Task.osexp","/Users/RMILLER1/Library/CloudStorage/OneDrive-tarleton.edu(NTNET)/TSU Online Classes/Graduate Class/ Adv Quant Methods and Design","False","mono","False","18","no","white","no","no","768","legacy","21","21","/Users/RMILLER1/Library/CloudStorage/OneDrive-tarleton.edu(NTNET)/TSU Online Classes/Graduate Class/ Adv Quant Methods and Design/RM-subject-2.csv","legacy","Melodramatic Milgram","4.0.5","0","s","NA","s","NA","NA","s","445.0","NA","3462","NA","NA","445","2","legacy","1024","2","48000","-16","experiment","SSSSS","1","odd","15562","NA","NA","39402","NA","NA","50663","49639","12084","NA","NA","50766","51211","50660","50766","12035","Flanker Task","20","10754.0","22","1024"
"91","91","488","488","#000000","legacy","legacy","legacy","incongruent","1","undefined","1","h","0","0","0","22","22","0","22","22","0","0","0","22","22","22","22","0","Wed Sep 20 18:09:19 2023","1500","The main experiment item","False","Flanker Task.osexp","/Users/RMILLER1/Library/CloudStorage/OneDrive-tarleton.edu(NTNET)/TSU Online Classes/Graduate Class/ Adv Quant Methods and Design","False","mono","False","18","no","white","no","no","768","legacy","22","22","/Users/RMILLER1/Library/CloudStorage/OneDrive-tarleton.edu(NTNET)/TSU Online Classes/Graduate Class/ Adv Quant Methods and Design/RM-subject-2.csv","legacy","Melodramatic Milgram","4.0.5","0","h","NA","s","NA","NA","h","481.0","NA","3462","NA","NA","481","2","legacy","1024","2","48000","-16","experiment","SSHSS","1","odd","15562","NA","NA","39402","NA","NA","52226","51214","12084","NA","NA","52328","52809","52224","52328","12035","Flanker Task","21","11235.0","23","1024"
"91","91","487","487","#000000","legacy","legacy","legacy","congruent","1","undefined","1","s","0","0","0","23","23","0","23","23","0","0","0","23","23","23","23","0","Wed Sep 20 18:09:19 2023","1500","The main experiment item","False","Flanker Task.osexp","/Users/RMILLER1/Library/CloudStorage/OneDrive-tarleton.edu(NTNET)/TSU Online Classes/Graduate Class/ Adv Quant Methods and Design","False","mono","False","18","no","white","no","no","768","legacy","23","23","/Users/RMILLER1/Library/CloudStorage/OneDrive-tarleton.edu(NTNET)/TSU Online Classes/Graduate Class/ Adv Quant Methods and Design/RM-subject-2.csv","legacy","Melodramatic Milgram","4.0.5","0","s","NA","s","NA","NA","s","472.0","NA","3462","NA","NA","472","2","legacy","1024","2","48000","-16","experiment","SSSSS","1","odd","15562","NA","NA","39402","NA","NA","53831","52812","12084","NA","NA","53933","54406","53828","53933","12035","Flanker Task","22","11707.0","24","1024"
"92","92","484","484","#000000","legacy","legacy","legacy","congruent","1","undefined","1","h","0","0","0","24","24","0","24","24","0","0","0","24","24","24","24","0","Wed Sep 20 18:09:19 2023","1500","The main experiment item","False","Flanker Task.osexp","/Users/RMILLER1/Library/CloudStorage/OneDrive-tarleton.edu(NTNET)/TSU Online Classes/Graduate Class/ Adv Quant Methods and Design","False","mono","False","18","no","white","no","no","768","legacy","24","24","/Users/RMILLER1/Library/CloudStorage/OneDrive-tarleton.edu(NTNET)/TSU Online Classes/Graduate Class/ Adv Quant Methods and Design/RM-subject-2.csv","legacy","Melodramatic Milgram","4.0.5","0","h","NA","s","NA","NA","h","401.0","NA","3462","NA","NA","401","2","legacy","1024","2","48000","-16","experiment","HHHHH","1","odd","15562","NA","NA","39402","NA","NA","55429","54409","12084","NA","NA","55534","55936","55426","55534","12035","Flanker Task","23","12108.0","25","1024"
"92","92","485","485","#000000","legacy","legacy","legacy","incongruent","1","undefined","1","h","0","0","0","25","25","0","25","25","0","0","0","25","25","25","25","0","Wed Sep 20 18:09:19 2023","1500","The main experiment item","False","Flanker Task.osexp","/Users/RMILLER1/Library/CloudStorage/OneDrive-tarleton.edu(NTNET)/TSU Online Classes/Graduate Class/ Adv Quant Methods and Design","False","mono","False","18","no","white","no","no","768","legacy","25","25","/Users/RMILLER1/Library/CloudStorage/OneDrive-tarleton.edu(NTNET)/TSU Online Classes/Graduate Class/ Adv Quant Methods and Design/RM-subject-2.csv","legacy","Melodramatic Milgram","4.0.5","0","h","NA","s","NA","NA","h","517.0","NA","3462","NA","NA","517","2","legacy","1024","2","48000","-16","experiment","SSHSS","1","odd","15562","NA","NA","39402","NA","NA","56958","55939","12084","NA","NA","57060","57578","56955","57060","12035","Flanker Task","24","12625.0","26","1024"
"92","92","485","485","#000000","legacy","legacy","legacy","congruent","1","undefined","1","s","0","0","0","26","26","0","26","26","0","0","0","26","26","26","26","0","Wed Sep 20 18:09:19 2023","1500","The main experiment item","False","Flanker Task.osexp","/Users/RMILLER1/Library/CloudStorage/OneDrive-tarleton.edu(NTNET)/TSU Online Classes/Graduate Class/ Adv Quant Methods and Design","False","mono","False","18","no","white","no","no","768","legacy","26","26","/Users/RMILLER1/Library/CloudStorage/OneDrive-tarleton.edu(NTNET)/TSU Online Classes/Graduate Class/ Adv Quant Methods and Design/RM-subject-2.csv","legacy","Melodramatic Milgram","4.0.5","0","s","NA","s","NA","NA","s","472.0","NA","3462","NA","NA","472","2","legacy","1024","2","48000","-16","experiment","SSSSS","1","odd","15562","NA","NA","39402","NA","NA","58602","57580","12084","NA","NA","58704","59177","58600","58704","12035","Flanker Task","25","13097.0","27","1024"
"92","92","482","482","#000000","legacy","legacy","legacy","incongruent","1","undefined","1","s","0","0","0","27","27","0","27","27","0","0","0","27","27","27","27","0","Wed Sep 20 18:09:19 2023","1500","The main experiment item","False","Flanker Task.osexp","/Users/RMILLER1/Library/CloudStorage/OneDrive-tarleton.edu(NTNET)/TSU Online Classes/Graduate Class/ Adv Quant Methods and Design","False","mono","False","18","no","white","no","no","768","legacy","27","27","/Users/RMILLER1/Library/CloudStorage/OneDrive-tarleton.edu(NTNET)/TSU Online Classes/Graduate Class/ Adv Quant Methods and Design/RM-subject-2.csv","legacy","Melodramatic Milgram","4.0.5","0","s","NA","s","NA","NA","s","424.0","NA","3462","NA","NA","424","2","legacy","1024","2","48000","-16","experiment","HHSHH","1","odd","15562","NA","NA","39402","NA","NA","60202","59180","12084","NA","NA","60304","60729","60199","60304","12035","Flanker Task","26","13521.0","28","1024"
"93","93","480","480","#000000","legacy","legacy","legacy","congruent","1","undefined","1","h","0","0","0","28","28","0","28","28","0","0","0","28","28","28","28","0","Wed Sep 20 18:09:19 2023","1500","The main experiment item","False","Flanker Task.osexp","/Users/RMILLER1/Library/CloudStorage/OneDrive-tarleton.edu(NTNET)/TSU Online Classes/Graduate Class/ Adv Quant Methods and Design","False","mono","False","18","no","white","no","no","768","legacy","28","28","/Users/RMILLER1/Library/CloudStorage/OneDrive-tarleton.edu(NTNET)/TSU Online Classes/Graduate Class/ Adv Quant Methods and Design/RM-subject-2.csv","legacy","Melodramatic Milgram","4.0.5","0","h","NA","s","NA","NA","h","399.0","NA","3462","NA","NA","399","2","legacy","1024","2","48000","-16","experiment","HHHHH","1","odd","15562","NA","NA","39402","NA","NA","61755","60732","12084","NA","NA","61858","62258","61751","61857","12035","Flanker Task","27","13920.0","29","1024"
"90","90","479","479","#000000","legacy","legacy","legacy","congruent","0","undefined","0","s","0","0","0","29","29","0","29","29","0","0","0","29","29","29","29","0","Wed Sep 20 18:09:19 2023","1500","The main experiment item","False","Flanker Task.osexp","/Users/RMILLER1/Library/CloudStorage/OneDrive-tarleton.edu(NTNET)/TSU Online Classes/Graduate Class/ Adv Quant Methods and Design","False","mono","False","18","no","white","no","no","768","legacy","29","29","/Users/RMILLER1/Library/CloudStorage/OneDrive-tarleton.edu(NTNET)/TSU Online Classes/Graduate Class/ Adv Quant Methods and Design/RM-subject-2.csv","legacy","Melodramatic Milgram","4.0.5","0","h","NA","s","NA","NA","h","468.0","NA","3462","NA","NA","468","2","legacy","1024","2","48000","-16","experiment","SSSSS","1","odd","15562","NA","NA","39402","NA","NA","63286","62260","12084","NA","NA","63388","63857","63283","63388","12035","Flanker Task","27","14388.0","30","1024"
"87","87","473","473","#000000","legacy","legacy","legacy","congruent","0","undefined","0","s","0","0","0","30","30","0","30","30","0","0","0","30","30","30","30","0","Wed Sep 20 18:09:19 2023","1500","The main experiment item","False","Flanker Task.osexp","/Users/RMILLER1/Library/CloudStorage/OneDrive-tarleton.edu(NTNET)/TSU Online Classes/Graduate Class/ Adv Quant Methods and Design","False","mono","False","18","no","white","no","no","768","legacy","30","30","/Users/RMILLER1/Library/CloudStorage/OneDrive-tarleton.edu(NTNET)/TSU Online Classes/Graduate Class/ Adv Quant Methods and Design/RM-subject-2.csv","legacy","Melodramatic Milgram","4.0.5","0","h","NA","s","NA","NA","h","290.0","NA","3462","NA","NA","290","2","legacy","1024","2","48000","-16","experiment","SSSSS","1","odd","15562","NA","NA","63860","NA","NA","65377","64362","12084","NA","NA","65478","65769","65375","65478","12035","Flanker Task","27","14678.0","31","1024"
"87","87","471","471","#000000","legacy","legacy","legacy","incongruent","1","undefined","1","s","0","0","0","31","31","0","31","31","0","0","0","31","31","31","31","0","Wed Sep 20 18:09:19 2023","1500","The main experiment item","False","Flanker Task.osexp","/Users/RMILLER1/Library/CloudStorage/OneDrive-tarleton.edu(NTNET)/TSU Online Classes/Graduate Class/ Adv Quant Methods and Design","False","mono","False","18","no","white","no","no","768","legacy","31","31","/Users/RMILLER1/Library/CloudStorage/OneDrive-tarleton.edu(NTNET)/TSU Online Classes/Graduate Class/ Adv Quant Methods and Design/RM-subject-2.csv","legacy","Melodramatic Milgram","4.0.5","0","s","NA","s","NA","NA","s","417.0","NA","3462","NA","NA","417","2","legacy","1024","2","48000","-16","experiment","HHSHH","1","odd","15562","NA","NA","65772","NA","NA","67296","66274","12084","NA","NA","67398","67816","67294","67397","12035","Flanker Task","28","15095.0","32","1024"
"87","87","471","471","#000000","legacy","legacy","legacy","incongruent","1","undefined","1","h","0","0","0","32","32","0","32","32","0","0","0","32","32","32","32","0","Wed Sep 20 18:09:19 2023","1500","The main experiment item","False","Flanker Task.osexp","/Users/RMILLER1/Library/CloudStorage/OneDrive-tarleton.edu(NTNET)/TSU Online Classes/Graduate Class/ Adv Quant Methods and Design","False","mono","False","18","no","white","no","no","768","legacy","32","32","/Users/RMILLER1/Library/CloudStorage/OneDrive-tarleton.edu(NTNET)/TSU Online Classes/Graduate Class/ Adv Quant Methods and Design/RM-subject-2.csv","legacy","Melodramatic Milgram","4.0.5","0","h","NA","s","NA","NA","h","473.0","NA","3462","NA","NA","473","2","legacy","1024","2","48000","-16","experiment","SSHSS","1","odd","15562","NA","NA","65772","NA","NA","68836","67819","12084","NA","NA","68939","69412","68832","68939","12035","Flanker Task","29","15568.0","33","1024"
"88","88","472","472","#000000","legacy","legacy","legacy","congruent","1","undefined","1","h","0","0","0","33","33","0","33","33","0","0","0","33","33","33","33","0","Wed Sep 20 18:09:19 2023","1500","The main experiment item","False","Flanker Task.osexp","/Users/RMILLER1/Library/CloudStorage/OneDrive-tarleton.edu(NTNET)/TSU Online Classes/Graduate Class/ Adv Quant Methods and Design","False","mono","False","18","no","white","no","no","768","legacy","33","33","/Users/RMILLER1/Library/CloudStorage/OneDrive-tarleton.edu(NTNET)/TSU Online Classes/Graduate Class/ Adv Quant Methods and Design/RM-subject-2.csv","legacy","Melodramatic Milgram","4.0.5","0","h","NA","s","NA","NA","h","502.0","NA","3462","NA","NA","502","2","legacy","1024","2","48000","-16","experiment","HHHHH","1","odd","15562","NA","NA","65772","NA","NA","70429","69415","12084","NA","NA","70531","71034","70426","70531","12035","Flanker Task","30","16070.0","34","1024"
"88","88","471","471","#000000","legacy","legacy","legacy","congruent","1","undefined","1","h","0","0","0","34","34","0","34","34","0","0","0","34","34","34","34","0","Wed Sep 20 18:09:19 2023","1500","The main experiment item","False","Flanker Task.osexp","/Users/RMILLER1/Library/CloudStorage/OneDrive-tarleton.edu(NTNET)/TSU Online Classes/Graduate Class/ Adv Quant Methods and Design","False","mono","False","18","no","white","no","no","768","legacy","34","34","/Users/RMILLER1/Library/CloudStorage/OneDrive-tarleton.edu(NTNET)/TSU Online Classes/Graduate Class/ Adv Quant Methods and Design/RM-subject-2.csv","legacy","Melodramatic Milgram","4.0.5","0","h","NA","s","NA","NA","h","433.0","NA","3462","NA","NA","433","2","legacy","1024","2","48000","-16","experiment","HHHHH","1","odd","15562","NA","NA","65772","NA","NA","72050","71037","12084","NA","NA","72152","72586","72048","72152","12035","Flanker Task","31","16503.0","35","1024"
"88","88","469","469","#000000","legacy","legacy","legacy","congruent","1","undefined","1","h","0","0","0","35","35","0","35","35","0","0","0","35","35","35","35","0","Wed Sep 20 18:09:19 2023","1500","The main experiment item","False","Flanker Task.osexp","/Users/RMILLER1/Library/CloudStorage/OneDrive-tarleton.edu(NTNET)/TSU Online Classes/Graduate Class/ Adv Quant Methods and Design","False","mono","False","18","no","white","no","no","768","legacy","35","35","/Users/RMILLER1/Library/CloudStorage/OneDrive-tarleton.edu(NTNET)/TSU Online Classes/Graduate Class/ Adv Quant Methods and Design/RM-subject-2.csv","legacy","Melodramatic Milgram","4.0.5","0","h","NA","s","NA","NA","h","381.0","NA","3462","NA","NA","381","2","legacy","1024","2","48000","-16","experiment","HHHHH","1","odd","15562","NA","NA","65772","NA","NA","73610","72589","12084","NA","NA","73712","74094","73607","73712","12035","Flanker Task","32","16884.0","36","1024"
"89","89","466","466","#000000","legacy","legacy","legacy","congruent","1","undefined","1","s","0","0","0","36","36","0","36","36","0","0","0","36","36","36","36","0","Wed Sep 20 18:09:19 2023","1500","The main experiment item","False","Flanker Task.osexp","/Users/RMILLER1/Library/CloudStorage/OneDrive-tarleton.edu(NTNET)/TSU Online Classes/Graduate Class/ Adv Quant Methods and Design","False","mono","False","18","no","white","no","no","768","legacy","36","36","/Users/RMILLER1/Library/CloudStorage/OneDrive-tarleton.edu(NTNET)/TSU Online Classes/Graduate Class/ Adv Quant Methods and Design/RM-subject-2.csv","legacy","Melodramatic Milgram","4.0.5","0","s","NA","s","NA","NA","s","373.0","NA","3462","NA","NA","373","2","legacy","1024","2","48000","-16","experiment","SSSSS","1","odd","15562","NA","NA","65772","NA","NA","75123","74097","12084","NA","NA","75227","75600","75119","75227","12035","Flanker Task","33","17257.0","37","1024"
"86","86","463","463","#000000","legacy","legacy","legacy","incongruent","0","undefined","0","s","0","0","0","37","37","0","37","37","0","0","0","37","37","37","37","0","Wed Sep 20 18:09:19 2023","1500","The main experiment item","False","Flanker Task.osexp","/Users/RMILLER1/Library/CloudStorage/OneDrive-tarleton.edu(NTNET)/TSU Online Classes/Graduate Class/ Adv Quant Methods and Design","False","mono","False","18","no","white","no","no","768","legacy","37","37","/Users/RMILLER1/Library/CloudStorage/OneDrive-tarleton.edu(NTNET)/TSU Online Classes/Graduate Class/ Adv Quant Methods and Design/RM-subject-2.csv","legacy","Melodramatic Milgram","4.0.5","0","h","NA","s","NA","NA","h","364.0","NA","3462","NA","NA","364","2","legacy","1024","2","48000","-16","experiment","HHSHH","1","odd","15562","NA","NA","65772","NA","NA","76619","75603","12084","NA","NA","76723","77088","76616","76723","12035","Flanker Task","33","17621.0","38","1024"
"84","84","459","459","#000000","legacy","legacy","legacy","congruent","0","undefined","0","s","0","0","0","38","38","0","38","38","0","0","0","38","38","38","38","0","Wed Sep 20 18:09:19 2023","1500","The main experiment item","False","Flanker Task.osexp","/Users/RMILLER1/Library/CloudStorage/OneDrive-tarleton.edu(NTNET)/TSU Online Classes/Graduate Class/ Adv Quant Methods and Design","False","mono","False","18","no","white","no","no","768","legacy","38","38","/Users/RMILLER1/Library/CloudStorage/OneDrive-tarleton.edu(NTNET)/TSU Online Classes/Graduate Class/ Adv Quant Methods and Design/RM-subject-2.csv","legacy","Melodramatic Milgram","4.0.5","0","h","NA","s","NA","NA","h","288.0","NA","3462","NA","NA","288","2","legacy","1024","2","48000","-16","experiment","SSSSS","1","odd","15562","NA","NA","77091","NA","NA","78610","77593","12084","NA","NA","78712","79001","78608","78712","12035","Flanker Task","33","17909.0","39","1024"
"85","85","451","451","#000000","legacy","legacy","legacy","incongruent","1","undefined","1","h","0","0","0","39","39","0","39","39","0","0","0","39","39","39","39","0","Wed Sep 20 18:09:19 2023","1500","The main experiment item","False","Flanker Task.osexp","/Users/RMILLER1/Library/CloudStorage/OneDrive-tarleton.edu(NTNET)/TSU Online Classes/Graduate Class/ Adv Quant Methods and Design","False","mono","False","18","no","white","no","no","768","legacy","39","39","/Users/RMILLER1/Library/CloudStorage/OneDrive-tarleton.edu(NTNET)/TSU Online Classes/Graduate Class/ Adv Quant Methods and Design/RM-subject-2.csv","legacy","Melodramatic Milgram","4.0.5","0","h","NA","s","NA","NA","h","140.0","NA","3462","NA","NA","140","2","legacy","1024","2","48000","-16","experiment","SSHSS","1","odd","15562","NA","NA","79004","NA","NA","80533","79507","12084","NA","NA","80635","80775","80530","80635","12035","Flanker Task","34","18049.0","40","1024"
"85","85","450","450","#000000","legacy","legacy","legacy","congruent","1","undefined","1","h","0","0","0","40","40","0","40","40","0","0","0","40","40","40","40","0","Wed Sep 20 18:09:19 2023","1500","The main experiment item","False","Flanker Task.osexp","/Users/RMILLER1/Library/CloudStorage/OneDrive-tarleton.edu(NTNET)/TSU Online Classes/Graduate Class/ Adv Quant Methods and Design","False","mono","False","18","no","white","no","no","768","legacy","40","40","/Users/RMILLER1/Library/CloudStorage/OneDrive-tarleton.edu(NTNET)/TSU Online Classes/Graduate Class/ Adv Quant Methods and Design/RM-subject-2.csv","legacy","Melodramatic Milgram","4.0.5","0","h","NA","s","NA","NA","h","403.0","NA","3462","NA","NA","403","2","legacy","1024","2","48000","-16","experiment","HHHHH","1","odd","15562","NA","NA","79004","NA","NA","81798","80777","12084","NA","NA","81903","82307","81794","81902","12035","Flanker Task","35","18452.0","41","1024"
"83","83","448","448","#000000","legacy","legacy","legacy","incongruent","0","undefined","0","h","0","0","0","41","41","0","41","41","0","0","0","41","41","41","41","0","Wed Sep 20 18:09:19 2023","1500","The main experiment item","False","Flanker Task.osexp","/Users/RMILLER1/Library/CloudStorage/OneDrive-tarleton.edu(NTNET)/TSU Online Classes/Graduate Class/ Adv Quant Methods and Design","False","mono","False","18","no","white","no","no","768","legacy","41","41","/Users/RMILLER1/Library/CloudStorage/OneDrive-tarleton.edu(NTNET)/TSU Online Classes/Graduate Class/ Adv Quant Methods and Design/RM-subject-2.csv","legacy","Melodramatic Milgram","4.0.5","0","s","NA","s","NA","NA","s","399.0","NA","3462","NA","NA","399","2","legacy","1024","2","48000","-16","experiment","SSHSS","1","odd","15562","NA","NA","79004","NA","NA","83333","82310","12084","NA","NA","83436","83836","83330","83435","12035","Flanker Task","35","18851.0","42","1024"
"83","83","448","448","#000000","legacy","legacy","legacy","incongruent","1","undefined","1","s","0","0","0","42","42","0","42","42","0","0","0","42","42","42","42","0","Wed Sep 20 18:09:19 2023","1500","The main experiment item","False","Flanker Task.osexp","/Users/RMILLER1/Library/CloudStorage/OneDrive-tarleton.edu(NTNET)/TSU Online Classes/Graduate Class/ Adv Quant Methods and Design","False","mono","False","18","no","white","no","no","768","legacy","42","42","/Users/RMILLER1/Library/CloudStorage/OneDrive-tarleton.edu(NTNET)/TSU Online Classes/Graduate Class/ Adv Quant Methods and Design/RM-subject-2.csv","legacy","Melodramatic Milgram","4.0.5","0","s","NA","s","NA","NA","s","434.0","NA","3462","NA","NA","434","2","legacy","1024","2","48000","-16","experiment","HHSHH","1","odd","15562","NA","NA","83838","NA","NA","85370","84341","12084","NA","NA","85473","85908","85367","85473","12035","Flanker Task","36","19285.0","43","1024"
"84","84","453","453","#000000","legacy","legacy","legacy","incongruent","1","undefined","1","h","0","0","0","43","43","0","43","43","0","0","0","43","43","43","43","0","Wed Sep 20 18:09:19 2023","1500","The main experiment item","False","Flanker Task.osexp","/Users/RMILLER1/Library/CloudStorage/OneDrive-tarleton.edu(NTNET)/TSU Online Classes/Graduate Class/ Adv Quant Methods and Design","False","mono","False","18","no","white","no","no","768","legacy","43","43","/Users/RMILLER1/Library/CloudStorage/OneDrive-tarleton.edu(NTNET)/TSU Online Classes/Graduate Class/ Adv Quant Methods and Design/RM-subject-2.csv","legacy","Melodramatic Milgram","4.0.5","0","h","NA","s","NA","NA","h","667.0","NA","3462","NA","NA","667","2","legacy","1024","2","48000","-16","experiment","SSHSS","1","odd","15562","NA","NA","83838","NA","NA","86935","85911","12084","NA","NA","87038","87706","86931","87038","12035","Flanker Task","37","19952.0","44","1024"
"84","84","473","473","#000000","legacy","legacy","legacy","congruent","1","undefined","1","s","0","0","0","44","44","0","44","44","0","0","0","44","44","44","44","0","Wed Sep 20 18:09:19 2023","1500","The main experiment item","False","Flanker Task.osexp","/Users/RMILLER1/Library/CloudStorage/OneDrive-tarleton.edu(NTNET)/TSU Online Classes/Graduate Class/ Adv Quant Methods and Design","False","mono","False","18","no","white","no","no","768","legacy","44","44","/Users/RMILLER1/Library/CloudStorage/OneDrive-tarleton.edu(NTNET)/TSU Online Classes/Graduate Class/ Adv Quant Methods and Design/RM-subject-2.csv","legacy","Melodramatic Milgram","4.0.5","0","s","NA","s","NA","NA","s","1360.0","NA","3462","NA","NA","1360","2","legacy","1024","2","48000","-16","experiment","SSSSS","1","odd","15562","NA","NA","83838","NA","NA","88718","87707","12084","NA","NA","88821","90182","88716","88821","12035","Flanker Task","38","21312.0","45","1024"
"84","84","489","489","#000000","legacy","legacy","legacy","congruent","1","undefined","1","h","0","0","0","45","45","0","45","45","0","0","0","45","45","45","45","0","Wed Sep 20 18:09:19 2023","1500","The main experiment item","False","Flanker Task.osexp","/Users/RMILLER1/Library/CloudStorage/OneDrive-tarleton.edu(NTNET)/TSU Online Classes/Graduate Class/ Adv Quant Methods and Design","False","mono","False","18","no","white","no","no","768","legacy","45","45","/Users/RMILLER1/Library/CloudStorage/OneDrive-tarleton.edu(NTNET)/TSU Online Classes/Graduate Class/ Adv Quant Methods and Design/RM-subject-2.csv","legacy","Melodramatic Milgram","4.0.5","0","h","NA","s","NA","NA","h","1184.0","NA","3462","NA","NA","1184","2","legacy","1024","2","48000","-16","experiment","HHHHH","1","odd","15562","NA","NA","83838","NA","NA","91211","90185","12084","NA","NA","91315","92500","91207","91315","12035","Flanker Task","39","22496.0","46","1024"
"85","85","509","509","#000000","legacy","legacy","legacy","congruent","1","undefined","1","s","0","0","0","46","46","0","46","46","0","0","0","46","46","46","46","0","Wed Sep 20 18:09:19 2023","1500","The main experiment item","False","Flanker Task.osexp","/Users/RMILLER1/Library/CloudStorage/OneDrive-tarleton.edu(NTNET)/TSU Online Classes/Graduate Class/ Adv Quant Methods and Design","False","mono","False","18","no","white","no","no","768","legacy","46","46","/Users/RMILLER1/Library/CloudStorage/OneDrive-tarleton.edu(NTNET)/TSU Online Classes/Graduate Class/ Adv Quant Methods and Design/RM-subject-2.csv","legacy","Melodramatic Milgram","4.0.5","0","s","NA","s","NA","NA","s","1437.0","NA","3462","NA","NA","1437","2","legacy","1024","2","48000","-16","experiment","SSSSS","1","odd","15562","NA","NA","83838","NA","NA","93524","92503","12084","NA","NA","93627","95065","93520","93626","12035","Flanker Task","40","23933.0","47","1024"
"83","83","529","529","#000000","legacy","legacy","legacy","congruent","0","undefined","0","h","0","0","0","47","47","0","47","47","0","0","0","47","47","47","47","0","Wed Sep 20 18:09:19 2023","1500","The main experiment item","False","Flanker Task.osexp","/Users/RMILLER1/Library/CloudStorage/OneDrive-tarleton.edu(NTNET)/TSU Online Classes/Graduate Class/ Adv Quant Methods and Design","False","mono","False","18","no","white","no","no","768","legacy","47","47","/Users/RMILLER1/Library/CloudStorage/OneDrive-tarleton.edu(NTNET)/TSU Online Classes/Graduate Class/ Adv Quant Methods and Design/RM-subject-2.csv","legacy","Melodramatic Milgram","4.0.5","0","None","NA","s","NA","NA","None","1500.0","NA","3462","NA","NA","1500","2","legacy","1024","2","48000","-16","experiment","HHHHH","1","odd","15562","NA","NA","83838","NA","NA","96095","95068","12084","NA","NA","96198","97698","96092","96197","12035","Flanker Task","40","25433.0","48","1024"
"81","81","527","527","#000000","legacy","legacy","legacy","incongruent","0","undefined","0","h","0","0","0","48","48","0","48","48","0","0","0","48","48","48","48","0","Wed Sep 20 18:09:19 2023","1500","The main experiment item","False","Flanker Task.osexp","/Users/RMILLER1/Library/CloudStorage/OneDrive-tarleton.edu(NTNET)/TSU Online Classes/Graduate Class/ Adv Quant Methods and Design","False","mono","False","18","no","white","no","no","768","legacy","48","48","/Users/RMILLER1/Library/CloudStorage/OneDrive-tarleton.edu(NTNET)/TSU Online Classes/Graduate Class/ Adv Quant Methods and Design/RM-subject-2.csv","legacy","Melodramatic Milgram","4.0.5","0","s","NA","s","NA","NA","s","428.0","NA","3462","NA","NA","428","2","legacy","1024","2","48000","-16","experiment","SSHSS","1","odd","15562","NA","NA","97702","NA","NA","99237","98205","12084","NA","NA","99339","99767","99234","99339","12035","Flanker Task","40","25861.0","49","1024"
"80","80","523","523","#000000","legacy","legacy","legacy","incongruent","0","undefined","0","s","0","0","0","49","49","0","49","49","0","0","0","49","49","49","49","0","Wed Sep 20 18:09:19 2023","1500","The main experiment item","False","Flanker Task.osexp","/Users/RMILLER1/Library/CloudStorage/OneDrive-tarleton.edu(NTNET)/TSU Online Classes/Graduate Class/ Adv Quant Methods and Design","False","mono","False","18","no","white","no","no","768","legacy","49","49","/Users/RMILLER1/Library/CloudStorage/OneDrive-tarleton.edu(NTNET)/TSU Online Classes/Graduate Class/ Adv Quant Methods and Design/RM-subject-2.csv","legacy","Melodramatic Milgram","4.0.5","0","h","NA","s","NA","NA","h","296.0","NA","3462","NA","NA","296","2","legacy","1024","2","48000","-16","experiment","HHSHH","1","odd","15562","NA","NA","99771","NA","NA","101304","100275","12084","NA","NA","101406","101703","101301","101406","12035","Flanker Task","40","26157.0","50","1024"
"80","80","520","520","#000000","legacy","legacy","legacy","congruent","1","undefined","1","s","0","0","0","50","50","0","50","50","0","0","0","50","50","50","50","0","Wed Sep 20 18:09:19 2023","1500","The main experiment item","False","Flanker Task.osexp","/Users/RMILLER1/Library/CloudStorage/OneDrive-tarleton.edu(NTNET)/TSU Online Classes/Graduate Class/ Adv Quant Methods and Design","False","mono","False","18","no","white","no","no","768","legacy","50","50","/Users/RMILLER1/Library/CloudStorage/OneDrive-tarleton.edu(NTNET)/TSU Online Classes/Graduate Class/ Adv Quant Methods and Design/RM-subject-2.csv","legacy","Melodramatic Milgram","4.0.5","0","s","NA","s","NA","NA","s","412.0","NA","3462","NA","NA","412","2","legacy","1024","2","48000","-16","experiment","SSSSS","1","odd","15562","NA","NA","101706","NA","NA","103235","102209","12084","NA","NA","103337","103750","103232","103337","12035","Flanker Task","41","26569.0","51","1024"
"80","80","520","520","#000000","legacy","legacy","legacy","incongruent","1","undefined","1","s","0","0","0","51","51","0","51","51","0","0","0","51","51","51","51","0","Wed Sep 20 18:09:19 2023","1500","The main experiment item","False","Flanker Task.osexp","/Users/RMILLER1/Library/CloudStorage/OneDrive-tarleton.edu(NTNET)/TSU Online Classes/Graduate Class/ Adv Quant Methods and Design","False","mono","False","18","no","white","no","no","768","legacy","51","51","/Users/RMILLER1/Library/CloudStorage/OneDrive-tarleton.edu(NTNET)/TSU Online Classes/Graduate Class/ Adv Quant Methods and Design/RM-subject-2.csv","legacy","Melodramatic Milgram","4.0.5","0","s","NA","s","NA","NA","s","471.0","NA","3462","NA","NA","471","2","legacy","1024","2","48000","-16","experiment","HHSHH","1","odd","15562","NA","NA","101706","NA","NA","104773","103753","12084","NA","NA","104876","105347","104769","104876","12035","Flanker Task","42","27040.0","52","1024"
"81","81","518","518","#000000","legacy","legacy","legacy","incongruent","1","undefined","1","h","0","0","0","52","52","0","52","52","0","0","0","52","52","52","52","0","Wed Sep 20 18:09:19 2023","1500","The main experiment item","False","Flanker Task.osexp","/Users/RMILLER1/Library/CloudStorage/OneDrive-tarleton.edu(NTNET)/TSU Online Classes/Graduate Class/ Adv Quant Methods and Design","False","mono","False","18","no","white","no","no","768","legacy","52","52","/Users/RMILLER1/Library/CloudStorage/OneDrive-tarleton.edu(NTNET)/TSU Online Classes/Graduate Class/ Adv Quant Methods and Design/RM-subject-2.csv","legacy","Melodramatic Milgram","4.0.5","0","h","NA","s","NA","NA","h","462.0","NA","3462","NA","NA","462","2","legacy","1024","2","48000","-16","experiment","SSHSS","1","odd","15562","NA","NA","101706","NA","NA","106379","105351","12084","NA","NA","106482","106945","106375","106482","12035","Flanker Task","43","27502.0","53","1024"
"81","81","517","517","#000000","legacy","legacy","legacy","congruent","1","undefined","1","s","0","0","0","53","53","0","53","53","0","0","0","53","53","53","53","0","Wed Sep 20 18:09:19 2023","1500","The main experiment item","False","Flanker Task.osexp","/Users/RMILLER1/Library/CloudStorage/OneDrive-tarleton.edu(NTNET)/TSU Online Classes/Graduate Class/ Adv Quant Methods and Design","False","mono","False","18","no","white","no","no","768","legacy","53","53","/Users/RMILLER1/Library/CloudStorage/OneDrive-tarleton.edu(NTNET)/TSU Online Classes/Graduate Class/ Adv Quant Methods and Design/RM-subject-2.csv","legacy","Melodramatic Milgram","4.0.5","0","s","NA","s","NA","NA","s","448.0","NA","3462","NA","NA","448","2","legacy","1024","2","48000","-16","experiment","SSSSS","1","odd","15562","NA","NA","101706","NA","NA","107969","106948","12084","NA","NA","108071","108520","107965","108071","12035","Flanker Task","44","27950.0","54","1024"
"80","80","517","517","#000000","legacy","legacy","legacy","congruent","0","undefined","0","s","0","0","0","54","54","0","54","54","0","0","0","54","54","54","54","0","Wed Sep 20 18:09:19 2023","1500","The main experiment item","False","Flanker Task.osexp","/Users/RMILLER1/Library/CloudStorage/OneDrive-tarleton.edu(NTNET)/TSU Online Classes/Graduate Class/ Adv Quant Methods and Design","False","mono","False","18","no","white","no","no","768","legacy","54","54","/Users/RMILLER1/Library/CloudStorage/OneDrive-tarleton.edu(NTNET)/TSU Online Classes/Graduate Class/ Adv Quant Methods and Design/RM-subject-2.csv","legacy","Melodramatic Milgram","4.0.5","0","h","NA","s","NA","NA","h","508.0","NA","3462","NA","NA","508","2","legacy","1024","2","48000","-16","experiment","SSSSS","1","odd","15562","NA","NA","101706","NA","NA","109549","108523","12084","NA","NA","109652","110161","109546","109652","12035","Flanker Task","44","28458.0","55","1024"
"80","80","517","517","#000000","legacy","legacy","legacy","incongruent","1","undefined","1","s","0","0","0","55","55","0","55","55","0","0","0","55","55","55","55","0","Wed Sep 20 18:09:19 2023","1500","The main experiment item","False","Flanker Task.osexp","/Users/RMILLER1/Library/CloudStorage/OneDrive-tarleton.edu(NTNET)/TSU Online Classes/Graduate Class/ Adv Quant Methods and Design","False","mono","False","18","no","white","no","no","768","legacy","55","55","/Users/RMILLER1/Library/CloudStorage/OneDrive-tarleton.edu(NTNET)/TSU Online Classes/Graduate Class/ Adv Quant Methods and Design/RM-subject-2.csv","legacy","Melodramatic Milgram","4.0.5","0","s","NA","s","NA","NA","s","523.0","NA","3462","NA","NA","523","2","legacy","1024","2","48000","-16","experiment","HHSHH","1","odd","15562","NA","NA","110164","NA","NA","111696","110668","12084","NA","NA","111799","112323","111693","111799","12035","Flanker Task","45","28981.0","56","1024"
"78","78","516","516","#000000","legacy","legacy","legacy","incongruent","0","undefined","0","h","0","0","0","56","56","0","56","56","0","0","0","56","56","56","56","0","Wed Sep 20 18:09:19 2023","1500","The main experiment item","False","Flanker Task.osexp","/Users/RMILLER1/Library/CloudStorage/OneDrive-tarleton.edu(NTNET)/TSU Online Classes/Graduate Class/ Adv Quant Methods and Design","False","mono","False","18","no","white","no","no","768","legacy","56","56","/Users/RMILLER1/Library/CloudStorage/OneDrive-tarleton.edu(NTNET)/TSU Online Classes/Graduate Class/ Adv Quant Methods and Design/RM-subject-2.csv","legacy","Melodramatic Milgram","4.0.5","0","s","NA","s","NA","NA","s","467.0","NA","3462","NA","NA","467","2","legacy","1024","2","48000","-16","experiment","SSHSS","1","odd","15562","NA","NA","110164","NA","NA","113350","112326","12084","NA","NA","113454","113922","113347","113454","12035","Flanker Task","45","29448.0","57","1024"
"79","79","517","517","#000000","legacy","legacy","legacy","incongruent","1","undefined","1","s","0","0","0","57","57","0","57","57","0","0","0","57","57","57","57","0","Wed Sep 20 18:09:19 2023","1500","The main experiment item","False","Flanker Task.osexp","/Users/RMILLER1/Library/CloudStorage/OneDrive-tarleton.edu(NTNET)/TSU Online Classes/Graduate Class/ Adv Quant Methods and Design","False","mono","False","18","no","white","no","no","768","legacy","57","57","/Users/RMILLER1/Library/CloudStorage/OneDrive-tarleton.edu(NTNET)/TSU Online Classes/Graduate Class/ Adv Quant Methods and Design/RM-subject-2.csv","legacy","Melodramatic Milgram","4.0.5","0","s","NA","s","NA","NA","s","588.0","NA","3462","NA","NA","588","2","legacy","1024","2","48000","-16","experiment","HHSHH","1","odd","15562","NA","NA","113925","NA","NA","115454","114428","12084","NA","NA","115557","116146","115451","115557","12035","Flanker Task","46","30036.0","58","1024"
"79","79","517","517","#000000","legacy","legacy","legacy","congruent","1","undefined","1","s","0","0","0","58","58","0","58","58","0","0","0","58","58","58","58","0","Wed Sep 20 18:09:19 2023","1500","The main experiment item","False","Flanker Task.osexp","/Users/RMILLER1/Library/CloudStorage/OneDrive-tarleton.edu(NTNET)/TSU Online Classes/Graduate Class/ Adv Quant Methods and Design","False","mono","False","18","no","white","no","no","768","legacy","58","58","/Users/RMILLER1/Library/CloudStorage/OneDrive-tarleton.edu(NTNET)/TSU Online Classes/Graduate Class/ Adv Quant Methods and Design/RM-subject-2.csv","legacy","Melodramatic Milgram","4.0.5","0","s","NA","s","NA","NA","s","484.0","NA","3462","NA","NA","484","2","legacy","1024","2","48000","-16","experiment","SSSSS","1","odd","15562","NA","NA","113925","NA","NA","117160","116148","12084","NA","NA","117261","117746","117158","117261","12035","Flanker Task","47","30520.0","59","1024"
"80","80","516","516","#000000","legacy","legacy","legacy","congruent","1","undefined","1","h","0","0","0","59","59","0","59","59","0","0","0","59","59","59","59","0","Wed Sep 20 18:09:19 2023","1500","The main experiment item","False","Flanker Task.osexp","/Users/RMILLER1/Library/CloudStorage/OneDrive-tarleton.edu(NTNET)/TSU Online Classes/Graduate Class/ Adv Quant Methods and Design","False","mono","False","18","no","white","no","no","768","legacy","59","59","/Users/RMILLER1/Library/CloudStorage/OneDrive-tarleton.edu(NTNET)/TSU Online Classes/Graduate Class/ Adv Quant Methods and Design/RM-subject-2.csv","legacy","Melodramatic Milgram","4.0.5","0","h","NA","s","NA","NA","h","472.0","NA","3462","NA","NA","472","2","legacy","1024","2","48000","-16","experiment","HHHHH","1","odd","15562","NA","NA","113925","NA","NA","118766","117748","12084","NA","NA","118869","119342","118763","118868","12035","Flanker Task","48","30992.0","60","1024"
"80","80","516","516","#000000","legacy","legacy","legacy","incongruent","1","undefined","1","s","0","0","0","60","60","0","60","60","0","0","0","60","60","60","60","0","Wed Sep 20 18:09:19 2023","1500","The main experiment item","False","Flanker Task.osexp","/Users/RMILLER1/Library/CloudStorage/OneDrive-tarleton.edu(NTNET)/TSU Online Classes/Graduate Class/ Adv Quant Methods and Design","False","mono","False","18","no","white","no","no","768","legacy","60","60","/Users/RMILLER1/Library/CloudStorage/OneDrive-tarleton.edu(NTNET)/TSU Online Classes/Graduate Class/ Adv Quant Methods and Design/RM-subject-2.csv","legacy","Melodramatic Milgram","4.0.5","0","s","NA","s","NA","NA","s","514.0","NA","3462","NA","NA","514","2","legacy","1024","2","48000","-16","experiment","HHSHH","1","odd","15562","NA","NA","113925","NA","NA","120366","119345","12084","NA","NA","120469","120984","120362","120469","12035","Flanker Task","49","31506.0","61","1024"
"80","80","516","516","#000000","legacy","legacy","legacy","congruent","1","undefined","1","s","0","0","0","61","61","0","61","61","0","0","0","61","61","61","61","0","Wed Sep 20 18:09:19 2023","1500","The main experiment item","False","Flanker Task.osexp","/Users/RMILLER1/Library/CloudStorage/OneDrive-tarleton.edu(NTNET)/TSU Online Classes/Graduate Class/ Adv Quant Methods and Design","False","mono","False","18","no","white","no","no","768","legacy","61","61","/Users/RMILLER1/Library/CloudStorage/OneDrive-tarleton.edu(NTNET)/TSU Online Classes/Graduate Class/ Adv Quant Methods and Design/RM-subject-2.csv","legacy","Melodramatic Milgram","4.0.5","0","s","NA","s","NA","NA","s","498.0","NA","3462","NA","NA","498","2","legacy","1024","2","48000","-16","experiment","SSSSS","1","odd","15562","NA","NA","113925","NA","NA","122004","120987","12084","NA","NA","122106","122605","122001","122106","12035","Flanker Task","50","32004.0","62","1024"
"79","79","515","515","#000000","legacy","legacy","legacy","incongruent","0","undefined","0","s","0","0","0","62","62","0","62","62","0","0","0","62","62","62","62","0","Wed Sep 20 18:09:19 2023","1500","The main experiment item","False","Flanker Task.osexp","/Users/RMILLER1/Library/CloudStorage/OneDrive-tarleton.edu(NTNET)/TSU Online Classes/Graduate Class/ Adv Quant Methods and Design","False","mono","False","18","no","white","no","no","768","legacy","62","62","/Users/RMILLER1/Library/CloudStorage/OneDrive-tarleton.edu(NTNET)/TSU Online Classes/Graduate Class/ Adv Quant Methods and Design/RM-subject-2.csv","legacy","Melodramatic Milgram","4.0.5","0","h","NA","s","NA","NA","h","442.0","NA","3462","NA","NA","442","2","legacy","1024","2","48000","-16","experiment","HHSHH","1","odd","15562","NA","NA","113925","NA","NA","123634","122608","12084","NA","NA","123738","124181","123631","123738","12035","Flanker Task","50","32446.0","63","1024"
"79","79","515","515","#000000","legacy","legacy","legacy","incongruent","1","undefined","1","h","0","0","0","63","63","0","63","63","0","0","0","63","63","63","63","0","Wed Sep 20 18:09:19 2023","1500","The main experiment item","False","Flanker Task.osexp","/Users/RMILLER1/Library/CloudStorage/OneDrive-tarleton.edu(NTNET)/TSU Online Classes/Graduate Class/ Adv Quant Methods and Design","False","mono","False","18","no","white","no","no","768","legacy","63","63","/Users/RMILLER1/Library/CloudStorage/OneDrive-tarleton.edu(NTNET)/TSU Online Classes/Graduate Class/ Adv Quant Methods and Design/RM-subject-2.csv","legacy","Melodramatic Milgram","4.0.5","0","h","NA","s","NA","NA","h","542.0","NA","3462","NA","NA","542","2","legacy","1024","2","48000","-16","experiment","SSHSS","1","odd","15562","NA","NA","124184","NA","NA","125718","124688","12084","NA","NA","125821","126363","125715","125821","12035","Flanker Task","51","32988.0","64","1024"
"78","78","515","515","#000000","legacy","legacy","legacy","incongruent","0","undefined","0","h","0","0","0","64","64","0","64","64","0","0","0","64","64","64","64","0","Wed Sep 20 18:09:19 2023","1500","The main experiment item","False","Flanker Task.osexp","/Users/RMILLER1/Library/CloudStorage/OneDrive-tarleton.edu(NTNET)/TSU Online Classes/Graduate Class/ Adv Quant Methods and Design","False","mono","False","18","no","white","no","no","768","legacy","64","64","/Users/RMILLER1/Library/CloudStorage/OneDrive-tarleton.edu(NTNET)/TSU Online Classes/Graduate Class/ Adv Quant Methods and Design/RM-subject-2.csv","legacy","Melodramatic Milgram","4.0.5","0","s","NA","s","NA","NA","s","548.0","NA","3462","NA","NA","548","2","legacy","1024","2","48000","-16","experiment","SSHSS","1","odd","15562","NA","NA","124184","NA","NA","127377","126365","12084","NA","NA","127479","128028","127375","127479","12035","Flanker Task","51","33536.0","65","1024"
"78","78","515","515","#000000","legacy","legacy","legacy","congruent","1","undefined","1","s","0","0","0","65","65","0","65","65","0","0","0","65","65","65","65","0","Wed Sep 20 18:09:19 2023","1500","The main experiment item","False","Flanker Task.osexp","/Users/RMILLER1/Library/CloudStorage/OneDrive-tarleton.edu(NTNET)/TSU Online Classes/Graduate Class/ Adv Quant Methods and Design","False","mono","False","18","no","white","no","no","768","legacy","65","65","/Users/RMILLER1/Library/CloudStorage/OneDrive-tarleton.edu(NTNET)/TSU Online Classes/Graduate Class/ Adv Quant Methods and Design/RM-subject-2.csv","legacy","Melodramatic Milgram","4.0.5","0","s","NA","s","NA","NA","s","499.0","NA","3462","NA","NA","499","2","legacy","1024","2","48000","-16","experiment","SSSSS","1","odd","15562","NA","NA","128031","NA","NA","129563","128535","12084","NA","NA","129667","130167","129560","129666","12035","Flanker Task","52","34035.0","66","1024"
"79","79","515","515","#000000","legacy","legacy","legacy","incongruent","1","undefined","1","h","0","0","0","66","66","0","66","66","0","0","0","66","66","66","66","0","Wed Sep 20 18:09:19 2023","1500","The main experiment item","False","Flanker Task.osexp","/Users/RMILLER1/Library/CloudStorage/OneDrive-tarleton.edu(NTNET)/TSU Online Classes/Graduate Class/ Adv Quant Methods and Design","False","mono","False","18","no","white","no","no","768","legacy","66","66","/Users/RMILLER1/Library/CloudStorage/OneDrive-tarleton.edu(NTNET)/TSU Online Classes/Graduate Class/ Adv Quant Methods and Design/RM-subject-2.csv","legacy","Melodramatic Milgram","4.0.5","0","h","NA","s","NA","NA","h","493.0","NA","3462","NA","NA","493","2","legacy","1024","2","48000","-16","experiment","SSHSS","1","odd","15562","NA","NA","128031","NA","NA","131190","130170","12084","NA","NA","131292","131786","131186","131292","12035","Flanker Task","53","34528.0","67","1024"
"79","79","515","515","#000000","legacy","legacy","legacy","incongruent","1","undefined","1","h","0","0","0","67","67","0","67","67","0","0","0","67","67","67","67","0","Wed Sep 20 18:09:19 2023","1500","The main experiment item","False","Flanker Task.osexp","/Users/RMILLER1/Library/CloudStorage/OneDrive-tarleton.edu(NTNET)/TSU Online Classes/Graduate Class/ Adv Quant Methods and Design","False","mono","False","18","no","white","no","no","768","legacy","67","67","/Users/RMILLER1/Library/CloudStorage/OneDrive-tarleton.edu(NTNET)/TSU Online Classes/Graduate Class/ Adv Quant Methods and Design/RM-subject-2.csv","legacy","Melodramatic Milgram","4.0.5","0","h","NA","s","NA","NA","h","537.0","NA","3462","NA","NA","537","2","legacy","1024","2","48000","-16","experiment","SSHSS","1","odd","15562","NA","NA","128031","NA","NA","132809","131789","12084","NA","NA","132911","133449","132806","132911","12035","Flanker Task","54","35065.0","68","1024"
"79","79","514","514","#000000","legacy","legacy","legacy","congruent","1","undefined","1","h","0","0","0","68","68","0","68","68","0","0","0","68","68","68","68","0","Wed Sep 20 18:09:19 2023","1500","The main experiment item","False","Flanker Task.osexp","/Users/RMILLER1/Library/CloudStorage/OneDrive-tarleton.edu(NTNET)/TSU Online Classes/Graduate Class/ Adv Quant Methods and Design","False","mono","False","18","no","white","no","no","768","legacy","68","68","/Users/RMILLER1/Library/CloudStorage/OneDrive-tarleton.edu(NTNET)/TSU Online Classes/Graduate Class/ Adv Quant Methods and Design/RM-subject-2.csv","legacy","Melodramatic Milgram","4.0.5","0","h","NA","s","NA","NA","h","436.0","NA","3462","NA","NA","436","2","legacy","1024","2","48000","-16","experiment","HHHHH","1","odd","15562","NA","NA","128031","NA","NA","134464","133451","12084","NA","NA","134566","135003","134461","134566","12035","Flanker Task","55","35501.0","69","1024"
"78","78","513","513","#000000","legacy","legacy","legacy","congruent","0","undefined","0","h","0","0","0","69","69","0","69","69","0","0","0","69","69","69","69","0","Wed Sep 20 18:09:19 2023","1500","The main experiment item","False","Flanker Task.osexp","/Users/RMILLER1/Library/CloudStorage/OneDrive-tarleton.edu(NTNET)/TSU Online Classes/Graduate Class/ Adv Quant Methods and Design","False","mono","False","18","no","white","no","no","768","legacy","69","69","/Users/RMILLER1/Library/CloudStorage/OneDrive-tarleton.edu(NTNET)/TSU Online Classes/Graduate Class/ Adv Quant Methods and Design/RM-subject-2.csv","legacy","Melodramatic Milgram","4.0.5","0","s","NA","s","NA","NA","s","468.0","NA","3462","NA","NA","468","2","legacy","1024","2","48000","-16","experiment","HHHHH","1","odd","15562","NA","NA","128031","NA","NA","136026","135006","12084","NA","NA","136130","136599","136023","136130","12035","Flanker Task","55","35969.0","70","1024"
"78","78","514","514","#000000","legacy","legacy","legacy","incongruent","1","undefined","1","h","0","0","0","70","70","0","70","70","0","0","0","70","70","70","70","0","Wed Sep 20 18:09:19 2023","1500","The main experiment item","False","Flanker Task.osexp","/Users/RMILLER1/Library/CloudStorage/OneDrive-tarleton.edu(NTNET)/TSU Online Classes/Graduate Class/ Adv Quant Methods and Design","False","mono","False","18","no","white","no","no","768","legacy","70","70","/Users/RMILLER1/Library/CloudStorage/OneDrive-tarleton.edu(NTNET)/TSU Online Classes/Graduate Class/ Adv Quant Methods and Design/RM-subject-2.csv","legacy","Melodramatic Milgram","4.0.5","0","h","NA","s","NA","NA","h","551.0","NA","3462","NA","NA","551","2","legacy","1024","2","48000","-16","experiment","SSHSS","1","odd","15562","NA","NA","136602","NA","NA","138129","137105","12084","NA","NA","138232","138784","138126","138232","12035","Flanker Task","56","36520.0","71","1024"
"79","79","514","514","#000000","legacy","legacy","legacy","congruent","1","undefined","1","s","0","0","0","71","71","0","71","71","0","0","0","71","71","71","71","0","Wed Sep 20 18:09:19 2023","1500","The main experiment item","False","Flanker Task.osexp","/Users/RMILLER1/Library/CloudStorage/OneDrive-tarleton.edu(NTNET)/TSU Online Classes/Graduate Class/ Adv Quant Methods and Design","False","mono","False","18","no","white","no","no","768","legacy","71","71","/Users/RMILLER1/Library/CloudStorage/OneDrive-tarleton.edu(NTNET)/TSU Online Classes/Graduate Class/ Adv Quant Methods and Design/RM-subject-2.csv","legacy","Melodramatic Milgram","4.0.5","0","s","NA","s","NA","NA","s","518.0","NA","3462","NA","NA","518","2","legacy","1024","2","48000","-16","experiment","SSSSS","1","odd","15562","NA","NA","136602","NA","NA","139803","138786","12084","NA","NA","139906","140425","139800","139905","12035","Flanker Task","57","37038.0","72","1024"
"79","79","514","514","#000000","legacy","legacy","legacy","congruent","1","undefined","1","h","0","0","0","72","72","0","72","72","0","0","0","72","72","72","72","0","Wed Sep 20 18:09:19 2023","1500","The main experiment item","False","Flanker Task.osexp","/Users/RMILLER1/Library/CloudStorage/OneDrive-tarleton.edu(NTNET)/TSU Online Classes/Graduate Class/ Adv Quant Methods and Design","False","mono","False","18","no","white","no","no","768","legacy","72","72","/Users/RMILLER1/Library/CloudStorage/OneDrive-tarleton.edu(NTNET)/TSU Online Classes/Graduate Class/ Adv Quant Methods and Design/RM-subject-2.csv","legacy","Melodramatic Milgram","4.0.5","0","h","NA","s","NA","NA","h","500.0","NA","3462","NA","NA","500","2","legacy","1024","2","48000","-16","experiment","HHHHH","1","odd","15562","NA","NA","136602","NA","NA","141443","140427","12084","NA","NA","141545","142046","141441","141545","12035","Flanker Task","58","37538.0","73","1024"
"79","79","514","514","#000000","legacy","legacy","legacy","incongruent","1","undefined","1","s","0","0","0","73","73","0","73","73","0","0","0","73","73","73","73","0","Wed Sep 20 18:09:19 2023","1500","The main experiment item","False","Flanker Task.osexp","/Users/RMILLER1/Library/CloudStorage/OneDrive-tarleton.edu(NTNET)/TSU Online Classes/Graduate Class/ Adv Quant Methods and Design","False","mono","False","18","no","white","no","no","768","legacy","73","73","/Users/RMILLER1/Library/CloudStorage/OneDrive-tarleton.edu(NTNET)/TSU Online Classes/Graduate Class/ Adv Quant Methods and Design/RM-subject-2.csv","legacy","Melodramatic Milgram","4.0.5","0","s","NA","s","NA","NA","s","538.0","NA","3462","NA","NA","538","2","legacy","1024","2","48000","-16","experiment","HHSHH","1","odd","15562","NA","NA","136602","NA","NA","143069","142049","12084","NA","NA","143171","143710","143065","143171","12035","Flanker Task","59","38076.0","74","1024"
"80","80","514","514","#000000","legacy","legacy","legacy","incongruent","1","undefined","1","s","0","0","0","74","74","0","74","74","0","0","0","74","74","74","74","0","Wed Sep 20 18:09:19 2023","1500","The main experiment item","False","Flanker Task.osexp","/Users/RMILLER1/Library/CloudStorage/OneDrive-tarleton.edu(NTNET)/TSU Online Classes/Graduate Class/ Adv Quant Methods and Design","False","mono","False","18","no","white","no","no","768","legacy","74","74","/Users/RMILLER1/Library/CloudStorage/OneDrive-tarleton.edu(NTNET)/TSU Online Classes/Graduate Class/ Adv Quant Methods and Design/RM-subject-2.csv","legacy","Melodramatic Milgram","4.0.5","0","s","NA","s","NA","NA","s","543.0","NA","3462","NA","NA","543","2","legacy","1024","2","48000","-16","experiment","HHSHH","1","odd","15562","NA","NA","136602","NA","NA","144730","143713","12084","NA","NA","144832","145376","144727","144832","12035","Flanker Task","60","38619.0","75","1024"
"80","80","515","515","#000000","legacy","legacy","legacy","incongruent","1","undefined","1","s","0","0","0","75","75","0","75","75","0","0","0","75","75","75","75","0","Wed Sep 20 18:09:19 2023","1500","The main experiment item","False","Flanker Task.osexp","/Users/RMILLER1/Library/CloudStorage/OneDrive-tarleton.edu(NTNET)/TSU Online Classes/Graduate Class/ Adv Quant Methods and Design","False","mono","False","18","no","white","no","no","768","legacy","75","75","/Users/RMILLER1/Library/CloudStorage/OneDrive-tarleton.edu(NTNET)/TSU Online Classes/Graduate Class/ Adv Quant Methods and Design/RM-subject-2.csv","legacy","Melodramatic Milgram","4.0.5","0","s","NA","s","NA","NA","s","583.0","NA","3462","NA","NA","583","2","legacy","1024","2","48000","-16","experiment","HHSHH","1","odd","15562","NA","NA","136602","NA","NA","146399","145379","12084","NA","NA","146501","147086","146395","146501","12035","Flanker Task","61","39202.0","76","1024"
"80","80","514","514","#000000","legacy","legacy","legacy","congruent","1","undefined","1","h","0","0","0","76","76","0","76","76","0","0","0","76","76","76","76","0","Wed Sep 20 18:09:19 2023","1500","The main experiment item","False","Flanker Task.osexp","/Users/RMILLER1/Library/CloudStorage/OneDrive-tarleton.edu(NTNET)/TSU Online Classes/Graduate Class/ Adv Quant Methods and Design","False","mono","False","18","no","white","no","no","768","legacy","76","76","/Users/RMILLER1/Library/CloudStorage/OneDrive-tarleton.edu(NTNET)/TSU Online Classes/Graduate Class/ Adv Quant Methods and Design/RM-subject-2.csv","legacy","Melodramatic Milgram","4.0.5","0","h","NA","s","NA","NA","h","401.0","NA","3462","NA","NA","401","2","legacy","1024","2","48000","-16","experiment","HHHHH","1","odd","15562","NA","NA","136602","NA","NA","148111","147089","12084","NA","NA","148214","148616","148107","148214","12035","Flanker Task","62","39603.0","77","1024"
"80","80","513","513","#000000","legacy","legacy","legacy","incongruent","1","undefined","1","h","0","0","0","77","77","0","77","77","0","0","0","77","77","77","77","0","Wed Sep 20 18:09:19 2023","1500","The main experiment item","False","Flanker Task.osexp","/Users/RMILLER1/Library/CloudStorage/OneDrive-tarleton.edu(NTNET)/TSU Online Classes/Graduate Class/ Adv Quant Methods and Design","False","mono","False","18","no","white","no","no","768","legacy","77","77","/Users/RMILLER1/Library/CloudStorage/OneDrive-tarleton.edu(NTNET)/TSU Online Classes/Graduate Class/ Adv Quant Methods and Design/RM-subject-2.csv","legacy","Melodramatic Milgram","4.0.5","0","h","NA","s","NA","NA","h","438.0","NA","3462","NA","NA","438","2","legacy","1024","2","48000","-16","experiment","SSHSS","1","odd","15562","NA","NA","136602","NA","NA","149651","148623","12084","NA","NA","149753","150192","149648","149753","12035","Flanker Task","63","40041.0","78","1024"
"81","81","513","513","#000000","legacy","legacy","legacy","congruent","1","undefined","1","s","0","0","0","78","78","0","78","78","0","0","0","78","78","78","78","0","Wed Sep 20 18:09:19 2023","1500","The main experiment item","False","Flanker Task.osexp","/Users/RMILLER1/Library/CloudStorage/OneDrive-tarleton.edu(NTNET)/TSU Online Classes/Graduate Class/ Adv Quant Methods and Design","False","mono","False","18","no","white","no","no","768","legacy","78","78","/Users/RMILLER1/Library/CloudStorage/OneDrive-tarleton.edu(NTNET)/TSU Online Classes/Graduate Class/ Adv Quant Methods and Design/RM-subject-2.csv","legacy","Melodramatic Milgram","4.0.5","0","s","NA","s","NA","NA","s","491.0","NA","3462","NA","NA","491","2","legacy","1024","2","48000","-16","experiment","SSSSS","1","odd","15562","NA","NA","136602","NA","NA","151216","150195","12084","NA","NA","151320","151812","151213","151320","12035","Flanker Task","64","40532.0","79","1024"
"81","81","512","512","#000000","legacy","legacy","legacy","congruent","1","undefined","1","h","0","0","0","79","79","0","79","79","0","0","0","79","79","79","79","0","Wed Sep 20 18:09:19 2023","1500","The main experiment item","False","Flanker Task.osexp","/Users/RMILLER1/Library/CloudStorage/OneDrive-tarleton.edu(NTNET)/TSU Online Classes/Graduate Class/ Adv Quant Methods and Design","False","mono","False","18","no","white","no","no","768","legacy","79","79","/Users/RMILLER1/Library/CloudStorage/OneDrive-tarleton.edu(NTNET)/TSU Online Classes/Graduate Class/ Adv Quant Methods and Design/RM-subject-2.csv","legacy","Melodramatic Milgram","4.0.5","0","h","NA","s","NA","NA","h","432.0","NA","3462","NA","NA","432","2","legacy","1024","2","48000","-16","experiment","HHHHH","1","odd","15562","NA","NA","136602","NA","NA","152829","151814","12084","NA","NA","152932","153365","152826","152932","12035","Flanker Task","65","40964.0","80","1024"
"81","81","513","513","#000000","legacy","legacy","legacy","incongruent","1","undefined","1","s","0","0","0","80","80","0","80","80","0","0","0","80","80","80","80","0","Wed Sep 20 18:09:19 2023","600","The main experiment item","False","Flanker Task.osexp","/Users/RMILLER1/Library/CloudStorage/OneDrive-tarleton.edu(NTNET)/TSU Online Classes/Graduate Class/ Adv Quant Methods and Design","False","mono","False","18","no","white","no","no","768","legacy","0","79","/Users/RMILLER1/Library/CloudStorage/OneDrive-tarleton.edu(NTNET)/TSU Online Classes/Graduate Class/ Adv Quant Methods and Design/RM-subject-2.csv","legacy","Melodramatic Milgram","4.0.5","0","s","NA","s","s","NA","s","645.0","NA","3462","1983","NA","645","2","legacy","1024","2","48000","-16","experiment","HHSHH","1","odd","15562","156358","NA","136602","NA","NA","156373","153368","12084","154374","NA","156475","157121","156371","156475","12035","Flanker Task","66","41609.0","81","1024"
"80","80","511","511","#000000","legacy","legacy","legacy","incongruent","0","undefined","0","h","0","0","0","81","81","0","81","81","0","0","0","81","81","81","81","0","Wed Sep 20 18:09:19 2023","600","The main experiment item","False","Flanker Task.osexp","/Users/RMILLER1/Library/CloudStorage/OneDrive-tarleton.edu(NTNET)/TSU Online Classes/Graduate Class/ Adv Quant Methods and Design","False","mono","False","18","no","white","no","no","768","legacy","1","79","/Users/RMILLER1/Library/CloudStorage/OneDrive-tarleton.edu(NTNET)/TSU Online Classes/Graduate Class/ Adv Quant Methods and Design/RM-subject-2.csv","legacy","Melodramatic Milgram","4.0.5","0","s","NA","s","s","NA","s","366.0","NA","3462","1983","NA","366","2","legacy","1024","2","48000","-16","experiment","SSHSS","1","odd","15562","156358","NA","136602","157124","NA","158654","157627","12084","154374","NA","158757","159124","158652","158757","12035","Flanker Task","66","41975.0","82","1024"
"80","80","512","512","#000000","legacy","legacy","legacy","incongruent","1","undefined","1","h","0","0","0","82","82","0","82","82","0","0","0","82","82","82","82","0","Wed Sep 20 18:09:19 2023","600","The main experiment item","False","Flanker Task.osexp","/Users/RMILLER1/Library/CloudStorage/OneDrive-tarleton.edu(NTNET)/TSU Online Classes/Graduate Class/ Adv Quant Methods and Design","False","mono","False","18","no","white","no","no","768","legacy","2","79","/Users/RMILLER1/Library/CloudStorage/OneDrive-tarleton.edu(NTNET)/TSU Online Classes/Graduate Class/ Adv Quant Methods and Design/RM-subject-2.csv","legacy","Melodramatic Milgram","4.0.5","0","h","NA","s","s","NA","h","527.0","NA","3462","1983","NA","527","2","legacy","1024","2","48000","-16","experiment","SSHSS","1","odd","15562","156358","NA","159127","157124","NA","160653","159630","12084","154374","NA","160755","161283","160651","160755","12035","Flanker Task","67","42502.0","83","1024"
"80","80","511","511","#000000","legacy","legacy","legacy","congruent","1","undefined","1","h","0","0","0","83","83","0","83","83","0","0","0","83","83","83","83","0","Wed Sep 20 18:09:19 2023","600","The main experiment item","False","Flanker Task.osexp","/Users/RMILLER1/Library/CloudStorage/OneDrive-tarleton.edu(NTNET)/TSU Online Classes/Graduate Class/ Adv Quant Methods and Design","False","mono","False","18","no","white","no","no","768","legacy","3","79","/Users/RMILLER1/Library/CloudStorage/OneDrive-tarleton.edu(NTNET)/TSU Online Classes/Graduate Class/ Adv Quant Methods and Design/RM-subject-2.csv","legacy","Melodramatic Milgram","4.0.5","0","h","NA","s","s","NA","h","461.0","NA","3462","1983","NA","461","2","legacy","1024","2","48000","-16","experiment","HHHHH","1","odd","15562","156358","NA","159127","157124","NA","162315","161287","12084","154374","NA","162418","162879","162311","162418","12035","Flanker Task","68","42963.0","84","1024"
"81","81","510","510","#000000","legacy","legacy","legacy","incongruent","1","undefined","1","h","0","0","0","84","84","0","84","84","0","0","0","84","84","84","84","0","Wed Sep 20 18:09:19 2023","600","The main experiment item","False","Flanker Task.osexp","/Users/RMILLER1/Library/CloudStorage/OneDrive-tarleton.edu(NTNET)/TSU Online Classes/Graduate Class/ Adv Quant Methods and Design","False","mono","False","18","no","white","no","no","768","legacy","4","79","/Users/RMILLER1/Library/CloudStorage/OneDrive-tarleton.edu(NTNET)/TSU Online Classes/Graduate Class/ Adv Quant Methods and Design/RM-subject-2.csv","legacy","Melodramatic Milgram","4.0.5","0","h","NA","s","s","NA","h","465.0","NA","3462","1983","NA","465","2","legacy","1024","2","48000","-16","experiment","SSHSS","1","odd","15562","156358","NA","159127","157124","NA","163911","162882","12084","154374","NA","164013","164479","163909","164013","12035","Flanker Task","69","43428.0","85","1024"
"81","81","509","509","#000000","legacy","legacy","legacy","congruent","1","undefined","1","h","0","0","0","85","85","0","85","85","0","0","0","85","85","85","85","0","Wed Sep 20 18:09:19 2023","600","The main experiment item","False","Flanker Task.osexp","/Users/RMILLER1/Library/CloudStorage/OneDrive-tarleton.edu(NTNET)/TSU Online Classes/Graduate Class/ Adv Quant Methods and Design","False","mono","False","18","no","white","no","no","768","legacy","5","79","/Users/RMILLER1/Library/CloudStorage/OneDrive-tarleton.edu(NTNET)/TSU Online Classes/Graduate Class/ Adv Quant Methods and Design/RM-subject-2.csv","legacy","Melodramatic Milgram","4.0.5","0","h","NA","s","s","NA","h","356.0","NA","3462","1983","NA","356","2","legacy","1024","2","48000","-16","experiment","HHHHH","1","odd","15562","156358","NA","159127","157124","NA","165504","164482","12084","154374","NA","165607","165964","165500","165606","12035","Flanker Task","70","43784.0","86","1024"
"81","81","508","508","#000000","legacy","legacy","legacy","incongruent","1","undefined","1","s","0","0","0","86","86","0","86","86","0","0","0","86","86","86","86","0","Wed Sep 20 18:09:19 2023","600","The main experiment item","False","Flanker Task.osexp","/Users/RMILLER1/Library/CloudStorage/OneDrive-tarleton.edu(NTNET)/TSU Online Classes/Graduate Class/ Adv Quant Methods and Design","False","mono","False","18","no","white","no","no","768","legacy","6","79","/Users/RMILLER1/Library/CloudStorage/OneDrive-tarleton.edu(NTNET)/TSU Online Classes/Graduate Class/ Adv Quant Methods and Design/RM-subject-2.csv","legacy","Melodramatic Milgram","4.0.5","0","s","NA","s","s","NA","s","458.0","NA","3462","1983","NA","458","2","legacy","1024","2","48000","-16","experiment","HHSHH","1","odd","15562","156358","NA","159127","157124","NA","166978","165966","12084","154374","NA","167080","167539","166976","167080","12035","Flanker Task","71","44242.0","87","1024"
"81","81","507","507","#000000","legacy","legacy","legacy","congruent","1","undefined","1","s","0","0","0","87","87","0","87","87","0","0","0","87","87","87","87","0","Wed Sep 20 18:09:19 2023","600","The main experiment item","False","Flanker Task.osexp","/Users/RMILLER1/Library/CloudStorage/OneDrive-tarleton.edu(NTNET)/TSU Online Classes/Graduate Class/ Adv Quant Methods and Design","False","mono","False","18","no","white","no","no","768","legacy","7","79","/Users/RMILLER1/Library/CloudStorage/OneDrive-tarleton.edu(NTNET)/TSU Online Classes/Graduate Class/ Adv Quant Methods and Design/RM-subject-2.csv","legacy","Melodramatic Milgram","4.0.5","0","s","NA","s","s","NA","s","374.0","NA","3462","1983","NA","374","2","legacy","1024","2","48000","-16","experiment","SSSSS","1","odd","15562","156358","NA","159127","157124","NA","168568","167541","12084","154374","NA","168671","169046","168564","168671","12035","Flanker Task","72","44616.0","88","1024"
"82","82","506","506","#000000","legacy","legacy","legacy","incongruent","1","undefined","1","h","0","0","0","88","88","0","88","88","0","0","0","88","88","88","88","0","Wed Sep 20 18:09:19 2023","600","The main experiment item","False","Flanker Task.osexp","/Users/RMILLER1/Library/CloudStorage/OneDrive-tarleton.edu(NTNET)/TSU Online Classes/Graduate Class/ Adv Quant Methods and Design","False","mono","False","18","no","white","no","no","768","legacy","8","79","/Users/RMILLER1/Library/CloudStorage/OneDrive-tarleton.edu(NTNET)/TSU Online Classes/Graduate Class/ Adv Quant Methods and Design/RM-subject-2.csv","legacy","Melodramatic Milgram","4.0.5","0","h","NA","s","s","NA","h","456.0","NA","3462","1983","NA","456","2","legacy","1024","2","48000","-16","experiment","SSHSS","1","odd","15562","156358","NA","159127","157124","NA","170063","169049","12084","154374","NA","170165","170622","170061","170165","12035","Flanker Task","73","45072.0","89","1024"
"81","81","506","506","#000000","legacy","legacy","legacy","congruent","0","undefined","0","h","0","0","0","89","89","0","89","89","0","0","0","89","89","89","89","0","Wed Sep 20 18:09:19 2023","600","The main experiment item","False","Flanker Task.osexp","/Users/RMILLER1/Library/CloudStorage/OneDrive-tarleton.edu(NTNET)/TSU Online Classes/Graduate Class/ Adv Quant Methods and Design","False","mono","False","18","no","white","no","no","768","legacy","9","79","/Users/RMILLER1/Library/CloudStorage/OneDrive-tarleton.edu(NTNET)/TSU Online Classes/Graduate Class/ Adv Quant Methods and Design/RM-subject-2.csv","legacy","Melodramatic Milgram","4.0.5","0","s","NA","s","s","NA","s","489.0","NA","3462","1983","NA","489","2","legacy","1024","2","48000","-16","experiment","HHHHH","1","odd","15562","156358","NA","159127","157124","NA","171646","170625","12084","154374","NA","171750","172240","171643","171749","12035","Flanker Task","73","45561.0","90","1024"
"81","81","505","505","#000000","legacy","legacy","legacy","incongruent","1","undefined","1","s","0","0","0","90","90","0","90","90","0","0","0","90","90","90","90","0","Wed Sep 20 18:09:19 2023","600","The main experiment item","False","Flanker Task.osexp","/Users/RMILLER1/Library/CloudStorage/OneDrive-tarleton.edu(NTNET)/TSU Online Classes/Graduate Class/ Adv Quant Methods and Design","False","mono","False","18","no","white","no","no","768","legacy","10","79","/Users/RMILLER1/Library/CloudStorage/OneDrive-tarleton.edu(NTNET)/TSU Online Classes/Graduate Class/ Adv Quant Methods and Design/RM-subject-2.csv","legacy","Melodramatic Milgram","4.0.5","0","s","NA","s","s","NA","s","479.0","NA","3462","1983","NA","479","2","legacy","1024","2","48000","-16","experiment","HHSHH","1","odd","15562","156358","NA","172243","157124","NA","173773","172746","12084","154374","NA","173876","174357","173770","173876","12035","Flanker Task","74","46040.0","91","1024"
"81","81","504","504","#000000","legacy","legacy","legacy","congruent","1","undefined","1","s","0","0","0","91","91","0","91","91","0","0","0","91","91","91","91","0","Wed Sep 20 18:09:19 2023","600","The main experiment item","False","Flanker Task.osexp","/Users/RMILLER1/Library/CloudStorage/OneDrive-tarleton.edu(NTNET)/TSU Online Classes/Graduate Class/ Adv Quant Methods and Design","False","mono","False","18","no","white","no","no","768","legacy","11","79","/Users/RMILLER1/Library/CloudStorage/OneDrive-tarleton.edu(NTNET)/TSU Online Classes/Graduate Class/ Adv Quant Methods and Design/RM-subject-2.csv","legacy","Melodramatic Milgram","4.0.5","0","s","NA","s","s","NA","s","399.0","NA","3462","1983","NA","399","2","legacy","1024","2","48000","-16","experiment","SSSSS","1","odd","15562","156358","NA","172243","157124","NA","175382","174360","12084","154374","NA","175485","175885","175379","175485","12035","Flanker Task","75","46439.0","92","1024"
"80","80","503","503","#000000","legacy","legacy","legacy","incongruent","0","undefined","0","s","0","0","0","92","92","0","92","92","0","0","0","92","92","92","92","0","Wed Sep 20 18:09:19 2023","600","The main experiment item","False","Flanker Task.osexp","/Users/RMILLER1/Library/CloudStorage/OneDrive-tarleton.edu(NTNET)/TSU Online Classes/Graduate Class/ Adv Quant Methods and Design","False","mono","False","18","no","white","no","no","768","legacy","12","79","/Users/RMILLER1/Library/CloudStorage/OneDrive-tarleton.edu(NTNET)/TSU Online Classes/Graduate Class/ Adv Quant Methods and Design/RM-subject-2.csv","legacy","Melodramatic Milgram","4.0.5","0","h","NA","s","s","NA","h","351.0","NA","3462","1983","NA","351","2","legacy","1024","2","48000","-16","experiment","HHSHH","1","odd","15562","156358","NA","172243","157124","NA","176916","175889","12084","154374","NA","177019","177371","176912","177019","12035","Flanker Task","75","46790.0","93","1024"
"80","80","502","502","#000000","legacy","legacy","legacy","congruent","1","undefined","1","s","0","0","0","93","93","0","93","93","0","0","0","93","93","93","93","0","Wed Sep 20 18:09:19 2023","600","The main experiment item","False","Flanker Task.osexp","/Users/RMILLER1/Library/CloudStorage/OneDrive-tarleton.edu(NTNET)/TSU Online Classes/Graduate Class/ Adv Quant Methods and Design","False","mono","False","18","no","white","no","no","768","legacy","13","79","/Users/RMILLER1/Library/CloudStorage/OneDrive-tarleton.edu(NTNET)/TSU Online Classes/Graduate Class/ Adv Quant Methods and Design/RM-subject-2.csv","legacy","Melodramatic Milgram","4.0.5","0","s","NA","s","s","NA","s","469.0","NA","3462","1983","NA","469","2","legacy","1024","2","48000","-16","experiment","SSSSS","1","odd","15562","156358","NA","177374","157124","NA","178913","177878","12084","154374","NA","179016","179486","178910","179016","12035","Flanker Task","76","47259.0","94","1024"
"81","81","501","501","#000000","legacy","legacy","legacy","incongruent","1","undefined","1","h","0","0","0","94","94","0","94","94","0","0","0","94","94","94","94","0","Wed Sep 20 18:09:19 2023","600","The main experiment item","False","Flanker Task.osexp","/Users/RMILLER1/Library/CloudStorage/OneDrive-tarleton.edu(NTNET)/TSU Online Classes/Graduate Class/ Adv Quant Methods and Design","False","mono","False","18","no","white","no","no","768","legacy","14","79","/Users/RMILLER1/Library/CloudStorage/OneDrive-tarleton.edu(NTNET)/TSU Online Classes/Graduate Class/ Adv Quant Methods and Design/RM-subject-2.csv","legacy","Melodramatic Milgram","4.0.5","0","h","NA","s","s","NA","h","418.0","NA","3462","1983","NA","418","2","legacy","1024","2","48000","-16","experiment","SSHSS","1","odd","15562","156358","NA","177374","157124","NA","180517","179489","12084","154374","NA","180620","181039","180513","180620","12035","Flanker Task","77","47677.0","95","1024"
"81","81","501","501","#000000","legacy","legacy","legacy","congruent","1","undefined","1","h","0","0","0","95","95","0","95","95","0","0","0","95","95","95","95","0","Wed Sep 20 18:09:19 2023","600","The main experiment item","False","Flanker Task.osexp","/Users/RMILLER1/Library/CloudStorage/OneDrive-tarleton.edu(NTNET)/TSU Online Classes/Graduate Class/ Adv Quant Methods and Design","False","mono","False","18","no","white","no","no","768","legacy","15","79","/Users/RMILLER1/Library/CloudStorage/OneDrive-tarleton.edu(NTNET)/TSU Online Classes/Graduate Class/ Adv Quant Methods and Design/RM-subject-2.csv","legacy","Melodramatic Milgram","4.0.5","0","h","NA","s","s","NA","h","465.0","NA","3462","1983","NA","465","2","legacy","1024","2","48000","-16","experiment","HHHHH","1","odd","15562","156358","NA","177374","157124","NA","182067","181041","12084","154374","NA","182170","182636","182063","182170","12035","Flanker Task","78","48142.0","96","1024"
"81","81","500","500","#000000","legacy","legacy","legacy","congruent","1","undefined","1","s","0","0","0","96","96","0","96","96","0","0","0","96","96","96","96","0","Wed Sep 20 18:09:19 2023","600","The main experiment item","False","Flanker Task.osexp","/Users/RMILLER1/Library/CloudStorage/OneDrive-tarleton.edu(NTNET)/TSU Online Classes/Graduate Class/ Adv Quant Methods and Design","False","mono","False","18","no","white","no","no","768","legacy","16","79","/Users/RMILLER1/Library/CloudStorage/OneDrive-tarleton.edu(NTNET)/TSU Online Classes/Graduate Class/ Adv Quant Methods and Design/RM-subject-2.csv","legacy","Melodramatic Milgram","4.0.5","0","s","NA","s","s","NA","s","449.0","NA","3462","1983","NA","449","2","legacy","1024","2","48000","-16","experiment","SSSSS","1","odd","15562","156358","NA","177374","157124","NA","183660","182641","12084","154374","NA","183762","184212","183656","183762","12035","Flanker Task","79","48591.0","97","1024"
"81","81","500","500","#000000","legacy","legacy","legacy","congruent","1","undefined","1","h","0","0","0","97","97","0","97","97","0","0","0","97","97","97","97","0","Wed Sep 20 18:09:19 2023","600","The main experiment item","False","Flanker Task.osexp","/Users/RMILLER1/Library/CloudStorage/OneDrive-tarleton.edu(NTNET)/TSU Online Classes/Graduate Class/ Adv Quant Methods and Design","False","mono","False","18","no","white","no","no","768","legacy","17","79","/Users/RMILLER1/Library/CloudStorage/OneDrive-tarleton.edu(NTNET)/TSU Online Classes/Graduate Class/ Adv Quant Methods and Design/RM-subject-2.csv","legacy","Melodramatic Milgram","4.0.5","0","h","NA","s","s","NA","h","488.0","NA","3462","1983","NA","488","2","legacy","1024","2","48000","-16","experiment","HHHHH","1","odd","15562","156358","NA","177374","157124","NA","185241","184215","12084","154374","NA","185343","185832","185231","185343","12035","Flanker Task","80","49079.0","98","1024"
"81","81","499","499","#000000","legacy","legacy","legacy","congruent","1","undefined","1","h","0","0","0","98","98","0","98","98","0","0","0","98","98","98","98","0","Wed Sep 20 18:09:19 2023","600","The main experiment item","False","Flanker Task.osexp","/Users/RMILLER1/Library/CloudStorage/OneDrive-tarleton.edu(NTNET)/TSU Online Classes/Graduate Class/ Adv Quant Methods and Design","False","mono","False","18","no","white","no","no","768","legacy","18","79","/Users/RMILLER1/Library/CloudStorage/OneDrive-tarleton.edu(NTNET)/TSU Online Classes/Graduate Class/ Adv Quant Methods and Design/RM-subject-2.csv","legacy","Melodramatic Milgram","4.0.5","0","h","NA","s","s","NA","h","403.0","NA","3462","1983","NA","403","2","legacy","1024","2","48000","-16","experiment","HHHHH","1","odd","15562","156358","NA","177374","157124","NA","186854","185835","12084","154374","NA","186956","187360","186850","186956","12035","Flanker Task","81","49482.0","99","1024"
"82","82","498","498","#000000","legacy","legacy","legacy","congruent","1","undefined","1","s","0","0","0","99","99","0","99","99","0","0","0","99","99","99","99","0","Wed Sep 20 18:09:19 2023","600","The main experiment item","False","Flanker Task.osexp","/Users/RMILLER1/Library/CloudStorage/OneDrive-tarleton.edu(NTNET)/TSU Online Classes/Graduate Class/ Adv Quant Methods and Design","False","mono","False","18","no","white","no","no","768","legacy","19","79","/Users/RMILLER1/Library/CloudStorage/OneDrive-tarleton.edu(NTNET)/TSU Online Classes/Graduate Class/ Adv Quant Methods and Design/RM-subject-2.csv","legacy","Melodramatic Milgram","4.0.5","0","s","NA","s","s","NA","s","369.0","NA","3462","1983","NA","369","2","legacy","1024","2","48000","-16","experiment","SSSSS","1","odd","15562","156358","NA","177374","157124","NA","188373","187362","12084","154374","NA","188476","188846","188371","188476","12035","Flanker Task","82","49851.0","100","1024"
"82","82","497","497","#000000","legacy","legacy","legacy","incongruent","1","undefined","1","h","0","0","0","100","100","0","100","100","0","0","0","100","100","100","100","0","Wed Sep 20 18:09:19 2023","600","The main experiment item","False","Flanker Task.osexp","/Users/RMILLER1/Library/CloudStorage/OneDrive-tarleton.edu(NTNET)/TSU Online Classes/Graduate Class/ Adv Quant Methods and Design","False","mono","False","18","no","white","no","no","768","legacy","20","79","/Users/RMILLER1/Library/CloudStorage/OneDrive-tarleton.edu(NTNET)/TSU Online Classes/Graduate Class/ Adv Quant Methods and Design/RM-subject-2.csv","legacy","Melodramatic Milgram","4.0.5","0","h","NA","s","s","NA","h","426.0","NA","3462","1983","NA","426","2","legacy","1024","2","48000","-16","experiment","SSHSS","1","odd","15562","156358","NA","177374","157124","NA","189869","188849","12084","154374","NA","189972","190399","189865","189972","12035","Flanker Task","83","50277.0","101","1024"
"82","82","496","496","#000000","legacy","legacy","legacy","incongruent","1","undefined","1","h","0","0","0","101","101","0","101","101","0","0","0","101","101","101","101","0","Wed Sep 20 18:09:19 2023","600","The main experiment item","False","Flanker Task.osexp","/Users/RMILLER1/Library/CloudStorage/OneDrive-tarleton.edu(NTNET)/TSU Online Classes/Graduate Class/ Adv Quant Methods and Design","False","mono","False","18","no","white","no","no","768","legacy","21","79","/Users/RMILLER1/Library/CloudStorage/OneDrive-tarleton.edu(NTNET)/TSU Online Classes/Graduate Class/ Adv Quant Methods and Design/RM-subject-2.csv","legacy","Melodramatic Milgram","4.0.5","0","h","NA","s","s","NA","h","391.0","NA","3462","1983","NA","391","2","legacy","1024","2","48000","-16","experiment","SSHSS","1","odd","15562","156358","NA","177374","157124","NA","191413","190401","12084","154374","NA","191515","191907","191411","191515","12035","Flanker Task","84","50668.0","102","1024"
"82","82","495","495","#000000","legacy","legacy","legacy","congruent","1","undefined","1","h","0","0","0","102","102","0","102","102","0","0","0","102","102","102","102","0","Wed Sep 20 18:09:19 2023","600","The main experiment item","False","Flanker Task.osexp","/Users/RMILLER1/Library/CloudStorage/OneDrive-tarleton.edu(NTNET)/TSU Online Classes/Graduate Class/ Adv Quant Methods and Design","False","mono","False","18","no","white","no","no","768","legacy","22","79","/Users/RMILLER1/Library/CloudStorage/OneDrive-tarleton.edu(NTNET)/TSU Online Classes/Graduate Class/ Adv Quant Methods and Design/RM-subject-2.csv","legacy","Melodramatic Milgram","4.0.5","0","h","NA","s","s","NA","h","332.0","NA","3462","1983","NA","332","2","legacy","1024","2","48000","-16","experiment","HHHHH","1","odd","15562","156358","NA","177374","157124","NA","192932","191910","12084","154374","NA","193036","193369","192929","193036","12035","Flanker Task","85","51000.0","103","1024"
