acc,accuracy,average_response_time,avg_rt,background,canvas_backend,clock_backend,color_backend,condition,correct,correct_Instructions1,correct_keyboardresponse,correct_response,count_Block1,count_Block2,count_Block3,count_Finish,count_ISI,count_Instructions1,count_Instructions2,count_errorFeedback,count_experiment,count_faster,count_fixation,count_instructions3,count_keyboardresponse,count_logger,count_sequence,count_stimulus,datetime,deadline,description,disable_garbage_collection,experiment_file,experiment_path,font_bold,font_family,font_italic,font_size,font_underline,foreground,form_clicks,fullscreen,height,keyboard_backend,live_row,live_row_Block1,logfile,mouse_backend,opensesame_codename,opensesame_version,repeat_cycle,response,response_Finish,response_Instructions1,response_Instructions2,response_instructions3,response_keyboardresponse,response_time,response_time_Finish,response_time_Instructions1,response_time_Instructions2,response_time_instructions3,response_time_keyboardresponse,round_decimals,sampler_backend,sound_buf_size,sound_channels,sound_freq,sound_sample_size,start,stimulus,subject_nr,subject_parity,time_Block1,time_Block2,time_Block3,time_Finish,time_ISI,time_Instructions1,time_Instructions2,time_errorFeedback,time_experiment,time_faster,time_fixation,time_instructions3,time_keyboardresponse,time_logger,time_sequence,time_stimulus,title,total_correct,total_response_time,total_responses,width
100,100,924,924,#000000,legacy,legacy,legacy,congruent,1,undefined,1,h,0,0,0,0,0,0,0,0,0,0,0,0,0,0,0,0,Thu Sep 21 14:50:55 2023,1500,The main experiment item,FALSE,FlankerTaskLab21.osexp,C:\Users\katjo\OneDrive\Desktop,FALSE,mono,FALSE,18,no,white,no,yes,768,legacy,0,0,C:/Users/katjo/OneDrive/Desktop/KJ-subject-2 41M.csv,legacy,Melodramatic Milgram,4.0.5,0,h,NA,h,NA,NA,h,924,NA,27622,NA,NA,924,2,legacy,1024,2,48000,-16,experiment,HHHHH,2,even,31875,NA,NA,NA,NA,4252,NA,NA,4243,NA,31957,NA,32058,32982,31956,32057,Flanker Task Lab 2.1,1,924,1,1024
100,100,682,682,#000000,legacy,legacy,legacy,congruent,1,undefined,1,s,0,0,0,0,1,0,0,1,0,1,1,0,1,1,1,1,Thu Sep 21 14:50:55 2023,1500,The main experiment item,FALSE,FlankerTaskLab21.osexp,C:\Users\katjo\OneDrive\Desktop,FALSE,mono,FALSE,18,no,white,no,yes,768,legacy,1,1,C:/Users/katjo/OneDrive/Desktop/KJ-subject-2 41M.csv,legacy,Melodramatic Milgram,4.0.5,0,s,NA,h,NA,NA,s,441,NA,27622,NA,NA,441,2,legacy,1024,2,48000,-16,experiment,SSSSS,2,even,31875,NA,NA,NA,32989,4252,NA,NA,4243,NA,34023,NA,34123,34564,34021,34123,Flanker Task Lab 2.1,2,1365,2,1024
66,66,594,594,#000000,legacy,legacy,legacy,congruent,0,undefined,0,s,0,0,0,0,2,0,0,2,0,2,2,0,2,2,2,2,Thu Sep 21 14:50:55 2023,1500,The main experiment item,FALSE,FlankerTaskLab21.osexp,C:\Users\katjo\OneDrive\Desktop,FALSE,mono,FALSE,18,no,white,no,yes,768,legacy,2,2,C:/Users/katjo/OneDrive/Desktop/KJ-subject-2 41M.csv,legacy,Melodramatic Milgram,4.0.5,0,h,NA,h,NA,NA,h,418,NA,27622,NA,NA,418,2,legacy,1024,2,48000,-16,experiment,SSSSS,2,even,31875,NA,NA,NA,34567,4252,NA,NA,4243,NA,35600,NA,35700,36118,35599,35700,Flanker Task Lab 2.1,2,1783,3,1024
75,75,743,743,#000000,legacy,legacy,legacy,incongruent,1,undefined,1,s,0,0,0,0,3,0,0,3,0,3,3,0,3,3,3,3,Thu Sep 21 14:50:55 2023,1500,The main experiment item,FALSE,FlankerTaskLab21.osexp,C:\Users\katjo\OneDrive\Desktop,FALSE,mono,FALSE,18,no,white,no,yes,768,legacy,3,3,C:/Users/katjo/OneDrive/Desktop/KJ-subject-2 41M.csv,legacy,Melodramatic Milgram,4.0.5,0,s,NA,h,NA,NA,s,1192,NA,27622,NA,NA,1192,2,legacy,1024,2,48000,-16,experiment,HHSHH,2,even,31875,NA,NA,NA,36622,4252,NA,36121,4243,NA,37651,NA,37753,38945,37650,37752,Flanker Task Lab 2.1,3,2975,4,1024
80,80,759,759,#000000,legacy,legacy,legacy,incongruent,1,undefined,1,h,0,0,0,0,4,0,0,4,0,4,4,0,4,4,4,4,Thu Sep 21 14:50:55 2023,1500,The main experiment item,FALSE,FlankerTaskLab21.osexp,C:\Users\katjo\OneDrive\Desktop,FALSE,mono,FALSE,18,no,white,no,yes,768,legacy,4,4,C:/Users/katjo/OneDrive/Desktop/KJ-subject-2 41M.csv,legacy,Melodramatic Milgram,4.0.5,0,h,NA,h,NA,NA,h,821,NA,27622,NA,NA,821,2,legacy,1024,2,48000,-16,experiment,SSHSS,2,even,31875,NA,NA,NA,38953,4252,NA,36121,4243,NA,39980,NA,40081,40903,39978,40081,Flanker Task Lab 2.1,4,3796,5,1024
83,83,738,738,#000000,legacy,legacy,legacy,incongruent,1,undefined,1,s,0,0,0,0,5,0,0,5,0,5,5,0,5,5,5,5,Thu Sep 21 14:50:55 2023,1500,The main experiment item,FALSE,FlankerTaskLab21.osexp,C:\Users\katjo\OneDrive\Desktop,FALSE,mono,FALSE,18,no,white,no,yes,768,legacy,5,5,C:/Users/katjo/OneDrive/Desktop/KJ-subject-2 41M.csv,legacy,Melodramatic Milgram,4.0.5,0,s,NA,h,NA,NA,s,633,NA,27622,NA,NA,633,2,legacy,1024,2,48000,-16,experiment,HHSHH,2,even,31875,NA,NA,NA,40930,4252,NA,36121,4243,NA,41961,NA,42061,42695,41960,42061,Flanker Task Lab 2.1,5,4429,6,1024
85,85,707,707,#000000,legacy,legacy,legacy,congruent,1,undefined,1,h,0,0,0,0,6,0,0,6,0,6,6,0,6,6,6,6,Thu Sep 21 14:50:55 2023,1500,The main experiment item,FALSE,FlankerTaskLab21.osexp,C:\Users\katjo\OneDrive\Desktop,FALSE,mono,FALSE,18,no,white,no,yes,768,legacy,6,6,C:/Users/katjo/OneDrive/Desktop/KJ-subject-2 41M.csv,legacy,Melodramatic Milgram,4.0.5,0,h,NA,h,NA,NA,h,523,NA,27622,NA,NA,523,2,legacy,1024,2,48000,-16,experiment,HHHHH,2,even,31875,NA,NA,NA,42722,4252,NA,36121,4243,NA,43765,NA,43866,44389,43764,43866,Flanker Task Lab 2.1,6,4952,7,1024
87,87,715,715,#000000,legacy,legacy,legacy,incongruent,1,undefined,1,s,0,0,0,0,7,0,0,7,0,7,7,0,7,7,7,7,Thu Sep 21 14:50:55 2023,1500,The main experiment item,FALSE,FlankerTaskLab21.osexp,C:\Users\katjo\OneDrive\Desktop,FALSE,mono,FALSE,18,no,white,no,yes,768,legacy,7,7,C:/Users/katjo/OneDrive/Desktop/KJ-subject-2 41M.csv,legacy,Melodramatic Milgram,4.0.5,0,s,NA,h,NA,NA,s,772,NA,27622,NA,NA,772,2,legacy,1024,2,48000,-16,experiment,HHSHH,2,even,31875,NA,NA,NA,44416,4252,NA,36121,4243,NA,45460,NA,45561,46333,45459,45561,Flanker Task Lab 2.1,7,5724,8,1024
88,88,702,702,#000000,legacy,legacy,legacy,congruent,1,undefined,1,s,0,0,0,0,8,0,0,8,0,8,8,0,8,8,8,8,Thu Sep 21 14:50:55 2023,1500,The main experiment item,FALSE,FlankerTaskLab21.osexp,C:\Users\katjo\OneDrive\Desktop,FALSE,mono,FALSE,18,no,white,no,yes,768,legacy,8,8,C:/Users/katjo/OneDrive/Desktop/KJ-subject-2 41M.csv,legacy,Melodramatic Milgram,4.0.5,0,s,NA,h,NA,NA,s,601,NA,27622,NA,NA,601,2,legacy,1024,2,48000,-16,experiment,SSSSS,2,even,31875,NA,NA,NA,46341,4252,NA,36121,4243,NA,47374,NA,47476,48077,47373,47475,Flanker Task Lab 2.1,8,6325,9,1024
90,90,682,682,#000000,legacy,legacy,legacy,congruent,1,undefined,1,h,0,0,0,0,9,0,0,9,0,9,9,0,9,9,9,9,Thu Sep 21 14:50:55 2023,1500,The main experiment item,FALSE,FlankerTaskLab21.osexp,C:\Users\katjo\OneDrive\Desktop,FALSE,mono,FALSE,18,no,white,no,yes,768,legacy,9,9,C:/Users/katjo/OneDrive/Desktop/KJ-subject-2 41M.csv,legacy,Melodramatic Milgram,4.0.5,0,h,NA,h,NA,NA,h,497,NA,27622,NA,NA,497,2,legacy,1024,2,48000,-16,experiment,HHHHH,2,even,31875,NA,NA,NA,48085,4252,NA,36121,4243,NA,49129,NA,49230,49728,49128,49230,Flanker Task Lab 2.1,9,6822,10,1024
90,90,681,681,#000000,legacy,legacy,legacy,incongruent,1,undefined,1,h,0,0,0,0,10,0,0,10,0,10,10,0,10,10,10,10,Thu Sep 21 14:50:55 2023,1500,The main experiment item,FALSE,FlankerTaskLab21.osexp,C:\Users\katjo\OneDrive\Desktop,FALSE,mono,FALSE,18,no,white,no,yes,768,legacy,10,10,C:/Users/katjo/OneDrive/Desktop/KJ-subject-2 41M.csv,legacy,Melodramatic Milgram,4.0.5,0,h,NA,h,NA,NA,h,676,NA,27622,NA,NA,676,2,legacy,1024,2,48000,-16,experiment,SSHSS,2,even,31875,NA,NA,NA,49735,4252,NA,36121,4243,NA,50761,NA,50862,51539,50760,50861,Flanker Task Lab 2.1,10,7498,11,1024
91,91,665,665,#000000,legacy,legacy,legacy,incongruent,1,undefined,1,s,0,0,0,0,11,0,0,11,0,11,11,0,11,11,11,11,Thu Sep 21 14:50:55 2023,1500,The main experiment item,FALSE,FlankerTaskLab21.osexp,C:\Users\katjo\OneDrive\Desktop,FALSE,mono,FALSE,18,no,white,no,yes,768,legacy,11,11,C:/Users/katjo/OneDrive/Desktop/KJ-subject-2 41M.csv,legacy,Melodramatic Milgram,4.0.5,0,s,NA,h,NA,NA,s,488,NA,27622,NA,NA,488,2,legacy,1024,2,48000,-16,experiment,HHSHH,2,even,31875,NA,NA,NA,51544,4252,NA,36121,4243,NA,52572,NA,52673,53161,52571,52673,Flanker Task Lab 2.1,11,7986,12,1024
92,92,664,664,#000000,legacy,legacy,legacy,incongruent,1,undefined,1,h,0,0,0,0,12,0,0,12,0,12,12,0,12,12,12,12,Thu Sep 21 14:50:55 2023,1500,The main experiment item,FALSE,FlankerTaskLab21.osexp,C:\Users\katjo\OneDrive\Desktop,FALSE,mono,FALSE,18,no,white,no,yes,768,legacy,12,12,C:/Users/katjo/OneDrive/Desktop/KJ-subject-2 41M.csv,legacy,Melodramatic Milgram,4.0.5,0,h,NA,h,NA,NA,h,653,NA,27622,NA,NA,653,2,legacy,1024,2,48000,-16,experiment,SSHSS,2,even,31875,NA,NA,NA,53168,4252,NA,36121,4243,NA,54203,NA,54304,54958,54202,54303,Flanker Task Lab 2.1,12,8639,13,1024
92,92,655,655,#000000,legacy,legacy,legacy,incongruent,1,undefined,1,s,0,0,0,0,13,0,0,13,0,13,13,0,13,13,13,13,Thu Sep 21 14:50:55 2023,1500,The main experiment item,FALSE,FlankerTaskLab21.osexp,C:\Users\katjo\OneDrive\Desktop,FALSE,mono,FALSE,18,no,white,no,yes,768,legacy,13,13,C:/Users/katjo/OneDrive/Desktop/KJ-subject-2 41M.csv,legacy,Melodramatic Milgram,4.0.5,0,s,NA,h,NA,NA,s,531,NA,27622,NA,NA,531,2,legacy,1024,2,48000,-16,experiment,HHSHH,2,even,31875,NA,NA,NA,54966,4252,NA,36121,4243,NA,56007,NA,56108,56640,56005,56108,Flanker Task Lab 2.1,13,9170,14,1024
93,93,651,651,#000000,legacy,legacy,legacy,incongruent,1,undefined,1,s,0,0,0,0,14,0,0,14,0,14,14,0,14,14,14,14,Thu Sep 21 14:50:55 2023,1500,The main experiment item,FALSE,FlankerTaskLab21.osexp,C:\Users\katjo\OneDrive\Desktop,FALSE,mono,FALSE,18,no,white,no,yes,768,legacy,14,14,C:/Users/katjo/OneDrive/Desktop/KJ-subject-2 41M.csv,legacy,Melodramatic Milgram,4.0.5,0,s,NA,h,NA,NA,s,602,NA,27622,NA,NA,602,2,legacy,1024,2,48000,-16,experiment,HHSHH,2,even,31875,NA,NA,NA,56647,4252,NA,36121,4243,NA,57673,NA,57774,58377,57672,57774,Flanker Task Lab 2.1,14,9772,15,1024
93,93,643,643,#000000,legacy,legacy,legacy,incongruent,1,undefined,1,s,0,0,0,0,15,0,0,15,0,15,15,0,15,15,15,15,Thu Sep 21 14:50:55 2023,1500,The main experiment item,FALSE,FlankerTaskLab21.osexp,C:\Users\katjo\OneDrive\Desktop,FALSE,mono,FALSE,18,no,white,no,yes,768,legacy,15,15,C:/Users/katjo/OneDrive/Desktop/KJ-subject-2 41M.csv,legacy,Melodramatic Milgram,4.0.5,0,s,NA,h,NA,NA,s,518,NA,27622,NA,NA,518,2,legacy,1024,2,48000,-16,experiment,HHSHH,2,even,31875,NA,NA,NA,58384,4252,NA,36121,4243,NA,59431,NA,59532,60050,59430,59532,Flanker Task Lab 2.1,15,10290,16,1024
88,88,627,627,#000000,legacy,legacy,legacy,incongruent,0,undefined,0,h,0,0,0,0,16,0,0,16,0,16,16,0,16,16,16,16,Thu Sep 21 14:50:55 2023,1500,The main experiment item,FALSE,FlankerTaskLab21.osexp,C:\Users\katjo\OneDrive\Desktop,FALSE,mono,FALSE,18,no,white,no,yes,768,legacy,16,16,C:/Users/katjo/OneDrive/Desktop/KJ-subject-2 41M.csv,legacy,Melodramatic Milgram,4.0.5,0,s,NA,h,NA,NA,s,371,NA,27622,NA,NA,371,2,legacy,1024,2,48000,-16,experiment,SSHSS,2,even,31875,NA,NA,NA,60057,4252,NA,36121,4243,NA,61102,NA,61203,61574,61100,61203,Flanker Task Lab 2.1,15,10661,17,1024
88,88,628,628,#000000,legacy,legacy,legacy,congruent,1,undefined,1,s,0,0,0,0,17,0,0,17,0,17,17,0,17,17,17,17,Thu Sep 21 14:50:55 2023,1500,The main experiment item,FALSE,FlankerTaskLab21.osexp,C:\Users\katjo\OneDrive\Desktop,FALSE,mono,FALSE,18,no,white,no,yes,768,legacy,17,17,C:/Users/katjo/OneDrive/Desktop/KJ-subject-2 41M.csv,legacy,Melodramatic Milgram,4.0.5,0,s,NA,h,NA,NA,s,660,NA,27622,NA,NA,660,2,legacy,1024,2,48000,-16,experiment,SSSSS,2,even,31875,NA,NA,NA,62077,4252,NA,61577,4243,NA,63114,NA,63215,63879,63113,63215,Flanker Task Lab 2.1,16,11321,18,1024
89,89,628,628,#000000,legacy,legacy,legacy,congruent,1,undefined,1,s,0,0,0,0,18,0,0,18,0,18,18,0,18,18,18,18,Thu Sep 21 14:50:55 2023,1500,The main experiment item,FALSE,FlankerTaskLab21.osexp,C:\Users\katjo\OneDrive\Desktop,FALSE,mono,FALSE,18,no,white,no,yes,768,legacy,18,18,C:/Users/katjo/OneDrive/Desktop/KJ-subject-2 41M.csv,legacy,Melodramatic Milgram,4.0.5,0,s,NA,h,NA,NA,s,616,NA,27622,NA,NA,616,2,legacy,1024,2,48000,-16,experiment,SSSSS,2,even,31875,NA,NA,NA,63881,4252,NA,61577,4243,NA,64911,NA,65012,65629,64910,65012,Flanker Task Lab 2.1,17,11937,19,1024
90,90,623,623,#000000,legacy,legacy,legacy,incongruent,1,undefined,1,s,0,0,0,0,19,0,0,19,0,19,19,0,19,19,19,19,Thu Sep 21 14:50:55 2023,1500,The main experiment item,FALSE,FlankerTaskLab21.osexp,C:\Users\katjo\OneDrive\Desktop,FALSE,mono,FALSE,18,no,white,no,yes,768,legacy,19,19,C:/Users/katjo/OneDrive/Desktop/KJ-subject-2 41M.csv,legacy,Melodramatic Milgram,4.0.5,0,s,NA,h,NA,NA,s,529,NA,27622,NA,NA,529,2,legacy,1024,2,48000,-16,experiment,HHSHH,2,even,31875,NA,NA,NA,65631,4252,NA,61577,4243,NA,66678,NA,66779,67309,66677,66779,Flanker Task Lab 2.1,18,12466,20,1024
90,90,621,621,#000000,legacy,legacy,legacy,incongruent,1,undefined,1,h,0,0,0,0,20,0,0,20,0,20,20,0,20,20,20,20,Thu Sep 21 14:50:55 2023,1500,The main experiment item,FALSE,FlankerTaskLab21.osexp,C:\Users\katjo\OneDrive\Desktop,FALSE,mono,FALSE,18,no,white,no,yes,768,legacy,20,20,C:/Users/katjo/OneDrive/Desktop/KJ-subject-2 41M.csv,legacy,Melodramatic Milgram,4.0.5,0,h,NA,h,NA,NA,h,583,NA,27622,NA,NA,583,2,legacy,1024,2,48000,-16,experiment,SSHSS,2,even,31875,NA,NA,NA,67317,4252,NA,61577,4243,NA,68347,NA,68447,69030,68346,68447,Flanker Task Lab 2.1,19,13049,21,1024
90,90,617,617,#000000,legacy,legacy,legacy,congruent,1,undefined,1,s,0,0,0,0,21,0,0,21,0,21,21,0,21,21,21,21,Thu Sep 21 14:50:55 2023,1500,The main experiment item,FALSE,FlankerTaskLab21.osexp,C:\Users\katjo\OneDrive\Desktop,FALSE,mono,FALSE,18,no,white,no,yes,768,legacy,21,21,C:/Users/katjo/OneDrive/Desktop/KJ-subject-2 41M.csv,legacy,Melodramatic Milgram,4.0.5,0,s,NA,h,NA,NA,s,540,NA,27622,NA,NA,540,2,legacy,1024,2,48000,-16,experiment,SSSSS,2,even,31875,NA,NA,NA,69037,4252,NA,61577,4243,NA,70065,NA,70166,70706,70064,70166,Flanker Task Lab 2.1,20,13589,22,1024
91,91,609,609,#000000,legacy,legacy,legacy,incongruent,1,undefined,1,s,0,0,0,0,22,0,0,22,0,22,22,0,22,22,22,22,Thu Sep 21 14:50:55 2023,1500,The main experiment item,FALSE,FlankerTaskLab21.osexp,C:\Users\katjo\OneDrive\Desktop,FALSE,mono,FALSE,18,no,white,no,yes,768,legacy,22,22,C:/Users/katjo/OneDrive/Desktop/KJ-subject-2 41M.csv,legacy,Melodramatic Milgram,4.0.5,0,s,NA,h,NA,NA,s,418,NA,27622,NA,NA,418,2,legacy,1024,2,48000,-16,experiment,HHSHH,2,even,31875,NA,NA,NA,70733,4252,NA,61577,4243,NA,71763,NA,71863,72281,71762,71863,Flanker Task Lab 2.1,21,14007,23,1024
91,91,605,605,#000000,legacy,legacy,legacy,congruent,1,undefined,1,h,0,0,0,0,23,0,0,23,0,23,23,0,23,23,23,23,Thu Sep 21 14:50:55 2023,1500,The main experiment item,FALSE,FlankerTaskLab21.osexp,C:\Users\katjo\OneDrive\Desktop,FALSE,mono,FALSE,18,no,white,no,yes,768,legacy,23,23,C:/Users/katjo/OneDrive/Desktop/KJ-subject-2 41M.csv,legacy,Melodramatic Milgram,4.0.5,0,h,NA,h,NA,NA,h,513,NA,27622,NA,NA,513,2,legacy,1024,2,48000,-16,experiment,HHHHH,2,even,31875,NA,NA,NA,72308,4252,NA,61577,4243,NA,73335,NA,73436,73950,73334,73436,Flanker Task Lab 2.1,22,14520,24,1024
92,92,604,604,#000000,legacy,legacy,legacy,incongruent,1,undefined,1,s,0,0,0,0,24,0,0,24,0,24,24,0,24,24,24,24,Thu Sep 21 14:50:55 2023,1500,The main experiment item,FALSE,FlankerTaskLab21.osexp,C:\Users\katjo\OneDrive\Desktop,FALSE,mono,FALSE,18,no,white,no,yes,768,legacy,24,24,C:/Users/katjo/OneDrive/Desktop/KJ-subject-2 41M.csv,legacy,Melodramatic Milgram,4.0.5,0,s,NA,h,NA,NA,s,584,NA,27622,NA,NA,584,2,legacy,1024,2,48000,-16,experiment,HHSHH,2,even,31875,NA,NA,NA,73957,4252,NA,61577,4243,NA,74988,NA,75088,75672,74987,75088,Flanker Task Lab 2.1,23,15104,25,1024
92,92,602,602,#000000,legacy,legacy,legacy,incongruent,1,undefined,1,h,0,0,0,0,25,0,0,25,0,25,25,0,25,25,25,25,Thu Sep 21 14:50:55 2023,1500,The main experiment item,FALSE,FlankerTaskLab21.osexp,C:\Users\katjo\OneDrive\Desktop,FALSE,mono,FALSE,18,no,white,no,yes,768,legacy,25,25,C:/Users/katjo/OneDrive/Desktop/KJ-subject-2 41M.csv,legacy,Melodramatic Milgram,4.0.5,0,h,NA,h,NA,NA,h,555,NA,27622,NA,NA,555,2,legacy,1024,2,48000,-16,experiment,SSHSS,2,even,31875,NA,NA,NA,75677,4252,NA,61577,4243,NA,76706,NA,76806,77362,76705,76806,Flanker Task Lab 2.1,24,15659,26,1024
92,92,605,605,#000000,legacy,legacy,legacy,incongruent,1,undefined,1,h,0,0,0,0,26,0,0,26,0,26,26,0,26,26,26,26,Thu Sep 21 14:50:55 2023,1500,The main experiment item,FALSE,FlankerTaskLab21.osexp,C:\Users\katjo\OneDrive\Desktop,FALSE,mono,FALSE,18,no,white,no,yes,768,legacy,26,26,C:/Users/katjo/OneDrive/Desktop/KJ-subject-2 41M.csv,legacy,Melodramatic Milgram,4.0.5,0,h,NA,h,NA,NA,h,702,NA,27622,NA,NA,702,2,legacy,1024,2,48000,-16,experiment,SSHSS,2,even,31875,NA,NA,NA,77370,4252,NA,61577,4243,NA,78408,NA,78509,79212,78406,78508,Flanker Task Lab 2.1,25,16361,27,1024
92,92,604,604,#000000,legacy,legacy,legacy,congruent,1,undefined,1,s,0,0,0,0,27,0,0,27,0,27,27,0,27,27,27,27,Thu Sep 21 14:50:55 2023,1500,The main experiment item,FALSE,FlankerTaskLab21.osexp,C:\Users\katjo\OneDrive\Desktop,FALSE,mono,FALSE,18,no,white,no,yes,768,legacy,27,27,C:/Users/katjo/OneDrive/Desktop/KJ-subject-2 41M.csv,legacy,Melodramatic Milgram,4.0.5,0,s,NA,h,NA,NA,s,565,NA,27622,NA,NA,565,2,legacy,1024,2,48000,-16,experiment,SSSSS,2,even,31875,NA,NA,NA,79219,4252,NA,61577,4243,NA,80260,NA,80361,80927,80259,80360,Flanker Task Lab 2.1,26,16926,28,1024
93,93,602,602,#000000,legacy,legacy,legacy,incongruent,1,undefined,1,s,0,0,0,0,28,0,0,28,0,28,28,0,28,28,28,28,Thu Sep 21 14:50:55 2023,1500,The main experiment item,FALSE,FlankerTaskLab21.osexp,C:\Users\katjo\OneDrive\Desktop,FALSE,mono,FALSE,18,no,white,no,yes,768,legacy,28,28,C:/Users/katjo/OneDrive/Desktop/KJ-subject-2 41M.csv,legacy,Melodramatic Milgram,4.0.5,0,s,NA,h,NA,NA,s,548,NA,27622,NA,NA,548,2,legacy,1024,2,48000,-16,experiment,HHSHH,2,even,31875,NA,NA,NA,80935,4252,NA,61577,4243,NA,81975,NA,82076,82625,81974,82076,Flanker Task Lab 2.1,27,17474,29,1024
93,93,599,599,#000000,legacy,legacy,legacy,congruent,1,undefined,1,s,0,0,0,0,29,0,0,29,0,29,29,0,29,29,29,29,Thu Sep 21 14:50:55 2023,1500,The main experiment item,FALSE,FlankerTaskLab21.osexp,C:\Users\katjo\OneDrive\Desktop,FALSE,mono,FALSE,18,no,white,no,yes,768,legacy,29,29,C:/Users/katjo/OneDrive/Desktop/KJ-subject-2 41M.csv,legacy,Melodramatic Milgram,4.0.5,0,s,NA,h,NA,NA,s,506,NA,27622,NA,NA,506,2,legacy,1024,2,48000,-16,experiment,SSSSS,2,even,31875,NA,NA,NA,82651,4252,NA,61577,4243,NA,83685,NA,83785,84292,83684,83785,Flanker Task Lab 2.1,28,17980,30,1024
93,93,596,596,#000000,legacy,legacy,legacy,congruent,1,undefined,1,h,0,0,0,0,30,0,0,30,0,30,30,0,30,30,30,30,Thu Sep 21 14:50:55 2023,1500,The main experiment item,FALSE,FlankerTaskLab21.osexp,C:\Users\katjo\OneDrive\Desktop,FALSE,mono,FALSE,18,no,white,no,yes,768,legacy,30,30,C:/Users/katjo/OneDrive/Desktop/KJ-subject-2 41M.csv,legacy,Melodramatic Milgram,4.0.5,0,h,NA,h,NA,NA,h,505,NA,27622,NA,NA,505,2,legacy,1024,2,48000,-16,experiment,HHHHH,2,even,31875,NA,NA,NA,84319,4252,NA,61577,4243,NA,85344,NA,85445,85951,85343,85445,Flanker Task Lab 2.1,29,18485,31,1024
93,93,595,595,#000000,legacy,legacy,legacy,congruent,1,undefined,1,h,0,0,0,0,31,0,0,31,0,31,31,0,31,31,31,31,Thu Sep 21 14:50:55 2023,1500,The main experiment item,FALSE,FlankerTaskLab21.osexp,C:\Users\katjo\OneDrive\Desktop,FALSE,mono,FALSE,18,no,white,no,yes,768,legacy,31,31,C:/Users/katjo/OneDrive/Desktop/KJ-subject-2 41M.csv,legacy,Melodramatic Milgram,4.0.5,0,h,NA,h,NA,NA,h,563,NA,27622,NA,NA,563,2,legacy,1024,2,48000,-16,experiment,HHHHH,2,even,31875,NA,NA,NA,85977,4252,NA,61577,4243,NA,87006,NA,87107,87671,87005,87107,Flanker Task Lab 2.1,30,19048,32,1024
93,93,590,590,#000000,legacy,legacy,legacy,congruent,1,undefined,1,s,0,0,0,0,32,0,0,32,0,32,32,0,32,32,32,32,Thu Sep 21 14:50:55 2023,1500,The main experiment item,FALSE,FlankerTaskLab21.osexp,C:\Users\katjo\OneDrive\Desktop,FALSE,mono,FALSE,18,no,white,no,yes,768,legacy,32,32,C:/Users/katjo/OneDrive/Desktop/KJ-subject-2 41M.csv,legacy,Melodramatic Milgram,4.0.5,0,s,NA,h,NA,NA,s,439,NA,27622,NA,NA,439,2,legacy,1024,2,48000,-16,experiment,SSSSS,2,even,31875,NA,NA,NA,87679,4252,NA,61577,4243,NA,88708,NA,88810,89250,88707,88809,Flanker Task Lab 2.1,31,19487,33,1024
94,94,589,589,#000000,legacy,legacy,legacy,incongruent,1,undefined,1,h,0,0,0,0,33,0,0,33,0,33,33,0,33,33,33,33,Thu Sep 21 14:50:55 2023,1500,The main experiment item,FALSE,FlankerTaskLab21.osexp,C:\Users\katjo\OneDrive\Desktop,FALSE,mono,FALSE,18,no,white,no,yes,768,legacy,33,33,C:/Users/katjo/OneDrive/Desktop/KJ-subject-2 41M.csv,legacy,Melodramatic Milgram,4.0.5,0,h,NA,h,NA,NA,h,544,NA,27622,NA,NA,544,2,legacy,1024,2,48000,-16,experiment,SSHSS,2,even,31875,NA,NA,NA,89277,4252,NA,61577,4243,NA,90306,NA,90408,90952,90305,90407,Flanker Task Lab 2.1,32,20031,34,1024
94,94,585,585,#000000,legacy,legacy,legacy,congruent,1,undefined,1,h,0,0,0,0,34,0,0,34,0,34,34,0,34,34,34,34,Thu Sep 21 14:50:55 2023,1500,The main experiment item,FALSE,FlankerTaskLab21.osexp,C:\Users\katjo\OneDrive\Desktop,FALSE,mono,FALSE,18,no,white,no,yes,768,legacy,34,34,C:/Users/katjo/OneDrive/Desktop/KJ-subject-2 41M.csv,legacy,Melodramatic Milgram,4.0.5,0,h,NA,h,NA,NA,h,451,NA,27622,NA,NA,451,2,legacy,1024,2,48000,-16,experiment,HHHHH,2,even,31875,NA,NA,NA,90960,4252,NA,61577,4243,NA,91985,NA,92085,92537,91984,92085,Flanker Task Lab 2.1,33,20482,35,1024
94,94,582,582,#000000,legacy,legacy,legacy,incongruent,1,undefined,1,s,0,0,0,0,35,0,0,35,0,35,35,0,35,35,35,35,Thu Sep 21 14:50:55 2023,1500,The main experiment item,FALSE,FlankerTaskLab21.osexp,C:\Users\katjo\OneDrive\Desktop,FALSE,mono,FALSE,18,no,white,no,yes,768,legacy,35,35,C:/Users/katjo/OneDrive/Desktop/KJ-subject-2 41M.csv,legacy,Melodramatic Milgram,4.0.5,0,s,NA,h,NA,NA,s,495,NA,27622,NA,NA,495,2,legacy,1024,2,48000,-16,experiment,HHSHH,2,even,31875,NA,NA,NA,92544,4252,NA,61577,4243,NA,93590,NA,93691,94187,93589,93691,Flanker Task Lab 2.1,34,20977,36,1024
94,94,578,578,#000000,legacy,legacy,legacy,incongruent,1,undefined,1,s,0,0,0,0,36,0,0,36,0,36,36,0,36,36,36,36,Thu Sep 21 14:50:55 2023,1500,The main experiment item,FALSE,FlankerTaskLab21.osexp,C:\Users\katjo\OneDrive\Desktop,FALSE,mono,FALSE,18,no,white,no,yes,768,legacy,36,36,C:/Users/katjo/OneDrive/Desktop/KJ-subject-2 41M.csv,legacy,Melodramatic Milgram,4.0.5,0,s,NA,h,NA,NA,s,410,NA,27622,NA,NA,410,2,legacy,1024,2,48000,-16,experiment,HHSHH,2,even,31875,NA,NA,NA,94214,4252,NA,61577,4243,NA,95245,NA,95345,95756,95244,95345,Flanker Task Lab 2.1,35,21387,37,1024
94,94,575,575,#000000,legacy,legacy,legacy,congruent,1,undefined,1,s,0,0,0,0,37,0,0,37,0,37,37,0,37,37,37,37,Thu Sep 21 14:50:55 2023,1500,The main experiment item,FALSE,FlankerTaskLab21.osexp,C:\Users\katjo\OneDrive\Desktop,FALSE,mono,FALSE,18,no,white,no,yes,768,legacy,37,37,C:/Users/katjo/OneDrive/Desktop/KJ-subject-2 41M.csv,legacy,Melodramatic Milgram,4.0.5,0,s,NA,h,NA,NA,s,467,NA,27622,NA,NA,467,2,legacy,1024,2,48000,-16,experiment,SSSSS,2,even,31875,NA,NA,NA,95763,4252,NA,61577,4243,NA,96802,NA,96902,97370,96801,96902,Flanker Task Lab 2.1,36,21854,38,1024
94,94,572,572,#000000,legacy,legacy,legacy,incongruent,1,undefined,1,h,0,0,0,0,38,0,0,38,0,38,38,0,38,38,38,38,Thu Sep 21 14:50:55 2023,1500,The main experiment item,FALSE,FlankerTaskLab21.osexp,C:\Users\katjo\OneDrive\Desktop,FALSE,mono,FALSE,18,no,white,no,yes,768,legacy,38,38,C:/Users/katjo/OneDrive/Desktop/KJ-subject-2 41M.csv,legacy,Melodramatic Milgram,4.0.5,0,h,NA,h,NA,NA,h,478,NA,27622,NA,NA,478,2,legacy,1024,2,48000,-16,experiment,SSHSS,2,even,31875,NA,NA,NA,97377,4252,NA,61577,4243,NA,98411,NA,98512,98991,98410,98511,Flanker Task Lab 2.1,37,22332,39,1024
95,95,569,569,#000000,legacy,legacy,legacy,congruent,1,undefined,1,h,0,0,0,0,39,0,0,39,0,39,39,0,39,39,39,39,Thu Sep 21 14:50:55 2023,1500,The main experiment item,FALSE,FlankerTaskLab21.osexp,C:\Users\katjo\OneDrive\Desktop,FALSE,mono,FALSE,18,no,white,no,yes,768,legacy,39,39,C:/Users/katjo/OneDrive/Desktop/KJ-subject-2 41M.csv,legacy,Melodramatic Milgram,4.0.5,0,h,NA,h,NA,NA,h,449,NA,27622,NA,NA,449,2,legacy,1024,2,48000,-16,experiment,HHHHH,2,even,31875,NA,NA,NA,98999,4252,NA,61577,4243,NA,100029,NA,100129,100579,100027,100129,Flanker Task Lab 2.1,38,22781,40,1024
95,95,567,567,#000000,legacy,legacy,legacy,congruent,1,undefined,1,s,0,0,0,0,40,0,0,40,0,40,40,0,40,40,40,40,Thu Sep 21 14:50:55 2023,1500,The main experiment item,FALSE,FlankerTaskLab21.osexp,C:\Users\katjo\OneDrive\Desktop,FALSE,mono,FALSE,18,no,white,no,yes,768,legacy,40,40,C:/Users/katjo/OneDrive/Desktop/KJ-subject-2 41M.csv,legacy,Melodramatic Milgram,4.0.5,0,s,NA,h,NA,NA,s,487,NA,27622,NA,NA,487,2,legacy,1024,2,48000,-16,experiment,SSSSS,2,even,31875,NA,NA,NA,100606,4252,NA,61577,4243,NA,101631,NA,101731,102219,101630,101731,Flanker Task Lab 2.1,39,23268,41,1024
95,95,566,566,#000000,legacy,legacy,legacy,incongruent,1,undefined,1,h,0,0,0,0,41,0,0,41,0,41,41,0,41,41,41,41,Thu Sep 21 14:50:55 2023,1500,The main experiment item,FALSE,FlankerTaskLab21.osexp,C:\Users\katjo\OneDrive\Desktop,FALSE,mono,FALSE,18,no,white,no,yes,768,legacy,41,41,C:/Users/katjo/OneDrive/Desktop/KJ-subject-2 41M.csv,legacy,Melodramatic Milgram,4.0.5,0,h,NA,h,NA,NA,h,542,NA,27622,NA,NA,542,2,legacy,1024,2,48000,-16,experiment,SSHSS,2,even,31875,NA,NA,NA,102246,4252,NA,61577,4243,NA,103281,NA,103382,103925,103279,103382,Flanker Task Lab 2.1,40,23810,42,1024
95,95,563,563,#000000,legacy,legacy,legacy,congruent,1,undefined,1,s,0,0,0,0,42,0,0,42,0,42,42,0,42,42,42,42,Thu Sep 21 14:50:55 2023,1500,The main experiment item,FALSE,FlankerTaskLab21.osexp,C:\Users\katjo\OneDrive\Desktop,FALSE,mono,FALSE,18,no,white,no,yes,768,legacy,42,42,C:/Users/katjo/OneDrive/Desktop/KJ-subject-2 41M.csv,legacy,Melodramatic Milgram,4.0.5,0,s,NA,h,NA,NA,s,401,NA,27622,NA,NA,401,2,legacy,1024,2,48000,-16,experiment,SSSSS,2,even,31875,NA,NA,NA,103933,4252,NA,61577,4243,NA,104977,NA,105077,105479,104976,105077,Flanker Task Lab 2.1,41,24211,43,1024
95,95,560,560,#000000,legacy,legacy,legacy,congruent,1,undefined,1,s,0,0,0,0,43,0,0,43,0,43,43,0,43,43,43,43,Thu Sep 21 14:50:55 2023,1500,The main experiment item,FALSE,FlankerTaskLab21.osexp,C:\Users\katjo\OneDrive\Desktop,FALSE,mono,FALSE,18,no,white,no,yes,768,legacy,43,43,C:/Users/katjo/OneDrive/Desktop/KJ-subject-2 41M.csv,legacy,Melodramatic Milgram,4.0.5,0,s,NA,h,NA,NA,s,462,NA,27622,NA,NA,462,2,legacy,1024,2,48000,-16,experiment,SSSSS,2,even,31875,NA,NA,NA,105505,4252,NA,61577,4243,NA,106533,NA,106635,107098,106532,106634,Flanker Task Lab 2.1,42,24673,44,1024
95,95,559,559,#000000,legacy,legacy,legacy,incongruent,1,undefined,1,h,0,0,0,0,44,0,0,44,0,44,44,0,44,44,44,44,Thu Sep 21 14:50:55 2023,1500,The main experiment item,FALSE,FlankerTaskLab21.osexp,C:\Users\katjo\OneDrive\Desktop,FALSE,mono,FALSE,18,no,white,no,yes,768,legacy,44,44,C:/Users/katjo/OneDrive/Desktop/KJ-subject-2 41M.csv,legacy,Melodramatic Milgram,4.0.5,0,h,NA,h,NA,NA,h,517,NA,27622,NA,NA,517,2,legacy,1024,2,48000,-16,experiment,SSHSS,2,even,31875,NA,NA,NA,107124,4252,NA,61577,4243,NA,108161,NA,108261,108779,108160,108261,Flanker Task Lab 2.1,43,25190,45,1024
95,95,558,558,#000000,legacy,legacy,legacy,incongruent,1,undefined,1,h,0,0,0,0,45,0,0,45,0,45,45,0,45,45,45,45,Thu Sep 21 14:50:55 2023,1500,The main experiment item,FALSE,FlankerTaskLab21.osexp,C:\Users\katjo\OneDrive\Desktop,FALSE,mono,FALSE,18,no,white,no,yes,768,legacy,45,45,C:/Users/katjo/OneDrive/Desktop/KJ-subject-2 41M.csv,legacy,Melodramatic Milgram,4.0.5,0,h,NA,h,NA,NA,h,506,NA,27622,NA,NA,506,2,legacy,1024,2,48000,-16,experiment,SSHSS,2,even,31875,NA,NA,NA,108787,4252,NA,61577,4243,NA,109823,NA,109925,110432,109823,109924,Flanker Task Lab 2.1,44,25696,46,1024
95,95,556,556,#000000,legacy,legacy,legacy,congruent,1,undefined,1,h,0,0,0,0,46,0,0,46,0,46,46,0,46,46,46,46,Thu Sep 21 14:50:55 2023,1500,The main experiment item,FALSE,FlankerTaskLab21.osexp,C:\Users\katjo\OneDrive\Desktop,FALSE,mono,FALSE,18,no,white,no,yes,768,legacy,46,46,C:/Users/katjo/OneDrive/Desktop/KJ-subject-2 41M.csv,legacy,Melodramatic Milgram,4.0.5,0,h,NA,h,NA,NA,h,450,NA,27622,NA,NA,450,2,legacy,1024,2,48000,-16,experiment,HHHHH,2,even,31875,NA,NA,NA,110458,4252,NA,61577,4243,NA,111498,NA,111599,112049,111497,111599,Flanker Task Lab 2.1,45,26146,47,1024
95,95,554,554,#000000,legacy,legacy,legacy,congruent,1,undefined,1,s,0,0,0,0,47,0,0,47,0,47,47,0,47,47,47,47,Thu Sep 21 14:50:55 2023,1500,The main experiment item,FALSE,FlankerTaskLab21.osexp,C:\Users\katjo\OneDrive\Desktop,FALSE,mono,FALSE,18,no,white,no,yes,768,legacy,47,47,C:/Users/katjo/OneDrive/Desktop/KJ-subject-2 41M.csv,legacy,Melodramatic Milgram,4.0.5,0,s,NA,h,NA,NA,s,485,NA,27622,NA,NA,485,2,legacy,1024,2,48000,-16,experiment,SSSSS,2,even,31875,NA,NA,NA,112052,4252,NA,61577,4243,NA,113095,NA,113196,113682,113094,113196,Flanker Task Lab 2.1,46,26631,48,1024
95,95,554,554,#000000,legacy,legacy,legacy,incongruent,1,undefined,1,h,0,0,0,0,48,0,0,48,0,48,48,0,48,48,48,48,Thu Sep 21 14:50:55 2023,1500,The main experiment item,FALSE,FlankerTaskLab21.osexp,C:\Users\katjo\OneDrive\Desktop,FALSE,mono,FALSE,18,no,white,no,yes,768,legacy,48,48,C:/Users/katjo/OneDrive/Desktop/KJ-subject-2 41M.csv,legacy,Melodramatic Milgram,4.0.5,0,h,NA,h,NA,NA,h,536,NA,27622,NA,NA,536,2,legacy,1024,2,48000,-16,experiment,SSHSS,2,even,31875,NA,NA,NA,113689,4252,NA,61577,4243,NA,114716,NA,114818,115355,114715,114817,Flanker Task Lab 2.1,47,27167,49,1024
96,96,550,550,#000000,legacy,legacy,legacy,congruent,1,undefined,1,h,0,0,0,0,49,0,0,49,0,49,49,0,49,49,49,49,Thu Sep 21 14:50:55 2023,1500,The main experiment item,FALSE,FlankerTaskLab21.osexp,C:\Users\katjo\OneDrive\Desktop,FALSE,mono,FALSE,18,no,white,no,yes,768,legacy,49,49,C:/Users/katjo/OneDrive/Desktop/KJ-subject-2 41M.csv,legacy,Melodramatic Milgram,4.0.5,0,h,NA,h,NA,NA,h,381,NA,27622,NA,NA,381,2,legacy,1024,2,48000,-16,experiment,HHHHH,2,even,31875,NA,NA,NA,115360,4252,NA,61577,4243,NA,116406,NA,116507,116889,116404,116507,Flanker Task Lab 2.1,48,27548,50,1024
96,96,547,547,#000000,legacy,legacy,legacy,congruent,1,undefined,1,h,0,0,0,0,50,0,0,50,0,50,50,0,50,50,50,50,Thu Sep 21 14:50:55 2023,1500,The main experiment item,FALSE,FlankerTaskLab21.osexp,C:\Users\katjo\OneDrive\Desktop,FALSE,mono,FALSE,18,no,white,no,yes,768,legacy,50,50,C:/Users/katjo/OneDrive/Desktop/KJ-subject-2 41M.csv,legacy,Melodramatic Milgram,4.0.5,0,h,NA,h,NA,NA,h,395,NA,27622,NA,NA,395,2,legacy,1024,2,48000,-16,experiment,HHHHH,2,even,31875,NA,NA,NA,116896,4252,NA,61577,4243,NA,117922,NA,118024,118420,117921,118023,Flanker Task Lab 2.1,49,27943,51,1024
96,96,546,546,#000000,legacy,legacy,legacy,incongruent,1,undefined,1,s,0,0,0,0,51,0,0,51,0,51,51,0,51,51,51,51,Thu Sep 21 14:50:55 2023,1500,The main experiment item,FALSE,FlankerTaskLab21.osexp,C:\Users\katjo\OneDrive\Desktop,FALSE,mono,FALSE,18,no,white,no,yes,768,legacy,51,51,C:/Users/katjo/OneDrive/Desktop/KJ-subject-2 41M.csv,legacy,Melodramatic Milgram,4.0.5,0,s,NA,h,NA,NA,s,473,NA,27622,NA,NA,473,2,legacy,1024,2,48000,-16,experiment,HHSHH,2,even,31875,NA,NA,NA,118428,4252,NA,61577,4243,NA,119455,NA,119555,120029,119454,119555,Flanker Task Lab 2.1,50,28416,52,1024
96,96,545,545,#000000,legacy,legacy,legacy,congruent,1,undefined,1,s,0,0,0,0,52,0,0,52,0,52,52,0,52,52,52,52,Thu Sep 21 14:50:55 2023,1500,The main experiment item,FALSE,FlankerTaskLab21.osexp,C:\Users\katjo\OneDrive\Desktop,FALSE,mono,FALSE,18,no,white,no,yes,768,legacy,52,52,C:/Users/katjo/OneDrive/Desktop/KJ-subject-2 41M.csv,legacy,Melodramatic Milgram,4.0.5,0,s,NA,h,NA,NA,s,477,NA,27622,NA,NA,477,2,legacy,1024,2,48000,-16,experiment,SSSSS,2,even,31875,NA,NA,NA,120036,4252,NA,61577,4243,NA,121065,NA,121166,121644,121064,121166,Flanker Task Lab 2.1,51,28893,53,1024
96,96,542,542,#000000,legacy,legacy,legacy,incongruent,1,undefined,1,h,0,0,0,0,53,0,0,53,0,53,53,0,53,53,53,53,Thu Sep 21 14:50:55 2023,1500,The main experiment item,FALSE,FlankerTaskLab21.osexp,C:\Users\katjo\OneDrive\Desktop,FALSE,mono,FALSE,18,no,white,no,yes,768,legacy,53,53,C:/Users/katjo/OneDrive/Desktop/KJ-subject-2 41M.csv,legacy,Melodramatic Milgram,4.0.5,0,h,NA,h,NA,NA,h,396,NA,27622,NA,NA,396,2,legacy,1024,2,48000,-16,experiment,SSHSS,2,even,31875,NA,NA,NA,121652,4252,NA,61577,4243,NA,122701,NA,122801,123198,122699,122801,Flanker Task Lab 2.1,52,29289,54,1024
96,96,540,540,#000000,legacy,legacy,legacy,incongruent,1,undefined,1,h,0,0,0,0,54,0,0,54,0,54,54,0,54,54,54,54,Thu Sep 21 14:50:55 2023,1500,The main experiment item,FALSE,FlankerTaskLab21.osexp,C:\Users\katjo\OneDrive\Desktop,FALSE,mono,FALSE,18,no,white,no,yes,768,legacy,54,54,C:/Users/katjo/OneDrive/Desktop/KJ-subject-2 41M.csv,legacy,Melodramatic Milgram,4.0.5,0,h,NA,h,NA,NA,h,427,NA,27622,NA,NA,427,2,legacy,1024,2,48000,-16,experiment,SSHSS,2,even,31875,NA,NA,NA,123225,4252,NA,61577,4243,NA,124254,NA,124355,124783,124253,124355,Flanker Task Lab 2.1,53,29716,55,1024
96,96,538,538,#000000,legacy,legacy,legacy,congruent,1,undefined,1,h,0,0,0,0,55,0,0,55,0,55,55,0,55,55,55,55,Thu Sep 21 14:50:55 2023,1500,The main experiment item,FALSE,FlankerTaskLab21.osexp,C:\Users\katjo\OneDrive\Desktop,FALSE,mono,FALSE,18,no,white,no,yes,768,legacy,55,55,C:/Users/katjo/OneDrive/Desktop/KJ-subject-2 41M.csv,legacy,Melodramatic Milgram,4.0.5,0,h,NA,h,NA,NA,h,424,NA,27622,NA,NA,424,2,legacy,1024,2,48000,-16,experiment,HHHHH,2,even,31875,NA,NA,NA,124790,4252,NA,61577,4243,NA,125831,NA,125931,126356,125829,125931,Flanker Task Lab 2.1,54,30140,56,1024
96,96,536,536,#000000,legacy,legacy,legacy,congruent,1,undefined,1,h,0,0,0,0,56,0,0,56,0,56,56,0,56,56,56,56,Thu Sep 21 14:50:55 2023,1500,The main experiment item,FALSE,FlankerTaskLab21.osexp,C:\Users\katjo\OneDrive\Desktop,FALSE,mono,FALSE,18,no,white,no,yes,768,legacy,56,56,C:/Users/katjo/OneDrive/Desktop/KJ-subject-2 41M.csv,legacy,Melodramatic Milgram,4.0.5,0,h,NA,h,NA,NA,h,430,NA,27622,NA,NA,430,2,legacy,1024,2,48000,-16,experiment,HHHHH,2,even,31875,NA,NA,NA,126363,4252,NA,61577,4243,NA,127393,NA,127493,127924,127392,127493,Flanker Task Lab 2.1,55,30570,57,1024
94,94,533,533,#000000,legacy,legacy,legacy,incongruent,0,undefined,0,h,0,0,0,0,57,0,0,57,0,57,57,0,57,57,57,57,Thu Sep 21 14:50:55 2023,1500,The main experiment item,FALSE,FlankerTaskLab21.osexp,C:\Users\katjo\OneDrive\Desktop,FALSE,mono,FALSE,18,no,white,no,yes,768,legacy,57,57,C:/Users/katjo/OneDrive/Desktop/KJ-subject-2 41M.csv,legacy,Melodramatic Milgram,4.0.5,0,s,NA,h,NA,NA,s,386,NA,27622,NA,NA,386,2,legacy,1024,2,48000,-16,experiment,SSHSS,2,even,31875,NA,NA,NA,127950,4252,NA,61577,4243,NA,128982,NA,129082,129469,128981,129082,Flanker Task Lab 2.1,55,30956,58,1024
94,94,535,535,#000000,legacy,legacy,legacy,incongruent,1,undefined,1,s,0,0,0,0,58,0,0,58,0,58,58,0,58,58,58,58,Thu Sep 21 14:50:55 2023,1500,The main experiment item,FALSE,FlankerTaskLab21.osexp,C:\Users\katjo\OneDrive\Desktop,FALSE,mono,FALSE,18,no,white,no,yes,768,legacy,58,58,C:/Users/katjo/OneDrive/Desktop/KJ-subject-2 41M.csv,legacy,Melodramatic Milgram,4.0.5,0,s,NA,h,NA,NA,s,620,NA,27622,NA,NA,620,2,legacy,1024,2,48000,-16,experiment,HHSHH,2,even,31875,NA,NA,NA,129977,4252,NA,129476,4243,NA,131009,NA,131110,131731,131008,131110,Flanker Task Lab 2.1,56,31576,59,1024
95,95,536,536,#000000,legacy,legacy,legacy,congruent,1,undefined,1,h,0,0,0,0,59,0,0,59,0,59,59,0,59,59,59,59,Thu Sep 21 14:50:55 2023,1500,The main experiment item,FALSE,FlankerTaskLab21.osexp,C:\Users\katjo\OneDrive\Desktop,FALSE,mono,FALSE,18,no,white,no,yes,768,legacy,59,59,C:/Users/katjo/OneDrive/Desktop/KJ-subject-2 41M.csv,legacy,Melodramatic Milgram,4.0.5,0,h,NA,h,NA,NA,h,600,NA,27622,NA,NA,600,2,legacy,1024,2,48000,-16,experiment,HHHHH,2,even,31875,NA,NA,NA,131739,4252,NA,129476,4243,NA,132764,NA,132865,133466,132763,132865,Flanker Task Lab 2.1,57,32176,60,1024
95,95,537,537,#000000,legacy,legacy,legacy,incongruent,1,undefined,1,h,0,0,0,0,60,0,0,60,0,60,60,0,60,60,60,60,Thu Sep 21 14:50:55 2023,1500,The main experiment item,FALSE,FlankerTaskLab21.osexp,C:\Users\katjo\OneDrive\Desktop,FALSE,mono,FALSE,18,no,white,no,yes,768,legacy,60,60,C:/Users/katjo/OneDrive/Desktop/KJ-subject-2 41M.csv,legacy,Melodramatic Milgram,4.0.5,0,h,NA,h,NA,NA,h,592,NA,27622,NA,NA,592,2,legacy,1024,2,48000,-16,experiment,SSHSS,2,even,31875,NA,NA,NA,133470,4252,NA,129476,4243,NA,134509,NA,134610,135203,134508,134610,Flanker Task Lab 2.1,58,32768,61,1024
95,95,537,537,#000000,legacy,legacy,legacy,congruent,1,undefined,1,h,0,0,0,0,61,0,0,61,0,61,61,0,61,61,61,61,Thu Sep 21 14:50:55 2023,1500,The main experiment item,FALSE,FlankerTaskLab21.osexp,C:\Users\katjo\OneDrive\Desktop,FALSE,mono,FALSE,18,no,white,no,yes,768,legacy,61,61,C:/Users/katjo/OneDrive/Desktop/KJ-subject-2 41M.csv,legacy,Melodramatic Milgram,4.0.5,0,h,NA,h,NA,NA,h,536,NA,27622,NA,NA,536,2,legacy,1024,2,48000,-16,experiment,HHHHH,2,even,31875,NA,NA,NA,135205,4252,NA,129476,4243,NA,136233,NA,136335,136872,136231,136334,Flanker Task Lab 2.1,59,33304,62,1024
95,95,538,538,#000000,legacy,legacy,legacy,incongruent,1,undefined,1,s,0,0,0,0,62,0,0,62,0,62,62,0,62,62,62,62,Thu Sep 21 14:50:55 2023,1500,The main experiment item,FALSE,FlankerTaskLab21.osexp,C:\Users\katjo\OneDrive\Desktop,FALSE,mono,FALSE,18,no,white,no,yes,768,legacy,62,62,C:/Users/katjo/OneDrive/Desktop/KJ-subject-2 41M.csv,legacy,Melodramatic Milgram,4.0.5,0,s,NA,h,NA,NA,s,608,NA,27622,NA,NA,608,2,legacy,1024,2,48000,-16,experiment,HHSHH,2,even,31875,NA,NA,NA,136875,4252,NA,129476,4243,NA,137931,NA,138032,138641,137929,138032,Flanker Task Lab 2.1,60,33912,63,1024
95,95,538,538,#000000,legacy,legacy,legacy,incongruent,1,undefined,1,h,0,0,0,0,63,0,0,63,0,63,63,0,63,63,63,63,Thu Sep 21 14:50:55 2023,1500,The main experiment item,FALSE,FlankerTaskLab21.osexp,C:\Users\katjo\OneDrive\Desktop,FALSE,mono,FALSE,18,no,white,no,yes,768,legacy,63,63,C:/Users/katjo/OneDrive/Desktop/KJ-subject-2 41M.csv,legacy,Melodramatic Milgram,4.0.5,0,h,NA,h,NA,NA,h,537,NA,27622,NA,NA,537,2,legacy,1024,2,48000,-16,experiment,SSHSS,2,even,31875,NA,NA,NA,138648,4252,NA,129476,4243,NA,139673,NA,139774,140312,139672,139774,Flanker Task Lab 2.1,61,34449,64,1024
95,95,537,537,#000000,legacy,legacy,legacy,incongruent,1,undefined,1,h,0,0,0,0,64,0,0,64,0,64,64,0,64,64,64,64,Thu Sep 21 14:50:55 2023,1500,The main experiment item,FALSE,FlankerTaskLab21.osexp,C:\Users\katjo\OneDrive\Desktop,FALSE,mono,FALSE,18,no,white,no,yes,768,legacy,64,64,C:/Users/katjo/OneDrive/Desktop/KJ-subject-2 41M.csv,legacy,Melodramatic Milgram,4.0.5,0,h,NA,h,NA,NA,h,519,NA,27622,NA,NA,519,2,legacy,1024,2,48000,-16,experiment,SSHSS,2,even,31875,NA,NA,NA,140319,4252,NA,129476,4243,NA,141348,NA,141448,141967,141347,141448,Flanker Task Lab 2.1,62,34968,65,1024
95,95,536,536,#000000,legacy,legacy,legacy,incongruent,1,undefined,1,h,0,0,0,0,65,0,0,65,0,65,65,0,65,65,65,65,Thu Sep 21 14:50:55 2023,1500,The main experiment item,FALSE,FlankerTaskLab21.osexp,C:\Users\katjo\OneDrive\Desktop,FALSE,mono,FALSE,18,no,white,no,yes,768,legacy,65,65,C:/Users/katjo/OneDrive/Desktop/KJ-subject-2 41M.csv,legacy,Melodramatic Milgram,4.0.5,0,h,NA,h,NA,NA,h,426,NA,27622,NA,NA,426,2,legacy,1024,2,48000,-16,experiment,SSHSS,2,even,31875,NA,NA,NA,141970,4252,NA,129476,4243,NA,142996,NA,143098,143524,142995,143098,Flanker Task Lab 2.1,63,35394,66,1024
95,95,534,534,#000000,legacy,legacy,legacy,congruent,1,undefined,1,h,0,0,0,0,66,0,0,66,0,66,66,0,66,66,66,66,Thu Sep 21 14:50:55 2023,1500,The main experiment item,FALSE,FlankerTaskLab21.osexp,C:\Users\katjo\OneDrive\Desktop,FALSE,mono,FALSE,18,no,white,no,yes,768,legacy,66,66,C:/Users/katjo/OneDrive/Desktop/KJ-subject-2 41M.csv,legacy,Melodramatic Milgram,4.0.5,0,h,NA,h,NA,NA,h,438,NA,27622,NA,NA,438,2,legacy,1024,2,48000,-16,experiment,HHHHH,2,even,31875,NA,NA,NA,143532,4252,NA,129476,4243,NA,144559,NA,144660,145100,144558,144660,Flanker Task Lab 2.1,64,35832,67,1024
95,95,533,533,#000000,legacy,legacy,legacy,congruent,1,undefined,1,s,0,0,0,0,67,0,0,67,0,67,67,0,67,67,67,67,Thu Sep 21 14:50:55 2023,1500,The main experiment item,FALSE,FlankerTaskLab21.osexp,C:\Users\katjo\OneDrive\Desktop,FALSE,mono,FALSE,18,no,white,no,yes,768,legacy,67,67,C:/Users/katjo/OneDrive/Desktop/KJ-subject-2 41M.csv,legacy,Melodramatic Milgram,4.0.5,0,s,NA,h,NA,NA,s,450,NA,27622,NA,NA,450,2,legacy,1024,2,48000,-16,experiment,SSSSS,2,even,31875,NA,NA,NA,145107,4252,NA,129476,4243,NA,146137,NA,146238,146689,146136,146238,Flanker Task Lab 2.1,65,36282,68,1024
95,95,533,533,#000000,legacy,legacy,legacy,congruent,1,undefined,1,s,0,0,0,0,68,0,0,68,0,68,68,0,68,68,68,68,Thu Sep 21 14:50:55 2023,1500,The main experiment item,FALSE,FlankerTaskLab21.osexp,C:\Users\katjo\OneDrive\Desktop,FALSE,mono,FALSE,18,no,white,no,yes,768,legacy,68,68,C:/Users/katjo/OneDrive/Desktop/KJ-subject-2 41M.csv,legacy,Melodramatic Milgram,4.0.5,0,s,NA,h,NA,NA,s,521,NA,27622,NA,NA,521,2,legacy,1024,2,48000,-16,experiment,SSSSS,2,even,31875,NA,NA,NA,146696,4252,NA,129476,4243,NA,147740,NA,147840,148362,147738,147840,Flanker Task Lab 2.1,66,36803,69,1024
95,95,535,535,#000000,legacy,legacy,legacy,incongruent,1,undefined,1,s,0,0,0,0,69,0,0,69,0,69,69,0,69,69,69,69,Thu Sep 21 14:50:55 2023,1500,The main experiment item,FALSE,FlankerTaskLab21.osexp,C:\Users\katjo\OneDrive\Desktop,FALSE,mono,FALSE,18,no,white,no,yes,768,legacy,69,69,C:/Users/katjo/OneDrive/Desktop/KJ-subject-2 41M.csv,legacy,Melodramatic Milgram,4.0.5,0,s,NA,h,NA,NA,s,650,NA,27622,NA,NA,650,2,legacy,1024,2,48000,-16,experiment,HHSHH,2,even,31875,NA,NA,NA,148369,4252,NA,129476,4243,NA,149411,NA,149511,150162,149410,149511,Flanker Task Lab 2.1,67,37453,70,1024
95,95,535,535,#000000,legacy,legacy,legacy,incongruent,1,undefined,1,s,0,0,0,0,70,0,0,70,0,70,70,0,70,70,70,70,Thu Sep 21 14:50:55 2023,1500,The main experiment item,FALSE,FlankerTaskLab21.osexp,C:\Users\katjo\OneDrive\Desktop,FALSE,mono,FALSE,18,no,white,no,yes,768,legacy,70,70,C:/Users/katjo/OneDrive/Desktop/KJ-subject-2 41M.csv,legacy,Melodramatic Milgram,4.0.5,0,s,NA,h,NA,NA,s,568,NA,27622,NA,NA,568,2,legacy,1024,2,48000,-16,experiment,HHSHH,2,even,31875,NA,NA,NA,150164,4252,NA,129476,4243,NA,151191,NA,151292,151861,151190,151292,Flanker Task Lab 2.1,68,38021,71,1024
95,95,534,534,#000000,legacy,legacy,legacy,congruent,1,undefined,1,s,0,0,0,0,71,0,0,71,0,71,71,0,71,71,71,71,Thu Sep 21 14:50:55 2023,1500,The main experiment item,FALSE,FlankerTaskLab21.osexp,C:\Users\katjo\OneDrive\Desktop,FALSE,mono,FALSE,18,no,white,no,yes,768,legacy,71,71,C:/Users/katjo/OneDrive/Desktop/KJ-subject-2 41M.csv,legacy,Melodramatic Milgram,4.0.5,0,s,NA,h,NA,NA,s,491,NA,27622,NA,NA,491,2,legacy,1024,2,48000,-16,experiment,SSSSS,2,even,31875,NA,NA,NA,151865,4252,NA,129476,4243,NA,152901,NA,153002,153494,152899,153002,Flanker Task Lab 2.1,69,38512,72,1024
95,95,533,533,#000000,legacy,legacy,legacy,congruent,1,undefined,1,h,0,0,0,0,72,0,0,72,0,72,72,0,72,72,72,72,Thu Sep 21 14:50:55 2023,1500,The main experiment item,FALSE,FlankerTaskLab21.osexp,C:\Users\katjo\OneDrive\Desktop,FALSE,mono,FALSE,18,no,white,no,yes,768,legacy,72,72,C:/Users/katjo/OneDrive/Desktop/KJ-subject-2 41M.csv,legacy,Melodramatic Milgram,4.0.5,0,h,NA,h,NA,NA,h,401,NA,27622,NA,NA,401,2,legacy,1024,2,48000,-16,experiment,HHHHH,2,even,31875,NA,NA,NA,153501,4252,NA,129476,4243,NA,154531,NA,154631,155033,154530,154631,Flanker Task Lab 2.1,70,38913,73,1024
95,95,531,531,#000000,legacy,legacy,legacy,congruent,1,undefined,1,s,0,0,0,0,73,0,0,73,0,73,73,0,73,73,73,73,Thu Sep 21 14:50:55 2023,1500,The main experiment item,FALSE,FlankerTaskLab21.osexp,C:\Users\katjo\OneDrive\Desktop,FALSE,mono,FALSE,18,no,white,no,yes,768,legacy,73,73,C:/Users/katjo/OneDrive/Desktop/KJ-subject-2 41M.csv,legacy,Melodramatic Milgram,4.0.5,0,s,NA,h,NA,NA,s,421,NA,27622,NA,NA,421,2,legacy,1024,2,48000,-16,experiment,SSSSS,2,even,31875,NA,NA,NA,155036,4252,NA,129476,4243,NA,156076,NA,156176,156598,156074,156176,Flanker Task Lab 2.1,71,39334,74,1024
96,96,530,530,#000000,legacy,legacy,legacy,congruent,1,undefined,1,h,0,0,0,0,74,0,0,74,0,74,74,0,74,74,74,74,Thu Sep 21 14:50:55 2023,1500,The main experiment item,FALSE,FlankerTaskLab21.osexp,C:\Users\katjo\OneDrive\Desktop,FALSE,mono,FALSE,18,no,white,no,yes,768,legacy,74,74,C:/Users/katjo/OneDrive/Desktop/KJ-subject-2 41M.csv,legacy,Melodramatic Milgram,4.0.5,0,h,NA,h,NA,NA,h,468,NA,27622,NA,NA,468,2,legacy,1024,2,48000,-16,experiment,HHHHH,2,even,31875,NA,NA,NA,156602,4252,NA,129476,4243,NA,157632,NA,157732,158201,157631,157732,Flanker Task Lab 2.1,72,39802,75,1024
96,96,529,529,#000000,legacy,legacy,legacy,incongruent,1,undefined,1,s,0,0,0,0,75,0,0,75,0,75,75,0,75,75,75,75,Thu Sep 21 14:50:55 2023,1500,The main experiment item,FALSE,FlankerTaskLab21.osexp,C:\Users\katjo\OneDrive\Desktop,FALSE,mono,FALSE,18,no,white,no,yes,768,legacy,75,75,C:/Users/katjo/OneDrive/Desktop/KJ-subject-2 41M.csv,legacy,Melodramatic Milgram,4.0.5,0,s,NA,h,NA,NA,s,418,NA,27622,NA,NA,418,2,legacy,1024,2,48000,-16,experiment,HHSHH,2,even,31875,NA,NA,NA,158203,4252,NA,129476,4243,NA,159238,NA,159339,159759,159236,159338,Flanker Task Lab 2.1,73,40220,76,1024
96,96,528,528,#000000,legacy,legacy,legacy,congruent,1,undefined,1,s,0,0,0,0,76,0,0,76,0,76,76,0,76,76,76,76,Thu Sep 21 14:50:55 2023,1500,The main experiment item,FALSE,FlankerTaskLab21.osexp,C:\Users\katjo\OneDrive\Desktop,FALSE,mono,FALSE,18,no,white,no,yes,768,legacy,76,76,C:/Users/katjo/OneDrive/Desktop/KJ-subject-2 41M.csv,legacy,Melodramatic Milgram,4.0.5,0,s,NA,h,NA,NA,s,450,NA,27622,NA,NA,450,2,legacy,1024,2,48000,-16,experiment,SSSSS,2,even,31875,NA,NA,NA,159762,4252,NA,129476,4243,NA,160807,NA,160908,161360,160806,160908,Flanker Task Lab 2.1,74,40670,77,1024
96,96,526,526,#000000,legacy,legacy,legacy,incongruent,1,undefined,1,s,0,0,0,0,77,0,0,77,0,77,77,0,77,77,77,77,Thu Sep 21 14:50:55 2023,1500,The main experiment item,FALSE,FlankerTaskLab21.osexp,C:\Users\katjo\OneDrive\Desktop,FALSE,mono,FALSE,18,no,white,no,yes,768,legacy,77,77,C:/Users/katjo/OneDrive/Desktop/KJ-subject-2 41M.csv,legacy,Melodramatic Milgram,4.0.5,0,s,NA,h,NA,NA,s,407,NA,27622,NA,NA,407,2,legacy,1024,2,48000,-16,experiment,HHSHH,2,even,31875,NA,NA,NA,161362,4252,NA,129476,4243,NA,162404,NA,162504,162912,162403,162504,Flanker Task Lab 2.1,75,41077,78,1024
96,96,524,524,#000000,legacy,legacy,legacy,congruent,1,undefined,1,h,0,0,0,0,78,0,0,78,0,78,78,0,78,78,78,78,Thu Sep 21 14:50:55 2023,1500,The main experiment item,FALSE,FlankerTaskLab21.osexp,C:\Users\katjo\OneDrive\Desktop,FALSE,mono,FALSE,18,no,white,no,yes,768,legacy,78,78,C:/Users/katjo/OneDrive/Desktop/KJ-subject-2 41M.csv,legacy,Melodramatic Milgram,4.0.5,0,h,NA,h,NA,NA,h,393,NA,27622,NA,NA,393,2,legacy,1024,2,48000,-16,experiment,HHHHH,2,even,31875,NA,NA,NA,162919,4252,NA,129476,4243,NA,163952,NA,164052,164446,163951,164052,Flanker Task Lab 2.1,76,41470,79,1024
96,96,523,523,#000000,legacy,legacy,legacy,congruent,1,undefined,1,h,0,0,0,0,79,0,0,79,0,79,79,0,79,79,79,79,Thu Sep 21 14:50:55 2023,1500,The main experiment item,FALSE,FlankerTaskLab21.osexp,C:\Users\katjo\OneDrive\Desktop,FALSE,mono,FALSE,18,no,white,no,yes,768,legacy,79,79,C:/Users/katjo/OneDrive/Desktop/KJ-subject-2 41M.csv,legacy,Melodramatic Milgram,4.0.5,0,h,NA,h,NA,NA,h,426,NA,27622,NA,NA,426,2,legacy,1024,2,48000,-16,experiment,HHHHH,2,even,31875,NA,NA,NA,164449,4252,NA,129476,4243,NA,165488,NA,165589,166016,165486,165589,Flanker Task Lab 2.1,77,41896,80,1024
95,95,523,523,#000000,legacy,legacy,legacy,incongruent,0,undefined,0,s,0,0,0,0,80,0,0,80,0,80,80,0,80,80,80,80,Thu Sep 21 14:50:55 2023,600,The main experiment item,FALSE,FlankerTaskLab21.osexp,C:\Users\katjo\OneDrive\Desktop,FALSE,mono,FALSE,18,no,white,no,yes,768,legacy,0,79,C:/Users/katjo/OneDrive/Desktop/KJ-subject-2 41M.csv,legacy,Melodramatic Milgram,4.0.5,0,h,NA,h,s,NA,h,517,NA,27622,36213,NA,517,2,legacy,1024,2,48000,-16,experiment,HHSHH,2,even,31875,203237,NA,NA,166023,4252,167023,129476,4243,NA,203282,NA,203384,203902,203282,203383,Flanker Task Lab 2.1,77,42413,81,1024
95,95,522,522,#000000,legacy,legacy,legacy,congruent,1,undefined,1,h,0,0,0,0,81,0,0,81,0,81,81,0,81,81,81,81,Thu Sep 21 14:50:55 2023,600,The main experiment item,FALSE,FlankerTaskLab21.osexp,C:\Users\katjo\OneDrive\Desktop,FALSE,mono,FALSE,18,no,white,no,yes,768,legacy,1,79,C:/Users/katjo/OneDrive/Desktop/KJ-subject-2 41M.csv,legacy,Melodramatic Milgram,4.0.5,0,h,NA,h,s,NA,h,455,NA,27622,36213,NA,455,2,legacy,1024,2,48000,-16,experiment,HHHHH,2,even,31875,203237,NA,NA,204410,4252,167023,203909,4243,NA,205439,NA,205540,205996,205438,205540,Flanker Task Lab 2.1,78,42868,82,1024
95,95,525,525,#000000,legacy,legacy,legacy,incongruent,1,undefined,1,h,0,0,0,0,82,0,0,82,0,82,82,0,82,82,82,82,Thu Sep 21 14:50:55 2023,600,The main experiment item,FALSE,FlankerTaskLab21.osexp,C:\Users\katjo\OneDrive\Desktop,FALSE,mono,FALSE,18,no,white,no,yes,768,legacy,2,79,C:/Users/katjo/OneDrive/Desktop/KJ-subject-2 41M.csv,legacy,Melodramatic Milgram,4.0.5,0,h,NA,h,s,NA,h,740,NA,27622,36213,NA,740,2,legacy,1024,2,48000,-16,experiment,SSHSS,2,even,31875,203237,NA,NA,206003,4252,167023,203909,4243,NA,207037,NA,207137,207878,207036,207137,Flanker Task Lab 2.1,79,43608,83,1024
95,95,526,526,#000000,legacy,legacy,legacy,incongruent,1,undefined,1,h,0,0,0,0,83,0,0,83,0,83,83,0,83,83,83,83,Thu Sep 21 14:50:55 2023,600,The main experiment item,FALSE,FlankerTaskLab21.osexp,C:\Users\katjo\OneDrive\Desktop,FALSE,mono,FALSE,18,no,white,no,yes,768,legacy,3,79,C:/Users/katjo/OneDrive/Desktop/KJ-subject-2 41M.csv,legacy,Melodramatic Milgram,4.0.5,0,h,NA,h,s,NA,h,612,NA,27622,36213,NA,612,2,legacy,1024,2,48000,-16,experiment,SSHSS,2,even,31875,203237,NA,NA,208386,4252,167023,203909,4243,207885,209415,NA,209516,210129,209414,209516,Flanker Task Lab 2.1,80,44220,84,1024
95,95,524,524,#000000,legacy,legacy,legacy,congruent,1,undefined,1,h,0,0,0,0,84,0,0,84,0,84,84,0,84,84,84,84,Thu Sep 21 14:50:55 2023,600,The main experiment item,FALSE,FlankerTaskLab21.osexp,C:\Users\katjo\OneDrive\Desktop,FALSE,mono,FALSE,18,no,white,no,yes,768,legacy,4,79,C:/Users/katjo/OneDrive/Desktop/KJ-subject-2 41M.csv,legacy,Melodramatic Milgram,4.0.5,0,h,NA,h,s,NA,h,326,NA,27622,36213,NA,326,2,legacy,1024,2,48000,-16,experiment,HHHHH,2,even,31875,203237,NA,NA,210636,4252,167023,203909,4243,210136,211662,NA,211763,212090,211661,211762,Flanker Task Lab 2.1,81,44546,85,1024
95,95,522,522,#000000,legacy,legacy,legacy,congruent,1,undefined,1,h,0,0,0,0,85,0,0,85,0,85,85,0,85,85,85,85,Thu Sep 21 14:50:55 2023,600,The main experiment item,FALSE,FlankerTaskLab21.osexp,C:\Users\katjo\OneDrive\Desktop,FALSE,mono,FALSE,18,no,white,no,yes,768,legacy,5,79,C:/Users/katjo/OneDrive/Desktop/KJ-subject-2 41M.csv,legacy,Melodramatic Milgram,4.0.5,0,h,NA,h,s,NA,h,357,NA,27622,36213,NA,357,2,legacy,1024,2,48000,-16,experiment,HHHHH,2,even,31875,203237,NA,NA,212097,4252,167023,203909,4243,210136,213128,NA,213229,213587,213127,213229,Flanker Task Lab 2.1,82,44903,86,1024
95,95,521,521,#000000,legacy,legacy,legacy,incongruent,1,undefined,1,s,0,0,0,0,86,0,0,86,0,86,86,0,86,86,86,86,Thu Sep 21 14:50:55 2023,600,The main experiment item,FALSE,FlankerTaskLab21.osexp,C:\Users\katjo\OneDrive\Desktop,FALSE,mono,FALSE,18,no,white,no,yes,768,legacy,6,79,C:/Users/katjo/OneDrive/Desktop/KJ-subject-2 41M.csv,legacy,Melodramatic Milgram,4.0.5,0,s,NA,h,s,NA,s,452,NA,27622,36213,NA,452,2,legacy,1024,2,48000,-16,experiment,HHSHH,2,even,31875,203237,NA,NA,213594,4252,167023,203909,4243,210136,214621,NA,214722,215175,214620,214722,Flanker Task Lab 2.1,83,45355,87,1024
95,95,519,519,#000000,legacy,legacy,legacy,incongruent,1,undefined,1,s,0,0,0,0,87,0,0,87,0,87,87,0,87,87,87,87,Thu Sep 21 14:50:55 2023,600,The main experiment item,FALSE,FlankerTaskLab21.osexp,C:\Users\katjo\OneDrive\Desktop,FALSE,mono,FALSE,18,no,white,no,yes,768,legacy,7,79,C:/Users/katjo/OneDrive/Desktop/KJ-subject-2 41M.csv,legacy,Melodramatic Milgram,4.0.5,0,s,NA,h,s,NA,s,340,NA,27622,36213,NA,340,2,legacy,1024,2,48000,-16,experiment,HHSHH,2,even,31875,203237,NA,NA,215179,4252,167023,203909,4243,210136,216228,NA,216329,216670,216227,216329,Flanker Task Lab 2.1,84,45695,88,1024
95,95,517,517,#000000,legacy,legacy,legacy,congruent,1,undefined,1,s,0,0,0,0,88,0,0,88,0,88,88,0,88,88,88,88,Thu Sep 21 14:50:55 2023,600,The main experiment item,FALSE,FlankerTaskLab21.osexp,C:\Users\katjo\OneDrive\Desktop,FALSE,mono,FALSE,18,no,white,no,yes,768,legacy,8,79,C:/Users/katjo/OneDrive/Desktop/KJ-subject-2 41M.csv,legacy,Melodramatic Milgram,4.0.5,0,s,NA,h,s,NA,s,366,NA,27622,36213,NA,366,2,legacy,1024,2,48000,-16,experiment,SSSSS,2,even,31875,203237,NA,NA,216696,4252,167023,203909,4243,210136,217741,NA,217842,218209,217739,217842,Flanker Task Lab 2.1,85,46061,89,1024
95,95,516,516,#000000,legacy,legacy,legacy,congruent,1,undefined,1,h,0,0,0,0,89,0,0,89,0,89,89,0,89,89,89,89,Thu Sep 21 14:50:55 2023,600,The main experiment item,FALSE,FlankerTaskLab21.osexp,C:\Users\katjo\OneDrive\Desktop,FALSE,mono,FALSE,18,no,white,no,yes,768,legacy,9,79,C:/Users/katjo/OneDrive/Desktop/KJ-subject-2 41M.csv,legacy,Melodramatic Milgram,4.0.5,0,h,NA,h,s,NA,h,427,NA,27622,36213,NA,427,2,legacy,1024,2,48000,-16,experiment,HHHHH,2,even,31875,203237,NA,NA,218212,4252,167023,203909,4243,210136,219243,NA,219344,219772,219242,219344,Flanker Task Lab 2.1,86,46488,90,1024
95,95,515,515,#000000,legacy,legacy,legacy,congruent,1,undefined,1,h,0,0,0,0,90,0,0,90,0,90,90,0,90,90,90,90,Thu Sep 21 14:50:55 2023,600,The main experiment item,FALSE,FlankerTaskLab21.osexp,C:\Users\katjo\OneDrive\Desktop,FALSE,mono,FALSE,18,no,white,no,yes,768,legacy,10,79,C:/Users/katjo/OneDrive/Desktop/KJ-subject-2 41M.csv,legacy,Melodramatic Milgram,4.0.5,0,h,NA,h,s,NA,h,449,NA,27622,36213,NA,449,2,legacy,1024,2,48000,-16,experiment,HHHHH,2,even,31875,203237,NA,NA,219775,4252,167023,203909,4243,210136,220808,NA,220910,221360,220807,220910,Flanker Task Lab 2.1,87,46937,91,1024
94,94,513,513,#000000,legacy,legacy,legacy,incongruent,0,undefined,0,h,0,0,0,0,91,0,0,91,0,91,91,0,91,91,91,91,Thu Sep 21 14:50:55 2023,600,The main experiment item,FALSE,FlankerTaskLab21.osexp,C:\Users\katjo\OneDrive\Desktop,FALSE,mono,FALSE,18,no,white,no,yes,768,legacy,11,79,C:/Users/katjo/OneDrive/Desktop/KJ-subject-2 41M.csv,legacy,Melodramatic Milgram,4.0.5,0,s,NA,h,s,NA,s,344,NA,27622,36213,NA,344,2,legacy,1024,2,48000,-16,experiment,SSHSS,2,even,31875,203237,NA,NA,221363,4252,167023,203909,4243,210136,222408,NA,222509,222854,222407,222509,Flanker Task Lab 2.1,87,47281,92,1024
94,94,514,514,#000000,legacy,legacy,legacy,congruent,1,undefined,1,s,0,0,0,0,92,0,0,92,0,92,92,0,92,92,92,92,Thu Sep 21 14:50:55 2023,600,The main experiment item,FALSE,FlankerTaskLab21.osexp,C:\Users\katjo\OneDrive\Desktop,FALSE,mono,FALSE,18,no,white,no,yes,768,legacy,12,79,C:/Users/katjo/OneDrive/Desktop/KJ-subject-2 41M.csv,legacy,Melodramatic Milgram,4.0.5,0,s,NA,h,s,NA,s,527,NA,27622,36213,NA,527,2,legacy,1024,2,48000,-16,experiment,SSSSS,2,even,31875,203237,NA,NA,223381,4252,167023,222880,4243,210136,224422,NA,224523,225051,224421,224523,Flanker Task Lab 2.1,88,47808,93,1024
94,94,512,512,#000000,legacy,legacy,legacy,incongruent,1,undefined,1,s,0,0,0,0,93,0,0,93,0,93,93,0,93,93,93,93,Thu Sep 21 14:50:55 2023,600,The main experiment item,FALSE,FlankerTaskLab21.osexp,C:\Users\katjo\OneDrive\Desktop,FALSE,mono,FALSE,18,no,white,no,yes,768,legacy,13,79,C:/Users/katjo/OneDrive/Desktop/KJ-subject-2 41M.csv,legacy,Melodramatic Milgram,4.0.5,0,s,NA,h,s,NA,s,394,NA,27622,36213,NA,394,2,legacy,1024,2,48000,-16,experiment,HHSHH,2,even,31875,203237,NA,NA,225077,4252,167023,222880,4243,210136,226105,NA,226205,226600,226104,226205,Flanker Task Lab 2.1,89,48202,94,1024
93,93,511,511,#000000,legacy,legacy,legacy,incongruent,0,undefined,0,h,0,0,0,0,94,0,0,94,0,94,94,0,94,94,94,94,Thu Sep 21 14:50:55 2023,600,The main experiment item,FALSE,FlankerTaskLab21.osexp,C:\Users\katjo\OneDrive\Desktop,FALSE,mono,FALSE,18,no,white,no,yes,768,legacy,14,79,C:/Users/katjo/OneDrive/Desktop/KJ-subject-2 41M.csv,legacy,Melodramatic Milgram,4.0.5,0,s,NA,h,s,NA,s,362,NA,27622,36213,NA,362,2,legacy,1024,2,48000,-16,experiment,SSHSS,2,even,31875,203237,NA,NA,226607,4252,167023,222880,4243,210136,227639,NA,227739,228102,227637,227739,Flanker Task Lab 2.1,89,48564,95,1024
93,93,510,510,#000000,legacy,legacy,legacy,incongruent,1,undefined,1,s,0,0,0,0,95,0,0,95,0,95,95,0,95,95,95,95,Thu Sep 21 14:50:55 2023,600,The main experiment item,FALSE,FlankerTaskLab21.osexp,C:\Users\katjo\OneDrive\Desktop,FALSE,mono,FALSE,18,no,white,no,yes,768,legacy,15,79,C:/Users/katjo/OneDrive/Desktop/KJ-subject-2 41M.csv,legacy,Melodramatic Milgram,4.0.5,0,s,NA,h,s,NA,s,466,NA,27622,36213,NA,466,2,legacy,1024,2,48000,-16,experiment,HHSHH,2,even,31875,203237,NA,NA,228609,4252,167023,228109,4243,210136,229637,NA,229738,230205,229636,229738,Flanker Task Lab 2.1,90,49030,96,1024
93,93,510,510,#000000,legacy,legacy,legacy,congruent,1,undefined,1,h,0,0,0,0,96,0,0,96,0,96,96,0,96,96,96,96,Thu Sep 21 14:50:55 2023,600,The main experiment item,FALSE,FlankerTaskLab21.osexp,C:\Users\katjo\OneDrive\Desktop,FALSE,mono,FALSE,18,no,white,no,yes,768,legacy,16,79,C:/Users/katjo/OneDrive/Desktop/KJ-subject-2 41M.csv,legacy,Melodramatic Milgram,4.0.5,0,h,NA,h,s,NA,h,460,NA,27622,36213,NA,460,2,legacy,1024,2,48000,-16,experiment,HHHHH,2,even,31875,203237,NA,NA,230232,4252,167023,228109,4243,210136,231273,NA,231373,231834,231271,231373,Flanker Task Lab 2.1,91,49490,97,1024
93,93,508,508,#000000,legacy,legacy,legacy,incongruent,1,undefined,1,s,0,0,0,0,97,0,0,97,0,97,97,0,97,97,97,97,Thu Sep 21 14:50:55 2023,600,The main experiment item,FALSE,FlankerTaskLab21.osexp,C:\Users\katjo\OneDrive\Desktop,FALSE,mono,FALSE,18,no,white,no,yes,768,legacy,17,79,C:/Users/katjo/OneDrive/Desktop/KJ-subject-2 41M.csv,legacy,Melodramatic Milgram,4.0.5,0,s,NA,h,s,NA,s,348,NA,27622,36213,NA,348,2,legacy,1024,2,48000,-16,experiment,HHSHH,2,even,31875,203237,NA,NA,231841,4252,167023,228109,4243,210136,232871,NA,232972,233321,232870,232972,Flanker Task Lab 2.1,92,49838,98,1024
93,93,507,507,#000000,legacy,legacy,legacy,congruent,1,undefined,1,h,0,0,0,0,98,0,0,98,0,98,98,0,98,98,98,98,Thu Sep 21 14:50:55 2023,600,The main experiment item,FALSE,FlankerTaskLab21.osexp,C:\Users\katjo\OneDrive\Desktop,FALSE,mono,FALSE,18,no,white,no,yes,768,legacy,18,79,C:/Users/katjo/OneDrive/Desktop/KJ-subject-2 41M.csv,legacy,Melodramatic Milgram,4.0.5,0,h,NA,h,s,NA,h,360,NA,27622,36213,NA,360,2,legacy,1024,2,48000,-16,experiment,HHHHH,2,even,31875,203237,NA,NA,233324,4252,167023,228109,4243,210136,234361,NA,234461,234822,234360,234461,Flanker Task Lab 2.1,93,50198,99,1024
94,94,505,505,#000000,legacy,legacy,legacy,congruent,1,undefined,1,s,0,0,0,0,99,0,0,99,0,99,99,0,99,99,99,99,Thu Sep 21 14:50:55 2023,600,The main experiment item,FALSE,FlankerTaskLab21.osexp,C:\Users\katjo\OneDrive\Desktop,FALSE,mono,FALSE,18,no,white,no,yes,768,legacy,19,79,C:/Users/katjo/OneDrive/Desktop/KJ-subject-2 41M.csv,legacy,Melodramatic Milgram,4.0.5,0,s,NA,h,s,NA,s,364,NA,27622,36213,NA,364,2,legacy,1024,2,48000,-16,experiment,SSSSS,2,even,31875,203237,NA,NA,234830,4252,167023,228109,4243,210136,235862,NA,235962,236327,235860,235962,Flanker Task Lab 2.1,94,50562,100,1024
94,94,503,503,#000000,legacy,legacy,legacy,congruent,1,undefined,1,s,0,0,0,0,100,0,0,100,0,100,100,0,100,100,100,100,Thu Sep 21 14:50:55 2023,600,The main experiment item,FALSE,FlankerTaskLab21.osexp,C:\Users\katjo\OneDrive\Desktop,FALSE,mono,FALSE,18,no,white,no,yes,768,legacy,20,79,C:/Users/katjo/OneDrive/Desktop/KJ-subject-2 41M.csv,legacy,Melodramatic Milgram,4.0.5,0,s,NA,h,s,NA,s,337,NA,27622,36213,NA,337,2,legacy,1024,2,48000,-16,experiment,SSSSS,2,even,31875,203237,NA,NA,236335,4252,167023,228109,4243,210136,237364,NA,237465,237804,237363,237465,Flanker Task Lab 2.1,95,50899,101,1024
94,94,503,503,#000000,legacy,legacy,legacy,congruent,1,undefined,1,s,0,0,0,0,101,0,0,101,0,101,101,0,101,101,101,101,Thu Sep 21 14:50:55 2023,600,The main experiment item,FALSE,FlankerTaskLab21.osexp,C:\Users\katjo\OneDrive\Desktop,FALSE,mono,FALSE,18,no,white,no,yes,768,legacy,21,79,C:/Users/katjo/OneDrive/Desktop/KJ-subject-2 41M.csv,legacy,Melodramatic Milgram,4.0.5,0,s,NA,h,s,NA,s,429,NA,27622,36213,NA,429,2,legacy,1024,2,48000,-16,experiment,SSSSS,2,even,31875,203237,NA,NA,237811,4252,167023,228109,4243,210136,238838,NA,238939,239369,238837,238939,Flanker Task Lab 2.1,96,51328,102,1024
94,94,502,502,#000000,legacy,legacy,legacy,congruent,1,undefined,1,h,0,0,0,0,102,0,0,102,0,102,102,0,102,102,102,102,Thu Sep 21 14:50:55 2023,600,The main experiment item,FALSE,FlankerTaskLab21.osexp,C:\Users\katjo\OneDrive\Desktop,FALSE,mono,FALSE,18,no,white,no,yes,768,legacy,22,79,C:/Users/katjo/OneDrive/Desktop/KJ-subject-2 41M.csv,legacy,Melodramatic Milgram,4.0.5,0,h,NA,h,s,NA,h,412,NA,27622,36213,NA,412,2,legacy,1024,2,48000,-16,experiment,HHHHH,2,even,31875,203237,NA,NA,239376,4252,167023,228109,4243,210136,240419,NA,240519,240933,240418,240519,Flanker Task Lab 2.1,97,51740,103,1024
94,94,502,502,#000000,legacy,legacy,legacy,incongruent,1,undefined,1,h,0,0,0,0,103,0,0,103,0,103,103,0,103,103,103,103,Thu Sep 21 14:50:55 2023,600,The main experiment item,FALSE,FlankerTaskLab21.osexp,C:\Users\katjo\OneDrive\Desktop,FALSE,mono,FALSE,18,no,white,no,yes,768,legacy,23,79,C:/Users/katjo/OneDrive/Desktop/KJ-subject-2 41M.csv,legacy,Melodramatic Milgram,4.0.5,0,h,NA,h,s,NA,h,512,NA,27622,36213,NA,512,2,legacy,1024,2,48000,-16,experiment,SSHSS,2,even,31875,203237,NA,NA,240937,4252,167023,228109,4243,210136,241965,NA,242065,242578,241964,242065,Flanker Task Lab 2.1,98,52252,104,1024
94,94,501,501,#000000,legacy,legacy,legacy,incongruent,1,undefined,1,s,0,0,0,0,104,0,0,104,0,104,104,0,104,104,104,104,Thu Sep 21 14:50:55 2023,600,The main experiment item,FALSE,FlankerTaskLab21.osexp,C:\Users\katjo\OneDrive\Desktop,FALSE,mono,FALSE,18,no,white,no,yes,768,legacy,24,79,C:/Users/katjo/OneDrive/Desktop/KJ-subject-2 41M.csv,legacy,Melodramatic Milgram,4.0.5,0,s,NA,h,s,NA,s,360,NA,27622,36213,NA,360,2,legacy,1024,2,48000,-16,experiment,HHSHH,2,even,31875,203237,NA,NA,242586,4252,167023,228109,4243,210136,243618,NA,243719,244080,243616,243718,Flanker Task Lab 2.1,99,52612,105,1024
94,94,500,500,#000000,legacy,legacy,legacy,congruent,1,undefined,1,h,0,0,0,0,105,0,0,105,0,105,105,0,105,105,105,105,Thu Sep 21 14:50:55 2023,600,The main experiment item,FALSE,FlankerTaskLab21.osexp,C:\Users\katjo\OneDrive\Desktop,FALSE,mono,FALSE,18,no,white,no,yes,768,legacy,25,79,C:/Users/katjo/OneDrive/Desktop/KJ-subject-2 41M.csv,legacy,Melodramatic Milgram,4.0.5,0,h,NA,h,s,NA,h,449,NA,27622,36213,NA,449,2,legacy,1024,2,48000,-16,experiment,HHHHH,2,even,31875,203237,NA,NA,244087,4252,167023,228109,4243,210136,245125,NA,245226,245675,245124,245226,Flanker Task Lab 2.1,100,53061,106,1024
93,93,499,499,#000000,legacy,legacy,legacy,incongruent,0,undefined,0,h,0,0,0,0,106,0,0,106,0,106,106,0,106,106,106,106,Thu Sep 21 14:50:55 2023,600,The main experiment item,FALSE,FlankerTaskLab21.osexp,C:\Users\katjo\OneDrive\Desktop,FALSE,mono,FALSE,18,no,white,no,yes,768,legacy,26,79,C:/Users/katjo/OneDrive/Desktop/KJ-subject-2 41M.csv,legacy,Melodramatic Milgram,4.0.5,0,s,NA,h,s,NA,s,386,NA,27622,36213,NA,386,2,legacy,1024,2,48000,-16,experiment,SSHSS,2,even,31875,203237,NA,NA,245683,4252,167023,228109,4243,210136,246714,NA,246814,247201,246713,246814,Flanker Task Lab 2.1,100,53447,107,1024
93,93,499,499,#000000,legacy,legacy,legacy,congruent,1,undefined,1,s,0,0,0,0,107,0,0,107,0,107,107,0,107,107,107,107,Thu Sep 21 14:50:55 2023,600,The main experiment item,FALSE,FlankerTaskLab21.osexp,C:\Users\katjo\OneDrive\Desktop,FALSE,mono,FALSE,18,no,white,no,yes,768,legacy,27,79,C:/Users/katjo/OneDrive/Desktop/KJ-subject-2 41M.csv,legacy,Melodramatic Milgram,4.0.5,0,s,NA,h,s,NA,s,458,NA,27622,36213,NA,458,2,legacy,1024,2,48000,-16,experiment,SSSSS,2,even,31875,203237,NA,NA,247709,4252,167023,247209,4243,210136,248736,NA,248837,249296,248735,248837,Flanker Task Lab 2.1,101,53905,108,1024
93,93,498,498,#000000,legacy,legacy,legacy,incongruent,1,undefined,1,s,0,0,0,0,108,0,0,108,0,108,108,0,108,108,108,108,Thu Sep 21 14:50:55 2023,600,The main experiment item,FALSE,FlankerTaskLab21.osexp,C:\Users\katjo\OneDrive\Desktop,FALSE,mono,FALSE,18,no,white,no,yes,768,legacy,28,79,C:/Users/katjo/OneDrive/Desktop/KJ-subject-2 41M.csv,legacy,Melodramatic Milgram,4.0.5,0,s,NA,h,s,NA,s,443,NA,27622,36213,NA,443,2,legacy,1024,2,48000,-16,experiment,HHSHH,2,even,31875,203237,NA,NA,249304,4252,167023,247209,4243,210136,250338,NA,250438,250882,250337,250438,Flanker Task Lab 2.1,102,54348,109,1024
92,92,497,497,#000000,legacy,legacy,legacy,incongruent,0,undefined,0,s,0,0,0,0,109,0,0,109,0,109,109,0,109,109,109,109,Thu Sep 21 14:50:55 2023,600,The main experiment item,FALSE,FlankerTaskLab21.osexp,C:\Users\katjo\OneDrive\Desktop,FALSE,mono,FALSE,18,no,white,no,yes,768,legacy,29,79,C:/Users/katjo/OneDrive/Desktop/KJ-subject-2 41M.csv,legacy,Melodramatic Milgram,4.0.5,0,h,NA,h,s,NA,h,365,NA,27622,36213,NA,365,2,legacy,1024,2,48000,-16,experiment,HHSHH,2,even,31875,203237,NA,NA,250908,4252,167023,247209,4243,210136,251938,NA,252039,252405,251937,252039,Flanker Task Lab 2.1,102,54713,110,1024
92,92,497,497,#000000,legacy,legacy,legacy,congruent,1,undefined,1,h,0,0,0,0,110,0,0,110,0,110,110,0,110,110,110,110,Thu Sep 21 14:50:55 2023,600,The main experiment item,FALSE,FlankerTaskLab21.osexp,C:\Users\katjo\OneDrive\Desktop,FALSE,mono,FALSE,18,no,white,no,yes,768,legacy,30,79,C:/Users/katjo/OneDrive/Desktop/KJ-subject-2 41M.csv,legacy,Melodramatic Milgram,4.0.5,0,h,NA,h,s,NA,h,549,NA,27622,36213,NA,549,2,legacy,1024,2,48000,-16,experiment,HHHHH,2,even,31875,203237,NA,NA,252909,4252,167023,252408,4243,210136,253951,NA,254052,254603,253950,254052,Flanker Task Lab 2.1,103,55262,111,1024
92,92,497,497,#000000,legacy,legacy,legacy,congruent,1,undefined,1,h,0,0,0,0,111,0,0,111,0,111,111,0,111,111,111,111,Thu Sep 21 14:50:55 2023,600,The main experiment item,FALSE,FlankerTaskLab21.osexp,C:\Users\katjo\OneDrive\Desktop,FALSE,mono,FALSE,18,no,white,no,yes,768,legacy,31,79,C:/Users/katjo/OneDrive/Desktop/KJ-subject-2 41M.csv,legacy,Melodramatic Milgram,4.0.5,0,h,NA,h,s,NA,h,421,NA,27622,36213,NA,421,2,legacy,1024,2,48000,-16,experiment,HHHHH,2,even,31875,203237,NA,NA,254610,4252,167023,252408,4243,210136,255646,NA,255746,256168,255644,255746,Flanker Task Lab 2.1,104,55683,112,1024
92,92,496,496,#000000,legacy,legacy,legacy,congruent,1,undefined,1,h,0,0,0,0,112,0,0,112,0,112,112,0,112,112,112,112,Thu Sep 21 14:50:55 2023,600,The main experiment item,FALSE,FlankerTaskLab21.osexp,C:\Users\katjo\OneDrive\Desktop,FALSE,mono,FALSE,18,no,white,no,yes,768,legacy,32,79,C:/Users/katjo/OneDrive/Desktop/KJ-subject-2 41M.csv,legacy,Melodramatic Milgram,4.0.5,0,h,NA,h,s,NA,h,433,NA,27622,36213,NA,433,2,legacy,1024,2,48000,-16,experiment,HHHHH,2,even,31875,203237,NA,NA,256176,4252,167023,252408,4243,210136,257211,NA,257312,257746,257210,257312,Flanker Task Lab 2.1,105,56116,113,1024
92,92,495,495,#000000,legacy,legacy,legacy,congruent,1,undefined,1,h,0,0,0,0,113,0,0,113,0,113,113,0,113,113,113,113,Thu Sep 21 14:50:55 2023,600,The main experiment item,FALSE,FlankerTaskLab21.osexp,C:\Users\katjo\OneDrive\Desktop,FALSE,mono,FALSE,18,no,white,no,yes,768,legacy,33,79,C:/Users/katjo/OneDrive/Desktop/KJ-subject-2 41M.csv,legacy,Melodramatic Milgram,4.0.5,0,h,NA,h,s,NA,h,412,NA,27622,36213,NA,412,2,legacy,1024,2,48000,-16,experiment,HHHHH,2,even,31875,203237,NA,NA,257751,4252,167023,252408,4243,210136,258787,NA,258889,259302,258785,258888,Flanker Task Lab 2.1,106,56528,114,1024
93,93,495,495,#000000,legacy,legacy,legacy,incongruent,1,undefined,1,s,0,0,0,0,114,0,0,114,0,114,114,0,114,114,114,114,Thu Sep 21 14:50:55 2023,600,The main experiment item,FALSE,FlankerTaskLab21.osexp,C:\Users\katjo\OneDrive\Desktop,FALSE,mono,FALSE,18,no,white,no,yes,768,legacy,34,79,C:/Users/katjo/OneDrive/Desktop/KJ-subject-2 41M.csv,legacy,Melodramatic Milgram,4.0.5,0,s,NA,h,s,NA,s,481,NA,27622,36213,NA,481,2,legacy,1024,2,48000,-16,experiment,HHSHH,2,even,31875,203237,NA,NA,259310,4252,167023,252408,4243,210136,260347,NA,260448,260930,260346,260448,Flanker Task Lab 2.1,107,57009,115,1024
93,93,495,495,#000000,legacy,legacy,legacy,incongruent,1,undefined,1,h,0,0,0,0,115,0,0,115,0,115,115,0,115,115,115,115,Thu Sep 21 14:50:55 2023,600,The main experiment item,FALSE,FlankerTaskLab21.osexp,C:\Users\katjo\OneDrive\Desktop,FALSE,mono,FALSE,18,no,white,no,yes,768,legacy,35,79,C:/Users/katjo/OneDrive/Desktop/KJ-subject-2 41M.csv,legacy,Melodramatic Milgram,4.0.5,0,h,NA,h,s,NA,h,503,NA,27622,36213,NA,503,2,legacy,1024,2,48000,-16,experiment,SSHSS,2,even,31875,203237,NA,NA,260937,4252,167023,252408,4243,210136,261968,NA,262069,262573,261967,262069,Flanker Task Lab 2.1,108,57512,116,1024
93,93,494,494,#000000,legacy,legacy,legacy,congruent,1,undefined,1,s,0,0,0,0,116,0,0,116,0,116,116,0,116,116,116,116,Thu Sep 21 14:50:55 2023,600,The main experiment item,FALSE,FlankerTaskLab21.osexp,C:\Users\katjo\OneDrive\Desktop,FALSE,mono,FALSE,18,no,white,no,yes,768,legacy,36,79,C:/Users/katjo/OneDrive/Desktop/KJ-subject-2 41M.csv,legacy,Melodramatic Milgram,4.0.5,0,s,NA,h,s,NA,s,356,NA,27622,36213,NA,356,2,legacy,1024,2,48000,-16,experiment,SSSSS,2,even,31875,203237,NA,NA,262581,4252,167023,252408,4243,210136,263618,NA,263718,264075,263617,263718,Flanker Task Lab 2.1,109,57868,117,1024
93,93,494,494,#000000,legacy,legacy,legacy,incongruent,1,undefined,1,s,0,0,0,0,117,0,0,117,0,117,117,0,117,117,117,117,Thu Sep 21 14:50:55 2023,600,The main experiment item,FALSE,FlankerTaskLab21.osexp,C:\Users\katjo\OneDrive\Desktop,FALSE,mono,FALSE,18,no,white,no,yes,768,legacy,37,79,C:/Users/katjo/OneDrive/Desktop/KJ-subject-2 41M.csv,legacy,Melodramatic Milgram,4.0.5,0,s,NA,h,s,NA,s,487,NA,27622,36213,NA,487,2,legacy,1024,2,48000,-16,experiment,HHSHH,2,even,31875,203237,NA,NA,264101,4252,167023,252408,4243,210136,265133,NA,265235,265723,265132,265235,Flanker Task Lab 2.1,110,58355,118,1024
93,93,493,493,#000000,legacy,legacy,legacy,congruent,1,undefined,1,s,0,0,0,0,118,0,0,118,0,118,118,0,118,118,118,118,Thu Sep 21 14:50:55 2023,600,The main experiment item,FALSE,FlankerTaskLab21.osexp,C:\Users\katjo\OneDrive\Desktop,FALSE,mono,FALSE,18,no,white,no,yes,768,legacy,38,79,C:/Users/katjo/OneDrive/Desktop/KJ-subject-2 41M.csv,legacy,Melodramatic Milgram,4.0.5,0,s,NA,h,s,NA,s,429,NA,27622,36213,NA,429,2,legacy,1024,2,48000,-16,experiment,SSSSS,2,even,31875,203237,NA,NA,265749,4252,167023,252408,4243,210136,266790,NA,266892,267322,266789,266891,Flanker Task Lab 2.1,111,58784,119,1024
93,93,494,494,#000000,legacy,legacy,legacy,incongruent,1,undefined,1,h,0,0,0,0,119,0,0,119,0,119,119,0,119,119,119,119,Thu Sep 21 14:50:55 2023,600,The main experiment item,FALSE,FlankerTaskLab21.osexp,C:\Users\katjo\OneDrive\Desktop,FALSE,mono,FALSE,18,no,white,no,yes,768,legacy,39,79,C:/Users/katjo/OneDrive/Desktop/KJ-subject-2 41M.csv,legacy,Melodramatic Milgram,4.0.5,0,h,NA,h,s,NA,h,502,NA,27622,36213,NA,502,2,legacy,1024,2,48000,-16,experiment,SSHSS,2,even,31875,203237,NA,NA,267348,4252,167023,252408,4243,210136,268378,NA,268479,268982,268377,268479,Flanker Task Lab 2.1,112,59286,120,1024
93,93,493,493,#000000,legacy,legacy,legacy,congruent,1,undefined,1,h,0,0,0,0,120,0,0,120,0,120,120,0,120,120,120,120,Thu Sep 21 14:50:55 2023,600,The main experiment item,FALSE,FlankerTaskLab21.osexp,C:\Users\katjo\OneDrive\Desktop,FALSE,mono,FALSE,18,no,white,no,yes,768,legacy,40,79,C:/Users/katjo/OneDrive/Desktop/KJ-subject-2 41M.csv,legacy,Melodramatic Milgram,4.0.5,0,h,NA,h,s,NA,h,454,NA,27622,36213,NA,454,2,legacy,1024,2,48000,-16,experiment,HHHHH,2,even,31875,203237,NA,NA,268990,4252,167023,252408,4243,210136,270032,NA,270133,270589,270031,270133,Flanker Task Lab 2.1,113,59740,121,1024
93,93,493,493,#000000,legacy,legacy,legacy,incongruent,1,undefined,1,s,0,0,0,0,121,0,0,121,0,121,121,0,121,121,121,121,Thu Sep 21 14:50:55 2023,600,The main experiment item,FALSE,FlankerTaskLab21.osexp,C:\Users\katjo\OneDrive\Desktop,FALSE,mono,FALSE,18,no,white,no,yes,768,legacy,41,79,C:/Users/katjo/OneDrive/Desktop/KJ-subject-2 41M.csv,legacy,Melodramatic Milgram,4.0.5,0,s,NA,h,s,NA,s,408,NA,27622,36213,NA,408,2,legacy,1024,2,48000,-16,experiment,HHSHH,2,even,31875,203237,NA,NA,270615,4252,167023,252408,4243,210136,271651,NA,271752,272161,271650,271752,Flanker Task Lab 2.1,114,60148,122,1024
93,93,492,492,#000000,legacy,legacy,legacy,congruent,1,undefined,1,s,0,0,0,0,122,0,0,122,0,122,122,0,122,122,122,122,Thu Sep 21 14:50:55 2023,600,The main experiment item,FALSE,FlankerTaskLab21.osexp,C:\Users\katjo\OneDrive\Desktop,FALSE,mono,FALSE,18,no,white,no,yes,768,legacy,42,79,C:/Users/katjo/OneDrive/Desktop/KJ-subject-2 41M.csv,legacy,Melodramatic Milgram,4.0.5,0,s,NA,h,s,NA,s,456,NA,27622,36213,NA,456,2,legacy,1024,2,48000,-16,experiment,SSSSS,2,even,31875,203237,NA,NA,272187,4252,167023,252408,4243,210136,273228,NA,273329,273786,273227,273329,Flanker Task Lab 2.1,115,60604,123,1024
93,93,491,491,#000000,legacy,legacy,legacy,incongruent,1,undefined,1,s,0,0,0,0,123,0,0,123,0,123,123,0,123,123,123,123,Thu Sep 21 14:50:55 2023,600,The main experiment item,FALSE,FlankerTaskLab21.osexp,C:\Users\katjo\OneDrive\Desktop,FALSE,mono,FALSE,18,no,white,no,yes,768,legacy,43,79,C:/Users/katjo/OneDrive/Desktop/KJ-subject-2 41M.csv,legacy,Melodramatic Milgram,4.0.5,0,s,NA,h,s,NA,s,401,NA,27622,36213,NA,401,2,legacy,1024,2,48000,-16,experiment,HHSHH,2,even,31875,203237,NA,NA,273812,4252,167023,252408,4243,210136,274852,NA,274953,275355,274851,274953,Flanker Task Lab 2.1,116,61005,124,1024
93,93,492,492,#000000,legacy,legacy,legacy,incongruent,1,undefined,1,h,0,0,0,0,124,0,0,124,0,124,124,0,124,124,124,124,Thu Sep 21 14:50:55 2023,600,The main experiment item,FALSE,FlankerTaskLab21.osexp,C:\Users\katjo\OneDrive\Desktop,FALSE,mono,FALSE,18,no,white,no,yes,768,legacy,44,79,C:/Users/katjo/OneDrive/Desktop/KJ-subject-2 41M.csv,legacy,Melodramatic Milgram,4.0.5,0,h,NA,h,s,NA,h,496,NA,27622,36213,NA,496,2,legacy,1024,2,48000,-16,experiment,SSHSS,2,even,31875,203237,NA,NA,275381,4252,167023,252408,4243,210136,276425,NA,276526,277023,276424,276526,Flanker Task Lab 2.1,117,61501,125,1024
93,93,492,492,#000000,legacy,legacy,legacy,incongruent,1,undefined,1,s,0,0,0,0,125,0,0,125,0,125,125,0,125,125,125,125,Thu Sep 21 14:50:55 2023,600,The main experiment item,FALSE,FlankerTaskLab21.osexp,C:\Users\katjo\OneDrive\Desktop,FALSE,mono,FALSE,18,no,white,no,yes,768,legacy,45,79,C:/Users/katjo/OneDrive/Desktop/KJ-subject-2 41M.csv,legacy,Melodramatic Milgram,4.0.5,0,s,NA,h,s,NA,s,544,NA,27622,36213,NA,544,2,legacy,1024,2,48000,-16,experiment,HHSHH,2,even,31875,203237,NA,NA,277030,4252,167023,252408,4243,210136,278061,NA,278162,278707,278060,278162,Flanker Task Lab 2.1,118,62045,126,1024
93,93,492,492,#000000,legacy,legacy,legacy,incongruent,1,undefined,1,s,0,0,0,0,126,0,0,126,0,126,126,0,126,126,126,126,Thu Sep 21 14:50:55 2023,600,The main experiment item,FALSE,FlankerTaskLab21.osexp,C:\Users\katjo\OneDrive\Desktop,FALSE,mono,FALSE,18,no,white,no,yes,768,legacy,46,79,C:/Users/katjo/OneDrive/Desktop/KJ-subject-2 41M.csv,legacy,Melodramatic Milgram,4.0.5,0,s,NA,h,s,NA,s,456,NA,27622,36213,NA,456,2,legacy,1024,2,48000,-16,experiment,HHSHH,2,even,31875,203237,NA,NA,278715,4252,167023,252408,4243,210136,279747,NA,279848,280306,279745,279847,Flanker Task Lab 2.1,119,62501,127,1024
93,93,491,491,#000000,legacy,legacy,legacy,congruent,1,undefined,1,s,0,0,0,0,127,0,0,127,0,127,127,0,127,127,127,127,Thu Sep 21 14:50:55 2023,600,The main experiment item,FALSE,FlankerTaskLab21.osexp,C:\Users\katjo\OneDrive\Desktop,FALSE,mono,FALSE,18,no,white,no,yes,768,legacy,47,79,C:/Users/katjo/OneDrive/Desktop/KJ-subject-2 41M.csv,legacy,Melodramatic Milgram,4.0.5,0,s,NA,h,s,NA,s,448,NA,27622,36213,NA,448,2,legacy,1024,2,48000,-16,experiment,SSSSS,2,even,31875,203237,NA,NA,280313,4252,167023,252408,4243,210136,281341,NA,281442,281892,281340,281442,Flanker Task Lab 2.1,120,62949,128,1024
93,93,491,491,#000000,legacy,legacy,legacy,incongruent,1,undefined,1,s,0,0,0,0,128,0,0,128,0,128,128,0,128,128,128,128,Thu Sep 21 14:50:55 2023,600,The main experiment item,FALSE,FlankerTaskLab21.osexp,C:\Users\katjo\OneDrive\Desktop,FALSE,mono,FALSE,18,no,white,no,yes,768,legacy,48,79,C:/Users/katjo/OneDrive/Desktop/KJ-subject-2 41M.csv,legacy,Melodramatic Milgram,4.0.5,0,s,NA,h,s,NA,s,440,NA,27622,36213,NA,440,2,legacy,1024,2,48000,-16,experiment,HHSHH,2,even,31875,203237,NA,NA,281899,4252,167023,252408,4243,210136,282926,NA,283027,283469,282925,283027,Flanker Task Lab 2.1,121,63389,129,1024
93,93,490,490,#000000,legacy,legacy,legacy,congruent,1,undefined,1,h,0,0,0,0,129,0,0,129,0,129,129,0,129,129,129,129,Thu Sep 21 14:50:55 2023,600,The main experiment item,FALSE,FlankerTaskLab21.osexp,C:\Users\katjo\OneDrive\Desktop,FALSE,mono,FALSE,18,no,white,no,yes,768,legacy,49,79,C:/Users/katjo/OneDrive/Desktop/KJ-subject-2 41M.csv,legacy,Melodramatic Milgram,4.0.5,0,h,NA,h,s,NA,h,380,NA,27622,36213,NA,380,2,legacy,1024,2,48000,-16,experiment,HHHHH,2,even,31875,203237,NA,NA,283476,4252,167023,252408,4243,210136,284508,NA,284609,284990,284506,284609,Flanker Task Lab 2.1,122,63769,130,1024
93,93,489,489,#000000,legacy,legacy,legacy,incongruent,1,undefined,1,s,0,0,0,0,130,0,0,130,0,130,130,0,130,130,130,130,Thu Sep 21 14:50:55 2023,600,The main experiment item,FALSE,FlankerTaskLab21.osexp,C:\Users\katjo\OneDrive\Desktop,FALSE,mono,FALSE,18,no,white,no,yes,768,legacy,50,79,C:/Users/katjo/OneDrive/Desktop/KJ-subject-2 41M.csv,legacy,Melodramatic Milgram,4.0.5,0,s,NA,h,s,NA,s,410,NA,27622,36213,NA,410,2,legacy,1024,2,48000,-16,experiment,HHSHH,2,even,31875,203237,NA,NA,284997,4252,167023,252408,4243,210136,286025,NA,286126,286537,286024,286126,Flanker Task Lab 2.1,123,64179,131,1024
93,93,489,489,#000000,legacy,legacy,legacy,incongruent,1,undefined,1,h,0,0,0,0,131,0,0,131,0,131,131,0,131,131,131,131,Thu Sep 21 14:50:55 2023,600,The main experiment item,FALSE,FlankerTaskLab21.osexp,C:\Users\katjo\OneDrive\Desktop,FALSE,mono,FALSE,18,no,white,no,yes,768,legacy,51,79,C:/Users/katjo/OneDrive/Desktop/KJ-subject-2 41M.csv,legacy,Melodramatic Milgram,4.0.5,0,h,NA,h,s,NA,h,425,NA,27622,36213,NA,425,2,legacy,1024,2,48000,-16,experiment,SSHSS,2,even,31875,203237,NA,NA,286539,4252,167023,252408,4243,210136,287580,NA,287681,288107,287579,287681,Flanker Task Lab 2.1,124,64604,132,1024
93,93,489,489,#000000,legacy,legacy,legacy,incongruent,1,undefined,1,h,0,0,0,0,132,0,0,132,0,132,132,0,132,132,132,132,Thu Sep 21 14:50:55 2023,600,The main experiment item,FALSE,FlankerTaskLab21.osexp,C:\Users\katjo\OneDrive\Desktop,FALSE,mono,FALSE,18,no,white,no,yes,768,legacy,52,79,C:/Users/katjo/OneDrive/Desktop/KJ-subject-2 41M.csv,legacy,Melodramatic Milgram,4.0.5,0,h,NA,h,s,NA,h,457,NA,27622,36213,NA,457,2,legacy,1024,2,48000,-16,experiment,SSHSS,2,even,31875,203237,NA,NA,288114,4252,167023,252408,4243,210136,289159,NA,289260,289719,289158,289260,Flanker Task Lab 2.1,125,65061,133,1024
94,94,488,488,#000000,legacy,legacy,legacy,congruent,1,undefined,1,h,0,0,0,0,133,0,0,133,0,133,133,0,133,133,133,133,Thu Sep 21 14:50:55 2023,600,The main experiment item,FALSE,FlankerTaskLab21.osexp,C:\Users\katjo\OneDrive\Desktop,FALSE,mono,FALSE,18,no,white,no,yes,768,legacy,53,79,C:/Users/katjo/OneDrive/Desktop/KJ-subject-2 41M.csv,legacy,Melodramatic Milgram,4.0.5,0,h,NA,h,s,NA,h,402,NA,27622,36213,NA,402,2,legacy,1024,2,48000,-16,experiment,HHHHH,2,even,31875,203237,NA,NA,289745,4252,167023,252408,4243,210136,290774,NA,290874,291277,290773,290874,Flanker Task Lab 2.1,126,65463,134,1024
94,94,487,487,#000000,legacy,legacy,legacy,congruent,1,undefined,1,h,0,0,0,0,134,0,0,134,0,134,134,0,134,134,134,134,Thu Sep 21 14:50:55 2023,600,The main experiment item,FALSE,FlankerTaskLab21.osexp,C:\Users\katjo\OneDrive\Desktop,FALSE,mono,FALSE,18,no,white,no,yes,768,legacy,54,79,C:/Users/katjo/OneDrive/Desktop/KJ-subject-2 41M.csv,legacy,Melodramatic Milgram,4.0.5,0,h,NA,h,s,NA,h,409,NA,27622,36213,NA,409,2,legacy,1024,2,48000,-16,experiment,HHHHH,2,even,31875,203237,NA,NA,291283,4252,167023,252408,4243,210136,292311,NA,292412,292823,292310,292412,Flanker Task Lab 2.1,127,65872,135,1024
94,94,487,487,#000000,legacy,legacy,legacy,congruent,1,undefined,1,s,0,0,0,0,135,0,0,135,0,135,135,0,135,135,135,135,Thu Sep 21 14:50:55 2023,600,The main experiment item,FALSE,FlankerTaskLab21.osexp,C:\Users\katjo\OneDrive\Desktop,FALSE,mono,FALSE,18,no,white,no,yes,768,legacy,55,79,C:/Users/katjo/OneDrive/Desktop/KJ-subject-2 41M.csv,legacy,Melodramatic Milgram,4.0.5,0,s,NA,h,s,NA,s,399,NA,27622,36213,NA,399,2,legacy,1024,2,48000,-16,experiment,SSSSS,2,even,31875,203237,NA,NA,292825,4252,167023,252408,4243,210136,293856,NA,293957,294358,293855,293957,Flanker Task Lab 2.1,128,66271,136,1024
94,94,487,487,#000000,legacy,legacy,legacy,incongruent,1,undefined,1,h,0,0,0,0,136,0,0,136,0,136,136,0,136,136,136,136,Thu Sep 21 14:50:55 2023,600,The main experiment item,FALSE,FlankerTaskLab21.osexp,C:\Users\katjo\OneDrive\Desktop,FALSE,mono,FALSE,18,no,white,no,yes,768,legacy,56,79,C:/Users/katjo/OneDrive/Desktop/KJ-subject-2 41M.csv,legacy,Melodramatic Milgram,4.0.5,0,h,NA,h,s,NA,h,479,NA,27622,36213,NA,479,2,legacy,1024,2,48000,-16,experiment,SSHSS,2,even,31875,203237,NA,NA,294365,4252,167023,252408,4243,210136,295406,NA,295506,295986,295405,295506,Flanker Task Lab 2.1,129,66750,137,1024
94,94,486,486,#000000,legacy,legacy,legacy,congruent,1,undefined,1,h,0,0,0,0,137,0,0,137,0,137,137,0,137,137,137,137,Thu Sep 21 14:50:55 2023,600,The main experiment item,FALSE,FlankerTaskLab21.osexp,C:\Users\katjo\OneDrive\Desktop,FALSE,mono,FALSE,18,no,white,no,yes,768,legacy,57,79,C:/Users/katjo/OneDrive/Desktop/KJ-subject-2 41M.csv,legacy,Melodramatic Milgram,4.0.5,0,h,NA,h,s,NA,h,404,NA,27622,36213,NA,404,2,legacy,1024,2,48000,-16,experiment,HHHHH,2,even,31875,203237,NA,NA,295993,4252,167023,252408,4243,210136,297036,NA,297137,297542,297035,297137,Flanker Task Lab 2.1,130,67154,138,1024
94,94,486,486,#000000,legacy,legacy,legacy,incongruent,1,undefined,1,h,0,0,0,0,138,0,0,138,0,138,138,0,138,138,138,138,Thu Sep 21 14:50:55 2023,600,The main experiment item,FALSE,FlankerTaskLab21.osexp,C:\Users\katjo\OneDrive\Desktop,FALSE,mono,FALSE,18,no,white,no,yes,768,legacy,58,79,C:/Users/katjo/OneDrive/Desktop/KJ-subject-2 41M.csv,legacy,Melodramatic Milgram,4.0.5,0,h,NA,h,s,NA,h,467,NA,27622,36213,NA,467,2,legacy,1024,2,48000,-16,experiment,SSHSS,2,even,31875,203237,NA,NA,297550,4252,167023,252408,4243,210136,298580,NA,298681,299149,298579,298681,Flanker Task Lab 2.1,131,67621,139,1024
94,94,485,485,#000000,legacy,legacy,legacy,incongruent,1,undefined,1,s,0,0,0,0,139,0,0,139,0,139,139,0,139,139,139,139,Thu Sep 21 14:50:55 2023,600,The main experiment item,FALSE,FlankerTaskLab21.osexp,C:\Users\katjo\OneDrive\Desktop,FALSE,mono,FALSE,18,no,white,no,yes,768,legacy,59,79,C:/Users/katjo/OneDrive/Desktop/KJ-subject-2 41M.csv,legacy,Melodramatic Milgram,4.0.5,0,s,NA,h,s,NA,s,388,NA,27622,36213,NA,388,2,legacy,1024,2,48000,-16,experiment,HHSHH,2,even,31875,203237,NA,NA,299156,4252,167023,252408,4243,210136,300200,NA,300300,300689,300199,300300,Flanker Task Lab 2.1,132,68009,140,1024
93,93,485,485,#000000,legacy,legacy,legacy,incongruent,0,undefined,0,h,0,0,0,0,140,0,0,140,0,140,140,0,140,140,140,140,Thu Sep 21 14:50:55 2023,600,The main experiment item,FALSE,FlankerTaskLab21.osexp,C:\Users\katjo\OneDrive\Desktop,FALSE,mono,FALSE,18,no,white,no,yes,768,legacy,60,79,C:/Users/katjo/OneDrive/Desktop/KJ-subject-2 41M.csv,legacy,Melodramatic Milgram,4.0.5,0,s,NA,h,s,NA,s,506,NA,27622,36213,NA,506,2,legacy,1024,2,48000,-16,experiment,SSHSS,2,even,31875,203237,NA,NA,300696,4252,167023,252408,4243,210136,301740,NA,301841,302348,301739,301841,Flanker Task Lab 2.1,132,68515,141,1024
93,93,485,485,#000000,legacy,legacy,legacy,congruent,1,undefined,1,s,0,0,0,0,141,0,0,141,0,141,141,0,141,141,141,141,Thu Sep 21 14:50:55 2023,600,The main experiment item,FALSE,FlankerTaskLab21.osexp,C:\Users\katjo\OneDrive\Desktop,FALSE,mono,FALSE,18,no,white,no,yes,768,legacy,61,79,C:/Users/katjo/OneDrive/Desktop/KJ-subject-2 41M.csv,legacy,Melodramatic Milgram,4.0.5,0,s,NA,h,s,NA,s,457,NA,27622,36213,NA,457,2,legacy,1024,2,48000,-16,experiment,SSSSS,2,even,31875,203237,NA,NA,302856,4252,167023,302355,4243,210136,303903,NA,304003,304461,303902,304003,Flanker Task Lab 2.1,133,68972,142,1024
93,93,485,485,#000000,legacy,legacy,legacy,congruent,1,undefined,1,s,0,0,0,0,142,0,0,142,0,142,142,0,142,142,142,142,Thu Sep 21 14:50:55 2023,600,The main experiment item,FALSE,FlankerTaskLab21.osexp,C:\Users\katjo\OneDrive\Desktop,FALSE,mono,FALSE,18,no,white,no,yes,768,legacy,62,79,C:/Users/katjo/OneDrive/Desktop/KJ-subject-2 41M.csv,legacy,Melodramatic Milgram,4.0.5,0,s,NA,h,s,NA,s,445,NA,27622,36213,NA,445,2,legacy,1024,2,48000,-16,experiment,SSSSS,2,even,31875,203237,NA,NA,304469,4252,167023,302355,4243,210136,305499,NA,305600,306046,305498,305599,Flanker Task Lab 2.1,134,69417,143,1024
93,93,485,485,#000000,legacy,legacy,legacy,congruent,1,undefined,1,h,0,0,0,0,143,0,0,143,0,143,143,0,143,143,143,143,Thu Sep 21 14:50:55 2023,600,The main experiment item,FALSE,FlankerTaskLab21.osexp,C:\Users\katjo\OneDrive\Desktop,FALSE,mono,FALSE,18,no,white,no,yes,768,legacy,63,79,C:/Users/katjo/OneDrive/Desktop/KJ-subject-2 41M.csv,legacy,Melodramatic Milgram,4.0.5,0,h,NA,h,s,NA,h,433,NA,27622,36213,NA,433,2,legacy,1024,2,48000,-16,experiment,HHHHH,2,even,31875,203237,NA,NA,306056,4252,167023,302355,4243,210136,307100,NA,307201,307635,307099,307201,Flanker Task Lab 2.1,135,69850,144,1024
93,93,485,485,#000000,legacy,legacy,legacy,incongruent,1,undefined,1,h,0,0,0,0,144,0,0,144,0,144,144,0,144,144,144,144,Thu Sep 21 14:50:55 2023,600,The main experiment item,FALSE,FlankerTaskLab21.osexp,C:\Users\katjo\OneDrive\Desktop,FALSE,mono,FALSE,18,no,white,no,yes,768,legacy,64,79,C:/Users/katjo/OneDrive/Desktop/KJ-subject-2 41M.csv,legacy,Melodramatic Milgram,4.0.5,0,h,NA,h,s,NA,h,490,NA,27622,36213,NA,490,2,legacy,1024,2,48000,-16,experiment,SSHSS,2,even,31875,203237,NA,NA,307642,4252,167023,302355,4243,210136,308685,NA,308785,309277,308684,308785,Flanker Task Lab 2.1,136,70340,145,1024
93,93,484,484,#000000,legacy,legacy,legacy,incongruent,1,undefined,1,h,0,0,0,0,145,0,0,145,0,145,145,0,145,145,145,145,Thu Sep 21 14:50:55 2023,600,The main experiment item,FALSE,FlankerTaskLab21.osexp,C:\Users\katjo\OneDrive\Desktop,FALSE,mono,FALSE,18,no,white,no,yes,768,legacy,65,79,C:/Users/katjo/OneDrive/Desktop/KJ-subject-2 41M.csv,legacy,Melodramatic Milgram,4.0.5,0,h,NA,h,s,NA,h,457,NA,27622,36213,NA,457,2,legacy,1024,2,48000,-16,experiment,SSHSS,2,even,31875,203237,NA,NA,309284,4252,167023,302355,4243,210136,310322,NA,310422,310880,310321,310422,Flanker Task Lab 2.1,137,70797,146,1024
93,93,484,484,#000000,legacy,legacy,legacy,congruent,1,undefined,1,s,0,0,0,0,146,0,0,146,0,146,146,0,146,146,146,146,Thu Sep 21 14:50:55 2023,600,The main experiment item,FALSE,FlankerTaskLab21.osexp,C:\Users\katjo\OneDrive\Desktop,FALSE,mono,FALSE,18,no,white,no,yes,768,legacy,66,79,C:/Users/katjo/OneDrive/Desktop/KJ-subject-2 41M.csv,legacy,Melodramatic Milgram,4.0.5,0,s,NA,h,s,NA,s,393,NA,27622,36213,NA,393,2,legacy,1024,2,48000,-16,experiment,SSSSS,2,even,31875,203237,NA,NA,310907,4252,167023,302355,4243,210136,311941,NA,312041,312435,311940,312041,Flanker Task Lab 2.1,138,71190,147,1024
93,93,484,484,#000000,legacy,legacy,legacy,congruent,1,undefined,1,s,0,0,0,0,147,0,0,147,0,147,147,0,147,147,147,147,Thu Sep 21 14:50:55 2023,600,The main experiment item,FALSE,FlankerTaskLab21.osexp,C:\Users\katjo\OneDrive\Desktop,FALSE,mono,FALSE,18,no,white,no,yes,768,legacy,67,79,C:/Users/katjo/OneDrive/Desktop/KJ-subject-2 41M.csv,legacy,Melodramatic Milgram,4.0.5,0,s,NA,h,s,NA,s,465,NA,27622,36213,NA,465,2,legacy,1024,2,48000,-16,experiment,SSSSS,2,even,31875,203237,NA,NA,312438,4252,167023,302355,4243,210136,313469,NA,313570,314036,313468,313570,Flanker Task Lab 2.1,139,71655,148,1024
93,93,483,483,#000000,legacy,legacy,legacy,incongruent,1,undefined,1,h,0,0,0,0,148,0,0,148,0,148,148,0,148,148,148,148,Thu Sep 21 14:50:55 2023,600,The main experiment item,FALSE,FlankerTaskLab21.osexp,C:\Users\katjo\OneDrive\Desktop,FALSE,mono,FALSE,18,no,white,no,yes,768,legacy,68,79,C:/Users/katjo/OneDrive/Desktop/KJ-subject-2 41M.csv,legacy,Melodramatic Milgram,4.0.5,0,h,NA,h,s,NA,h,438,NA,27622,36213,NA,438,2,legacy,1024,2,48000,-16,experiment,SSHSS,2,even,31875,203237,NA,NA,314062,4252,167023,302355,4243,210136,315091,NA,315192,315631,315090,315192,Flanker Task Lab 2.1,140,72093,149,1024
94,94,483,483,#000000,legacy,legacy,legacy,incongruent,1,undefined,1,s,0,0,0,0,149,0,0,149,0,149,149,0,149,149,149,149,Thu Sep 21 14:50:55 2023,600,The main experiment item,FALSE,FlankerTaskLab21.osexp,C:\Users\katjo\OneDrive\Desktop,FALSE,mono,FALSE,18,no,white,no,yes,768,legacy,69,79,C:/Users/katjo/OneDrive/Desktop/KJ-subject-2 41M.csv,legacy,Melodramatic Milgram,4.0.5,0,s,NA,h,s,NA,s,408,NA,27622,36213,NA,408,2,legacy,1024,2,48000,-16,experiment,HHSHH,2,even,31875,203237,NA,NA,315639,4252,167023,302355,4243,210136,316675,NA,316776,317185,316674,316776,Flanker Task Lab 2.1,141,72501,150,1024
94,94,483,483,#000000,legacy,legacy,legacy,congruent,1,undefined,1,s,0,0,0,0,150,0,0,150,0,150,150,0,150,150,150,150,Thu Sep 21 14:50:55 2023,600,The main experiment item,FALSE,FlankerTaskLab21.osexp,C:\Users\katjo\OneDrive\Desktop,FALSE,mono,FALSE,18,no,white,no,yes,768,legacy,70,79,C:/Users/katjo/OneDrive/Desktop/KJ-subject-2 41M.csv,legacy,Melodramatic Milgram,4.0.5,0,s,NA,h,s,NA,s,466,NA,27622,36213,NA,466,2,legacy,1024,2,48000,-16,experiment,SSSSS,2,even,31875,203237,NA,NA,317193,4252,167023,302355,4243,210136,318233,NA,318333,318800,318232,318333,Flanker Task Lab 2.1,142,72967,151,1024
94,94,483,483,#000000,legacy,legacy,legacy,congruent,1,undefined,1,s,0,0,0,0,151,0,0,151,0,151,151,0,151,151,151,151,Thu Sep 21 14:50:55 2023,600,The main experiment item,FALSE,FlankerTaskLab21.osexp,C:\Users\katjo\OneDrive\Desktop,FALSE,mono,FALSE,18,no,white,no,yes,768,legacy,71,79,C:/Users/katjo/OneDrive/Desktop/KJ-subject-2 41M.csv,legacy,Melodramatic Milgram,4.0.5,0,s,NA,h,s,NA,s,450,NA,27622,36213,NA,450,2,legacy,1024,2,48000,-16,experiment,SSSSS,2,even,31875,203237,NA,NA,318807,4252,167023,302355,4243,210136,319847,NA,319948,320399,319846,319948,Flanker Task Lab 2.1,143,73417,152,1024
94,94,482,482,#000000,legacy,legacy,legacy,congruent,1,undefined,1,s,0,0,0,0,152,0,0,152,0,152,152,0,152,152,152,152,Thu Sep 21 14:50:55 2023,600,The main experiment item,FALSE,FlankerTaskLab21.osexp,C:\Users\katjo\OneDrive\Desktop,FALSE,mono,FALSE,18,no,white,no,yes,768,legacy,72,79,C:/Users/katjo/OneDrive/Desktop/KJ-subject-2 41M.csv,legacy,Melodramatic Milgram,4.0.5,0,s,NA,h,s,NA,s,426,NA,27622,36213,NA,426,2,legacy,1024,2,48000,-16,experiment,SSSSS,2,even,31875,203237,NA,NA,320425,4252,167023,302355,4243,210136,321452,NA,321553,321980,321451,321553,Flanker Task Lab 2.1,144,73843,153,1024
94,94,482,482,#000000,legacy,legacy,legacy,congruent,1,undefined,1,s,0,0,0,0,153,0,0,153,0,153,153,0,153,153,153,153,Thu Sep 21 14:50:55 2023,600,The main experiment item,FALSE,FlankerTaskLab21.osexp,C:\Users\katjo\OneDrive\Desktop,FALSE,mono,FALSE,18,no,white,no,yes,768,legacy,73,79,C:/Users/katjo/OneDrive/Desktop/KJ-subject-2 41M.csv,legacy,Melodramatic Milgram,4.0.5,0,s,NA,h,s,NA,s,420,NA,27622,36213,NA,420,2,legacy,1024,2,48000,-16,experiment,SSSSS,2,even,31875,203237,NA,NA,321983,4252,167023,302355,4243,210136,323023,NA,323123,323544,323022,323123,Flanker Task Lab 2.1,145,74263,154,1024
94,94,482,482,#000000,legacy,legacy,legacy,incongruent,1,undefined,1,h,0,0,0,0,154,0,0,154,0,154,154,0,154,154,154,154,Thu Sep 21 14:50:55 2023,600,The main experiment item,FALSE,FlankerTaskLab21.osexp,C:\Users\katjo\OneDrive\Desktop,FALSE,mono,FALSE,18,no,white,no,yes,768,legacy,74,79,C:/Users/katjo/OneDrive/Desktop/KJ-subject-2 41M.csv,legacy,Melodramatic Milgram,4.0.5,0,h,NA,h,s,NA,h,493,NA,27622,36213,NA,493,2,legacy,1024,2,48000,-16,experiment,SSHSS,2,even,31875,203237,NA,NA,323551,4252,167023,302355,4243,210136,324578,NA,324679,325173,324577,324679,Flanker Task Lab 2.1,146,74756,155,1024
94,94,483,483,#000000,legacy,legacy,legacy,incongruent,1,undefined,1,s,0,0,0,0,155,0,0,155,0,155,155,0,155,155,155,155,Thu Sep 21 14:50:55 2023,600,The main experiment item,FALSE,FlankerTaskLab21.osexp,C:\Users\katjo\OneDrive\Desktop,FALSE,mono,FALSE,18,no,white,no,yes,768,legacy,75,79,C:/Users/katjo/OneDrive/Desktop/KJ-subject-2 41M.csv,legacy,Melodramatic Milgram,4.0.5,0,s,NA,h,s,NA,s,654,NA,27622,36213,NA,654,2,legacy,1024,2,48000,-16,experiment,HHSHH,2,even,31875,203237,NA,NA,325180,4252,167023,302355,4243,210136,326210,NA,326311,326967,326209,326311,Flanker Task Lab 2.1,147,75410,156,1024
94,94,484,484,#000000,legacy,legacy,legacy,incongruent,1,undefined,1,h,0,0,0,0,156,0,0,156,0,156,156,0,156,156,156,156,Thu Sep 21 14:50:55 2023,600,The main experiment item,FALSE,FlankerTaskLab21.osexp,C:\Users\katjo\OneDrive\Desktop,FALSE,mono,FALSE,18,no,white,no,yes,768,legacy,76,79,C:/Users/katjo/OneDrive/Desktop/KJ-subject-2 41M.csv,legacy,Melodramatic Milgram,4.0.5,0,h,NA,h,s,NA,h,609,NA,27622,36213,NA,609,2,legacy,1024,2,48000,-16,experiment,SSHSS,2,even,31875,203237,NA,NA,327475,4252,167023,302355,4243,326975,328503,NA,328604,329214,328502,328604,Flanker Task Lab 2.1,148,76019,157,1024
93,93,483,483,#000000,legacy,legacy,legacy,incongruent,0,undefined,0,h,0,0,0,0,157,0,0,157,0,157,157,0,157,157,157,157,Thu Sep 21 14:50:55 2023,600,The main experiment item,FALSE,FlankerTaskLab21.osexp,C:\Users\katjo\OneDrive\Desktop,FALSE,mono,FALSE,18,no,white,no,yes,768,legacy,77,79,C:/Users/katjo/OneDrive/Desktop/KJ-subject-2 41M.csv,legacy,Melodramatic Milgram,4.0.5,0,s,NA,h,s,NA,s,440,NA,27622,36213,NA,440,2,legacy,1024,2,48000,-16,experiment,SSHSS,2,even,31875,203237,NA,NA,329721,4252,167023,302355,4243,329221,330758,NA,330859,331301,330756,330858,Flanker Task Lab 2.1,148,76459,158,1024
93,93,483,483,#000000,legacy,legacy,legacy,congruent,1,undefined,1,s,0,0,0,0,158,0,0,158,0,158,158,0,158,158,158,158,Thu Sep 21 14:50:55 2023,600,The main experiment item,FALSE,FlankerTaskLab21.osexp,C:\Users\katjo\OneDrive\Desktop,FALSE,mono,FALSE,18,no,white,no,yes,768,legacy,78,79,C:/Users/katjo/OneDrive/Desktop/KJ-subject-2 41M.csv,legacy,Melodramatic Milgram,4.0.5,0,s,NA,h,s,NA,s,370,NA,27622,36213,NA,370,2,legacy,1024,2,48000,-16,experiment,SSSSS,2,even,31875,203237,NA,NA,331809,4252,167023,331308,4243,329221,332838,NA,332939,333311,332837,332939,Flanker Task Lab 2.1,149,76829,159,1024
93,93,483,483,#000000,legacy,legacy,legacy,congruent,1,undefined,1,h,0,0,0,0,159,0,0,159,0,159,159,0,159,159,159,159,Thu Sep 21 14:50:55 2023,600,The main experiment item,FALSE,FlankerTaskLab21.osexp,C:\Users\katjo\OneDrive\Desktop,FALSE,mono,FALSE,18,no,white,no,yes,768,legacy,79,79,C:/Users/katjo/OneDrive/Desktop/KJ-subject-2 41M.csv,legacy,Melodramatic Milgram,4.0.5,0,h,NA,h,s,NA,h,488,NA,27622,36213,NA,488,2,legacy,1024,2,48000,-16,experiment,HHHHH,2,even,31875,203237,NA,NA,333318,4252,167023,331308,4243,329221,334381,NA,334482,334971,334379,334482,Flanker Task Lab 2.1,150,77317,160,1024
93,93,482,482,#000000,legacy,legacy,legacy,congruent,1,undefined,1,s,0,0,0,0,160,0,0,160,0,160,160,0,160,160,160,160,Thu Sep 21 14:50:55 2023,300,The main experiment item,FALSE,FlankerTaskLab21.osexp,C:\Users\katjo\OneDrive\Desktop,FALSE,mono,FALSE,18,no,white,no,yes,768,legacy,0,79,C:/Users/katjo/OneDrive/Desktop/KJ-subject-2 41M.csv,legacy,Melodramatic Milgram,4.0.5,0,s,NA,h,s,h,s,424,NA,27622,36213,48153,424,2,legacy,1024,2,48000,-16,experiment,SSSSS,2,even,31875,203237,384134,NA,334979,4252,167023,331308,4243,329221,384190,335980,384291,384716,384189,384291,Flanker Task Lab 2.1,151,77741,161,1024
93,93,480,480,#000000,legacy,legacy,legacy,congruent,1,undefined,1,s,0,0,0,0,161,0,0,161,0,161,161,0,161,161,161,161,Thu Sep 21 14:50:55 2023,300,The main experiment item,FALSE,FlankerTaskLab21.osexp,C:\Users\katjo\OneDrive\Desktop,FALSE,mono,FALSE,18,no,white,no,yes,768,legacy,1,79,C:/Users/katjo/OneDrive/Desktop/KJ-subject-2 41M.csv,legacy,Melodramatic Milgram,4.0.5,0,s,NA,h,s,h,s,131,NA,27622,36213,48153,131,2,legacy,1024,2,48000,-16,experiment,SSSSS,2,even,31875,203237,384134,NA,385224,4252,167023,331308,4243,384724,386257,335980,386359,386491,386256,386358,Flanker Task Lab 2.1,152,77872,162,1024
93,93,479,479,#000000,legacy,legacy,legacy,congruent,1,undefined,1,s,0,0,0,0,162,0,0,162,0,162,162,0,162,162,162,162,Thu Sep 21 14:50:55 2023,300,The main experiment item,FALSE,FlankerTaskLab21.osexp,C:\Users\katjo\OneDrive\Desktop,FALSE,mono,FALSE,18,no,white,no,yes,768,legacy,2,79,C:/Users/katjo/OneDrive/Desktop/KJ-subject-2 41M.csv,legacy,Melodramatic Milgram,4.0.5,0,s,NA,h,s,h,s,364,NA,27622,36213,48153,364,2,legacy,1024,2,48000,-16,experiment,SSSSS,2,even,31875,203237,384134,NA,386498,4252,167023,331308,4243,384724,387529,335980,387630,387995,387527,387630,Flanker Task Lab 2.1,153,78236,163,1024
93,93,478,478,#000000,legacy,legacy,legacy,incongruent,1,undefined,1,s,0,0,0,0,163,0,0,163,0,163,163,0,163,163,163,163,Thu Sep 21 14:50:55 2023,300,The main experiment item,FALSE,FlankerTaskLab21.osexp,C:\Users\katjo\OneDrive\Desktop,FALSE,mono,FALSE,18,no,white,no,yes,768,legacy,3,79,C:/Users/katjo/OneDrive/Desktop/KJ-subject-2 41M.csv,legacy,Melodramatic Milgram,4.0.5,0,s,NA,h,s,h,s,266,NA,27622,36213,48153,266,2,legacy,1024,2,48000,-16,experiment,HHSHH,2,even,31875,203237,384134,NA,388502,4252,167023,331308,4243,388002,389532,335980,389632,389900,389531,389632,Flanker Task Lab 2.1,154,78502,164,1024
93,93,477,477,#000000,legacy,legacy,legacy,incongruent,0,undefined,0,s,0,0,0,0,164,0,0,164,0,164,164,0,164,164,164,164,Thu Sep 21 14:50:55 2023,300,The main experiment item,FALSE,FlankerTaskLab21.osexp,C:\Users\katjo\OneDrive\Desktop,FALSE,mono,FALSE,18,no,white,no,yes,768,legacy,4,79,C:/Users/katjo/OneDrive/Desktop/KJ-subject-2 41M.csv,legacy,Melodramatic Milgram,4.0.5,0,h,NA,h,s,h,h,260,NA,27622,36213,48153,260,2,legacy,1024,2,48000,-16,experiment,HHSHH,2,even,31875,203237,384134,NA,389907,4252,167023,331308,4243,388002,390953,335980,391053,391315,390952,391053,Flanker Task Lab 2.1,154,78762,165,1024
93,93,476,476,#000000,legacy,legacy,legacy,incongruent,1,undefined,1,s,0,0,0,0,165,0,0,165,0,165,165,0,165,165,165,165,Thu Sep 21 14:50:55 2023,300,The main experiment item,FALSE,FlankerTaskLab21.osexp,C:\Users\katjo\OneDrive\Desktop,FALSE,mono,FALSE,18,no,white,no,yes,768,legacy,5,79,C:/Users/katjo/OneDrive/Desktop/KJ-subject-2 41M.csv,legacy,Melodramatic Milgram,4.0.5,0,s,NA,h,s,h,s,284,NA,27622,36213,48153,284,2,legacy,1024,2,48000,-16,experiment,HHSHH,2,even,31875,203237,384134,NA,391822,4252,167023,391322,4243,388002,392849,335980,392950,393236,392848,392949,Flanker Task Lab 2.1,155,79046,166,1024
93,93,475,475,#000000,legacy,legacy,legacy,congruent,1,undefined,1,s,0,0,0,0,166,0,0,166,0,166,166,0,166,166,166,166,Thu Sep 21 14:50:55 2023,300,The main experiment item,FALSE,FlankerTaskLab21.osexp,C:\Users\katjo\OneDrive\Desktop,FALSE,mono,FALSE,18,no,white,no,yes,768,legacy,6,79,C:/Users/katjo/OneDrive/Desktop/KJ-subject-2 41M.csv,legacy,Melodramatic Milgram,4.0.5,0,s,NA,h,s,h,s,310,NA,27622,36213,48153,310,2,legacy,1024,2,48000,-16,experiment,SSSSS,2,even,31875,203237,384134,NA,393243,4252,167023,391322,4243,388002,394276,335980,394377,394689,394275,394377,Flanker Task Lab 2.1,156,79356,167,1024
93,93,473,473,#000000,legacy,legacy,legacy,congruent,1,undefined,1,s,0,0,0,0,167,0,0,167,0,167,167,0,167,167,167,167,Thu Sep 21 14:50:55 2023,300,The main experiment item,FALSE,FlankerTaskLab21.osexp,C:\Users\katjo\OneDrive\Desktop,FALSE,mono,FALSE,18,no,white,no,yes,768,legacy,7,79,C:/Users/katjo/OneDrive/Desktop/KJ-subject-2 41M.csv,legacy,Melodramatic Milgram,4.0.5,0,s,NA,h,s,h,s,269,NA,27622,36213,48153,269,2,legacy,1024,2,48000,-16,experiment,SSSSS,2,even,31875,203237,384134,NA,395197,4252,167023,391322,4243,394696,396239,335980,396340,396611,396238,396340,Flanker Task Lab 2.1,157,79625,168,1024
