"acc","accuracy","average_response_time","avg_rt","background","canvas_backend","clock_backend","color_backend","compensation","condition","coordinates","correct","correct_instructions1","correct_keyboard_response","correct_response","count_ISI","count_block1","count_block2","count_block3","count_errorfeedback","count_experiment","count_faster","count_finish","count_fixation","count_instructions1","count_instructions2","count_instructions3","count_keyboard_response","count_ogger","count_sequence","count_stimulus","datetime","deadline","description","disable_garbage_collection","experiment_file","experiment_path","font_bold","font_family","font_italic","font_size","font_underline","foreground","form_clicks","fullscreen","height","keyboard_backend","live_row","live_row_block1","logfile","mouse_backend","opensesame_codename","opensesame_version","repeat_cycle","response","response_finish","response_instructions1","response_instructions2","response_instructions3","response_keyboard_response","response_time","response_time_finish","response_time_instructions1","response_time_instructions2","response_time_instructions3","response_time_keyboard_response","round_decimals","sampler_backend","sound_buf_size","sound_channels","sound_freq","sound_sample_size","start","stimulus","subject_nr","subject_parity","time_ISI","time_block1","time_block2","time_block3","time_errorfeedback","time_experiment","time_faster","time_finish","time_fixation","time_instructions1","time_instructions2","time_instructions3","time_keyboard_response","time_ogger","time_sequence","time_stimulus","title","total_correct","total_response_time","total_responses","uniform_coordinates","width"
"0","0","1500","1500","black","legacy","legacy","legacy","0","incongruent","uniform","0","undefined","0","h","0","0","0","0","0","0","0","0","0","0","0","0","0","0","0","0","Sun Sep 27 16:42:39 2020","1500","The main experiment item","yes","ab-Flankertask-1.osexp","C:/Users/Elaine/AppData/Roaming/Microsoft/Windows/Network Shortcuts","no","mono","no","18","no","white","no","yes","768","legacy","0","0","C:/Users/Elaine/Documents/E Beason/subject-4.csv","legacy","Lentiform Loewenfeld","3.3.3","0","None","NA","s","NA","NA","None","1500","NA","2665","NA","NA","1500","2","legacy","1024","2","48000","-16","experiment","SSHSS","4","even","NA","11161","NA","NA","NA","8470","NA","NA","11402","8495","NA","NA","11505","13005","11399","11504","Flanker task","0","1500","1","yes","1024"
"0","0","1500","1500","black","legacy","legacy","legacy","0","incongruent","uniform","0","undefined","0","s","1","0","0","0","1","0","1","0","1","0","0","0","1","1","1","1","Sun Sep 27 16:42:39 2020","1500","The main experiment item","yes","ab-Flankertask-1.osexp","C:/Users/Elaine/AppData/Roaming/Microsoft/Windows/Network Shortcuts","no","mono","no","18","no","white","no","yes","768","legacy","1","1","C:/Users/Elaine/Documents/E Beason/subject-4.csv","legacy","Lentiform Loewenfeld","3.3.3","0","None","NA","s","NA","NA","None","1500","NA","2665","NA","NA","1500","2","legacy","1024","2","48000","-16","experiment","HHSHH","4","even","13523","11161","NA","NA","13021","8470","NA","NA","14637","8495","NA","NA","14739","16239","14634","14739","Flanker task","0","3000","2","yes","1024"
"33.333333333333336","33.333333333333336","1266.3333333333333","1266.3333333333333","black","legacy","legacy","legacy","0","congruent","uniform","1","undefined","1","s","2","0","0","0","2","0","2","0","2","0","0","0","2","2","2","2","Sun Sep 27 16:42:39 2020","1500","The main experiment item","yes","ab-Flankertask-1.osexp","C:/Users/Elaine/AppData/Roaming/Microsoft/Windows/Network Shortcuts","no","mono","no","18","no","white","no","yes","768","legacy","2","2","C:/Users/Elaine/Documents/E Beason/subject-4.csv","legacy","Lentiform Loewenfeld","3.3.3","0","s","NA","s","NA","NA","s","799","NA","2665","NA","NA","799","2","legacy","1024","2","48000","-16","experiment","SSSSS","4","even","16749","11161","NA","NA","16248","8470","NA","NA","17947","8495","NA","NA","18051","18850","17942","18051","Flanker task","1","3799","3","yes","1024"
"50","50","1162.5","1162.5","black","legacy","legacy","legacy","0","incongruent","uniform","1","undefined","1","s","3","0","0","0","3","0","3","0","3","0","0","0","3","3","3","3","Sun Sep 27 16:42:39 2020","1500","The main experiment item","yes","ab-Flankertask-1.osexp","C:/Users/Elaine/AppData/Roaming/Microsoft/Windows/Network Shortcuts","no","mono","no","18","no","white","no","yes","768","legacy","3","3","C:/Users/Elaine/Documents/E Beason/subject-4.csv","legacy","Lentiform Loewenfeld","3.3.3","0","s","NA","s","NA","NA","s","851","NA","2665","NA","NA","851","2","legacy","1024","2","48000","-16","experiment","HHSHH","4","even","18865","11161","NA","NA","16248","8470","NA","NA","20047","8495","NA","NA","20150","21001","20043","20150","Flanker task","2","4650","4","yes","1024"
"60","60","1072.2","1072.2","black","legacy","legacy","legacy","0","congruent","uniform","1","undefined","1","h","4","0","0","0","4","0","4","0","4","0","0","0","4","4","4","4","Sun Sep 27 16:42:39 2020","1500","The main experiment item","yes","ab-Flankertask-1.osexp","C:/Users/Elaine/AppData/Roaming/Microsoft/Windows/Network Shortcuts","no","mono","no","18","no","white","no","yes","768","legacy","4","4","C:/Users/Elaine/Documents/E Beason/subject-4.csv","legacy","Lentiform Loewenfeld","3.3.3","0","h","NA","s","NA","NA","h","711","NA","2665","NA","NA","711","2","legacy","1024","2","48000","-16","experiment","HHHHH","4","even","21014","11161","NA","NA","16248","8470","NA","NA","22166","8495","NA","NA","22269","22980","22162","22269","Flanker task","3","5361","5","yes","1024"
"66.66666666666667","66.66666666666667","986","986","black","legacy","legacy","legacy","0","congruent","uniform","1","undefined","1","s","5","0","0","0","5","0","5","0","5","0","0","0","5","5","5","5","Sun Sep 27 16:42:39 2020","1500","The main experiment item","yes","ab-Flankertask-1.osexp","C:/Users/Elaine/AppData/Roaming/Microsoft/Windows/Network Shortcuts","no","mono","no","18","no","white","no","yes","768","legacy","5","5","C:/Users/Elaine/Documents/E Beason/subject-4.csv","legacy","Lentiform Loewenfeld","3.3.3","0","s","NA","s","NA","NA","s","555","NA","2665","NA","NA","555","2","legacy","1024","2","48000","-16","experiment","SSSSS","4","even","22989","11161","NA","NA","16248","8470","NA","NA","24103","8495","NA","NA","24205","24761","24100","24205","Flanker task","4","5916","6","yes","1024"
"57.142857142857146","57.142857142857146","927.8571428571429","927.8571428571429","black","legacy","legacy","legacy","0","incongruent","uniform","0","undefined","0","s","6","0","0","0","6","0","6","0","6","0","0","0","6","6","6","6","Sun Sep 27 16:42:39 2020","1500","The main experiment item","yes","ab-Flankertask-1.osexp","C:/Users/Elaine/AppData/Roaming/Microsoft/Windows/Network Shortcuts","no","mono","no","18","no","white","no","yes","768","legacy","6","6","C:/Users/Elaine/Documents/E Beason/subject-4.csv","legacy","Lentiform Loewenfeld","3.3.3","0","h","NA","s","NA","NA","h","579","NA","2665","NA","NA","579","2","legacy","1024","2","48000","-16","experiment","HHSHH","4","even","24769","11161","NA","NA","16248","8470","NA","NA","25889","8495","NA","NA","25991","26570","25886","25991","Flanker task","4","6495","7","yes","1024"
"50","50","903","903","black","legacy","legacy","legacy","0","congruent","uniform","0","undefined","0","h","7","0","0","0","7","0","7","0","7","0","0","0","7","7","7","7","Sun Sep 27 16:42:39 2020","1500","The main experiment item","yes","ab-Flankertask-1.osexp","C:/Users/Elaine/AppData/Roaming/Microsoft/Windows/Network Shortcuts","no","mono","no","18","no","white","no","yes","768","legacy","7","7","C:/Users/Elaine/Documents/E Beason/subject-4.csv","legacy","Lentiform Loewenfeld","3.3.3","0","s","NA","s","NA","NA","s","729","NA","2665","NA","NA","729","2","legacy","1024","2","48000","-16","experiment","HHHHH","4","even","27087","11161","NA","NA","26586","8470","NA","NA","28209","8495","NA","NA","28311","29041","28206","28311","Flanker task","4","7224","8","yes","1024"
"44.44444444444444","44.44444444444444","896.4444444444445","896.4444444444445","black","legacy","legacy","legacy","0","incongruent","uniform","0","undefined","0","h","8","0","0","0","8","0","8","0","8","0","0","0","8","8","8","8","Sun Sep 27 16:42:39 2020","1500","The main experiment item","yes","ab-Flankertask-1.osexp","C:/Users/Elaine/AppData/Roaming/Microsoft/Windows/Network Shortcuts","no","mono","no","18","no","white","no","yes","768","legacy","8","8","C:/Users/Elaine/Documents/E Beason/subject-4.csv","legacy","Lentiform Loewenfeld","3.3.3","0","s","NA","s","NA","NA","s","844","NA","2665","NA","NA","844","2","legacy","1024","2","48000","-16","experiment","SSHSS","4","even","29557","11161","NA","NA","29055","8470","NA","NA","30674","8495","NA","NA","30776","31621","30671","30776","Flanker task","4","8068","9","yes","1024"
"40","40","859.2","859.2","black","legacy","legacy","legacy","0","incongruent","uniform","0","undefined","0","s","9","0","0","0","9","0","9","0","9","0","0","0","9","9","9","9","Sun Sep 27 16:42:39 2020","1500","The main experiment item","yes","ab-Flankertask-1.osexp","C:/Users/Elaine/AppData/Roaming/Microsoft/Windows/Network Shortcuts","no","mono","no","18","no","white","no","yes","768","legacy","9","9","C:/Users/Elaine/Documents/E Beason/subject-4.csv","legacy","Lentiform Loewenfeld","3.3.3","0","h","NA","s","NA","NA","h","524","NA","2665","NA","NA","524","2","legacy","1024","2","48000","-16","experiment","HHSHH","4","even","32137","11161","NA","NA","31635","8470","NA","NA","33254","8495","NA","NA","33356","33880","33251","33356","Flanker task","4","8592","10","yes","1024"
"36.36363636363637","36.36363636363637","847.9090909090909","847.9090909090909","black","legacy","legacy","legacy","0","incongruent","uniform","0","undefined","0","s","10","0","0","0","10","0","10","0","10","0","0","0","10","10","10","10","Sun Sep 27 16:42:39 2020","1500","The main experiment item","yes","ab-Flankertask-1.osexp","C:/Users/Elaine/AppData/Roaming/Microsoft/Windows/Network Shortcuts","no","mono","no","18","no","white","no","yes","768","legacy","10","10","C:/Users/Elaine/Documents/E Beason/subject-4.csv","legacy","Lentiform Loewenfeld","3.3.3","0","h","NA","s","NA","NA","h","735","NA","2665","NA","NA","735","2","legacy","1024","2","48000","-16","experiment","HHSHH","4","even","34390","11161","NA","NA","33888","8470","NA","NA","35512","8495","NA","NA","35615","36350","35509","35614","Flanker task","4","9327","11","yes","1024"
"33.333333333333336","33.333333333333336","902.25","902.25","black","legacy","legacy","legacy","0","incongruent","uniform","0","undefined","0","h","11","0","0","0","11","0","11","0","11","0","0","0","11","11","11","11","Sun Sep 27 16:42:39 2020","1500","The main experiment item","yes","ab-Flankertask-1.osexp","C:/Users/Elaine/AppData/Roaming/Microsoft/Windows/Network Shortcuts","no","mono","no","18","no","white","no","yes","768","legacy","11","11","C:/Users/Elaine/Documents/E Beason/subject-4.csv","legacy","Lentiform Loewenfeld","3.3.3","0","None","NA","s","NA","NA","None","1500","NA","2665","NA","NA","1500","2","legacy","1024","2","48000","-16","experiment","SSHSS","4","even","36860","11161","NA","NA","36358","8470","NA","NA","37979","8495","NA","NA","38081","39581","37975","38081","Flanker task","4","10827","12","yes","1024"
"38.46153846153846","38.46153846153846","905.9230769230769","905.9230769230769","black","legacy","legacy","legacy","0","incongruent","uniform","1","undefined","1","h","12","0","0","0","12","0","12","0","12","0","0","0","12","12","12","12","Sun Sep 27 16:42:39 2020","1500","The main experiment item","yes","ab-Flankertask-1.osexp","C:/Users/Elaine/AppData/Roaming/Microsoft/Windows/Network Shortcuts","no","mono","no","18","no","white","no","yes","768","legacy","12","12","C:/Users/Elaine/Documents/E Beason/subject-4.csv","legacy","Lentiform Loewenfeld","3.3.3","0","h","NA","s","NA","NA","h","950","NA","2665","NA","NA","950","2","legacy","1024","2","48000","-16","experiment","SSHSS","4","even","40112","11161","NA","NA","39609","8470","NA","NA","41228","8495","NA","NA","41330","42280","41224","41330","Flanker task","5","11777","13","yes","1024"
"42.857142857142854","42.857142857142854","882.5714285714286","882.5714285714286","black","legacy","legacy","legacy","0","congruent","uniform","1","undefined","1","h","13","0","0","0","13","0","13","0","13","0","0","0","13","13","13","13","Sun Sep 27 16:42:39 2020","1500","The main experiment item","yes","ab-Flankertask-1.osexp","C:/Users/Elaine/AppData/Roaming/Microsoft/Windows/Network Shortcuts","no","mono","no","18","no","white","no","yes","768","legacy","13","13","C:/Users/Elaine/Documents/E Beason/subject-4.csv","legacy","Lentiform Loewenfeld","3.3.3","0","h","NA","s","NA","NA","h","579","NA","2665","NA","NA","579","2","legacy","1024","2","48000","-16","experiment","HHHHH","4","even","42312","11161","NA","NA","39609","8470","NA","NA","43428","8495","NA","NA","43530","44110","43425","43530","Flanker task","6","12356","14","yes","1024"
"46.666666666666664","46.666666666666664","882.2666666666667","882.2666666666667","black","legacy","legacy","legacy","0","congruent","uniform","1","undefined","1","s","14","0","0","0","14","0","14","0","14","0","0","0","14","14","14","14","Sun Sep 27 16:42:39 2020","1500","The main experiment item","yes","ab-Flankertask-1.osexp","C:/Users/Elaine/AppData/Roaming/Microsoft/Windows/Network Shortcuts","no","mono","no","18","no","white","no","yes","768","legacy","14","14","C:/Users/Elaine/Documents/E Beason/subject-4.csv","legacy","Lentiform Loewenfeld","3.3.3","0","s","NA","s","NA","NA","s","878","NA","2665","NA","NA","878","2","legacy","1024","2","48000","-16","experiment","SSSSS","4","even","44120","11161","NA","NA","39609","8470","NA","NA","45240","8495","NA","NA","45342","46221","45237","45342","Flanker task","7","13234","15","yes","1024"
"50","50","866.6875","866.6875","black","legacy","legacy","legacy","0","congruent","uniform","1","undefined","1","h","15","0","0","0","15","0","15","0","15","0","0","0","15","15","15","15","Sun Sep 27 16:42:39 2020","1500","The main experiment item","yes","ab-Flankertask-1.osexp","C:/Users/Elaine/AppData/Roaming/Microsoft/Windows/Network Shortcuts","no","mono","no","18","no","white","no","yes","768","legacy","15","15","C:/Users/Elaine/Documents/E Beason/subject-4.csv","legacy","Lentiform Loewenfeld","3.3.3","0","h","NA","s","NA","NA","h","633","NA","2665","NA","NA","633","2","legacy","1024","2","48000","-16","experiment","HHHHH","4","even","46230","11161","NA","NA","39609","8470","NA","NA","47344","8495","NA","NA","47446","48080","47341","47446","Flanker task","8","13867","16","yes","1024"
"52.94117647058823","52.94117647058823","875.7647058823529","875.7647058823529","black","legacy","legacy","legacy","0","incongruent","uniform","1","undefined","1","s","16","0","0","0","16","0","16","0","16","0","0","0","16","16","16","16","Sun Sep 27 16:42:39 2020","1500","The main experiment item","yes","ab-Flankertask-1.osexp","C:/Users/Elaine/AppData/Roaming/Microsoft/Windows/Network Shortcuts","no","mono","no","18","no","white","no","yes","768","legacy","16","16","C:/Users/Elaine/Documents/E Beason/subject-4.csv","legacy","Lentiform Loewenfeld","3.3.3","0","s","NA","s","NA","NA","s","1021","NA","2665","NA","NA","1021","2","legacy","1024","2","48000","-16","experiment","HHSHH","4","even","48090","11161","NA","NA","39609","8470","NA","NA","49206","8495","NA","NA","49308","50330","49203","49308","Flanker task","9","14888","17","yes","1024"
"55.55555555555556","55.55555555555556","870.3888888888889","870.3888888888889","black","legacy","legacy","legacy","0","congruent","uniform","1","undefined","1","h","17","0","0","0","17","0","17","0","17","0","0","0","17","17","17","17","Sun Sep 27 16:42:39 2020","1500","The main experiment item","yes","ab-Flankertask-1.osexp","C:/Users/Elaine/AppData/Roaming/Microsoft/Windows/Network Shortcuts","no","mono","no","18","no","white","no","yes","768","legacy","17","17","C:/Users/Elaine/Documents/E Beason/subject-4.csv","legacy","Lentiform Loewenfeld","3.3.3","0","h","NA","s","NA","NA","h","779","NA","2665","NA","NA","779","2","legacy","1024","2","48000","-16","experiment","HHHHH","4","even","50340","11161","NA","NA","39609","8470","NA","NA","51459","8495","NA","NA","51561","52340","51456","51561","Flanker task","10","15667","18","yes","1024"
"57.89473684210526","57.89473684210526","853.4736842105264","853.4736842105264","black","legacy","legacy","legacy","0","congruent","uniform","1","undefined","1","s","18","0","0","0","18","0","18","0","18","0","0","0","18","18","18","18","Sun Sep 27 16:42:39 2020","1500","The main experiment item","yes","ab-Flankertask-1.osexp","C:/Users/Elaine/AppData/Roaming/Microsoft/Windows/Network Shortcuts","no","mono","no","18","no","white","no","yes","768","legacy","18","18","C:/Users/Elaine/Documents/E Beason/subject-4.csv","legacy","Lentiform Loewenfeld","3.3.3","0","s","NA","s","NA","NA","s","549","NA","2665","NA","NA","549","2","legacy","1024","2","48000","-16","experiment","SSSSS","4","even","52350","11161","NA","NA","39609","8470","NA","NA","53468","8495","NA","NA","53570","54121","53464","53570","Flanker task","11","16216","19","yes","1024"
"60","60","843.7","843.7","black","legacy","legacy","legacy","0","incongruent","uniform","1","undefined","1","h","19","0","0","0","19","0","19","0","19","0","0","0","19","19","19","19","Sun Sep 27 16:42:39 2020","1500","The main experiment item","yes","ab-Flankertask-1.osexp","C:/Users/Elaine/AppData/Roaming/Microsoft/Windows/Network Shortcuts","no","mono","no","18","no","white","no","yes","768","legacy","19","19","C:/Users/Elaine/Documents/E Beason/subject-4.csv","legacy","Lentiform Loewenfeld","3.3.3","0","h","NA","s","NA","NA","h","658","NA","2665","NA","NA","658","2","legacy","1024","2","48000","-16","experiment","SSHSS","4","even","54130","11161","NA","NA","39609","8470","NA","NA","55249","8495","NA","NA","55351","56010","55246","55351","Flanker task","12","16874","20","yes","1024"
"61.904761904761905","61.904761904761905","842.3333333333334","842.3333333333334","black","legacy","legacy","legacy","0","congruent","uniform","1","undefined","1","h","20","0","0","0","20","0","20","0","20","0","0","0","20","20","20","20","Sun Sep 27 16:42:39 2020","1500","The main experiment item","yes","ab-Flankertask-1.osexp","C:/Users/Elaine/AppData/Roaming/Microsoft/Windows/Network Shortcuts","no","mono","no","18","no","white","no","yes","768","legacy","20","20","C:/Users/Elaine/Documents/E Beason/subject-4.csv","legacy","Lentiform Loewenfeld","3.3.3","0","h","NA","s","NA","NA","h","815","NA","2665","NA","NA","815","2","legacy","1024","2","48000","-16","experiment","HHHHH","4","even","56020","11161","NA","NA","39609","8470","NA","NA","57133","8495","NA","NA","57235","58051","57130","57235","Flanker task","13","17689","21","yes","1024"
"63.63636363636363","63.63636363636363","839.5454545454545","839.5454545454545","black","legacy","legacy","legacy","0","congruent","uniform","1","undefined","1","s","21","0","0","0","21","0","21","0","21","0","0","0","21","21","21","21","Sun Sep 27 16:42:39 2020","1500","The main experiment item","yes","ab-Flankertask-1.osexp","C:/Users/Elaine/AppData/Roaming/Microsoft/Windows/Network Shortcuts","no","mono","no","18","no","white","no","yes","768","legacy","21","21","C:/Users/Elaine/Documents/E Beason/subject-4.csv","legacy","Lentiform Loewenfeld","3.3.3","0","s","NA","s","NA","NA","s","781","NA","2665","NA","NA","781","2","legacy","1024","2","48000","-16","experiment","SSSSS","4","even","58061","11161","NA","NA","39609","8470","NA","NA","59176","8495","NA","NA","59279","60060","59173","59279","Flanker task","14","18470","22","yes","1024"
"65.21739130434783","65.21739130434783","834.0869565217391","834.0869565217391","black","legacy","legacy","legacy","0","incongruent","uniform","1","undefined","1","s","22","0","0","0","22","0","22","0","22","0","0","0","22","22","22","22","Sun Sep 27 16:42:39 2020","1500","The main experiment item","yes","ab-Flankertask-1.osexp","C:/Users/Elaine/AppData/Roaming/Microsoft/Windows/Network Shortcuts","no","mono","no","18","no","white","no","yes","768","legacy","22","22","C:/Users/Elaine/Documents/E Beason/subject-4.csv","legacy","Lentiform Loewenfeld","3.3.3","0","s","NA","s","NA","NA","s","714","NA","2665","NA","NA","714","2","legacy","1024","2","48000","-16","experiment","HHSHH","4","even","60069","11161","NA","NA","39609","8470","NA","NA","61194","8495","NA","NA","61296","62011","61191","61296","Flanker task","15","19184","23","yes","1024"
"66.66666666666667","66.66666666666667","823.7916666666666","823.7916666666666","black","legacy","legacy","legacy","0","incongruent","uniform","1","undefined","1","s","23","0","0","0","23","0","23","0","23","0","0","0","23","23","23","23","Sun Sep 27 16:42:39 2020","1500","The main experiment item","yes","ab-Flankertask-1.osexp","C:/Users/Elaine/AppData/Roaming/Microsoft/Windows/Network Shortcuts","no","mono","no","18","no","white","no","yes","768","legacy","23","23","C:/Users/Elaine/Documents/E Beason/subject-4.csv","legacy","Lentiform Loewenfeld","3.3.3","0","s","NA","s","NA","NA","s","587","NA","2665","NA","NA","587","2","legacy","1024","2","48000","-16","experiment","HHSHH","4","even","62024","11161","NA","NA","39609","8470","NA","NA","63141","8495","NA","NA","63243","63830","63138","63243","Flanker task","16","19771","24","yes","1024"
"64","64","812.52","812.52","black","legacy","legacy","legacy","0","incongruent","uniform","0","undefined","0","h","24","0","0","0","24","0","24","0","24","0","0","0","24","24","24","24","Sun Sep 27 16:42:39 2020","1500","The main experiment item","yes","ab-Flankertask-1.osexp","C:/Users/Elaine/AppData/Roaming/Microsoft/Windows/Network Shortcuts","no","mono","no","18","no","white","no","yes","768","legacy","24","24","C:/Users/Elaine/Documents/E Beason/subject-4.csv","legacy","Lentiform Loewenfeld","3.3.3","0","s","NA","s","NA","NA","s","542","NA","2665","NA","NA","542","2","legacy","1024","2","48000","-16","experiment","SSHSS","4","even","63839","11161","NA","NA","39609","8470","NA","NA","64966","8495","NA","NA","65068","65611","64961","65068","Flanker task","16","20313","25","yes","1024"
"65.38461538461539","65.38461538461539","800.9230769230769","800.9230769230769","black","legacy","legacy","legacy","0","congruent","uniform","1","undefined","1","h","25","0","0","0","25","0","25","0","25","0","0","0","25","25","25","25","Sun Sep 27 16:42:39 2020","1500","The main experiment item","yes","ab-Flankertask-1.osexp","C:/Users/Elaine/AppData/Roaming/Microsoft/Windows/Network Shortcuts","no","mono","no","18","no","white","no","yes","768","legacy","25","25","C:/Users/Elaine/Documents/E Beason/subject-4.csv","legacy","Lentiform Loewenfeld","3.3.3","0","h","NA","s","NA","NA","h","511","NA","2665","NA","NA","511","2","legacy","1024","2","48000","-16","experiment","HHHHH","4","even","66130","11161","NA","NA","65628","8470","NA","NA","67284","8495","NA","NA","67387","67900","67280","67387","Flanker task","17","20824","26","yes","1024"
"66.66666666666667","66.66666666666667","793.2222222222222","793.2222222222222","black","legacy","legacy","legacy","0","congruent","uniform","1","undefined","1","s","26","0","0","0","26","0","26","0","26","0","0","0","26","26","26","26","Sun Sep 27 16:42:39 2020","1500","The main experiment item","yes","ab-Flankertask-1.osexp","C:/Users/Elaine/AppData/Roaming/Microsoft/Windows/Network Shortcuts","no","mono","no","18","no","white","no","yes","768","legacy","26","26","C:/Users/Elaine/Documents/E Beason/subject-4.csv","legacy","Lentiform Loewenfeld","3.3.3","0","s","NA","s","NA","NA","s","593","NA","2665","NA","NA","593","2","legacy","1024","2","48000","-16","experiment","SSSSS","4","even","67916","11161","NA","NA","65628","8470","NA","NA","69043","8495","NA","NA","69145","69739","69040","69145","Flanker task","18","21417","27","yes","1024"
"67.85714285714286","67.85714285714286","789.25","789.25","black","legacy","legacy","legacy","0","incongruent","uniform","1","undefined","1","h","27","0","0","0","27","0","27","0","27","0","0","0","27","27","27","27","Sun Sep 27 16:42:39 2020","1500","The main experiment item","yes","ab-Flankertask-1.osexp","C:/Users/Elaine/AppData/Roaming/Microsoft/Windows/Network Shortcuts","no","mono","no","18","no","white","no","yes","768","legacy","27","27","C:/Users/Elaine/Documents/E Beason/subject-4.csv","legacy","Lentiform Loewenfeld","3.3.3","0","h","NA","s","NA","NA","h","682","NA","2665","NA","NA","682","2","legacy","1024","2","48000","-16","experiment","SSHSS","4","even","69749","11161","NA","NA","65628","8470","NA","NA","70874","8495","NA","NA","70976","71659","70871","70976","Flanker task","19","22099","28","yes","1024"
"68.96551724137932","68.96551724137932","780.3793103448276","780.3793103448276","black","legacy","legacy","legacy","0","congruent","uniform","1","undefined","1","s","28","0","0","0","28","0","28","0","28","0","0","0","28","28","28","28","Sun Sep 27 16:42:39 2020","1500","The main experiment item","yes","ab-Flankertask-1.osexp","C:/Users/Elaine/AppData/Roaming/Microsoft/Windows/Network Shortcuts","no","mono","no","18","no","white","no","yes","768","legacy","28","28","C:/Users/Elaine/Documents/E Beason/subject-4.csv","legacy","Lentiform Loewenfeld","3.3.3","0","s","NA","s","NA","NA","s","532","NA","2665","NA","NA","532","2","legacy","1024","2","48000","-16","experiment","SSSSS","4","even","71675","11161","NA","NA","65628","8470","NA","NA","72793","8495","NA","NA","72896","73429","72789","72895","Flanker task","20","22631","29","yes","1024"
"70","70","773.4","773.4","black","legacy","legacy","legacy","0","incongruent","uniform","1","undefined","1","h","29","0","0","0","29","0","29","0","29","0","0","0","29","29","29","29","Sun Sep 27 16:42:39 2020","1500","The main experiment item","yes","ab-Flankertask-1.osexp","C:/Users/Elaine/AppData/Roaming/Microsoft/Windows/Network Shortcuts","no","mono","no","18","no","white","no","yes","768","legacy","29","29","C:/Users/Elaine/Documents/E Beason/subject-4.csv","legacy","Lentiform Loewenfeld","3.3.3","0","h","NA","s","NA","NA","h","571","NA","2665","NA","NA","571","2","legacy","1024","2","48000","-16","experiment","SSHSS","4","even","73445","11161","NA","NA","65628","8470","NA","NA","74575","8495","NA","NA","74677","75249","74572","74677","Flanker task","21","23202","30","yes","1024"
"70.96774193548387","70.96774193548387","775.8709677419355","775.8709677419355","black","legacy","legacy","legacy","0","incongruent","uniform","1","undefined","1","s","30","0","0","0","30","0","30","0","30","0","0","0","30","30","30","30","Sun Sep 27 16:42:39 2020","1500","The main experiment item","yes","ab-Flankertask-1.osexp","C:/Users/Elaine/AppData/Roaming/Microsoft/Windows/Network Shortcuts","no","mono","no","18","no","white","no","yes","768","legacy","30","30","C:/Users/Elaine/Documents/E Beason/subject-4.csv","legacy","Lentiform Loewenfeld","3.3.3","0","s","NA","s","NA","NA","s","850","NA","2665","NA","NA","850","2","legacy","1024","2","48000","-16","experiment","HHSHH","4","even","75259","11161","NA","NA","65628","8470","NA","NA","76377","8495","NA","NA","76479","77330","76374","76479","Flanker task","22","24052","31","yes","1024"
"71.875","71.875","775.625","775.625","black","legacy","legacy","legacy","0","incongruent","uniform","1","undefined","1","s","31","0","0","0","31","0","31","0","31","0","0","0","31","31","31","31","Sun Sep 27 16:42:39 2020","1500","The main experiment item","yes","ab-Flankertask-1.osexp","C:/Users/Elaine/AppData/Roaming/Microsoft/Windows/Network Shortcuts","no","mono","no","18","no","white","no","yes","768","legacy","31","31","C:/Users/Elaine/Documents/E Beason/subject-4.csv","legacy","Lentiform Loewenfeld","3.3.3","0","s","NA","s","NA","NA","s","768","NA","2665","NA","NA","768","2","legacy","1024","2","48000","-16","experiment","HHSHH","4","even","77340","11161","NA","NA","65628","8470","NA","NA","78459","8495","NA","NA","78561","79330","78456","78561","Flanker task","23","24820","32","yes","1024"
"72.72727272727273","72.72727272727273","772","772","black","legacy","legacy","legacy","0","congruent","uniform","1","undefined","1","h","32","0","0","0","32","0","32","0","32","0","0","0","32","32","32","32","Sun Sep 27 16:42:39 2020","1500","The main experiment item","yes","ab-Flankertask-1.osexp","C:/Users/Elaine/AppData/Roaming/Microsoft/Windows/Network Shortcuts","no","mono","no","18","no","white","no","yes","768","legacy","32","32","C:/Users/Elaine/Documents/E Beason/subject-4.csv","legacy","Lentiform Loewenfeld","3.3.3","0","h","NA","s","NA","NA","h","656","NA","2665","NA","NA","656","2","legacy","1024","2","48000","-16","experiment","HHHHH","4","even","79346","11161","NA","NA","65628","8470","NA","NA","80470","8495","NA","NA","80572","81229","80467","80572","Flanker task","24","25476","33","yes","1024"
"73.52941176470588","73.52941176470588","767.2352941176471","767.2352941176471","black","legacy","legacy","legacy","0","congruent","uniform","1","undefined","1","h","33","0","0","0","33","0","33","0","33","0","0","0","33","33","33","33","Sun Sep 27 16:42:39 2020","1500","The main experiment item","yes","ab-Flankertask-1.osexp","C:/Users/Elaine/AppData/Roaming/Microsoft/Windows/Network Shortcuts","no","mono","no","18","no","white","no","yes","768","legacy","33","33","C:/Users/Elaine/Documents/E Beason/subject-4.csv","legacy","Lentiform Loewenfeld","3.3.3","0","h","NA","s","NA","NA","h","610","NA","2665","NA","NA","610","2","legacy","1024","2","48000","-16","experiment","HHHHH","4","even","81240","11161","NA","NA","65628","8470","NA","NA","82357","8495","NA","NA","82459","83070","82354","82459","Flanker task","25","26086","34","yes","1024"
"74.28571428571429","74.28571428571429","760.7142857142857","760.7142857142857","black","legacy","legacy","legacy","0","incongruent","uniform","1","undefined","1","h","34","0","0","0","34","0","34","0","34","0","0","0","34","34","34","34","Sun Sep 27 16:42:39 2020","1500","The main experiment item","yes","ab-Flankertask-1.osexp","C:/Users/Elaine/AppData/Roaming/Microsoft/Windows/Network Shortcuts","no","mono","no","18","no","white","no","yes","768","legacy","34","34","C:/Users/Elaine/Documents/E Beason/subject-4.csv","legacy","Lentiform Loewenfeld","3.3.3","0","h","NA","s","NA","NA","h","539","NA","2665","NA","NA","539","2","legacy","1024","2","48000","-16","experiment","SSHSS","4","even","83080","11161","NA","NA","65628","8470","NA","NA","84198","8495","NA","NA","84300","84839","84195","84299","Flanker task","26","26625","35","yes","1024"
"75","75","766.8888888888889","766.8888888888889","black","legacy","legacy","legacy","0","congruent","uniform","1","undefined","1","s","35","0","0","0","35","0","35","0","35","0","0","0","35","35","35","35","Sun Sep 27 16:42:39 2020","1500","The main experiment item","yes","ab-Flankertask-1.osexp","C:/Users/Elaine/AppData/Roaming/Microsoft/Windows/Network Shortcuts","no","mono","no","18","no","white","no","yes","768","legacy","35","35","C:/Users/Elaine/Documents/E Beason/subject-4.csv","legacy","Lentiform Loewenfeld","3.3.3","0","s","NA","s","NA","NA","s","983","NA","2665","NA","NA","983","2","legacy","1024","2","48000","-16","experiment","SSSSS","4","even","84849","11161","NA","NA","65628","8470","NA","NA","85962","8495","NA","NA","86065","87049","85959","86065","Flanker task","27","27608","36","yes","1024"
"75.67567567567568","75.67567567567568","764.5945945945946","764.5945945945946","black","legacy","legacy","legacy","0","incongruent","uniform","1","undefined","1","h","36","0","0","0","36","0","36","0","36","0","0","0","36","36","36","36","Sun Sep 27 16:42:39 2020","1500","The main experiment item","yes","ab-Flankertask-1.osexp","C:/Users/Elaine/AppData/Roaming/Microsoft/Windows/Network Shortcuts","no","mono","no","18","no","white","no","yes","768","legacy","36","36","C:/Users/Elaine/Documents/E Beason/subject-4.csv","legacy","Lentiform Loewenfeld","3.3.3","0","h","NA","s","NA","NA","h","682","NA","2665","NA","NA","682","2","legacy","1024","2","48000","-16","experiment","SSHSS","4","even","87057","11161","NA","NA","65628","8470","NA","NA","88175","8495","NA","NA","88277","88960","88172","88277","Flanker task","28","28290","37","yes","1024"
"76.3157894736842","76.3157894736842","760.3947368421053","760.3947368421053","black","legacy","legacy","legacy","0","congruent","uniform","1","undefined","1","h","37","0","0","0","37","0","37","0","37","0","0","0","37","37","37","37","Sun Sep 27 16:42:39 2020","1500","The main experiment item","yes","ab-Flankertask-1.osexp","C:/Users/Elaine/AppData/Roaming/Microsoft/Windows/Network Shortcuts","no","mono","no","18","no","white","no","yes","768","legacy","37","37","C:/Users/Elaine/Documents/E Beason/subject-4.csv","legacy","Lentiform Loewenfeld","3.3.3","0","h","NA","s","NA","NA","h","605","NA","2665","NA","NA","605","2","legacy","1024","2","48000","-16","experiment","HHHHH","4","even","88968","11161","NA","NA","65628","8470","NA","NA","90082","8495","NA","NA","90184","90790","90079","90184","Flanker task","29","28895","38","yes","1024"
"76.92307692307692","76.92307692307692","763","763","black","legacy","legacy","legacy","0","incongruent","uniform","1","undefined","1","h","38","0","0","0","38","0","38","0","38","0","0","0","38","38","38","38","Sun Sep 27 16:42:39 2020","1500","The main experiment item","yes","ab-Flankertask-1.osexp","C:/Users/Elaine/AppData/Roaming/Microsoft/Windows/Network Shortcuts","no","mono","no","18","no","white","no","yes","768","legacy","38","38","C:/Users/Elaine/Documents/E Beason/subject-4.csv","legacy","Lentiform Loewenfeld","3.3.3","0","h","NA","s","NA","NA","h","862","NA","2665","NA","NA","862","2","legacy","1024","2","48000","-16","experiment","SSHSS","4","even","90799","11161","NA","NA","65628","8470","NA","NA","91913","8495","NA","NA","92016","92879","91910","92016","Flanker task","30","29757","39","yes","1024"
"77.5","77.5","757.225","757.225","black","legacy","legacy","legacy","0","incongruent","uniform","1","undefined","1","h","39","0","0","0","39","0","39","0","39","0","0","0","39","39","39","39","Sun Sep 27 16:42:39 2020","1500","The main experiment item","yes","ab-Flankertask-1.osexp","C:/Users/Elaine/AppData/Roaming/Microsoft/Windows/Network Shortcuts","no","mono","no","18","no","white","no","yes","768","legacy","39","39","C:/Users/Elaine/Documents/E Beason/subject-4.csv","legacy","Lentiform Loewenfeld","3.3.3","0","h","NA","s","NA","NA","h","532","NA","2665","NA","NA","532","2","legacy","1024","2","48000","-16","experiment","SSHSS","4","even","92889","11161","NA","NA","65628","8470","NA","NA","94004","8495","NA","NA","94106","94639","94001","94106","Flanker task","31","30289","40","yes","1024"
"78.04878048780488","78.04878048780488","753.0487804878048","753.0487804878048","black","legacy","legacy","legacy","0","congruent","uniform","1","undefined","1","h","40","0","0","0","40","0","40","0","40","0","0","0","40","40","40","40","Sun Sep 27 16:42:39 2020","1500","The main experiment item","yes","ab-Flankertask-1.osexp","C:/Users/Elaine/AppData/Roaming/Microsoft/Windows/Network Shortcuts","no","mono","no","18","no","white","no","yes","768","legacy","40","40","C:/Users/Elaine/Documents/E Beason/subject-4.csv","legacy","Lentiform Loewenfeld","3.3.3","0","h","NA","s","NA","NA","h","586","NA","2665","NA","NA","586","2","legacy","1024","2","48000","-16","experiment","HHHHH","4","even","94649","11161","NA","NA","65628","8470","NA","NA","95761","8495","NA","NA","95863","96450","95758","95863","Flanker task","32","30875","41","yes","1024"
"78.57142857142857","78.57142857142857","747.6666666666666","747.6666666666666","black","legacy","legacy","legacy","0","congruent","uniform","1","undefined","1","s","41","0","0","0","41","0","41","0","41","0","0","0","41","41","41","41","Sun Sep 27 16:42:39 2020","1500","The main experiment item","yes","ab-Flankertask-1.osexp","C:/Users/Elaine/AppData/Roaming/Microsoft/Windows/Network Shortcuts","no","mono","no","18","no","white","no","yes","768","legacy","41","41","C:/Users/Elaine/Documents/E Beason/subject-4.csv","legacy","Lentiform Loewenfeld","3.3.3","0","s","NA","s","NA","NA","s","527","NA","2665","NA","NA","527","2","legacy","1024","2","48000","-16","experiment","SSSSS","4","even","96465","11161","NA","NA","65628","8470","NA","NA","97579","8495","NA","NA","97681","98209","97575","97681","Flanker task","33","31402","42","yes","1024"
"79.06976744186046","79.06976744186046","748.953488372093","748.953488372093","black","legacy","legacy","legacy","0","congruent","uniform","1","undefined","1","h","42","0","0","0","42","0","42","0","42","0","0","0","42","42","42","42","Sun Sep 27 16:42:39 2020","1500","The main experiment item","yes","ab-Flankertask-1.osexp","C:/Users/Elaine/AppData/Roaming/Microsoft/Windows/Network Shortcuts","no","mono","no","18","no","white","no","yes","768","legacy","42","42","C:/Users/Elaine/Documents/E Beason/subject-4.csv","legacy","Lentiform Loewenfeld","3.3.3","0","h","NA","s","NA","NA","h","803","NA","2665","NA","NA","803","2","legacy","1024","2","48000","-16","experiment","HHHHH","4","even","98218","11161","NA","NA","65628","8470","NA","NA","99334","8495","NA","NA","99436","100240","99330","99436","Flanker task","34","32205","43","yes","1024"
"79.54545454545455","79.54545454545455","750.7045454545455","750.7045454545455","black","legacy","legacy","legacy","0","incongruent","uniform","1","undefined","1","s","43","0","0","0","43","0","43","0","43","0","0","0","43","43","43","43","Sun Sep 27 16:42:39 2020","1500","The main experiment item","yes","ab-Flankertask-1.osexp","C:/Users/Elaine/AppData/Roaming/Microsoft/Windows/Network Shortcuts","no","mono","no","18","no","white","no","yes","768","legacy","43","43","C:/Users/Elaine/Documents/E Beason/subject-4.csv","legacy","Lentiform Loewenfeld","3.3.3","0","s","NA","s","NA","NA","s","826","NA","2665","NA","NA","826","2","legacy","1024","2","48000","-16","experiment","HHSHH","4","even","100251","11161","NA","NA","65628","8470","NA","NA","101371","8495","NA","NA","101473","102299","101368","101473","Flanker task","35","33031","44","yes","1024"
"80","80","747.8222222222222","747.8222222222222","black","legacy","legacy","legacy","0","congruent","uniform","1","undefined","1","s","44","0","0","0","44","0","44","0","44","0","0","0","44","44","44","44","Sun Sep 27 16:42:39 2020","1500","The main experiment item","yes","ab-Flankertask-1.osexp","C:/Users/Elaine/AppData/Roaming/Microsoft/Windows/Network Shortcuts","no","mono","no","18","no","white","no","yes","768","legacy","44","44","C:/Users/Elaine/Documents/E Beason/subject-4.csv","legacy","Lentiform Loewenfeld","3.3.3","0","s","NA","s","NA","NA","s","621","NA","2665","NA","NA","621","2","legacy","1024","2","48000","-16","experiment","SSSSS","4","even","102316","11161","NA","NA","65628","8470","NA","NA","103435","8495","NA","NA","103537","104159","103432","103537","Flanker task","36","33652","45","yes","1024"
"80.43478260869566","80.43478260869566","742.4130434782609","742.4130434782609","black","legacy","legacy","legacy","0","incongruent","uniform","1","undefined","1","h","45","0","0","0","45","0","45","0","45","0","0","0","45","45","45","45","Sun Sep 27 16:42:39 2020","1500","The main experiment item","yes","ab-Flankertask-1.osexp","C:/Users/Elaine/AppData/Roaming/Microsoft/Windows/Network Shortcuts","no","mono","no","18","no","white","no","yes","768","legacy","45","45","C:/Users/Elaine/Documents/E Beason/subject-4.csv","legacy","Lentiform Loewenfeld","3.3.3","0","h","NA","s","NA","NA","h","499","NA","2665","NA","NA","499","2","legacy","1024","2","48000","-16","experiment","SSHSS","4","even","104169","11161","NA","NA","65628","8470","NA","NA","105287","8495","NA","NA","105389","105889","105284","105389","Flanker task","37","34151","46","yes","1024"
"80.85106382978724","80.85106382978724","739.9148936170212","739.9148936170212","black","legacy","legacy","legacy","0","congruent","uniform","1","undefined","1","s","46","0","0","0","46","0","46","0","46","0","0","0","46","46","46","46","Sun Sep 27 16:42:39 2020","1500","The main experiment item","yes","ab-Flankertask-1.osexp","C:/Users/Elaine/AppData/Roaming/Microsoft/Windows/Network Shortcuts","no","mono","no","18","no","white","no","yes","768","legacy","46","46","C:/Users/Elaine/Documents/E Beason/subject-4.csv","legacy","Lentiform Loewenfeld","3.3.3","0","s","NA","s","NA","NA","s","625","NA","2665","NA","NA","625","2","legacy","1024","2","48000","-16","experiment","SSSSS","4","even","105899","11161","NA","NA","65628","8470","NA","NA","107021","8495","NA","NA","107123","107749","107017","107122","Flanker task","38","34776","47","yes","1024"
"81.25","81.25","739.5625","739.5625","black","legacy","legacy","legacy","0","incongruent","uniform","1","undefined","1","s","47","0","0","0","47","0","47","0","47","0","0","0","47","47","47","47","Sun Sep 27 16:42:39 2020","1500","The main experiment item","yes","ab-Flankertask-1.osexp","C:/Users/Elaine/AppData/Roaming/Microsoft/Windows/Network Shortcuts","no","mono","no","18","no","white","no","yes","768","legacy","47","47","C:/Users/Elaine/Documents/E Beason/subject-4.csv","legacy","Lentiform Loewenfeld","3.3.3","0","s","NA","s","NA","NA","s","723","NA","2665","NA","NA","723","2","legacy","1024","2","48000","-16","experiment","HHSHH","4","even","107766","11161","NA","NA","65628","8470","NA","NA","108883","8495","NA","NA","108985","109709","108880","108985","Flanker task","39","35499","48","yes","1024"
"81.63265306122449","81.63265306122449","736.6734693877551","736.6734693877551","black","legacy","legacy","legacy","0","congruent","uniform","1","undefined","1","s","48","0","0","0","48","0","48","0","48","0","0","0","48","48","48","48","Sun Sep 27 16:42:39 2020","1500","The main experiment item","yes","ab-Flankertask-1.osexp","C:/Users/Elaine/AppData/Roaming/Microsoft/Windows/Network Shortcuts","no","mono","no","18","no","white","no","yes","768","legacy","48","48","C:/Users/Elaine/Documents/E Beason/subject-4.csv","legacy","Lentiform Loewenfeld","3.3.3","0","s","NA","s","NA","NA","s","598","NA","2665","NA","NA","598","2","legacy","1024","2","48000","-16","experiment","SSSSS","4","even","109725","11161","NA","NA","65628","8470","NA","NA","110839","8495","NA","NA","110941","111540","110836","110941","Flanker task","40","36097","49","yes","1024"
"82","82","735.06","735.06","black","legacy","legacy","legacy","0","incongruent","uniform","1","undefined","1","h","49","0","0","0","49","0","49","0","49","0","0","0","49","49","49","49","Sun Sep 27 16:42:39 2020","1500","The main experiment item","yes","ab-Flankertask-1.osexp","C:/Users/Elaine/AppData/Roaming/Microsoft/Windows/Network Shortcuts","no","mono","no","18","no","white","no","yes","768","legacy","49","49","C:/Users/Elaine/Documents/E Beason/subject-4.csv","legacy","Lentiform Loewenfeld","3.3.3","0","h","NA","s","NA","NA","h","656","NA","2665","NA","NA","656","2","legacy","1024","2","48000","-16","experiment","SSHSS","4","even","111549","11161","NA","NA","65628","8470","NA","NA","112661","8495","NA","NA","112763","113420","112657","112763","Flanker task","41","36753","50","yes","1024"
"82.3529411764706","82.3529411764706","731.0980392156863","731.0980392156863","black","legacy","legacy","legacy","0","congruent","uniform","1","undefined","1","h","50","0","0","0","50","0","50","0","50","0","0","0","50","50","50","50","Sun Sep 27 16:42:39 2020","1500","The main experiment item","yes","ab-Flankertask-1.osexp","C:/Users/Elaine/AppData/Roaming/Microsoft/Windows/Network Shortcuts","no","mono","no","18","no","white","no","yes","768","legacy","50","50","C:/Users/Elaine/Documents/E Beason/subject-4.csv","legacy","Lentiform Loewenfeld","3.3.3","0","h","NA","s","NA","NA","h","533","NA","2665","NA","NA","533","2","legacy","1024","2","48000","-16","experiment","HHHHH","4","even","113430","11161","NA","NA","65628","8470","NA","NA","114544","8495","NA","NA","114646","115180","114541","114646","Flanker task","42","37286","51","yes","1024"
"82.6923076923077","82.6923076923077","732.1346153846154","732.1346153846154","black","legacy","legacy","legacy","0","congruent","uniform","1","undefined","1","s","51","0","0","0","51","0","51","0","51","0","0","0","51","51","51","51","Sun Sep 27 16:42:39 2020","1500","The main experiment item","yes","ab-Flankertask-1.osexp","C:/Users/Elaine/AppData/Roaming/Microsoft/Windows/Network Shortcuts","no","mono","no","18","no","white","no","yes","768","legacy","51","51","C:/Users/Elaine/Documents/E Beason/subject-4.csv","legacy","Lentiform Loewenfeld","3.3.3","0","s","NA","s","NA","NA","s","785","NA","2665","NA","NA","785","2","legacy","1024","2","48000","-16","experiment","SSSSS","4","even","115196","11161","NA","NA","65628","8470","NA","NA","116311","8495","NA","NA","116414","117200","116308","116413","Flanker task","43","38071","52","yes","1024"
"83.01886792452831","83.01886792452831","730.8301886792453","730.8301886792453","black","legacy","legacy","legacy","0","congruent","uniform","1","undefined","1","s","52","0","0","0","52","0","52","0","52","0","0","0","52","52","52","52","Sun Sep 27 16:42:39 2020","1500","The main experiment item","yes","ab-Flankertask-1.osexp","C:/Users/Elaine/AppData/Roaming/Microsoft/Windows/Network Shortcuts","no","mono","no","18","no","white","no","yes","768","legacy","52","52","C:/Users/Elaine/Documents/E Beason/subject-4.csv","legacy","Lentiform Loewenfeld","3.3.3","0","s","NA","s","NA","NA","s","663","NA","2665","NA","NA","663","2","legacy","1024","2","48000","-16","experiment","SSSSS","4","even","117216","11161","NA","NA","65628","8470","NA","NA","118334","8495","NA","NA","118436","119100","118331","118436","Flanker task","44","38734","53","yes","1024"
"83.33333333333333","83.33333333333333","728.8703703703703","728.8703703703703","black","legacy","legacy","legacy","0","congruent","uniform","1","undefined","1","h","53","0","0","0","53","0","53","0","53","0","0","0","53","53","53","53","Sun Sep 27 16:42:39 2020","1500","The main experiment item","yes","ab-Flankertask-1.osexp","C:/Users/Elaine/AppData/Roaming/Microsoft/Windows/Network Shortcuts","no","mono","no","18","no","white","no","yes","768","legacy","53","53","C:/Users/Elaine/Documents/E Beason/subject-4.csv","legacy","Lentiform Loewenfeld","3.3.3","0","h","NA","s","NA","NA","h","625","NA","2665","NA","NA","625","2","legacy","1024","2","48000","-16","experiment","HHHHH","4","even","119110","11161","NA","NA","65628","8470","NA","NA","120232","8495","NA","NA","120334","120960","120228","120334","Flanker task","45","39359","54","yes","1024"
"83.63636363636364","83.63636363636364","726.5454545454545","726.5454545454545","black","legacy","legacy","legacy","0","congruent","uniform","1","undefined","1","h","54","0","0","0","54","0","54","0","54","0","0","0","54","54","54","54","Sun Sep 27 16:42:39 2020","1500","The main experiment item","yes","ab-Flankertask-1.osexp","C:/Users/Elaine/AppData/Roaming/Microsoft/Windows/Network Shortcuts","no","mono","no","18","no","white","no","yes","768","legacy","54","54","C:/Users/Elaine/Documents/E Beason/subject-4.csv","legacy","Lentiform Loewenfeld","3.3.3","0","h","NA","s","NA","NA","h","601","NA","2665","NA","NA","601","2","legacy","1024","2","48000","-16","experiment","HHHHH","4","even","120970","11161","NA","NA","65628","8470","NA","NA","122086","8495","NA","NA","122188","122790","122083","122188","Flanker task","46","39960","55","yes","1024"
"83.92857142857143","83.92857142857143","724.6071428571429","724.6071428571429","black","legacy","legacy","legacy","0","incongruent","uniform","1","undefined","1","s","55","0","0","0","55","0","55","0","55","0","0","0","55","55","55","55","Sun Sep 27 16:42:39 2020","1500","The main experiment item","yes","ab-Flankertask-1.osexp","C:/Users/Elaine/AppData/Roaming/Microsoft/Windows/Network Shortcuts","no","mono","no","18","no","white","no","yes","768","legacy","55","55","C:/Users/Elaine/Documents/E Beason/subject-4.csv","legacy","Lentiform Loewenfeld","3.3.3","0","s","NA","s","NA","NA","s","618","NA","2665","NA","NA","618","2","legacy","1024","2","48000","-16","experiment","HHSHH","4","even","122800","11161","NA","NA","65628","8470","NA","NA","123918","8495","NA","NA","124020","124639","123915","124020","Flanker task","47","40578","56","yes","1024"
"84.21052631578948","84.21052631578948","726.0877192982456","726.0877192982456","black","legacy","legacy","legacy","0","incongruent","uniform","1","undefined","1","s","56","0","0","0","56","0","56","0","56","0","0","0","56","56","56","56","Sun Sep 27 16:42:39 2020","1500","The main experiment item","yes","ab-Flankertask-1.osexp","C:/Users/Elaine/AppData/Roaming/Microsoft/Windows/Network Shortcuts","no","mono","no","18","no","white","no","yes","768","legacy","56","56","C:/Users/Elaine/Documents/E Beason/subject-4.csv","legacy","Lentiform Loewenfeld","3.3.3","0","s","NA","s","NA","NA","s","809","NA","2665","NA","NA","809","2","legacy","1024","2","48000","-16","experiment","HHSHH","4","even","124656","11161","NA","NA","65628","8470","NA","NA","125778","8495","NA","NA","125880","126690","125774","125879","Flanker task","48","41387","57","yes","1024"
"84.48275862068965","84.48275862068965","723.8965517241379","723.8965517241379","black","legacy","legacy","legacy","0","incongruent","uniform","1","undefined","1","h","57","0","0","0","57","0","57","0","57","0","0","0","57","57","57","57","Sun Sep 27 16:42:39 2020","1500","The main experiment item","yes","ab-Flankertask-1.osexp","C:/Users/Elaine/AppData/Roaming/Microsoft/Windows/Network Shortcuts","no","mono","no","18","no","white","no","yes","768","legacy","57","57","C:/Users/Elaine/Documents/E Beason/subject-4.csv","legacy","Lentiform Loewenfeld","3.3.3","0","h","NA","s","NA","NA","h","599","NA","2665","NA","NA","599","2","legacy","1024","2","48000","-16","experiment","SSHSS","4","even","126702","11161","NA","NA","65628","8470","NA","NA","127817","8495","NA","NA","127919","128519","127814","127919","Flanker task","49","41986","58","yes","1024"
"84.7457627118644","84.7457627118644","730.6779661016949","730.6779661016949","black","legacy","legacy","legacy","0","incongruent","uniform","1","undefined","1","s","58","0","0","0","58","0","58","0","58","0","0","0","58","58","58","58","Sun Sep 27 16:42:39 2020","1500","The main experiment item","yes","ab-Flankertask-1.osexp","C:/Users/Elaine/AppData/Roaming/Microsoft/Windows/Network Shortcuts","no","mono","no","18","no","white","no","yes","768","legacy","58","58","C:/Users/Elaine/Documents/E Beason/subject-4.csv","legacy","Lentiform Loewenfeld","3.3.3","0","s","NA","s","NA","NA","s","1124","NA","2665","NA","NA","1124","2","legacy","1024","2","48000","-16","experiment","HHSHH","4","even","128529","11161","NA","NA","65628","8470","NA","NA","129643","8495","NA","NA","129745","130870","129640","129745","Flanker task","50","43110","59","yes","1024"
"85","85","728.2333333333333","728.2333333333333","black","legacy","legacy","legacy","0","congruent","uniform","1","undefined","1","s","59","0","0","0","59","0","59","0","59","0","0","0","59","59","59","59","Sun Sep 27 16:42:39 2020","1500","The main experiment item","yes","ab-Flankertask-1.osexp","C:/Users/Elaine/AppData/Roaming/Microsoft/Windows/Network Shortcuts","no","mono","no","18","no","white","no","yes","768","legacy","59","59","C:/Users/Elaine/Documents/E Beason/subject-4.csv","legacy","Lentiform Loewenfeld","3.3.3","0","s","NA","s","NA","NA","s","584","NA","2665","NA","NA","584","2","legacy","1024","2","48000","-16","experiment","SSSSS","4","even","132014","11161","NA","NA","65628","8470","NA","NA","133132","8495","NA","NA","133234","133819","133128","133234","Flanker task","51","43694","60","yes","1024"
"85.24590163934427","85.24590163934427","731.0327868852459","731.0327868852459","black","legacy","legacy","legacy","0","incongruent","uniform","1","undefined","1","s","60","0","0","0","60","0","60","0","60","0","0","0","60","60","60","60","Sun Sep 27 16:42:39 2020","1500","The main experiment item","yes","ab-Flankertask-1.osexp","C:/Users/Elaine/AppData/Roaming/Microsoft/Windows/Network Shortcuts","no","mono","no","18","no","white","no","yes","768","legacy","60","60","C:/Users/Elaine/Documents/E Beason/subject-4.csv","legacy","Lentiform Loewenfeld","3.3.3","0","s","NA","s","NA","NA","s","899","NA","2665","NA","NA","899","2","legacy","1024","2","48000","-16","experiment","HHSHH","4","even","133836","11161","NA","NA","65628","8470","NA","NA","134956","8495","NA","NA","135058","135959","134952","135058","Flanker task","52","44593","61","yes","1024"
"85.48387096774194","85.48387096774194","727.1290322580645","727.1290322580645","black","legacy","legacy","legacy","0","congruent","uniform","1","undefined","1","s","61","0","0","0","61","0","61","0","61","0","0","0","61","61","61","61","Sun Sep 27 16:42:39 2020","1500","The main experiment item","yes","ab-Flankertask-1.osexp","C:/Users/Elaine/AppData/Roaming/Microsoft/Windows/Network Shortcuts","no","mono","no","18","no","white","no","yes","768","legacy","61","61","C:/Users/Elaine/Documents/E Beason/subject-4.csv","legacy","Lentiform Loewenfeld","3.3.3","0","s","NA","s","NA","NA","s","489","NA","2665","NA","NA","489","2","legacy","1024","2","48000","-16","experiment","SSSSS","4","even","135970","11161","NA","NA","65628","8470","NA","NA","137096","8495","NA","NA","137198","137689","137093","137198","Flanker task","53","45082","62","yes","1024"
"85.71428571428571","85.71428571428571","727.2698412698413","727.2698412698413","black","legacy","legacy","legacy","0","incongruent","uniform","1","undefined","1","s","62","0","0","0","62","0","62","0","62","0","0","0","62","62","62","62","Sun Sep 27 16:42:39 2020","1500","The main experiment item","yes","ab-Flankertask-1.osexp","C:/Users/Elaine/AppData/Roaming/Microsoft/Windows/Network Shortcuts","no","mono","no","18","no","white","no","yes","768","legacy","62","62","C:/Users/Elaine/Documents/E Beason/subject-4.csv","legacy","Lentiform Loewenfeld","3.3.3","0","s","NA","s","NA","NA","s","736","NA","2665","NA","NA","736","2","legacy","1024","2","48000","-16","experiment","HHSHH","4","even","137698","11161","NA","NA","65628","8470","NA","NA","138809","8495","NA","NA","138912","139649","138806","138912","Flanker task","54","45818","63","yes","1024"
"85.9375","85.9375","724.03125","724.03125","black","legacy","legacy","legacy","0","incongruent","uniform","1","undefined","1","h","63","0","0","0","63","0","63","0","63","0","0","0","63","63","63","63","Sun Sep 27 16:42:39 2020","1500","The main experiment item","yes","ab-Flankertask-1.osexp","C:/Users/Elaine/AppData/Roaming/Microsoft/Windows/Network Shortcuts","no","mono","no","18","no","white","no","yes","768","legacy","63","63","C:/Users/Elaine/Documents/E Beason/subject-4.csv","legacy","Lentiform Loewenfeld","3.3.3","0","h","NA","s","NA","NA","h","520","NA","2665","NA","NA","520","2","legacy","1024","2","48000","-16","experiment","SSHSS","4","even","139665","11161","NA","NA","65628","8470","NA","NA","140785","8495","NA","NA","140888","141409","140781","140887","Flanker task","55","46338","64","yes","1024"
"86.15384615384616","86.15384615384616","721.276923076923","721.276923076923","black","legacy","legacy","legacy","0","congruent","uniform","1","undefined","1","h","64","0","0","0","64","0","64","0","64","0","0","0","64","64","64","64","Sun Sep 27 16:42:39 2020","1500","The main experiment item","yes","ab-Flankertask-1.osexp","C:/Users/Elaine/AppData/Roaming/Microsoft/Windows/Network Shortcuts","no","mono","no","18","no","white","no","yes","768","legacy","64","64","C:/Users/Elaine/Documents/E Beason/subject-4.csv","legacy","Lentiform Loewenfeld","3.3.3","0","h","NA","s","NA","NA","h","545","NA","2665","NA","NA","545","2","legacy","1024","2","48000","-16","experiment","HHHHH","4","even","141432","11161","NA","NA","65628","8470","NA","NA","142550","8495","NA","NA","142652","143199","142547","142652","Flanker task","56","46883","65","yes","1024"
"86.36363636363636","86.36363636363636","719.6969696969697","719.6969696969697","black","legacy","legacy","legacy","0","incongruent","uniform","1","undefined","1","s","65","0","0","0","65","0","65","0","65","0","0","0","65","65","65","65","Sun Sep 27 16:42:39 2020","1500","The main experiment item","yes","ab-Flankertask-1.osexp","C:/Users/Elaine/AppData/Roaming/Microsoft/Windows/Network Shortcuts","no","mono","no","18","no","white","no","yes","768","legacy","65","65","C:/Users/Elaine/Documents/E Beason/subject-4.csv","legacy","Lentiform Loewenfeld","3.3.3","0","s","NA","s","NA","NA","s","617","NA","2665","NA","NA","617","2","legacy","1024","2","48000","-16","experiment","HHSHH","4","even","143210","11161","NA","NA","65628","8470","NA","NA","144328","8495","NA","NA","144430","145049","144325","144430","Flanker task","57","47500","66","yes","1024"
"86.56716417910448","86.56716417910448","719.2985074626865","719.2985074626865","black","legacy","legacy","legacy","0","incongruent","uniform","1","undefined","1","s","66","0","0","0","66","0","66","0","66","0","0","0","66","66","66","66","Sun Sep 27 16:42:39 2020","1500","The main experiment item","yes","ab-Flankertask-1.osexp","C:/Users/Elaine/AppData/Roaming/Microsoft/Windows/Network Shortcuts","no","mono","no","18","no","white","no","yes","768","legacy","66","66","C:/Users/Elaine/Documents/E Beason/subject-4.csv","legacy","Lentiform Loewenfeld","3.3.3","0","s","NA","s","NA","NA","s","693","NA","2665","NA","NA","693","2","legacy","1024","2","48000","-16","experiment","HHSHH","4","even","145059","11161","NA","NA","65628","8470","NA","NA","146172","8495","NA","NA","146274","146968","146169","146274","Flanker task","58","48193","67","yes","1024"
"86.76470588235294","86.76470588235294","717.2647058823529","717.2647058823529","black","legacy","legacy","legacy","0","incongruent","uniform","1","undefined","1","h","67","0","0","0","67","0","67","0","67","0","0","0","67","67","67","67","Sun Sep 27 16:42:39 2020","1500","The main experiment item","yes","ab-Flankertask-1.osexp","C:/Users/Elaine/AppData/Roaming/Microsoft/Windows/Network Shortcuts","no","mono","no","18","no","white","no","yes","768","legacy","67","67","C:/Users/Elaine/Documents/E Beason/subject-4.csv","legacy","Lentiform Loewenfeld","3.3.3","0","h","NA","s","NA","NA","h","581","NA","2665","NA","NA","581","2","legacy","1024","2","48000","-16","experiment","SSHSS","4","even","146978","11161","NA","NA","65628","8470","NA","NA","148094","8495","NA","NA","148196","148778","148090","148196","Flanker task","59","48774","68","yes","1024"
"86.95652173913044","86.95652173913044","715.1884057971015","715.1884057971015","black","legacy","legacy","legacy","0","incongruent","uniform","1","undefined","1","s","68","0","0","0","68","0","68","0","68","0","0","0","68","68","68","68","Sun Sep 27 16:42:39 2020","1500","The main experiment item","yes","ab-Flankertask-1.osexp","C:/Users/Elaine/AppData/Roaming/Microsoft/Windows/Network Shortcuts","no","mono","no","18","no","white","no","yes","768","legacy","68","68","C:/Users/Elaine/Documents/E Beason/subject-4.csv","legacy","Lentiform Loewenfeld","3.3.3","0","s","NA","s","NA","NA","s","574","NA","2665","NA","NA","574","2","legacy","1024","2","48000","-16","experiment","HHSHH","4","even","148789","11161","NA","NA","65628","8470","NA","NA","149911","8495","NA","NA","150013","150589","149908","150013","Flanker task","60","49348","69","yes","1024"
"87.14285714285714","87.14285714285714","713.3571428571429","713.3571428571429","black","legacy","legacy","legacy","0","congruent","uniform","1","undefined","1","s","69","0","0","0","69","0","69","0","69","0","0","0","69","69","69","69","Sun Sep 27 16:42:39 2020","1500","The main experiment item","yes","ab-Flankertask-1.osexp","C:/Users/Elaine/AppData/Roaming/Microsoft/Windows/Network Shortcuts","no","mono","no","18","no","white","no","yes","768","legacy","69","69","C:/Users/Elaine/Documents/E Beason/subject-4.csv","legacy","Lentiform Loewenfeld","3.3.3","0","s","NA","s","NA","NA","s","587","NA","2665","NA","NA","587","2","legacy","1024","2","48000","-16","experiment","SSSSS","4","even","150605","11161","NA","NA","65628","8470","NA","NA","151719","8495","NA","NA","151821","152409","151716","151820","Flanker task","61","49935","70","yes","1024"
"87.32394366197182","87.32394366197182","713.1408450704225","713.1408450704225","black","legacy","legacy","legacy","0","congruent","uniform","1","undefined","1","h","70","0","0","0","70","0","70","0","70","0","0","0","70","70","70","70","Sun Sep 27 16:42:39 2020","1500","The main experiment item","yes","ab-Flankertask-1.osexp","C:/Users/Elaine/AppData/Roaming/Microsoft/Windows/Network Shortcuts","no","mono","no","18","no","white","no","yes","768","legacy","70","70","C:/Users/Elaine/Documents/E Beason/subject-4.csv","legacy","Lentiform Loewenfeld","3.3.3","0","h","NA","s","NA","NA","h","698","NA","2665","NA","NA","698","2","legacy","1024","2","48000","-16","experiment","HHHHH","4","even","152425","11161","NA","NA","65628","8470","NA","NA","153537","8495","NA","NA","153639","154338","153534","153639","Flanker task","62","50633","71","yes","1024"
"87.5","87.5","715.4305555555555","715.4305555555555","black","legacy","legacy","legacy","0","incongruent","uniform","1","undefined","1","h","71","0","0","0","71","0","71","0","71","0","0","0","71","71","71","71","Sun Sep 27 16:42:39 2020","1500","The main experiment item","yes","ab-Flankertask-1.osexp","C:/Users/Elaine/AppData/Roaming/Microsoft/Windows/Network Shortcuts","no","mono","no","18","no","white","no","yes","768","legacy","71","71","C:/Users/Elaine/Documents/E Beason/subject-4.csv","legacy","Lentiform Loewenfeld","3.3.3","0","h","NA","s","NA","NA","h","878","NA","2665","NA","NA","878","2","legacy","1024","2","48000","-16","experiment","SSHSS","4","even","154355","11161","NA","NA","65628","8470","NA","NA","155466","8495","NA","NA","155569","156449","155463","155569","Flanker task","63","51511","72","yes","1024"
"87.67123287671232","87.67123287671232","714.3287671232877","714.3287671232877","black","legacy","legacy","legacy","0","congruent","uniform","1","undefined","1","s","72","0","0","0","72","0","72","0","72","0","0","0","72","72","72","72","Sun Sep 27 16:42:39 2020","1500","The main experiment item","yes","ab-Flankertask-1.osexp","C:/Users/Elaine/AppData/Roaming/Microsoft/Windows/Network Shortcuts","no","mono","no","18","no","white","no","yes","768","legacy","72","72","C:/Users/Elaine/Documents/E Beason/subject-4.csv","legacy","Lentiform Loewenfeld","3.3.3","0","s","NA","s","NA","NA","s","635","NA","2665","NA","NA","635","2","legacy","1024","2","48000","-16","experiment","SSSSS","4","even","156478","11161","NA","NA","65628","8470","NA","NA","157610","8495","NA","NA","157712","158348","157604","157712","Flanker task","64","52146","73","yes","1024"
"87.83783783783784","87.83783783783784","717.0135135135135","717.0135135135135","black","legacy","legacy","legacy","0","congruent","uniform","1","undefined","1","h","73","0","0","0","73","0","73","0","73","0","0","0","73","73","73","73","Sun Sep 27 16:42:39 2020","1500","The main experiment item","yes","ab-Flankertask-1.osexp","C:/Users/Elaine/AppData/Roaming/Microsoft/Windows/Network Shortcuts","no","mono","no","18","no","white","no","yes","768","legacy","73","73","C:/Users/Elaine/Documents/E Beason/subject-4.csv","legacy","Lentiform Loewenfeld","3.3.3","0","h","NA","s","NA","NA","h","913","NA","2665","NA","NA","913","2","legacy","1024","2","48000","-16","experiment","HHHHH","4","even","158368","11161","NA","NA","65628","8470","NA","NA","159483","8495","NA","NA","159585","160500","159480","159585","Flanker task","65","53059","74","yes","1024"
"88","88","717.28","717.28","black","legacy","legacy","legacy","0","congruent","uniform","1","undefined","1","h","74","0","0","0","74","0","74","0","74","0","0","0","74","74","74","74","Sun Sep 27 16:42:39 2020","1500","The main experiment item","yes","ab-Flankertask-1.osexp","C:/Users/Elaine/AppData/Roaming/Microsoft/Windows/Network Shortcuts","no","mono","no","18","no","white","no","yes","768","legacy","74","74","C:/Users/Elaine/Documents/E Beason/subject-4.csv","legacy","Lentiform Loewenfeld","3.3.3","0","h","NA","s","NA","NA","h","737","NA","2665","NA","NA","737","2","legacy","1024","2","48000","-16","experiment","HHHHH","4","even","160512","11161","NA","NA","65628","8470","NA","NA","161628","8495","NA","NA","161730","162469","161624","161730","Flanker task","66","53796","75","yes","1024"
"88.15789473684211","88.15789473684211","715.2631578947369","715.2631578947369","black","legacy","legacy","legacy","0","congruent","uniform","1","undefined","1","s","75","0","0","0","75","0","75","0","75","0","0","0","75","75","75","75","Sun Sep 27 16:42:39 2020","1500","The main experiment item","yes","ab-Flankertask-1.osexp","C:/Users/Elaine/AppData/Roaming/Microsoft/Windows/Network Shortcuts","no","mono","no","18","no","white","no","yes","768","legacy","75","75","C:/Users/Elaine/Documents/E Beason/subject-4.csv","legacy","Lentiform Loewenfeld","3.3.3","0","s","NA","s","NA","NA","s","564","NA","2665","NA","NA","564","2","legacy","1024","2","48000","-16","experiment","SSSSS","4","even","162480","11161","NA","NA","65628","8470","NA","NA","163592","8495","NA","NA","163694","164259","163588","163694","Flanker task","67","54360","76","yes","1024"
"88.31168831168831","88.31168831168831","716.9090909090909","716.9090909090909","black","legacy","legacy","legacy","0","incongruent","uniform","1","undefined","1","h","76","0","0","0","76","0","76","0","76","0","0","0","76","76","76","76","Sun Sep 27 16:42:39 2020","1500","The main experiment item","yes","ab-Flankertask-1.osexp","C:/Users/Elaine/AppData/Roaming/Microsoft/Windows/Network Shortcuts","no","mono","no","18","no","white","no","yes","768","legacy","76","76","C:/Users/Elaine/Documents/E Beason/subject-4.csv","legacy","Lentiform Loewenfeld","3.3.3","0","h","NA","s","NA","NA","h","842","NA","2665","NA","NA","842","2","legacy","1024","2","48000","-16","experiment","SSHSS","4","even","164274","11161","NA","NA","65628","8470","NA","NA","165392","8495","NA","NA","165495","166339","165389","165495","Flanker task","68","55202","77","yes","1024"
"88.46153846153847","88.46153846153847","715.8846153846154","715.8846153846154","black","legacy","legacy","legacy","0","congruent","uniform","1","undefined","1","h","77","0","0","0","77","0","77","0","77","0","0","0","77","77","77","77","Sun Sep 27 16:42:39 2020","1500","The main experiment item","yes","ab-Flankertask-1.osexp","C:/Users/Elaine/AppData/Roaming/Microsoft/Windows/Network Shortcuts","no","mono","no","18","no","white","no","yes","768","legacy","77","77","C:/Users/Elaine/Documents/E Beason/subject-4.csv","legacy","Lentiform Loewenfeld","3.3.3","0","h","NA","s","NA","NA","h","637","NA","2665","NA","NA","637","2","legacy","1024","2","48000","-16","experiment","HHHHH","4","even","166358","11161","NA","NA","65628","8470","NA","NA","167498","8495","NA","NA","167600","168239","167495","167600","Flanker task","69","55839","78","yes","1024"
"87.34177215189874","87.34177215189874","715.4430379746835","715.4430379746835","black","legacy","legacy","legacy","0","incongruent","uniform","0","undefined","0","h","78","0","0","0","78","0","78","0","78","0","0","0","78","78","78","78","Sun Sep 27 16:42:39 2020","1500","The main experiment item","yes","ab-Flankertask-1.osexp","C:/Users/Elaine/AppData/Roaming/Microsoft/Windows/Network Shortcuts","no","mono","no","18","no","white","no","yes","768","legacy","78","78","C:/Users/Elaine/Documents/E Beason/subject-4.csv","legacy","Lentiform Loewenfeld","3.3.3","0","s","NA","s","NA","NA","s","681","NA","2665","NA","NA","681","2","legacy","1024","2","48000","-16","experiment","SSHSS","4","even","168249","11161","NA","NA","65628","8470","NA","NA","169365","8495","NA","NA","169467","170149","169362","169467","Flanker task","69","56520","79","yes","1024"
"87.5","87.5","719.0625","719.0625","black","legacy","legacy","legacy","0","congruent","uniform","1","undefined","1","s","79","0","0","0","79","0","79","0","79","0","0","0","79","79","79","79","Sun Sep 27 16:42:39 2020","1500","The main experiment item","yes","ab-Flankertask-1.osexp","C:/Users/Elaine/AppData/Roaming/Microsoft/Windows/Network Shortcuts","no","mono","no","18","no","white","no","yes","768","legacy","79","79","C:/Users/Elaine/Documents/E Beason/subject-4.csv","legacy","Lentiform Loewenfeld","3.3.3","0","s","NA","s","NA","NA","s","1005","NA","2665","NA","NA","1005","2","legacy","1024","2","48000","-16","experiment","SSSSS","4","even","170667","11161","NA","NA","170165","8470","NA","NA","171781","8495","NA","NA","171883","172889","171778","171883","Flanker task","70","57525","80","yes","1024"
"87.65432098765432","87.65432098765432","722.4938271604939","722.4938271604939","black","legacy","legacy","legacy","0","incongruent","uniform","1","undefined","1","s","80","0","0","0","80","0","80","0","80","0","0","0","80","80","80","80","Sun Sep 27 16:42:39 2020","600","The main experiment item","yes","ab-Flankertask-1.osexp","C:/Users/Elaine/AppData/Roaming/Microsoft/Windows/Network Shortcuts","no","mono","no","18","no","white","no","yes","768","legacy","0","79","C:/Users/Elaine/Documents/E Beason/subject-4.csv","legacy","Lentiform Loewenfeld","3.3.3","0","s","NA","s","s","NA","s","997","NA","2665","19712","NA","997","2","legacy","1024","2","48000","-16","experiment","HHSHH","4","even","172898","11161","193649","NA","170165","8470","NA","NA","193758","8495","173935","NA","193860","194858","193755","193860","Flanker task","71","58522","81","yes","1024"
"87.8048780487805","87.8048780487805","720.9268292682926","720.9268292682926","black","legacy","legacy","legacy","0","congruent","uniform","1","undefined","1","h","81","0","0","0","81","0","81","0","81","0","0","0","81","81","81","81","Sun Sep 27 16:42:39 2020","600","The main experiment item","yes","ab-Flankertask-1.osexp","C:/Users/Elaine/AppData/Roaming/Microsoft/Windows/Network Shortcuts","no","mono","no","18","no","white","no","yes","768","legacy","1","79","C:/Users/Elaine/Documents/E Beason/subject-4.csv","legacy","Lentiform Loewenfeld","3.3.3","0","h","NA","s","s","NA","h","594","NA","2665","19712","NA","594","2","legacy","1024","2","48000","-16","experiment","HHHHH","4","even","195367","11161","193649","NA","170165","8470","194866","NA","196481","8495","173935","NA","196583","197179","196477","196583","Flanker task","72","59116","82","yes","1024"
"87.95180722891567","87.95180722891567","718.4698795180723","718.4698795180723","black","legacy","legacy","legacy","0","congruent","uniform","1","undefined","1","h","82","0","0","0","82","0","82","0","82","0","0","0","82","82","82","82","Sun Sep 27 16:42:39 2020","600","The main experiment item","yes","ab-Flankertask-1.osexp","C:/Users/Elaine/AppData/Roaming/Microsoft/Windows/Network Shortcuts","no","mono","no","18","no","white","no","yes","768","legacy","2","79","C:/Users/Elaine/Documents/E Beason/subject-4.csv","legacy","Lentiform Loewenfeld","3.3.3","0","h","NA","s","s","NA","h","517","NA","2665","19712","NA","517","2","legacy","1024","2","48000","-16","experiment","HHHHH","4","even","197189","11161","193649","NA","170165","8470","194866","NA","198308","8495","173935","NA","198411","198929","198306","198410","Flanker task","73","59633","83","yes","1024"
"88.0952380952381","88.0952380952381","716.7738095238095","716.7738095238095","black","legacy","legacy","legacy","0","congruent","uniform","1","undefined","1","h","83","0","0","0","83","0","83","0","83","0","0","0","83","83","83","83","Sun Sep 27 16:42:39 2020","600","The main experiment item","yes","ab-Flankertask-1.osexp","C:/Users/Elaine/AppData/Roaming/Microsoft/Windows/Network Shortcuts","no","mono","no","18","no","white","no","yes","768","legacy","3","79","C:/Users/Elaine/Documents/E Beason/subject-4.csv","legacy","Lentiform Loewenfeld","3.3.3","0","h","NA","s","s","NA","h","576","NA","2665","19712","NA","576","2","legacy","1024","2","48000","-16","experiment","HHHHH","4","even","198938","11161","193649","NA","170165","8470","194866","NA","200050","8495","173935","NA","200152","200729","200046","200152","Flanker task","74","60209","84","yes","1024"
"88.23529411764706","88.23529411764706","712.7647058823529","712.7647058823529","black","legacy","legacy","legacy","0","congruent","uniform","1","undefined","1","s","84","0","0","0","84","0","84","0","84","0","0","0","84","84","84","84","Sun Sep 27 16:42:39 2020","600","The main experiment item","yes","ab-Flankertask-1.osexp","C:/Users/Elaine/AppData/Roaming/Microsoft/Windows/Network Shortcuts","no","mono","no","18","no","white","no","yes","768","legacy","4","79","C:/Users/Elaine/Documents/E Beason/subject-4.csv","legacy","Lentiform Loewenfeld","3.3.3","0","s","NA","s","s","NA","s","376","NA","2665","19712","NA","376","2","legacy","1024","2","48000","-16","experiment","SSSSS","4","even","200738","11161","193649","NA","170165","8470","194866","NA","201848","8495","173935","NA","201951","202328","201845","201951","Flanker task","75","60585","85","yes","1024"
"88.37209302325581","88.37209302325581","710.8488372093024","710.8488372093024","black","legacy","legacy","legacy","0","congruent","uniform","1","undefined","1","h","85","0","0","0","85","0","85","0","85","0","0","0","85","85","85","85","Sun Sep 27 16:42:39 2020","600","The main experiment item","yes","ab-Flankertask-1.osexp","C:/Users/Elaine/AppData/Roaming/Microsoft/Windows/Network Shortcuts","no","mono","no","18","no","white","no","yes","768","legacy","5","79","C:/Users/Elaine/Documents/E Beason/subject-4.csv","legacy","Lentiform Loewenfeld","3.3.3","0","h","NA","s","s","NA","h","548","NA","2665","19712","NA","548","2","legacy","1024","2","48000","-16","experiment","HHHHH","4","even","202344","11161","193649","NA","170165","8470","194866","NA","203457","8495","173935","NA","203559","204109","203454","203558","Flanker task","76","61133","86","yes","1024"
"88.50574712643679","88.50574712643679","711.0114942528736","711.0114942528736","black","legacy","legacy","legacy","0","incongruent","uniform","1","undefined","1","h","86","0","0","0","86","0","86","0","86","0","0","0","86","86","86","86","Sun Sep 27 16:42:39 2020","600","The main experiment item","yes","ab-Flankertask-1.osexp","C:/Users/Elaine/AppData/Roaming/Microsoft/Windows/Network Shortcuts","no","mono","no","18","no","white","no","yes","768","legacy","6","79","C:/Users/Elaine/Documents/E Beason/subject-4.csv","legacy","Lentiform Loewenfeld","3.3.3","0","h","NA","s","s","NA","h","725","NA","2665","19712","NA","725","2","legacy","1024","2","48000","-16","experiment","SSHSS","4","even","204117","11161","193649","NA","170165","8470","194866","NA","205239","8495","173935","NA","205341","206068","205235","205341","Flanker task","77","61858","87","yes","1024"
"88.63636363636364","88.63636363636364","709.8181818181819","709.8181818181819","black","legacy","legacy","legacy","0","incongruent","uniform","1","undefined","1","s","87","0","0","0","87","0","87","0","87","0","0","0","87","87","87","87","Sun Sep 27 16:42:39 2020","600","The main experiment item","yes","ab-Flankertask-1.osexp","C:/Users/Elaine/AppData/Roaming/Microsoft/Windows/Network Shortcuts","no","mono","no","18","no","white","no","yes","768","legacy","7","79","C:/Users/Elaine/Documents/E Beason/subject-4.csv","legacy","Lentiform Loewenfeld","3.3.3","0","s","NA","s","s","NA","s","606","NA","2665","19712","NA","606","2","legacy","1024","2","48000","-16","experiment","HHSHH","4","even","206592","11161","193649","NA","170165","8470","206091","NA","207709","8495","173935","NA","207811","208418","207706","207811","Flanker task","78","62464","88","yes","1024"
"88.76404494382022","88.76404494382022","707.8202247191011","707.8202247191011","black","legacy","legacy","legacy","0","congruent","uniform","1","undefined","1","h","88","0","0","0","88","0","88","0","88","0","0","0","88","88","88","88","Sun Sep 27 16:42:39 2020","600","The main experiment item","yes","ab-Flankertask-1.osexp","C:/Users/Elaine/AppData/Roaming/Microsoft/Windows/Network Shortcuts","no","mono","no","18","no","white","no","yes","768","legacy","8","79","C:/Users/Elaine/Documents/E Beason/subject-4.csv","legacy","Lentiform Loewenfeld","3.3.3","0","h","NA","s","s","NA","h","532","NA","2665","19712","NA","532","2","legacy","1024","2","48000","-16","experiment","HHHHH","4","even","208928","11161","193649","NA","170165","8470","208427","NA","210042","8495","173935","NA","210144","210678","210039","210143","Flanker task","79","62996","89","yes","1024"
"88.88888888888889","88.88888888888889","706.4666666666667","706.4666666666667","black","legacy","legacy","legacy","0","incongruent","uniform","1","undefined","1","s","89","0","0","0","89","0","89","0","89","0","0","0","89","89","89","89","Sun Sep 27 16:42:39 2020","600","The main experiment item","yes","ab-Flankertask-1.osexp","C:/Users/Elaine/AppData/Roaming/Microsoft/Windows/Network Shortcuts","no","mono","no","18","no","white","no","yes","768","legacy","9","79","C:/Users/Elaine/Documents/E Beason/subject-4.csv","legacy","Lentiform Loewenfeld","3.3.3","0","s","NA","s","s","NA","s","586","NA","2665","19712","NA","586","2","legacy","1024","2","48000","-16","experiment","HHSHH","4","even","210685","11161","193649","NA","170165","8470","208427","NA","211798","8495","173935","NA","211900","212487","211795","211899","Flanker task","80","63582","90","yes","1024"
"89.01098901098901","89.01098901098901","705.4395604395604","705.4395604395604","black","legacy","legacy","legacy","0","congruent","uniform","1","undefined","1","h","90","0","0","0","90","0","90","0","90","0","0","0","90","90","90","90","Sun Sep 27 16:42:39 2020","600","The main experiment item","yes","ab-Flankertask-1.osexp","C:/Users/Elaine/AppData/Roaming/Microsoft/Windows/Network Shortcuts","no","mono","no","18","no","white","no","yes","768","legacy","10","79","C:/Users/Elaine/Documents/E Beason/subject-4.csv","legacy","Lentiform Loewenfeld","3.3.3","0","h","NA","s","s","NA","h","613","NA","2665","19712","NA","613","2","legacy","1024","2","48000","-16","experiment","HHHHH","4","even","212502","11161","193649","NA","170165","8470","208427","NA","213611","8495","173935","NA","213713","214328","213608","213713","Flanker task","81","64195","91","yes","1024"
"88.04347826086956","88.04347826086956","703.3913043478261","703.3913043478261","black","legacy","legacy","legacy","0","incongruent","uniform","0","undefined","0","s","91","0","0","0","91","0","91","0","91","0","0","0","91","91","91","91","Sun Sep 27 16:42:39 2020","600","The main experiment item","yes","ab-Flankertask-1.osexp","C:/Users/Elaine/AppData/Roaming/Microsoft/Windows/Network Shortcuts","no","mono","no","18","no","white","no","yes","768","legacy","11","79","C:/Users/Elaine/Documents/E Beason/subject-4.csv","legacy","Lentiform Loewenfeld","3.3.3","0","h","NA","s","s","NA","h","517","NA","2665","19712","NA","517","2","legacy","1024","2","48000","-16","experiment","HHSHH","4","even","214839","11161","193649","NA","170165","8470","214337","NA","215946","8495","173935","NA","216049","216568","215944","216049","Flanker task","81","64712","92","yes","1024"
"88.17204301075269","88.17204301075269","700.8064516129032","700.8064516129032","black","legacy","legacy","legacy","0","congruent","uniform","1","undefined","1","s","92","0","0","0","92","0","92","0","92","0","0","0","92","92","92","92","Sun Sep 27 16:42:39 2020","600","The main experiment item","yes","ab-Flankertask-1.osexp","C:/Users/Elaine/AppData/Roaming/Microsoft/Windows/Network Shortcuts","no","mono","no","18","no","white","no","yes","768","legacy","12","79","C:/Users/Elaine/Documents/E Beason/subject-4.csv","legacy","Lentiform Loewenfeld","3.3.3","0","s","NA","s","s","NA","s","463","NA","2665","19712","NA","463","2","legacy","1024","2","48000","-16","experiment","SSSSS","4","even","217087","11161","193649","NA","216584","8470","214337","NA","218202","8495","173935","NA","218304","218768","218198","218303","Flanker task","82","65175","93","yes","1024"
"88.29787234042553","88.29787234042553","698.6914893617021","698.6914893617021","black","legacy","legacy","legacy","0","congruent","uniform","1","undefined","1","h","93","0","0","0","93","0","93","0","93","0","0","0","93","93","93","93","Sun Sep 27 16:42:39 2020","600","The main experiment item","yes","ab-Flankertask-1.osexp","C:/Users/Elaine/AppData/Roaming/Microsoft/Windows/Network Shortcuts","no","mono","no","18","no","white","no","yes","768","legacy","13","79","C:/Users/Elaine/Documents/E Beason/subject-4.csv","legacy","Lentiform Loewenfeld","3.3.3","0","h","NA","s","s","NA","h","502","NA","2665","19712","NA","502","2","legacy","1024","2","48000","-16","experiment","HHHHH","4","even","218777","11161","193649","NA","216584","8470","214337","NA","219902","8495","173935","NA","220004","220507","219899","220004","Flanker task","83","65677","94","yes","1024"
"88.42105263157895","88.42105263157895","696.7789473684211","696.7789473684211","black","legacy","legacy","legacy","0","congruent","uniform","1","undefined","1","s","94","0","0","0","94","0","94","0","94","0","0","0","94","94","94","94","Sun Sep 27 16:42:39 2020","600","The main experiment item","yes","ab-Flankertask-1.osexp","C:/Users/Elaine/AppData/Roaming/Microsoft/Windows/Network Shortcuts","no","mono","no","18","no","white","no","yes","768","legacy","14","79","C:/Users/Elaine/Documents/E Beason/subject-4.csv","legacy","Lentiform Loewenfeld","3.3.3","0","s","NA","s","s","NA","s","517","NA","2665","19712","NA","517","2","legacy","1024","2","48000","-16","experiment","SSSSS","4","even","220517","11161","193649","NA","216584","8470","214337","NA","221627","8495","173935","NA","221729","222248","221623","221728","Flanker task","84","66194","95","yes","1024"
"88.54166666666667","88.54166666666667","694.8020833333334","694.8020833333334","black","legacy","legacy","legacy","0","congruent","uniform","1","undefined","1","s","95","0","0","0","95","0","95","0","95","0","0","0","95","95","95","95","Sun Sep 27 16:42:39 2020","600","The main experiment item","yes","ab-Flankertask-1.osexp","C:/Users/Elaine/AppData/Roaming/Microsoft/Windows/Network Shortcuts","no","mono","no","18","no","white","no","yes","768","legacy","15","79","C:/Users/Elaine/Documents/E Beason/subject-4.csv","legacy","Lentiform Loewenfeld","3.3.3","0","s","NA","s","s","NA","s","507","NA","2665","19712","NA","507","2","legacy","1024","2","48000","-16","experiment","SSSSS","4","even","222264","11161","193649","NA","216584","8470","214337","NA","223377","8495","173935","NA","223479","223987","223373","223478","Flanker task","85","66701","96","yes","1024"
"87.62886597938144","87.62886597938144","693.4226804123712","693.4226804123712","black","legacy","legacy","legacy","0","incongruent","uniform","0","undefined","0","h","96","0","0","0","96","0","96","0","96","0","0","0","96","96","96","96","Sun Sep 27 16:42:39 2020","600","The main experiment item","yes","ab-Flankertask-1.osexp","C:/Users/Elaine/AppData/Roaming/Microsoft/Windows/Network Shortcuts","no","mono","no","18","no","white","no","yes","768","legacy","16","79","C:/Users/Elaine/Documents/E Beason/subject-4.csv","legacy","Lentiform Loewenfeld","3.3.3","0","s","NA","s","s","NA","s","561","NA","2665","19712","NA","561","2","legacy","1024","2","48000","-16","experiment","SSHSS","4","even","223994","11161","193649","NA","216584","8470","214337","NA","225103","8495","173935","NA","225205","225768","225100","225204","Flanker task","85","67262","97","yes","1024"
"87.75510204081633","87.75510204081633","691.8469387755102","691.8469387755102","black","legacy","legacy","legacy","0","congruent","uniform","1","undefined","1","h","97","0","0","0","97","0","97","0","97","0","0","0","97","97","97","97","Sun Sep 27 16:42:39 2020","600","The main experiment item","yes","ab-Flankertask-1.osexp","C:/Users/Elaine/AppData/Roaming/Microsoft/Windows/Network Shortcuts","no","mono","no","18","no","white","no","yes","768","legacy","17","79","C:/Users/Elaine/Documents/E Beason/subject-4.csv","legacy","Lentiform Loewenfeld","3.3.3","0","h","NA","s","s","NA","h","539","NA","2665","19712","NA","539","2","legacy","1024","2","48000","-16","experiment","HHHHH","4","even","226286","11161","193649","NA","225785","8470","214337","NA","227405","8495","173935","NA","227507","228048","227402","227506","Flanker task","86","67801","98","yes","1024"
"87.87878787878788","87.87878787878788","690.3636363636364","690.3636363636364","black","legacy","legacy","legacy","0","congruent","uniform","1","undefined","1","s","98","0","0","0","98","0","98","0","98","0","0","0","98","98","98","98","Sun Sep 27 16:42:39 2020","600","The main experiment item","yes","ab-Flankertask-1.osexp","C:/Users/Elaine/AppData/Roaming/Microsoft/Windows/Network Shortcuts","no","mono","no","18","no","white","no","yes","768","legacy","18","79","C:/Users/Elaine/Documents/E Beason/subject-4.csv","legacy","Lentiform Loewenfeld","3.3.3","0","s","NA","s","s","NA","s","545","NA","2665","19712","NA","545","2","legacy","1024","2","48000","-16","experiment","SSSSS","4","even","228056","11161","193649","NA","225785","8470","214337","NA","229169","8495","173935","NA","229271","229819","229166","229271","Flanker task","87","68346","99","yes","1024"
"88","88","690.94","690.94","black","legacy","legacy","legacy","0","incongruent","uniform","1","undefined","1","h","99","0","0","0","99","0","99","0","99","0","0","0","99","99","99","99","Sun Sep 27 16:42:39 2020","600","The main experiment item","yes","ab-Flankertask-1.osexp","C:/Users/Elaine/AppData/Roaming/Microsoft/Windows/Network Shortcuts","no","mono","no","18","no","white","no","yes","768","legacy","19","79","C:/Users/Elaine/Documents/E Beason/subject-4.csv","legacy","Lentiform Loewenfeld","3.3.3","0","h","NA","s","s","NA","h","748","NA","2665","19712","NA","748","2","legacy","1024","2","48000","-16","experiment","SSHSS","4","even","229830","11161","193649","NA","225785","8470","214337","NA","230945","8495","173935","NA","231048","231797","230942","231048","Flanker task","88","69094","100","yes","1024"
"88.11881188118812","88.11881188118812","689.8316831683169","689.8316831683169","black","legacy","legacy","legacy","0","congruent","uniform","1","undefined","1","s","100","0","0","0","100","0","100","0","100","0","0","0","100","100","100","100","Sun Sep 27 16:42:39 2020","600","The main experiment item","yes","ab-Flankertask-1.osexp","C:/Users/Elaine/AppData/Roaming/Microsoft/Windows/Network Shortcuts","no","mono","no","18","no","white","no","yes","768","legacy","20","79","C:/Users/Elaine/Documents/E Beason/subject-4.csv","legacy","Lentiform Loewenfeld","3.3.3","0","s","NA","s","s","NA","s","579","NA","2665","19712","NA","579","2","legacy","1024","2","48000","-16","experiment","SSSSS","4","even","232307","11161","193649","NA","225785","8470","231806","NA","233426","8495","173935","NA","233528","234108","233423","233527","Flanker task","89","69673","101","yes","1024"
"88.23529411764706","88.23529411764706","689.4705882352941","689.4705882352941","black","legacy","legacy","legacy","0","incongruent","uniform","1","undefined","1","h","101","0","0","0","101","0","101","0","101","0","0","0","101","101","101","101","Sun Sep 27 16:42:39 2020","600","The main experiment item","yes","ab-Flankertask-1.osexp","C:/Users/Elaine/AppData/Roaming/Microsoft/Windows/Network Shortcuts","no","mono","no","18","no","white","no","yes","768","legacy","21","79","C:/Users/Elaine/Documents/E Beason/subject-4.csv","legacy","Lentiform Loewenfeld","3.3.3","0","h","NA","s","s","NA","h","653","NA","2665","19712","NA","653","2","legacy","1024","2","48000","-16","experiment","SSHSS","4","even","234125","11161","193649","NA","225785","8470","231806","NA","235241","8495","173935","NA","235343","235998","235237","235343","Flanker task","90","70326","102","yes","1024"
"88.3495145631068","88.3495145631068","688.0776699029126","688.0776699029126","black","legacy","legacy","legacy","0","congruent","uniform","1","undefined","1","h","102","0","0","0","102","0","102","0","102","0","0","0","102","102","102","102","Sun Sep 27 16:42:39 2020","600","The main experiment item","yes","ab-Flankertask-1.osexp","C:/Users/Elaine/AppData/Roaming/Microsoft/Windows/Network Shortcuts","no","mono","no","18","no","white","no","yes","768","legacy","22","79","C:/Users/Elaine/Documents/E Beason/subject-4.csv","legacy","Lentiform Loewenfeld","3.3.3","0","h","NA","s","s","NA","h","546","NA","2665","19712","NA","546","2","legacy","1024","2","48000","-16","experiment","HHHHH","4","even","236510","11161","193649","NA","225785","8470","236008","NA","237629","8495","173935","NA","237731","238278","237626","237731","Flanker task","91","70872","103","yes","1024"
"87.5","87.5","686.7788461538462","686.7788461538462","black","legacy","legacy","legacy","0","incongruent","uniform","0","undefined","0","s","103","0","0","0","103","0","103","0","103","0","0","0","103","103","103","103","Sun Sep 27 16:42:39 2020","600","The main experiment item","yes","ab-Flankertask-1.osexp","C:/Users/Elaine/AppData/Roaming/Microsoft/Windows/Network Shortcuts","no","mono","no","18","no","white","no","yes","768","legacy","23","79","C:/Users/Elaine/Documents/E Beason/subject-4.csv","legacy","Lentiform Loewenfeld","3.3.3","0","h","NA","s","s","NA","h","553","NA","2665","19712","NA","553","2","legacy","1024","2","48000","-16","experiment","HHSHH","4","even","238287","11161","193649","NA","225785","8470","236008","NA","239402","8495","173935","NA","239504","240058","239399","239503","Flanker task","91","71425","104","yes","1024"
"87.61904761904762","87.61904761904762","685.9333333333333","685.9333333333333","black","legacy","legacy","legacy","0","incongruent","uniform","1","undefined","1","s","104","0","0","0","104","0","104","0","104","0","0","0","104","104","104","104","Sun Sep 27 16:42:39 2020","600","The main experiment item","yes","ab-Flankertask-1.osexp","C:/Users/Elaine/AppData/Roaming/Microsoft/Windows/Network Shortcuts","no","mono","no","18","no","white","no","yes","768","legacy","24","79","C:/Users/Elaine/Documents/E Beason/subject-4.csv","legacy","Lentiform Loewenfeld","3.3.3","0","s","NA","s","s","NA","s","598","NA","2665","19712","NA","598","2","legacy","1024","2","48000","-16","experiment","HHSHH","4","even","240569","11161","193649","NA","240067","8470","236008","NA","241697","8495","173935","NA","241799","242399","241693","241798","Flanker task","92","72023","105","yes","1024"
"87.73584905660377","87.73584905660377","684.7075471698113","684.7075471698113","black","legacy","legacy","legacy","0","congruent","uniform","1","undefined","1","s","105","0","0","0","105","0","105","0","105","0","0","0","105","105","105","105","Sun Sep 27 16:42:39 2020","600","The main experiment item","yes","ab-Flankertask-1.osexp","C:/Users/Elaine/AppData/Roaming/Microsoft/Windows/Network Shortcuts","no","mono","no","18","no","white","no","yes","768","legacy","25","79","C:/Users/Elaine/Documents/E Beason/subject-4.csv","legacy","Lentiform Loewenfeld","3.3.3","0","s","NA","s","s","NA","s","556","NA","2665","19712","NA","556","2","legacy","1024","2","48000","-16","experiment","SSSSS","4","even","242415","11161","193649","NA","240067","8470","236008","NA","243527","8495","173935","NA","243630","244188","243524","243630","Flanker task","93","72579","106","yes","1024"
"87.85046728971963","87.85046728971963","683.1214953271028","683.1214953271028","black","legacy","legacy","legacy","0","incongruent","uniform","1","undefined","1","s","106","0","0","0","106","0","106","0","106","0","0","0","106","106","106","106","Sun Sep 27 16:42:39 2020","600","The main experiment item","yes","ab-Flankertask-1.osexp","C:/Users/Elaine/AppData/Roaming/Microsoft/Windows/Network Shortcuts","no","mono","no","18","no","white","no","yes","768","legacy","26","79","C:/Users/Elaine/Documents/E Beason/subject-4.csv","legacy","Lentiform Loewenfeld","3.3.3","0","s","NA","s","s","NA","s","515","NA","2665","19712","NA","515","2","legacy","1024","2","48000","-16","experiment","HHSHH","4","even","244204","11161","193649","NA","240067","8470","236008","NA","245320","8495","173935","NA","245422","245938","245317","245422","Flanker task","94","73094","107","yes","1024"
"87.03703703703704","87.03703703703704","681.2592592592592","681.2592592592592","black","legacy","legacy","legacy","0","congruent","uniform","0","undefined","0","h","107","0","0","0","107","0","107","0","107","0","0","0","107","107","107","107","Sun Sep 27 16:42:39 2020","600","The main experiment item","yes","ab-Flankertask-1.osexp","C:/Users/Elaine/AppData/Roaming/Microsoft/Windows/Network Shortcuts","no","mono","no","18","no","white","no","yes","768","legacy","27","79","C:/Users/Elaine/Documents/E Beason/subject-4.csv","legacy","Lentiform Loewenfeld","3.3.3","0","s","NA","s","s","NA","s","482","NA","2665","19712","NA","482","2","legacy","1024","2","48000","-16","experiment","HHHHH","4","even","245954","11161","193649","NA","240067","8470","236008","NA","247063","8495","173935","NA","247165","247648","247060","247165","Flanker task","94","73576","108","yes","1024"
"87.1559633027523","87.1559633027523","681.1651376146789","681.1651376146789","black","legacy","legacy","legacy","0","congruent","uniform","1","undefined","1","s","108","0","0","0","108","0","108","0","108","0","0","0","108","108","108","108","Sun Sep 27 16:42:39 2020","600","The main experiment item","yes","ab-Flankertask-1.osexp","C:/Users/Elaine/AppData/Roaming/Microsoft/Windows/Network Shortcuts","no","mono","no","18","no","white","no","yes","768","legacy","28","79","C:/Users/Elaine/Documents/E Beason/subject-4.csv","legacy","Lentiform Loewenfeld","3.3.3","0","s","NA","s","s","NA","s","671","NA","2665","19712","NA","671","2","legacy","1024","2","48000","-16","experiment","SSSSS","4","even","248159","11161","193649","NA","247657","8470","236008","NA","249273","8495","173935","NA","249375","250048","249270","249375","Flanker task","95","74247","109","yes","1024"
"86.36363636363636","86.36363636363636","679.5727272727273","679.5727272727273","black","legacy","legacy","legacy","0","congruent","uniform","0","undefined","0","s","109","0","0","0","109","0","109","0","109","0","0","0","109","109","109","109","Sun Sep 27 16:42:39 2020","600","The main experiment item","yes","ab-Flankertask-1.osexp","C:/Users/Elaine/AppData/Roaming/Microsoft/Windows/Network Shortcuts","no","mono","no","18","no","white","no","yes","768","legacy","29","79","C:/Users/Elaine/Documents/E Beason/subject-4.csv","legacy","Lentiform Loewenfeld","3.3.3","0","h","NA","s","s","NA","h","506","NA","2665","19712","NA","506","2","legacy","1024","2","48000","-16","experiment","SSSSS","4","even","250560","11161","193649","NA","247657","8470","250058","NA","251679","8495","173935","NA","251781","252289","251676","251781","Flanker task","95","74753","110","yes","1024"
"85.58558558558559","85.58558558558559","677.027027027027","677.027027027027","black","legacy","legacy","legacy","0","incongruent","uniform","0","undefined","0","h","110","0","0","0","110","0","110","0","110","0","0","0","110","110","110","110","Sun Sep 27 16:42:39 2020","600","The main experiment item","yes","ab-Flankertask-1.osexp","C:/Users/Elaine/AppData/Roaming/Microsoft/Windows/Network Shortcuts","no","mono","no","18","no","white","no","yes","768","legacy","30","79","C:/Users/Elaine/Documents/E Beason/subject-4.csv","legacy","Lentiform Loewenfeld","3.3.3","0","s","NA","s","s","NA","s","397","NA","2665","19712","NA","397","2","legacy","1024","2","48000","-16","experiment","SSHSS","4","even","252802","11161","193649","NA","252300","8470","250058","NA","253917","8495","173935","NA","254019","254418","253913","254018","Flanker task","95","75150","111","yes","1024"
"85.71428571428571","85.71428571428571","677.0982142857143","677.0982142857143","black","legacy","legacy","legacy","0","incongruent","uniform","1","undefined","1","s","111","0","0","0","111","0","111","0","111","0","0","0","111","111","111","111","Sun Sep 27 16:42:39 2020","600","The main experiment item","yes","ab-Flankertask-1.osexp","C:/Users/Elaine/AppData/Roaming/Microsoft/Windows/Network Shortcuts","no","mono","no","18","no","white","no","yes","768","legacy","31","79","C:/Users/Elaine/Documents/E Beason/subject-4.csv","legacy","Lentiform Loewenfeld","3.3.3","0","s","NA","s","s","NA","s","685","NA","2665","19712","NA","685","2","legacy","1024","2","48000","-16","experiment","HHSHH","4","even","254935","11161","193649","NA","254434","8470","250058","NA","256050","8495","173935","NA","256152","256839","256047","256152","Flanker task","96","75835","112","yes","1024"
"85.84070796460178","85.84070796460178","675.4601769911504","675.4601769911504","black","legacy","legacy","legacy","0","incongruent","uniform","1","undefined","1","s","112","0","0","0","112","0","112","0","112","0","0","0","112","112","112","112","Sun Sep 27 16:42:39 2020","600","The main experiment item","yes","ab-Flankertask-1.osexp","C:/Users/Elaine/AppData/Roaming/Microsoft/Windows/Network Shortcuts","no","mono","no","18","no","white","no","yes","768","legacy","32","79","C:/Users/Elaine/Documents/E Beason/subject-4.csv","legacy","Lentiform Loewenfeld","3.3.3","0","s","NA","s","s","NA","s","492","NA","2665","19712","NA","492","2","legacy","1024","2","48000","-16","experiment","HHSHH","4","even","257360","11161","193649","NA","254434","8470","256858","NA","258472","8495","173935","NA","258574","259068","258469","258573","Flanker task","97","76327","113","yes","1024"
"85.96491228070175","85.96491228070175","673.8947368421053","673.8947368421053","black","legacy","legacy","legacy","0","congruent","uniform","1","undefined","1","h","113","0","0","0","113","0","113","0","113","0","0","0","113","113","113","113","Sun Sep 27 16:42:39 2020","600","The main experiment item","yes","ab-Flankertask-1.osexp","C:/Users/Elaine/AppData/Roaming/Microsoft/Windows/Network Shortcuts","no","mono","no","18","no","white","no","yes","768","legacy","33","79","C:/Users/Elaine/Documents/E Beason/subject-4.csv","legacy","Lentiform Loewenfeld","3.3.3","0","h","NA","s","s","NA","h","497","NA","2665","19712","NA","497","2","legacy","1024","2","48000","-16","experiment","HHHHH","4","even","259077","11161","193649","NA","254434","8470","256858","NA","260197","8495","173935","NA","260299","260799","260193","260299","Flanker task","98","76824","114","yes","1024"
"85.21739130434783","85.21739130434783","673.2260869565217","673.2260869565217","black","legacy","legacy","legacy","0","incongruent","uniform","0","undefined","0","h","114","0","0","0","114","0","114","0","114","0","0","0","114","114","114","114","Sun Sep 27 16:42:39 2020","600","The main experiment item","yes","ab-Flankertask-1.osexp","C:/Users/Elaine/AppData/Roaming/Microsoft/Windows/Network Shortcuts","no","mono","no","18","no","white","no","yes","768","legacy","34","79","C:/Users/Elaine/Documents/E Beason/subject-4.csv","legacy","Lentiform Loewenfeld","3.3.3","0","s","NA","s","s","NA","s","597","NA","2665","19712","NA","597","2","legacy","1024","2","48000","-16","experiment","SSHSS","4","even","260815","11161","193649","NA","254434","8470","256858","NA","261937","8495","173935","NA","262039","262638","261934","262039","Flanker task","98","77421","115","yes","1024"
