"acc","accuracy","average_response_time","avg_rt","background","canvas_backend","clock_backend","color_backend","compensation","condition","coordinates","correct","correct_instructions1","correct_keyboard_response","correct_response","count_InterStimulusInterval","count_block1","count_block2","count_block3","count_errorFeedback","count_experiment","count_faster","count_finish","count_fixation","count_instructions1","count_instructions2","count_instructions3","count_keyboard_response","count_logger","count_sequence","count_stimulus","datetime","deadline","description","disable_garbage_collection","experiment_file","experiment_path","font_bold","font_family","font_italic","font_size","font_underline","foreground","form_clicks","fullscreen","height","keyboard_backend","live_row","live_row_block1","logfile","mouse_backend","opensesame_codename","opensesame_version","repeat_cycle","response","response_finish","response_instructions1","response_instructions2","response_instructions3","response_keyboard_response","response_time","response_time_finish","response_time_instructions1","response_time_instructions2","response_time_instructions3","response_time_keyboard_response","round_decimals","sampler_backend","sound_buf_size","sound_channels","sound_freq","sound_sample_size","start","stimulus","subject_nr","subject_parity","time_InterStimulusInterval","time_block1","time_block2","time_block3","time_errorFeedback","time_experiment","time_faster","time_finish","time_fixation","time_instructions1","time_instructions2","time_instructions3","time_keyboard_response","time_logger","time_sequence","time_stimulus","title","total_correct","total_response_time","total_responses","uniform_coordinates","width"
"100","100","1233","1233","black","legacy","legacy","legacy","0","congruent","uniform","1","undefined","1","s","0","0","0","0","0","0","0","0","0","0","0","0","0","0","0","0","09/26/21 13:03:20","1500","The main experiment item","yes","FlankerTask.osexp","C:\Users\suici\Desktop\Tarleton\Fall 2021 - Graduate Studies\PSYC 5316-010 Advanced Quantitative Methods & Experiment Design\Lab 2 - the flanker task (an experiment on attention)","no","mono","no","18","no","white","no","yes","768","legacy","0","0","C:/Users/suici/Desktop/Tarleton/Fall 2021 - Graduate Studies/PSYC 5316-010 Advanced Quantitative Methods & Experiment Design/Lab 2 - the flanker task (an experiment on attention)/SM-subject-2.csv","legacy","Lentiform Loewenfeld","3.3.9","0","s","NA","s","NA","NA","s","1233","NA","100264","NA","NA","1233","2","legacy","1024","2","48000","-16","experiment","SSSSS","2","even","NA","101671","NA","NA","NA","1404","NA","NA","101705","1406","NA","NA","101805","103038","101704","101805","Flanker Task","1","1233","1","yes","1024"
"50","50","1366.5","1366.5","black","legacy","legacy","legacy","0","incongruent","uniform","0","undefined","0","s","1","0","0","0","1","0","1","0","1","0","0","0","1","1","1","1","09/26/21 13:03:20","1500","The main experiment item","yes","FlankerTask.osexp","C:\Users\suici\Desktop\Tarleton\Fall 2021 - Graduate Studies\PSYC 5316-010 Advanced Quantitative Methods & Experiment Design\Lab 2 - the flanker task (an experiment on attention)","no","mono","no","18","no","white","no","yes","768","legacy","1","1","C:/Users/suici/Desktop/Tarleton/Fall 2021 - Graduate Studies/PSYC 5316-010 Advanced Quantitative Methods & Experiment Design/Lab 2 - the flanker task (an experiment on attention)/SM-subject-2.csv","legacy","Lentiform Loewenfeld","3.3.9","0","None","NA","s","NA","NA","None","1500","NA","100264","NA","NA","1500","2","legacy","1024","2","48000","-16","experiment","HHSHH","2","even","103041","101671","NA","NA","NA","1404","NA","NA","104069","1406","NA","NA","104170","105670","104068","104170","Flanker Task","1","2733","2","yes","1024"
"66.6666666667","66.6666666667","1160.66666667","1160.66666667","black","legacy","legacy","legacy","0","incongruent","uniform","1","undefined","1","h","2","0","0","0","2","0","2","0","2","0","0","0","2","2","2","2","09/26/21 13:03:20","1500","The main experiment item","yes","FlankerTask.osexp","C:\Users\suici\Desktop\Tarleton\Fall 2021 - Graduate Studies\PSYC 5316-010 Advanced Quantitative Methods & Experiment Design\Lab 2 - the flanker task (an experiment on attention)","no","mono","no","18","no","white","no","yes","768","legacy","2","2","C:/Users/suici/Desktop/Tarleton/Fall 2021 - Graduate Studies/PSYC 5316-010 Advanced Quantitative Methods & Experiment Design/Lab 2 - the flanker task (an experiment on attention)/SM-subject-2.csv","legacy","Lentiform Loewenfeld","3.3.9","0","h","NA","s","NA","NA","h","749","NA","100264","NA","NA","749","2","legacy","1024","2","48000","-16","experiment","SSHSS","2","even","106171","101671","NA","NA","105671","1404","NA","NA","107198","1406","NA","NA","107298","108047","107197","107298","Flanker Task","2","3482","3","yes","1024"
"75","75","1028","1028","black","legacy","legacy","legacy","0","incongruent","uniform","1","undefined","1","s","3","0","0","0","3","0","3","0","3","0","0","0","3","3","3","3","09/26/21 13:03:20","1500","The main experiment item","yes","FlankerTask.osexp","C:\Users\suici\Desktop\Tarleton\Fall 2021 - Graduate Studies\PSYC 5316-010 Advanced Quantitative Methods & Experiment Design\Lab 2 - the flanker task (an experiment on attention)","no","mono","no","18","no","white","no","yes","768","legacy","3","3","C:/Users/suici/Desktop/Tarleton/Fall 2021 - Graduate Studies/PSYC 5316-010 Advanced Quantitative Methods & Experiment Design/Lab 2 - the flanker task (an experiment on attention)/SM-subject-2.csv","legacy","Lentiform Loewenfeld","3.3.9","0","s","NA","s","NA","NA","s","630","NA","100264","NA","NA","630","2","legacy","1024","2","48000","-16","experiment","HHSHH","2","even","108049","101671","NA","NA","105671","1404","NA","NA","109076","1406","NA","NA","109176","109806","109075","109176","Flanker Task","3","4112","4","yes","1024"
"80","80","959.8","959.8","black","legacy","legacy","legacy","0","congruent","uniform","1","undefined","1","s","4","0","0","0","4","0","4","0","4","0","0","0","4","4","4","4","09/26/21 13:03:20","1500","The main experiment item","yes","FlankerTask.osexp","C:\Users\suici\Desktop\Tarleton\Fall 2021 - Graduate Studies\PSYC 5316-010 Advanced Quantitative Methods & Experiment Design\Lab 2 - the flanker task (an experiment on attention)","no","mono","no","18","no","white","no","yes","768","legacy","4","4","C:/Users/suici/Desktop/Tarleton/Fall 2021 - Graduate Studies/PSYC 5316-010 Advanced Quantitative Methods & Experiment Design/Lab 2 - the flanker task (an experiment on attention)/SM-subject-2.csv","legacy","Lentiform Loewenfeld","3.3.9","0","s","NA","s","NA","NA","s","687","NA","100264","NA","NA","687","2","legacy","1024","2","48000","-16","experiment","SSSSS","2","even","109808","101671","NA","NA","105671","1404","NA","NA","110835","1406","NA","NA","110935","111623","110834","110935","Flanker Task","4","4799","5","yes","1024"
"83.3333333333","83.3333333333","921","921","black","legacy","legacy","legacy","0","congruent","uniform","1","undefined","1","h","5","0","0","0","5","0","5","0","5","0","0","0","5","5","5","5","09/26/21 13:03:20","1500","The main experiment item","yes","FlankerTask.osexp","C:\Users\suici\Desktop\Tarleton\Fall 2021 - Graduate Studies\PSYC 5316-010 Advanced Quantitative Methods & Experiment Design\Lab 2 - the flanker task (an experiment on attention)","no","mono","no","18","no","white","no","yes","768","legacy","5","5","C:/Users/suici/Desktop/Tarleton/Fall 2021 - Graduate Studies/PSYC 5316-010 Advanced Quantitative Methods & Experiment Design/Lab 2 - the flanker task (an experiment on attention)/SM-subject-2.csv","legacy","Lentiform Loewenfeld","3.3.9","0","h","NA","s","NA","NA","h","727","NA","100264","NA","NA","727","2","legacy","1024","2","48000","-16","experiment","HHHHH","2","even","111624","101671","NA","NA","105671","1404","NA","NA","112651","1406","NA","NA","112751","113478","112650","112751","Flanker Task","5","5526","6","yes","1024"
"85.7142857143","85.7142857143","894.428571429","894.428571429","black","legacy","legacy","legacy","0","incongruent","uniform","1","undefined","1","h","6","0","0","0","6","0","6","0","6","0","0","0","6","6","6","6","09/26/21 13:03:20","1500","The main experiment item","yes","FlankerTask.osexp","C:\Users\suici\Desktop\Tarleton\Fall 2021 - Graduate Studies\PSYC 5316-010 Advanced Quantitative Methods & Experiment Design\Lab 2 - the flanker task (an experiment on attention)","no","mono","no","18","no","white","no","yes","768","legacy","6","6","C:/Users/suici/Desktop/Tarleton/Fall 2021 - Graduate Studies/PSYC 5316-010 Advanced Quantitative Methods & Experiment Design/Lab 2 - the flanker task (an experiment on attention)/SM-subject-2.csv","legacy","Lentiform Loewenfeld","3.3.9","0","h","NA","s","NA","NA","h","735","NA","100264","NA","NA","735","2","legacy","1024","2","48000","-16","experiment","SSHSS","2","even","113480","101671","NA","NA","105671","1404","NA","NA","114507","1406","NA","NA","114607","115342","114506","114607","Flanker Task","6","6261","7","yes","1024"
"87.5","87.5","880.375","880.375","black","legacy","legacy","legacy","0","congruent","uniform","1","undefined","1","h","7","0","0","0","7","0","7","0","7","0","0","0","7","7","7","7","09/26/21 13:03:20","1500","The main experiment item","yes","FlankerTask.osexp","C:\Users\suici\Desktop\Tarleton\Fall 2021 - Graduate Studies\PSYC 5316-010 Advanced Quantitative Methods & Experiment Design\Lab 2 - the flanker task (an experiment on attention)","no","mono","no","18","no","white","no","yes","768","legacy","7","7","C:/Users/suici/Desktop/Tarleton/Fall 2021 - Graduate Studies/PSYC 5316-010 Advanced Quantitative Methods & Experiment Design/Lab 2 - the flanker task (an experiment on attention)/SM-subject-2.csv","legacy","Lentiform Loewenfeld","3.3.9","0","h","NA","s","NA","NA","h","782","NA","100264","NA","NA","782","2","legacy","1024","2","48000","-16","experiment","HHHHH","2","even","115344","101671","NA","NA","105671","1404","NA","NA","116380","1406","NA","NA","116480","117263","116379","116480","Flanker Task","7","7043","8","yes","1024"
"88.8888888889","88.8888888889","846.555555556","846.555555556","black","legacy","legacy","legacy","0","congruent","uniform","1","undefined","1","h","8","0","0","0","8","0","8","0","8","0","0","0","8","8","8","8","09/26/21 13:03:20","1500","The main experiment item","yes","FlankerTask.osexp","C:\Users\suici\Desktop\Tarleton\Fall 2021 - Graduate Studies\PSYC 5316-010 Advanced Quantitative Methods & Experiment Design\Lab 2 - the flanker task (an experiment on attention)","no","mono","no","18","no","white","no","yes","768","legacy","8","8","C:/Users/suici/Desktop/Tarleton/Fall 2021 - Graduate Studies/PSYC 5316-010 Advanced Quantitative Methods & Experiment Design/Lab 2 - the flanker task (an experiment on attention)/SM-subject-2.csv","legacy","Lentiform Loewenfeld","3.3.9","0","h","NA","s","NA","NA","h","576","NA","100264","NA","NA","576","2","legacy","1024","2","48000","-16","experiment","HHHHH","2","even","117264","101671","NA","NA","105671","1404","NA","NA","118291","1406","NA","NA","118391","118967","118290","118391","Flanker Task","8","7619","9","yes","1024"
"90","90","820.9","820.9","black","legacy","legacy","legacy","0","congruent","uniform","1","undefined","1","s","9","0","0","0","9","0","9","0","9","0","0","0","9","9","9","9","09/26/21 13:03:20","1500","The main experiment item","yes","FlankerTask.osexp","C:\Users\suici\Desktop\Tarleton\Fall 2021 - Graduate Studies\PSYC 5316-010 Advanced Quantitative Methods & Experiment Design\Lab 2 - the flanker task (an experiment on attention)","no","mono","no","18","no","white","no","yes","768","legacy","9","9","C:/Users/suici/Desktop/Tarleton/Fall 2021 - Graduate Studies/PSYC 5316-010 Advanced Quantitative Methods & Experiment Design/Lab 2 - the flanker task (an experiment on attention)/SM-subject-2.csv","legacy","Lentiform Loewenfeld","3.3.9","0","s","NA","s","NA","NA","s","590","NA","100264","NA","NA","590","2","legacy","1024","2","48000","-16","experiment","SSSSS","2","even","118969","101671","NA","NA","105671","1404","NA","NA","119996","1406","NA","NA","120096","120686","119995","120096","Flanker Task","9","8209","10","yes","1024"
"90.9090909091","90.9090909091","788.636363636","788.636363636","black","legacy","legacy","legacy","0","congruent","uniform","1","undefined","1","h","10","0","0","0","10","0","10","0","10","0","0","0","10","10","10","10","09/26/21 13:03:20","1500","The main experiment item","yes","FlankerTask.osexp","C:\Users\suici\Desktop\Tarleton\Fall 2021 - Graduate Studies\PSYC 5316-010 Advanced Quantitative Methods & Experiment Design\Lab 2 - the flanker task (an experiment on attention)","no","mono","no","18","no","white","no","yes","768","legacy","10","10","C:/Users/suici/Desktop/Tarleton/Fall 2021 - Graduate Studies/PSYC 5316-010 Advanced Quantitative Methods & Experiment Design/Lab 2 - the flanker task (an experiment on attention)/SM-subject-2.csv","legacy","Lentiform Loewenfeld","3.3.9","0","h","NA","s","NA","NA","h","466","NA","100264","NA","NA","466","2","legacy","1024","2","48000","-16","experiment","HHHHH","2","even","120688","101671","NA","NA","105671","1404","NA","NA","121720","1406","NA","NA","121820","122286","121719","121820","Flanker Task","10","8675","11","yes","1024"
"91.6666666667","91.6666666667","766.166666667","766.166666667","black","legacy","legacy","legacy","0","congruent","uniform","1","undefined","1","h","11","0","0","0","11","0","11","0","11","0","0","0","11","11","11","11","09/26/21 13:03:20","1500","The main experiment item","yes","FlankerTask.osexp","C:\Users\suici\Desktop\Tarleton\Fall 2021 - Graduate Studies\PSYC 5316-010 Advanced Quantitative Methods & Experiment Design\Lab 2 - the flanker task (an experiment on attention)","no","mono","no","18","no","white","no","yes","768","legacy","11","11","C:/Users/suici/Desktop/Tarleton/Fall 2021 - Graduate Studies/PSYC 5316-010 Advanced Quantitative Methods & Experiment Design/Lab 2 - the flanker task (an experiment on attention)/SM-subject-2.csv","legacy","Lentiform Loewenfeld","3.3.9","0","h","NA","s","NA","NA","h","519","NA","100264","NA","NA","519","2","legacy","1024","2","48000","-16","experiment","HHHHH","2","even","122288","101671","NA","NA","105671","1404","NA","NA","123316","1406","NA","NA","123416","123935","123315","123416","Flanker Task","11","9194","12","yes","1024"
"92.3076923077","92.3076923077","752.615384615","752.615384615","black","legacy","legacy","legacy","0","incongruent","uniform","1","undefined","1","s","12","0","0","0","12","0","12","0","12","0","0","0","12","12","12","12","09/26/21 13:03:20","1500","The main experiment item","yes","FlankerTask.osexp","C:\Users\suici\Desktop\Tarleton\Fall 2021 - Graduate Studies\PSYC 5316-010 Advanced Quantitative Methods & Experiment Design\Lab 2 - the flanker task (an experiment on attention)","no","mono","no","18","no","white","no","yes","768","legacy","12","12","C:/Users/suici/Desktop/Tarleton/Fall 2021 - Graduate Studies/PSYC 5316-010 Advanced Quantitative Methods & Experiment Design/Lab 2 - the flanker task (an experiment on attention)/SM-subject-2.csv","legacy","Lentiform Loewenfeld","3.3.9","0","s","NA","s","NA","NA","s","590","NA","100264","NA","NA","590","2","legacy","1024","2","48000","-16","experiment","HHSHH","2","even","123937","101671","NA","NA","105671","1404","NA","NA","124964","1406","NA","NA","125064","125654","124964","125064","Flanker Task","12","9784","13","yes","1024"
"92.8571428571","92.8571428571","736.571428571","736.571428571","black","legacy","legacy","legacy","0","congruent","uniform","1","undefined","1","h","13","0","0","0","13","0","13","0","13","0","0","0","13","13","13","13","09/26/21 13:03:20","1500","The main experiment item","yes","FlankerTask.osexp","C:\Users\suici\Desktop\Tarleton\Fall 2021 - Graduate Studies\PSYC 5316-010 Advanced Quantitative Methods & Experiment Design\Lab 2 - the flanker task (an experiment on attention)","no","mono","no","18","no","white","no","yes","768","legacy","13","13","C:/Users/suici/Desktop/Tarleton/Fall 2021 - Graduate Studies/PSYC 5316-010 Advanced Quantitative Methods & Experiment Design/Lab 2 - the flanker task (an experiment on attention)/SM-subject-2.csv","legacy","Lentiform Loewenfeld","3.3.9","0","h","NA","s","NA","NA","h","528","NA","100264","NA","NA","528","2","legacy","1024","2","48000","-16","experiment","HHHHH","2","even","125656","101671","NA","NA","105671","1404","NA","NA","126683","1406","NA","NA","126783","127311","126682","126783","Flanker Task","13","10312","14","yes","1024"
"93.3333333333","93.3333333333","724.666666667","724.666666667","black","legacy","legacy","legacy","0","incongruent","uniform","1","undefined","1","h","14","0","0","0","14","0","14","0","14","0","0","0","14","14","14","14","09/26/21 13:03:20","1500","The main experiment item","yes","FlankerTask.osexp","C:\Users\suici\Desktop\Tarleton\Fall 2021 - Graduate Studies\PSYC 5316-010 Advanced Quantitative Methods & Experiment Design\Lab 2 - the flanker task (an experiment on attention)","no","mono","no","18","no","white","no","yes","768","legacy","14","14","C:/Users/suici/Desktop/Tarleton/Fall 2021 - Graduate Studies/PSYC 5316-010 Advanced Quantitative Methods & Experiment Design/Lab 2 - the flanker task (an experiment on attention)/SM-subject-2.csv","legacy","Lentiform Loewenfeld","3.3.9","0","h","NA","s","NA","NA","h","558","NA","100264","NA","NA","558","2","legacy","1024","2","48000","-16","experiment","SSHSS","2","even","127313","101671","NA","NA","105671","1404","NA","NA","128340","1406","NA","NA","128440","128999","128339","128440","Flanker Task","14","10870","15","yes","1024"
"93.75","93.75","706.75","706.75","black","legacy","legacy","legacy","0","incongruent","uniform","1","undefined","1","h","15","0","0","0","15","0","15","0","15","0","0","0","15","15","15","15","09/26/21 13:03:20","1500","The main experiment item","yes","FlankerTask.osexp","C:\Users\suici\Desktop\Tarleton\Fall 2021 - Graduate Studies\PSYC 5316-010 Advanced Quantitative Methods & Experiment Design\Lab 2 - the flanker task (an experiment on attention)","no","mono","no","18","no","white","no","yes","768","legacy","15","15","C:/Users/suici/Desktop/Tarleton/Fall 2021 - Graduate Studies/PSYC 5316-010 Advanced Quantitative Methods & Experiment Design/Lab 2 - the flanker task (an experiment on attention)/SM-subject-2.csv","legacy","Lentiform Loewenfeld","3.3.9","0","h","NA","s","NA","NA","h","438","NA","100264","NA","NA","438","2","legacy","1024","2","48000","-16","experiment","SSHSS","2","even","129000","101671","NA","NA","105671","1404","NA","NA","130028","1406","NA","NA","130128","130567","130027","130128","Flanker Task","15","11308","16","yes","1024"
"94.1176470588","94.1176470588","697.882352941","697.882352941","black","legacy","legacy","legacy","0","congruent","uniform","1","undefined","1","s","16","0","0","0","16","0","16","0","16","0","0","0","16","16","16","16","09/26/21 13:03:20","1500","The main experiment item","yes","FlankerTask.osexp","C:\Users\suici\Desktop\Tarleton\Fall 2021 - Graduate Studies\PSYC 5316-010 Advanced Quantitative Methods & Experiment Design\Lab 2 - the flanker task (an experiment on attention)","no","mono","no","18","no","white","no","yes","768","legacy","16","16","C:/Users/suici/Desktop/Tarleton/Fall 2021 - Graduate Studies/PSYC 5316-010 Advanced Quantitative Methods & Experiment Design/Lab 2 - the flanker task (an experiment on attention)/SM-subject-2.csv","legacy","Lentiform Loewenfeld","3.3.9","0","s","NA","s","NA","NA","s","556","NA","100264","NA","NA","556","2","legacy","1024","2","48000","-16","experiment","SSSSS","2","even","130568","101671","NA","NA","105671","1404","NA","NA","131598","1406","NA","NA","131698","132255","131596","131698","Flanker Task","16","11864","17","yes","1024"
"94.4444444444","94.4444444444","683.5","683.5","black","legacy","legacy","legacy","0","congruent","uniform","1","undefined","1","h","17","0","0","0","17","0","17","0","17","0","0","0","17","17","17","17","09/26/21 13:03:20","1500","The main experiment item","yes","FlankerTask.osexp","C:\Users\suici\Desktop\Tarleton\Fall 2021 - Graduate Studies\PSYC 5316-010 Advanced Quantitative Methods & Experiment Design\Lab 2 - the flanker task (an experiment on attention)","no","mono","no","18","no","white","no","yes","768","legacy","17","17","C:/Users/suici/Desktop/Tarleton/Fall 2021 - Graduate Studies/PSYC 5316-010 Advanced Quantitative Methods & Experiment Design/Lab 2 - the flanker task (an experiment on attention)/SM-subject-2.csv","legacy","Lentiform Loewenfeld","3.3.9","0","h","NA","s","NA","NA","h","439","NA","100264","NA","NA","439","2","legacy","1024","2","48000","-16","experiment","HHHHH","2","even","132256","101671","NA","NA","105671","1404","NA","NA","133283","1406","NA","NA","133383","133822","133282","133383","Flanker Task","17","12303","18","yes","1024"
"94.7368421053","94.7368421053","678.368421053","678.368421053","black","legacy","legacy","legacy","0","congruent","uniform","1","undefined","1","s","18","0","0","0","18","0","18","0","18","0","0","0","18","18","18","18","09/26/21 13:03:20","1500","The main experiment item","yes","FlankerTask.osexp","C:\Users\suici\Desktop\Tarleton\Fall 2021 - Graduate Studies\PSYC 5316-010 Advanced Quantitative Methods & Experiment Design\Lab 2 - the flanker task (an experiment on attention)","no","mono","no","18","no","white","no","yes","768","legacy","18","18","C:/Users/suici/Desktop/Tarleton/Fall 2021 - Graduate Studies/PSYC 5316-010 Advanced Quantitative Methods & Experiment Design/Lab 2 - the flanker task (an experiment on attention)/SM-subject-2.csv","legacy","Lentiform Loewenfeld","3.3.9","0","s","NA","s","NA","NA","s","586","NA","100264","NA","NA","586","2","legacy","1024","2","48000","-16","experiment","SSSSS","2","even","133824","101671","NA","NA","105671","1404","NA","NA","134855","1406","NA","NA","134956","135543","134854","134956","Flanker Task","18","12889","19","yes","1024"
"95","95","672.75","672.75","black","legacy","legacy","legacy","0","incongruent","uniform","1","undefined","1","h","19","0","0","0","19","0","19","0","19","0","0","0","19","19","19","19","09/26/21 13:03:20","1500","The main experiment item","yes","FlankerTask.osexp","C:\Users\suici\Desktop\Tarleton\Fall 2021 - Graduate Studies\PSYC 5316-010 Advanced Quantitative Methods & Experiment Design\Lab 2 - the flanker task (an experiment on attention)","no","mono","no","18","no","white","no","yes","768","legacy","19","19","C:/Users/suici/Desktop/Tarleton/Fall 2021 - Graduate Studies/PSYC 5316-010 Advanced Quantitative Methods & Experiment Design/Lab 2 - the flanker task (an experiment on attention)/SM-subject-2.csv","legacy","Lentiform Loewenfeld","3.3.9","0","h","NA","s","NA","NA","h","566","NA","100264","NA","NA","566","2","legacy","1024","2","48000","-16","experiment","SSHSS","2","even","135544","101671","NA","NA","105671","1404","NA","NA","136573","1406","NA","NA","136673","137239","136572","136673","Flanker Task","19","13455","20","yes","1024"
"95.2380952381","95.2380952381","661.523809524","661.523809524","black","legacy","legacy","legacy","0","congruent","uniform","1","undefined","1","s","20","0","0","0","20","0","20","0","20","0","0","0","20","20","20","20","09/26/21 13:03:20","1500","The main experiment item","yes","FlankerTask.osexp","C:\Users\suici\Desktop\Tarleton\Fall 2021 - Graduate Studies\PSYC 5316-010 Advanced Quantitative Methods & Experiment Design\Lab 2 - the flanker task (an experiment on attention)","no","mono","no","18","no","white","no","yes","768","legacy","20","20","C:/Users/suici/Desktop/Tarleton/Fall 2021 - Graduate Studies/PSYC 5316-010 Advanced Quantitative Methods & Experiment Design/Lab 2 - the flanker task (an experiment on attention)/SM-subject-2.csv","legacy","Lentiform Loewenfeld","3.3.9","0","s","NA","s","NA","NA","s","437","NA","100264","NA","NA","437","2","legacy","1024","2","48000","-16","experiment","SSSSS","2","even","137241","101671","NA","NA","105671","1404","NA","NA","138269","1406","NA","NA","138369","138807","138268","138369","Flanker Task","20","13892","21","yes","1024"
"95.4545454545","95.4545454545","657.545454545","657.545454545","black","legacy","legacy","legacy","0","incongruent","uniform","1","undefined","1","s","21","0","0","0","21","0","21","0","21","0","0","0","21","21","21","21","09/26/21 13:03:20","1500","The main experiment item","yes","FlankerTask.osexp","C:\Users\suici\Desktop\Tarleton\Fall 2021 - Graduate Studies\PSYC 5316-010 Advanced Quantitative Methods & Experiment Design\Lab 2 - the flanker task (an experiment on attention)","no","mono","no","18","no","white","no","yes","768","legacy","21","21","C:/Users/suici/Desktop/Tarleton/Fall 2021 - Graduate Studies/PSYC 5316-010 Advanced Quantitative Methods & Experiment Design/Lab 2 - the flanker task (an experiment on attention)/SM-subject-2.csv","legacy","Lentiform Loewenfeld","3.3.9","0","s","NA","s","NA","NA","s","574","NA","100264","NA","NA","574","2","legacy","1024","2","48000","-16","experiment","HHSHH","2","even","138808","101671","NA","NA","105671","1404","NA","NA","139835","1406","NA","NA","139936","140511","139834","139936","Flanker Task","21","14466","22","yes","1024"
"95.652173913","95.652173913","646.695652174","646.695652174","black","legacy","legacy","legacy","0","congruent","uniform","1","undefined","1","h","22","0","0","0","22","0","22","0","22","0","0","0","22","22","22","22","09/26/21 13:03:20","1500","The main experiment item","yes","FlankerTask.osexp","C:\Users\suici\Desktop\Tarleton\Fall 2021 - Graduate Studies\PSYC 5316-010 Advanced Quantitative Methods & Experiment Design\Lab 2 - the flanker task (an experiment on attention)","no","mono","no","18","no","white","no","yes","768","legacy","22","22","C:/Users/suici/Desktop/Tarleton/Fall 2021 - Graduate Studies/PSYC 5316-010 Advanced Quantitative Methods & Experiment Design/Lab 2 - the flanker task (an experiment on attention)/SM-subject-2.csv","legacy","Lentiform Loewenfeld","3.3.9","0","h","NA","s","NA","NA","h","408","NA","100264","NA","NA","408","2","legacy","1024","2","48000","-16","experiment","HHHHH","2","even","140512","101671","NA","NA","105671","1404","NA","NA","141539","1406","NA","NA","141639","142047","141538","141639","Flanker Task","22","14874","23","yes","1024"
"95.8333333333","95.8333333333","636.291666667","636.291666667","black","legacy","legacy","legacy","0","incongruent","uniform","1","undefined","1","s","23","0","0","0","23","0","23","0","23","0","0","0","23","23","23","23","09/26/21 13:03:20","1500","The main experiment item","yes","FlankerTask.osexp","C:\Users\suici\Desktop\Tarleton\Fall 2021 - Graduate Studies\PSYC 5316-010 Advanced Quantitative Methods & Experiment Design\Lab 2 - the flanker task (an experiment on attention)","no","mono","no","18","no","white","no","yes","768","legacy","23","23","C:/Users/suici/Desktop/Tarleton/Fall 2021 - Graduate Studies/PSYC 5316-010 Advanced Quantitative Methods & Experiment Design/Lab 2 - the flanker task (an experiment on attention)/SM-subject-2.csv","legacy","Lentiform Loewenfeld","3.3.9","0","s","NA","s","NA","NA","s","397","NA","100264","NA","NA","397","2","legacy","1024","2","48000","-16","experiment","HHSHH","2","even","142049","101671","NA","NA","105671","1404","NA","NA","143077","1406","NA","NA","143177","143575","143075","143177","Flanker Task","23","15271","24","yes","1024"
"96","96","632.28","632.28","black","legacy","legacy","legacy","0","incongruent","uniform","1","undefined","1","s","24","0","0","0","24","0","24","0","24","0","0","0","24","24","24","24","09/26/21 13:03:20","1500","The main experiment item","yes","FlankerTask.osexp","C:\Users\suici\Desktop\Tarleton\Fall 2021 - Graduate Studies\PSYC 5316-010 Advanced Quantitative Methods & Experiment Design\Lab 2 - the flanker task (an experiment on attention)","no","mono","no","18","no","white","no","yes","768","legacy","24","24","C:/Users/suici/Desktop/Tarleton/Fall 2021 - Graduate Studies/PSYC 5316-010 Advanced Quantitative Methods & Experiment Design/Lab 2 - the flanker task (an experiment on attention)/SM-subject-2.csv","legacy","Lentiform Loewenfeld","3.3.9","0","s","NA","s","NA","NA","s","536","NA","100264","NA","NA","536","2","legacy","1024","2","48000","-16","experiment","HHSHH","2","even","143576","101671","NA","NA","105671","1404","NA","NA","144603","1406","NA","NA","144703","145239","144602","144703","Flanker Task","24","15807","25","yes","1024"
"96.1538461538","96.1538461538","628.153846154","628.153846154","black","legacy","legacy","legacy","0","incongruent","uniform","1","undefined","1","s","25","0","0","0","25","0","25","0","25","0","0","0","25","25","25","25","09/26/21 13:03:20","1500","The main experiment item","yes","FlankerTask.osexp","C:\Users\suici\Desktop\Tarleton\Fall 2021 - Graduate Studies\PSYC 5316-010 Advanced Quantitative Methods & Experiment Design\Lab 2 - the flanker task (an experiment on attention)","no","mono","no","18","no","white","no","yes","768","legacy","25","25","C:/Users/suici/Desktop/Tarleton/Fall 2021 - Graduate Studies/PSYC 5316-010 Advanced Quantitative Methods & Experiment Design/Lab 2 - the flanker task (an experiment on attention)/SM-subject-2.csv","legacy","Lentiform Loewenfeld","3.3.9","0","s","NA","s","NA","NA","s","525","NA","100264","NA","NA","525","2","legacy","1024","2","48000","-16","experiment","HHSHH","2","even","145240","101671","NA","NA","105671","1404","NA","NA","146269","1406","NA","NA","146369","146895","146268","146369","Flanker Task","25","16332","26","yes","1024"
"96.2962962963","96.2962962963","619.703703704","619.703703704","black","legacy","legacy","legacy","0","congruent","uniform","1","undefined","1","s","26","0","0","0","26","0","26","0","26","0","0","0","26","26","26","26","09/26/21 13:03:20","1500","The main experiment item","yes","FlankerTask.osexp","C:\Users\suici\Desktop\Tarleton\Fall 2021 - Graduate Studies\PSYC 5316-010 Advanced Quantitative Methods & Experiment Design\Lab 2 - the flanker task (an experiment on attention)","no","mono","no","18","no","white","no","yes","768","legacy","26","26","C:/Users/suici/Desktop/Tarleton/Fall 2021 - Graduate Studies/PSYC 5316-010 Advanced Quantitative Methods & Experiment Design/Lab 2 - the flanker task (an experiment on attention)/SM-subject-2.csv","legacy","Lentiform Loewenfeld","3.3.9","0","s","NA","s","NA","NA","s","400","NA","100264","NA","NA","400","2","legacy","1024","2","48000","-16","experiment","SSSSS","2","even","146896","101671","NA","NA","105671","1404","NA","NA","147923","1406","NA","NA","148023","148423","147922","148023","Flanker Task","26","16732","27","yes","1024"
"96.4285714286","96.4285714286","616.107142857","616.107142857","black","legacy","legacy","legacy","0","incongruent","uniform","1","undefined","1","s","27","0","0","0","27","0","27","0","27","0","0","0","27","27","27","27","09/26/21 13:03:20","1500","The main experiment item","yes","FlankerTask.osexp","C:\Users\suici\Desktop\Tarleton\Fall 2021 - Graduate Studies\PSYC 5316-010 Advanced Quantitative Methods & Experiment Design\Lab 2 - the flanker task (an experiment on attention)","no","mono","no","18","no","white","no","yes","768","legacy","27","27","C:/Users/suici/Desktop/Tarleton/Fall 2021 - Graduate Studies/PSYC 5316-010 Advanced Quantitative Methods & Experiment Design/Lab 2 - the flanker task (an experiment on attention)/SM-subject-2.csv","legacy","Lentiform Loewenfeld","3.3.9","0","s","NA","s","NA","NA","s","519","NA","100264","NA","NA","519","2","legacy","1024","2","48000","-16","experiment","HHSHH","2","even","148424","101671","NA","NA","105671","1404","NA","NA","149451","1406","NA","NA","149551","150070","149450","149551","Flanker Task","27","17251","28","yes","1024"
"96.5517241379","96.5517241379","613.310344828","613.310344828","black","legacy","legacy","legacy","0","incongruent","uniform","1","undefined","1","s","28","0","0","0","28","0","28","0","28","0","0","0","28","28","28","28","09/26/21 13:03:20","1500","The main experiment item","yes","FlankerTask.osexp","C:\Users\suici\Desktop\Tarleton\Fall 2021 - Graduate Studies\PSYC 5316-010 Advanced Quantitative Methods & Experiment Design\Lab 2 - the flanker task (an experiment on attention)","no","mono","no","18","no","white","no","yes","768","legacy","28","28","C:/Users/suici/Desktop/Tarleton/Fall 2021 - Graduate Studies/PSYC 5316-010 Advanced Quantitative Methods & Experiment Design/Lab 2 - the flanker task (an experiment on attention)/SM-subject-2.csv","legacy","Lentiform Loewenfeld","3.3.9","0","s","NA","s","NA","NA","s","535","NA","100264","NA","NA","535","2","legacy","1024","2","48000","-16","experiment","HHSHH","2","even","150072","101671","NA","NA","105671","1404","NA","NA","151099","1406","NA","NA","151199","151735","151098","151199","Flanker Task","28","17786","29","yes","1024"
"96.6666666667","96.6666666667","606.4","606.4","black","legacy","legacy","legacy","0","congruent","uniform","1","undefined","1","s","29","0","0","0","29","0","29","0","29","0","0","0","29","29","29","29","09/26/21 13:03:20","1500","The main experiment item","yes","FlankerTask.osexp","C:\Users\suici\Desktop\Tarleton\Fall 2021 - Graduate Studies\PSYC 5316-010 Advanced Quantitative Methods & Experiment Design\Lab 2 - the flanker task (an experiment on attention)","no","mono","no","18","no","white","no","yes","768","legacy","29","29","C:/Users/suici/Desktop/Tarleton/Fall 2021 - Graduate Studies/PSYC 5316-010 Advanced Quantitative Methods & Experiment Design/Lab 2 - the flanker task (an experiment on attention)/SM-subject-2.csv","legacy","Lentiform Loewenfeld","3.3.9","0","s","NA","s","NA","NA","s","406","NA","100264","NA","NA","406","2","legacy","1024","2","48000","-16","experiment","SSSSS","2","even","151736","101671","NA","NA","105671","1404","NA","NA","152764","1406","NA","NA","152864","153270","152762","152864","Flanker Task","29","18192","30","yes","1024"
"96.7741935484","96.7741935484","598.677419355","598.677419355","black","legacy","legacy","legacy","0","congruent","uniform","1","undefined","1","s","30","0","0","0","30","0","30","0","30","0","0","0","30","30","30","30","09/26/21 13:03:20","1500","The main experiment item","yes","FlankerTask.osexp","C:\Users\suici\Desktop\Tarleton\Fall 2021 - Graduate Studies\PSYC 5316-010 Advanced Quantitative Methods & Experiment Design\Lab 2 - the flanker task (an experiment on attention)","no","mono","no","18","no","white","no","yes","768","legacy","30","30","C:/Users/suici/Desktop/Tarleton/Fall 2021 - Graduate Studies/PSYC 5316-010 Advanced Quantitative Methods & Experiment Design/Lab 2 - the flanker task (an experiment on attention)/SM-subject-2.csv","legacy","Lentiform Loewenfeld","3.3.9","0","s","NA","s","NA","NA","s","367","NA","100264","NA","NA","367","2","legacy","1024","2","48000","-16","experiment","SSSSS","2","even","153272","101671","NA","NA","105671","1404","NA","NA","154300","1406","NA","NA","154400","154767","154298","154400","Flanker Task","30","18559","31","yes","1024"
"96.875","96.875","591.65625","591.65625","black","legacy","legacy","legacy","0","congruent","uniform","1","undefined","1","s","31","0","0","0","31","0","31","0","31","0","0","0","31","31","31","31","09/26/21 13:03:20","1500","The main experiment item","yes","FlankerTask.osexp","C:\Users\suici\Desktop\Tarleton\Fall 2021 - Graduate Studies\PSYC 5316-010 Advanced Quantitative Methods & Experiment Design\Lab 2 - the flanker task (an experiment on attention)","no","mono","no","18","no","white","no","yes","768","legacy","31","31","C:/Users/suici/Desktop/Tarleton/Fall 2021 - Graduate Studies/PSYC 5316-010 Advanced Quantitative Methods & Experiment Design/Lab 2 - the flanker task (an experiment on attention)/SM-subject-2.csv","legacy","Lentiform Loewenfeld","3.3.9","0","s","NA","s","NA","NA","s","374","NA","100264","NA","NA","374","2","legacy","1024","2","48000","-16","experiment","SSSSS","2","even","154769","101671","NA","NA","105671","1404","NA","NA","155796","1406","NA","NA","155896","156270","155795","155896","Flanker Task","31","18933","32","yes","1024"
"93.9393939394","93.9393939394","586.545454545","586.545454545","black","legacy","legacy","legacy","0","incongruent","uniform","0","undefined","0","h","32","0","0","0","32","0","32","0","32","0","0","0","32","32","32","32","09/26/21 13:03:20","1500","The main experiment item","yes","FlankerTask.osexp","C:\Users\suici\Desktop\Tarleton\Fall 2021 - Graduate Studies\PSYC 5316-010 Advanced Quantitative Methods & Experiment Design\Lab 2 - the flanker task (an experiment on attention)","no","mono","no","18","no","white","no","yes","768","legacy","32","32","C:/Users/suici/Desktop/Tarleton/Fall 2021 - Graduate Studies/PSYC 5316-010 Advanced Quantitative Methods & Experiment Design/Lab 2 - the flanker task (an experiment on attention)/SM-subject-2.csv","legacy","Lentiform Loewenfeld","3.3.9","0","s","NA","s","NA","NA","s","423","NA","100264","NA","NA","423","2","legacy","1024","2","48000","-16","experiment","SSHSS","2","even","156272","101671","NA","NA","105671","1404","NA","NA","157300","1406","NA","NA","157400","157823","157299","157400","Flanker Task","31","19356","33","yes","1024"
"94.1176470588","94.1176470588","585.823529412","585.823529412","black","legacy","legacy","legacy","0","incongruent","uniform","1","undefined","1","s","33","0","0","0","33","0","33","0","33","0","0","0","33","33","33","33","09/26/21 13:03:20","1500","The main experiment item","yes","FlankerTask.osexp","C:\Users\suici\Desktop\Tarleton\Fall 2021 - Graduate Studies\PSYC 5316-010 Advanced Quantitative Methods & Experiment Design\Lab 2 - the flanker task (an experiment on attention)","no","mono","no","18","no","white","no","yes","768","legacy","33","33","C:/Users/suici/Desktop/Tarleton/Fall 2021 - Graduate Studies/PSYC 5316-010 Advanced Quantitative Methods & Experiment Design/Lab 2 - the flanker task (an experiment on attention)/SM-subject-2.csv","legacy","Lentiform Loewenfeld","3.3.9","0","s","NA","s","NA","NA","s","562","NA","100264","NA","NA","562","2","legacy","1024","2","48000","-16","experiment","HHSHH","2","even","158325","101671","NA","NA","157825","1404","NA","NA","159352","1406","NA","NA","159452","160015","159351","159452","Flanker Task","32","19918","34","yes","1024"
"94.2857142857","94.2857142857","580.942857143","580.942857143","black","legacy","legacy","legacy","0","congruent","uniform","1","undefined","1","h","34","0","0","0","34","0","34","0","34","0","0","0","34","34","34","34","09/26/21 13:03:20","1500","The main experiment item","yes","FlankerTask.osexp","C:\Users\suici\Desktop\Tarleton\Fall 2021 - Graduate Studies\PSYC 5316-010 Advanced Quantitative Methods & Experiment Design\Lab 2 - the flanker task (an experiment on attention)","no","mono","no","18","no","white","no","yes","768","legacy","34","34","C:/Users/suici/Desktop/Tarleton/Fall 2021 - Graduate Studies/PSYC 5316-010 Advanced Quantitative Methods & Experiment Design/Lab 2 - the flanker task (an experiment on attention)/SM-subject-2.csv","legacy","Lentiform Loewenfeld","3.3.9","0","h","NA","s","NA","NA","h","415","NA","100264","NA","NA","415","2","legacy","1024","2","48000","-16","experiment","HHHHH","2","even","160016","101671","NA","NA","157825","1404","NA","NA","161043","1406","NA","NA","161143","161559","161042","161143","Flanker Task","33","20333","35","yes","1024"
"94.4444444444","94.4444444444","577.027777778","577.027777778","black","legacy","legacy","legacy","0","congruent","uniform","1","undefined","1","h","35","0","0","0","35","0","35","0","35","0","0","0","35","35","35","35","09/26/21 13:03:20","1500","The main experiment item","yes","FlankerTask.osexp","C:\Users\suici\Desktop\Tarleton\Fall 2021 - Graduate Studies\PSYC 5316-010 Advanced Quantitative Methods & Experiment Design\Lab 2 - the flanker task (an experiment on attention)","no","mono","no","18","no","white","no","yes","768","legacy","35","35","C:/Users/suici/Desktop/Tarleton/Fall 2021 - Graduate Studies/PSYC 5316-010 Advanced Quantitative Methods & Experiment Design/Lab 2 - the flanker task (an experiment on attention)/SM-subject-2.csv","legacy","Lentiform Loewenfeld","3.3.9","0","h","NA","s","NA","NA","h","440","NA","100264","NA","NA","440","2","legacy","1024","2","48000","-16","experiment","HHHHH","2","even","161560","101671","NA","NA","157825","1404","NA","NA","162587","1406","NA","NA","162687","163127","162586","162687","Flanker Task","34","20773","36","yes","1024"
"94.5945945946","94.5945945946","572.189189189","572.189189189","black","legacy","legacy","legacy","0","congruent","uniform","1","undefined","1","s","36","0","0","0","36","0","36","0","36","0","0","0","36","36","36","36","09/26/21 13:03:20","1500","The main experiment item","yes","FlankerTask.osexp","C:\Users\suici\Desktop\Tarleton\Fall 2021 - Graduate Studies\PSYC 5316-010 Advanced Quantitative Methods & Experiment Design\Lab 2 - the flanker task (an experiment on attention)","no","mono","no","18","no","white","no","yes","768","legacy","36","36","C:/Users/suici/Desktop/Tarleton/Fall 2021 - Graduate Studies/PSYC 5316-010 Advanced Quantitative Methods & Experiment Design/Lab 2 - the flanker task (an experiment on attention)/SM-subject-2.csv","legacy","Lentiform Loewenfeld","3.3.9","0","s","NA","s","NA","NA","s","398","NA","100264","NA","NA","398","2","legacy","1024","2","48000","-16","experiment","SSSSS","2","even","163129","101671","NA","NA","157825","1404","NA","NA","164156","1406","NA","NA","164256","164655","164155","164256","Flanker Task","35","21171","37","yes","1024"
"94.7368421053","94.7368421053","571.421052632","571.421052632","black","legacy","legacy","legacy","0","incongruent","uniform","1","undefined","1","h","37","0","0","0","37","0","37","0","37","0","0","0","37","37","37","37","09/26/21 13:03:20","1500","The main experiment item","yes","FlankerTask.osexp","C:\Users\suici\Desktop\Tarleton\Fall 2021 - Graduate Studies\PSYC 5316-010 Advanced Quantitative Methods & Experiment Design\Lab 2 - the flanker task (an experiment on attention)","no","mono","no","18","no","white","no","yes","768","legacy","37","37","C:/Users/suici/Desktop/Tarleton/Fall 2021 - Graduate Studies/PSYC 5316-010 Advanced Quantitative Methods & Experiment Design/Lab 2 - the flanker task (an experiment on attention)/SM-subject-2.csv","legacy","Lentiform Loewenfeld","3.3.9","0","h","NA","s","NA","NA","h","543","NA","100264","NA","NA","543","2","legacy","1024","2","48000","-16","experiment","SSHSS","2","even","164656","101671","NA","NA","157825","1404","NA","NA","165683","1406","NA","NA","165783","166327","165682","165783","Flanker Task","36","21714","38","yes","1024"
"94.8717948718","94.8717948718","567","567","black","legacy","legacy","legacy","0","congruent","uniform","1","undefined","1","h","38","0","0","0","38","0","38","0","38","0","0","0","38","38","38","38","09/26/21 13:03:20","1500","The main experiment item","yes","FlankerTask.osexp","C:\Users\suici\Desktop\Tarleton\Fall 2021 - Graduate Studies\PSYC 5316-010 Advanced Quantitative Methods & Experiment Design\Lab 2 - the flanker task (an experiment on attention)","no","mono","no","18","no","white","no","yes","768","legacy","38","38","C:/Users/suici/Desktop/Tarleton/Fall 2021 - Graduate Studies/PSYC 5316-010 Advanced Quantitative Methods & Experiment Design/Lab 2 - the flanker task (an experiment on attention)/SM-subject-2.csv","legacy","Lentiform Loewenfeld","3.3.9","0","h","NA","s","NA","NA","h","399","NA","100264","NA","NA","399","2","legacy","1024","2","48000","-16","experiment","HHHHH","2","even","166328","101671","NA","NA","157825","1404","NA","NA","167355","1406","NA","NA","167455","167855","167354","167455","Flanker Task","37","22113","39","yes","1024"
"95","95","563.4","563.4","black","legacy","legacy","legacy","0","congruent","uniform","1","undefined","1","h","39","0","0","0","39","0","39","0","39","0","0","0","39","39","39","39","09/26/21 13:03:20","1500","The main experiment item","yes","FlankerTask.osexp","C:\Users\suici\Desktop\Tarleton\Fall 2021 - Graduate Studies\PSYC 5316-010 Advanced Quantitative Methods & Experiment Design\Lab 2 - the flanker task (an experiment on attention)","no","mono","no","18","no","white","no","yes","768","legacy","39","39","C:/Users/suici/Desktop/Tarleton/Fall 2021 - Graduate Studies/PSYC 5316-010 Advanced Quantitative Methods & Experiment Design/Lab 2 - the flanker task (an experiment on attention)/SM-subject-2.csv","legacy","Lentiform Loewenfeld","3.3.9","0","h","NA","s","NA","NA","h","423","NA","100264","NA","NA","423","2","legacy","1024","2","48000","-16","experiment","HHHHH","2","even","167856","101671","NA","NA","157825","1404","NA","NA","168883","1406","NA","NA","168983","169406","168882","168983","Flanker Task","38","22536","40","yes","1024"
"95.1219512195","95.1219512195","560.585365854","560.585365854","black","legacy","legacy","legacy","0","congruent","uniform","1","undefined","1","s","40","0","0","0","40","0","40","0","40","0","0","0","40","40","40","40","09/26/21 13:03:20","1500","The main experiment item","yes","FlankerTask.osexp","C:\Users\suici\Desktop\Tarleton\Fall 2021 - Graduate Studies\PSYC 5316-010 Advanced Quantitative Methods & Experiment Design\Lab 2 - the flanker task (an experiment on attention)","no","mono","no","18","no","white","no","yes","768","legacy","40","40","C:/Users/suici/Desktop/Tarleton/Fall 2021 - Graduate Studies/PSYC 5316-010 Advanced Quantitative Methods & Experiment Design/Lab 2 - the flanker task (an experiment on attention)/SM-subject-2.csv","legacy","Lentiform Loewenfeld","3.3.9","0","s","NA","s","NA","NA","s","448","NA","100264","NA","NA","448","2","legacy","1024","2","48000","-16","experiment","SSSSS","2","even","169408","101671","NA","NA","157825","1404","NA","NA","170435","1406","NA","NA","170535","170983","170434","170535","Flanker Task","39","22984","41","yes","1024"
"95.2380952381","95.2380952381","560.119047619","560.119047619","black","legacy","legacy","legacy","0","incongruent","uniform","1","undefined","1","h","41","0","0","0","41","0","41","0","41","0","0","0","41","41","41","41","09/26/21 13:03:20","1500","The main experiment item","yes","FlankerTask.osexp","C:\Users\suici\Desktop\Tarleton\Fall 2021 - Graduate Studies\PSYC 5316-010 Advanced Quantitative Methods & Experiment Design\Lab 2 - the flanker task (an experiment on attention)","no","mono","no","18","no","white","no","yes","768","legacy","41","41","C:/Users/suici/Desktop/Tarleton/Fall 2021 - Graduate Studies/PSYC 5316-010 Advanced Quantitative Methods & Experiment Design/Lab 2 - the flanker task (an experiment on attention)/SM-subject-2.csv","legacy","Lentiform Loewenfeld","3.3.9","0","h","NA","s","NA","NA","h","541","NA","100264","NA","NA","541","2","legacy","1024","2","48000","-16","experiment","SSHSS","2","even","170985","101671","NA","NA","157825","1404","NA","NA","172013","1406","NA","NA","172113","172654","172011","172113","Flanker Task","40","23525","42","yes","1024"
"95.3488372093","95.3488372093","559.162790698","559.162790698","black","legacy","legacy","legacy","0","incongruent","uniform","1","undefined","1","h","42","0","0","0","42","0","42","0","42","0","0","0","42","42","42","42","09/26/21 13:03:20","1500","The main experiment item","yes","FlankerTask.osexp","C:\Users\suici\Desktop\Tarleton\Fall 2021 - Graduate Studies\PSYC 5316-010 Advanced Quantitative Methods & Experiment Design\Lab 2 - the flanker task (an experiment on attention)","no","mono","no","18","no","white","no","yes","768","legacy","42","42","C:/Users/suici/Desktop/Tarleton/Fall 2021 - Graduate Studies/PSYC 5316-010 Advanced Quantitative Methods & Experiment Design/Lab 2 - the flanker task (an experiment on attention)/SM-subject-2.csv","legacy","Lentiform Loewenfeld","3.3.9","0","h","NA","s","NA","NA","h","519","NA","100264","NA","NA","519","2","legacy","1024","2","48000","-16","experiment","SSHSS","2","even","172656","101671","NA","NA","157825","1404","NA","NA","173683","1406","NA","NA","173783","174303","173682","173783","Flanker Task","41","24044","43","yes","1024"
"95.4545454545","95.4545454545","557.818181818","557.818181818","black","legacy","legacy","legacy","0","incongruent","uniform","1","undefined","1","h","43","0","0","0","43","0","43","0","43","0","0","0","43","43","43","43","09/26/21 13:03:20","1500","The main experiment item","yes","FlankerTask.osexp","C:\Users\suici\Desktop\Tarleton\Fall 2021 - Graduate Studies\PSYC 5316-010 Advanced Quantitative Methods & Experiment Design\Lab 2 - the flanker task (an experiment on attention)","no","mono","no","18","no","white","no","yes","768","legacy","43","43","C:/Users/suici/Desktop/Tarleton/Fall 2021 - Graduate Studies/PSYC 5316-010 Advanced Quantitative Methods & Experiment Design/Lab 2 - the flanker task (an experiment on attention)/SM-subject-2.csv","legacy","Lentiform Loewenfeld","3.3.9","0","h","NA","s","NA","NA","h","500","NA","100264","NA","NA","500","2","legacy","1024","2","48000","-16","experiment","SSHSS","2","even","174304","101671","NA","NA","157825","1404","NA","NA","175334","1406","NA","NA","175434","175935","175333","175434","Flanker Task","42","24544","44","yes","1024"
"95.5555555556","95.5555555556","555.511111111","555.511111111","black","legacy","legacy","legacy","0","congruent","uniform","1","undefined","1","h","44","0","0","0","44","0","44","0","44","0","0","0","44","44","44","44","09/26/21 13:03:20","1500","The main experiment item","yes","FlankerTask.osexp","C:\Users\suici\Desktop\Tarleton\Fall 2021 - Graduate Studies\PSYC 5316-010 Advanced Quantitative Methods & Experiment Design\Lab 2 - the flanker task (an experiment on attention)","no","mono","no","18","no","white","no","yes","768","legacy","44","44","C:/Users/suici/Desktop/Tarleton/Fall 2021 - Graduate Studies/PSYC 5316-010 Advanced Quantitative Methods & Experiment Design/Lab 2 - the flanker task (an experiment on attention)/SM-subject-2.csv","legacy","Lentiform Loewenfeld","3.3.9","0","h","NA","s","NA","NA","h","454","NA","100264","NA","NA","454","2","legacy","1024","2","48000","-16","experiment","HHHHH","2","even","175936","101671","NA","NA","157825","1404","NA","NA","176963","1406","NA","NA","177064","177518","176963","177064","Flanker Task","43","24998","45","yes","1024"
"95.652173913","95.652173913","553.826086957","553.826086957","black","legacy","legacy","legacy","0","incongruent","uniform","1","undefined","1","h","45","0","0","0","45","0","45","0","45","0","0","0","45","45","45","45","09/26/21 13:03:20","1500","The main experiment item","yes","FlankerTask.osexp","C:\Users\suici\Desktop\Tarleton\Fall 2021 - Graduate Studies\PSYC 5316-010 Advanced Quantitative Methods & Experiment Design\Lab 2 - the flanker task (an experiment on attention)","no","mono","no","18","no","white","no","yes","768","legacy","45","45","C:/Users/suici/Desktop/Tarleton/Fall 2021 - Graduate Studies/PSYC 5316-010 Advanced Quantitative Methods & Experiment Design/Lab 2 - the flanker task (an experiment on attention)/SM-subject-2.csv","legacy","Lentiform Loewenfeld","3.3.9","0","h","NA","s","NA","NA","h","478","NA","100264","NA","NA","478","2","legacy","1024","2","48000","-16","experiment","SSHSS","2","even","177520","101671","NA","NA","157825","1404","NA","NA","178549","1406","NA","NA","178649","179127","178547","178649","Flanker Task","44","25476","46","yes","1024"
"95.7446808511","95.7446808511","552.021276596","552.021276596","black","legacy","legacy","legacy","0","congruent","uniform","1","undefined","1","s","46","0","0","0","46","0","46","0","46","0","0","0","46","46","46","46","09/26/21 13:03:20","1500","The main experiment item","yes","FlankerTask.osexp","C:\Users\suici\Desktop\Tarleton\Fall 2021 - Graduate Studies\PSYC 5316-010 Advanced Quantitative Methods & Experiment Design\Lab 2 - the flanker task (an experiment on attention)","no","mono","no","18","no","white","no","yes","768","legacy","46","46","C:/Users/suici/Desktop/Tarleton/Fall 2021 - Graduate Studies/PSYC 5316-010 Advanced Quantitative Methods & Experiment Design/Lab 2 - the flanker task (an experiment on attention)/SM-subject-2.csv","legacy","Lentiform Loewenfeld","3.3.9","0","s","NA","s","NA","NA","s","469","NA","100264","NA","NA","469","2","legacy","1024","2","48000","-16","experiment","SSSSS","2","even","179129","101671","NA","NA","157825","1404","NA","NA","180165","1406","NA","NA","180265","180735","180164","180265","Flanker Task","45","25945","47","yes","1024"
"95.8333333333","95.8333333333","557.354166667","557.354166667","black","legacy","legacy","legacy","0","congruent","uniform","1","undefined","1","h","47","0","0","0","47","0","47","0","47","0","0","0","47","47","47","47","09/26/21 13:03:20","1500","The main experiment item","yes","FlankerTask.osexp","C:\Users\suici\Desktop\Tarleton\Fall 2021 - Graduate Studies\PSYC 5316-010 Advanced Quantitative Methods & Experiment Design\Lab 2 - the flanker task (an experiment on attention)","no","mono","no","18","no","white","no","yes","768","legacy","47","47","C:/Users/suici/Desktop/Tarleton/Fall 2021 - Graduate Studies/PSYC 5316-010 Advanced Quantitative Methods & Experiment Design/Lab 2 - the flanker task (an experiment on attention)/SM-subject-2.csv","legacy","Lentiform Loewenfeld","3.3.9","0","h","NA","s","NA","NA","h","808","NA","100264","NA","NA","808","2","legacy","1024","2","48000","-16","experiment","HHHHH","2","even","180736","101671","NA","NA","157825","1404","NA","NA","181763","1406","NA","NA","181863","182671","181762","181863","Flanker Task","46","26753","48","yes","1024"
"95.9183673469","95.9183673469","555.387755102","555.387755102","black","legacy","legacy","legacy","0","congruent","uniform","1","undefined","1","s","48","0","0","0","48","0","48","0","48","0","0","0","48","48","48","48","09/26/21 13:03:20","1500","The main experiment item","yes","FlankerTask.osexp","C:\Users\suici\Desktop\Tarleton\Fall 2021 - Graduate Studies\PSYC 5316-010 Advanced Quantitative Methods & Experiment Design\Lab 2 - the flanker task (an experiment on attention)","no","mono","no","18","no","white","no","yes","768","legacy","48","48","C:/Users/suici/Desktop/Tarleton/Fall 2021 - Graduate Studies/PSYC 5316-010 Advanced Quantitative Methods & Experiment Design/Lab 2 - the flanker task (an experiment on attention)/SM-subject-2.csv","legacy","Lentiform Loewenfeld","3.3.9","0","s","NA","s","NA","NA","s","461","NA","100264","NA","NA","461","2","legacy","1024","2","48000","-16","experiment","SSSSS","2","even","182673","101671","NA","NA","157825","1404","NA","NA","183701","1406","NA","NA","183801","184262","183700","183801","Flanker Task","47","27214","49","yes","1024"
"96","96","552.12","552.12","black","legacy","legacy","legacy","0","incongruent","uniform","1","undefined","1","h","49","0","0","0","49","0","49","0","49","0","0","0","49","49","49","49","09/26/21 13:03:20","1500","The main experiment item","yes","FlankerTask.osexp","C:\Users\suici\Desktop\Tarleton\Fall 2021 - Graduate Studies\PSYC 5316-010 Advanced Quantitative Methods & Experiment Design\Lab 2 - the flanker task (an experiment on attention)","no","mono","no","18","no","white","no","yes","768","legacy","49","49","C:/Users/suici/Desktop/Tarleton/Fall 2021 - Graduate Studies/PSYC 5316-010 Advanced Quantitative Methods & Experiment Design/Lab 2 - the flanker task (an experiment on attention)/SM-subject-2.csv","legacy","Lentiform Loewenfeld","3.3.9","0","h","NA","s","NA","NA","h","392","NA","100264","NA","NA","392","2","legacy","1024","2","48000","-16","experiment","SSHSS","2","even","184264","101671","NA","NA","157825","1404","NA","NA","185291","1406","NA","NA","185391","185783","185290","185391","Flanker Task","48","27606","50","yes","1024"
"96.0784313725","96.0784313725","550.803921569","550.803921569","black","legacy","legacy","legacy","0","congruent","uniform","1","undefined","1","s","50","0","0","0","50","0","50","0","50","0","0","0","50","50","50","50","09/26/21 13:03:20","1500","The main experiment item","yes","FlankerTask.osexp","C:\Users\suici\Desktop\Tarleton\Fall 2021 - Graduate Studies\PSYC 5316-010 Advanced Quantitative Methods & Experiment Design\Lab 2 - the flanker task (an experiment on attention)","no","mono","no","18","no","white","no","yes","768","legacy","50","50","C:/Users/suici/Desktop/Tarleton/Fall 2021 - Graduate Studies/PSYC 5316-010 Advanced Quantitative Methods & Experiment Design/Lab 2 - the flanker task (an experiment on attention)/SM-subject-2.csv","legacy","Lentiform Loewenfeld","3.3.9","0","s","NA","s","NA","NA","s","485","NA","100264","NA","NA","485","2","legacy","1024","2","48000","-16","experiment","SSSSS","2","even","185785","101671","NA","NA","157825","1404","NA","NA","186814","1406","NA","NA","186914","187399","186812","186914","Flanker Task","49","28091","51","yes","1024"
"96.1538461538","96.1538461538","548.192307692","548.192307692","black","legacy","legacy","legacy","0","congruent","uniform","1","undefined","1","h","51","0","0","0","51","0","51","0","51","0","0","0","51","51","51","51","09/26/21 13:03:20","1500","The main experiment item","yes","FlankerTask.osexp","C:\Users\suici\Desktop\Tarleton\Fall 2021 - Graduate Studies\PSYC 5316-010 Advanced Quantitative Methods & Experiment Design\Lab 2 - the flanker task (an experiment on attention)","no","mono","no","18","no","white","no","yes","768","legacy","51","51","C:/Users/suici/Desktop/Tarleton/Fall 2021 - Graduate Studies/PSYC 5316-010 Advanced Quantitative Methods & Experiment Design/Lab 2 - the flanker task (an experiment on attention)/SM-subject-2.csv","legacy","Lentiform Loewenfeld","3.3.9","0","h","NA","s","NA","NA","h","415","NA","100264","NA","NA","415","2","legacy","1024","2","48000","-16","experiment","HHHHH","2","even","187401","101671","NA","NA","157825","1404","NA","NA","188428","1406","NA","NA","188528","188943","188427","188528","Flanker Task","50","28506","52","yes","1024"
"96.2264150943","96.2264150943","546.358490566","546.358490566","black","legacy","legacy","legacy","0","incongruent","uniform","1","undefined","1","h","52","0","0","0","52","0","52","0","52","0","0","0","52","52","52","52","09/26/21 13:03:20","1500","The main experiment item","yes","FlankerTask.osexp","C:\Users\suici\Desktop\Tarleton\Fall 2021 - Graduate Studies\PSYC 5316-010 Advanced Quantitative Methods & Experiment Design\Lab 2 - the flanker task (an experiment on attention)","no","mono","no","18","no","white","no","yes","768","legacy","52","52","C:/Users/suici/Desktop/Tarleton/Fall 2021 - Graduate Studies/PSYC 5316-010 Advanced Quantitative Methods & Experiment Design/Lab 2 - the flanker task (an experiment on attention)/SM-subject-2.csv","legacy","Lentiform Loewenfeld","3.3.9","0","h","NA","s","NA","NA","h","451","NA","100264","NA","NA","451","2","legacy","1024","2","48000","-16","experiment","SSHSS","2","even","188945","101671","NA","NA","157825","1404","NA","NA","189975","1406","NA","NA","190075","190527","189973","190075","Flanker Task","51","28957","53","yes","1024"
"96.2962962963","96.2962962963","543.759259259","543.759259259","black","legacy","legacy","legacy","0","congruent","uniform","1","undefined","1","s","53","0","0","0","53","0","53","0","53","0","0","0","53","53","53","53","09/26/21 13:03:20","1500","The main experiment item","yes","FlankerTask.osexp","C:\Users\suici\Desktop\Tarleton\Fall 2021 - Graduate Studies\PSYC 5316-010 Advanced Quantitative Methods & Experiment Design\Lab 2 - the flanker task (an experiment on attention)","no","mono","no","18","no","white","no","yes","768","legacy","53","53","C:/Users/suici/Desktop/Tarleton/Fall 2021 - Graduate Studies/PSYC 5316-010 Advanced Quantitative Methods & Experiment Design/Lab 2 - the flanker task (an experiment on attention)/SM-subject-2.csv","legacy","Lentiform Loewenfeld","3.3.9","0","s","NA","s","NA","NA","s","406","NA","100264","NA","NA","406","2","legacy","1024","2","48000","-16","experiment","SSSSS","2","even","190529","101671","NA","NA","157825","1404","NA","NA","191557","1406","NA","NA","191657","192063","191555","191657","Flanker Task","52","29363","54","yes","1024"
"96.3636363636","96.3636363636","543.272727273","543.272727273","black","legacy","legacy","legacy","0","incongruent","uniform","1","undefined","1","h","54","0","0","0","54","0","54","0","54","0","0","0","54","54","54","54","09/26/21 13:03:20","1500","The main experiment item","yes","FlankerTask.osexp","C:\Users\suici\Desktop\Tarleton\Fall 2021 - Graduate Studies\PSYC 5316-010 Advanced Quantitative Methods & Experiment Design\Lab 2 - the flanker task (an experiment on attention)","no","mono","no","18","no","white","no","yes","768","legacy","54","54","C:/Users/suici/Desktop/Tarleton/Fall 2021 - Graduate Studies/PSYC 5316-010 Advanced Quantitative Methods & Experiment Design/Lab 2 - the flanker task (an experiment on attention)/SM-subject-2.csv","legacy","Lentiform Loewenfeld","3.3.9","0","h","NA","s","NA","NA","h","517","NA","100264","NA","NA","517","2","legacy","1024","2","48000","-16","experiment","SSHSS","2","even","192065","101671","NA","NA","157825","1404","NA","NA","193093","1406","NA","NA","193193","193710","193091","193193","Flanker Task","53","29880","55","yes","1024"
"96.4285714286","96.4285714286","540.982142857","540.982142857","black","legacy","legacy","legacy","0","congruent","uniform","1","undefined","1","h","55","0","0","0","55","0","55","0","55","0","0","0","55","55","55","55","09/26/21 13:03:20","1500","The main experiment item","yes","FlankerTask.osexp","C:\Users\suici\Desktop\Tarleton\Fall 2021 - Graduate Studies\PSYC 5316-010 Advanced Quantitative Methods & Experiment Design\Lab 2 - the flanker task (an experiment on attention)","no","mono","no","18","no","white","no","yes","768","legacy","55","55","C:/Users/suici/Desktop/Tarleton/Fall 2021 - Graduate Studies/PSYC 5316-010 Advanced Quantitative Methods & Experiment Design/Lab 2 - the flanker task (an experiment on attention)/SM-subject-2.csv","legacy","Lentiform Loewenfeld","3.3.9","0","h","NA","s","NA","NA","h","415","NA","100264","NA","NA","415","2","legacy","1024","2","48000","-16","experiment","HHHHH","2","even","193712","101671","NA","NA","157825","1404","NA","NA","194739","1406","NA","NA","194839","195255","194738","194839","Flanker Task","54","30295","56","yes","1024"
"96.4912280702","96.4912280702","538.192982456","538.192982456","black","legacy","legacy","legacy","0","congruent","uniform","1","undefined","1","h","56","0","0","0","56","0","56","0","56","0","0","0","56","56","56","56","09/26/21 13:03:20","1500","The main experiment item","yes","FlankerTask.osexp","C:\Users\suici\Desktop\Tarleton\Fall 2021 - Graduate Studies\PSYC 5316-010 Advanced Quantitative Methods & Experiment Design\Lab 2 - the flanker task (an experiment on attention)","no","mono","no","18","no","white","no","yes","768","legacy","56","56","C:/Users/suici/Desktop/Tarleton/Fall 2021 - Graduate Studies/PSYC 5316-010 Advanced Quantitative Methods & Experiment Design/Lab 2 - the flanker task (an experiment on attention)/SM-subject-2.csv","legacy","Lentiform Loewenfeld","3.3.9","0","h","NA","s","NA","NA","h","382","NA","100264","NA","NA","382","2","legacy","1024","2","48000","-16","experiment","HHHHH","2","even","195256","101671","NA","NA","157825","1404","NA","NA","196284","1406","NA","NA","196384","196767","196283","196384","Flanker Task","55","30677","57","yes","1024"
"96.5517241379","96.5517241379","536.724137931","536.724137931","black","legacy","legacy","legacy","0","incongruent","uniform","1","undefined","1","h","57","0","0","0","57","0","57","0","57","0","0","0","57","57","57","57","09/26/21 13:03:20","1500","The main experiment item","yes","FlankerTask.osexp","C:\Users\suici\Desktop\Tarleton\Fall 2021 - Graduate Studies\PSYC 5316-010 Advanced Quantitative Methods & Experiment Design\Lab 2 - the flanker task (an experiment on attention)","no","mono","no","18","no","white","no","yes","768","legacy","57","57","C:/Users/suici/Desktop/Tarleton/Fall 2021 - Graduate Studies/PSYC 5316-010 Advanced Quantitative Methods & Experiment Design/Lab 2 - the flanker task (an experiment on attention)/SM-subject-2.csv","legacy","Lentiform Loewenfeld","3.3.9","0","h","NA","s","NA","NA","h","453","NA","100264","NA","NA","453","2","legacy","1024","2","48000","-16","experiment","SSHSS","2","even","196769","101671","NA","NA","157825","1404","NA","NA","197797","1406","NA","NA","197897","198351","197796","197897","Flanker Task","56","31130","58","yes","1024"
"96.6101694915","96.6101694915","534.101694915","534.101694915","black","legacy","legacy","legacy","0","incongruent","uniform","1","undefined","1","h","58","0","0","0","58","0","58","0","58","0","0","0","58","58","58","58","09/26/21 13:03:20","1500","The main experiment item","yes","FlankerTask.osexp","C:\Users\suici\Desktop\Tarleton\Fall 2021 - Graduate Studies\PSYC 5316-010 Advanced Quantitative Methods & Experiment Design\Lab 2 - the flanker task (an experiment on attention)","no","mono","no","18","no","white","no","yes","768","legacy","58","58","C:/Users/suici/Desktop/Tarleton/Fall 2021 - Graduate Studies/PSYC 5316-010 Advanced Quantitative Methods & Experiment Design/Lab 2 - the flanker task (an experiment on attention)/SM-subject-2.csv","legacy","Lentiform Loewenfeld","3.3.9","0","h","NA","s","NA","NA","h","382","NA","100264","NA","NA","382","2","legacy","1024","2","48000","-16","experiment","SSHSS","2","even","198352","101671","NA","NA","157825","1404","NA","NA","199380","1406","NA","NA","199480","199862","199379","199480","Flanker Task","57","31512","59","yes","1024"
"96.6666666667","96.6666666667","531.733333333","531.733333333","black","legacy","legacy","legacy","0","incongruent","uniform","1","undefined","1","h","59","0","0","0","59","0","59","0","59","0","0","0","59","59","59","59","09/26/21 13:03:20","1500","The main experiment item","yes","FlankerTask.osexp","C:\Users\suici\Desktop\Tarleton\Fall 2021 - Graduate Studies\PSYC 5316-010 Advanced Quantitative Methods & Experiment Design\Lab 2 - the flanker task (an experiment on attention)","no","mono","no","18","no","white","no","yes","768","legacy","59","59","C:/Users/suici/Desktop/Tarleton/Fall 2021 - Graduate Studies/PSYC 5316-010 Advanced Quantitative Methods & Experiment Design/Lab 2 - the flanker task (an experiment on attention)/SM-subject-2.csv","legacy","Lentiform Loewenfeld","3.3.9","0","h","NA","s","NA","NA","h","392","NA","100264","NA","NA","392","2","legacy","1024","2","48000","-16","experiment","SSHSS","2","even","199864","101671","NA","NA","157825","1404","NA","NA","200891","1406","NA","NA","200991","201383","200890","200991","Flanker Task","58","31904","60","yes","1024"
"95.0819672131","95.0819672131","529.262295082","529.262295082","black","legacy","legacy","legacy","0","incongruent","uniform","0","undefined","0","s","60","0","0","0","60","0","60","0","60","0","0","0","60","60","60","60","09/26/21 13:03:20","1500","The main experiment item","yes","FlankerTask.osexp","C:\Users\suici\Desktop\Tarleton\Fall 2021 - Graduate Studies\PSYC 5316-010 Advanced Quantitative Methods & Experiment Design\Lab 2 - the flanker task (an experiment on attention)","no","mono","no","18","no","white","no","yes","768","legacy","60","60","C:/Users/suici/Desktop/Tarleton/Fall 2021 - Graduate Studies/PSYC 5316-010 Advanced Quantitative Methods & Experiment Design/Lab 2 - the flanker task (an experiment on attention)/SM-subject-2.csv","legacy","Lentiform Loewenfeld","3.3.9","0","h","NA","s","NA","NA","h","381","NA","100264","NA","NA","381","2","legacy","1024","2","48000","-16","experiment","HHSHH","2","even","201385","101671","NA","NA","157825","1404","NA","NA","202413","1406","NA","NA","202513","202895","202411","202513","Flanker Task","58","32285","61","yes","1024"
"95.1612903226","95.1612903226","526.548387097","526.548387097","black","legacy","legacy","legacy","0","congruent","uniform","1","undefined","1","s","61","0","0","0","61","0","61","0","61","0","0","0","61","61","61","61","09/26/21 13:03:20","1500","The main experiment item","yes","FlankerTask.osexp","C:\Users\suici\Desktop\Tarleton\Fall 2021 - Graduate Studies\PSYC 5316-010 Advanced Quantitative Methods & Experiment Design\Lab 2 - the flanker task (an experiment on attention)","no","mono","no","18","no","white","no","yes","768","legacy","61","61","C:/Users/suici/Desktop/Tarleton/Fall 2021 - Graduate Studies/PSYC 5316-010 Advanced Quantitative Methods & Experiment Design/Lab 2 - the flanker task (an experiment on attention)/SM-subject-2.csv","legacy","Lentiform Loewenfeld","3.3.9","0","s","NA","s","NA","NA","s","361","NA","100264","NA","NA","361","2","legacy","1024","2","48000","-16","experiment","SSSSS","2","even","203397","101671","NA","NA","202896","1404","NA","NA","204424","1406","NA","NA","204525","204886","204423","204525","Flanker Task","59","32646","62","yes","1024"
"95.2380952381","95.2380952381","524.380952381","524.380952381","black","legacy","legacy","legacy","0","congruent","uniform","1","undefined","1","s","62","0","0","0","62","0","62","0","62","0","0","0","62","62","62","62","09/26/21 13:03:20","1500","The main experiment item","yes","FlankerTask.osexp","C:\Users\suici\Desktop\Tarleton\Fall 2021 - Graduate Studies\PSYC 5316-010 Advanced Quantitative Methods & Experiment Design\Lab 2 - the flanker task (an experiment on attention)","no","mono","no","18","no","white","no","yes","768","legacy","62","62","C:/Users/suici/Desktop/Tarleton/Fall 2021 - Graduate Studies/PSYC 5316-010 Advanced Quantitative Methods & Experiment Design/Lab 2 - the flanker task (an experiment on attention)/SM-subject-2.csv","legacy","Lentiform Loewenfeld","3.3.9","0","s","NA","s","NA","NA","s","390","NA","100264","NA","NA","390","2","legacy","1024","2","48000","-16","experiment","SSSSS","2","even","204888","101671","NA","NA","202896","1404","NA","NA","205916","1406","NA","NA","206016","206407","205914","206016","Flanker Task","60","33036","63","yes","1024"
"95.3125","95.3125","523.90625","523.90625","black","legacy","legacy","legacy","0","incongruent","uniform","1","undefined","1","s","63","0","0","0","63","0","63","0","63","0","0","0","63","63","63","63","09/26/21 13:03:20","1500","The main experiment item","yes","FlankerTask.osexp","C:\Users\suici\Desktop\Tarleton\Fall 2021 - Graduate Studies\PSYC 5316-010 Advanced Quantitative Methods & Experiment Design\Lab 2 - the flanker task (an experiment on attention)","no","mono","no","18","no","white","no","yes","768","legacy","63","63","C:/Users/suici/Desktop/Tarleton/Fall 2021 - Graduate Studies/PSYC 5316-010 Advanced Quantitative Methods & Experiment Design/Lab 2 - the flanker task (an experiment on attention)/SM-subject-2.csv","legacy","Lentiform Loewenfeld","3.3.9","0","s","NA","s","NA","NA","s","494","NA","100264","NA","NA","494","2","legacy","1024","2","48000","-16","experiment","HHSHH","2","even","206409","101671","NA","NA","202896","1404","NA","NA","207437","1406","NA","NA","207537","208031","207435","207537","Flanker Task","61","33530","64","yes","1024"
"95.3846153846","95.3846153846","523.692307692","523.692307692","black","legacy","legacy","legacy","0","incongruent","uniform","1","undefined","1","s","64","0","0","0","64","0","64","0","64","0","0","0","64","64","64","64","09/26/21 13:03:20","1500","The main experiment item","yes","FlankerTask.osexp","C:\Users\suici\Desktop\Tarleton\Fall 2021 - Graduate Studies\PSYC 5316-010 Advanced Quantitative Methods & Experiment Design\Lab 2 - the flanker task (an experiment on attention)","no","mono","no","18","no","white","no","yes","768","legacy","64","64","C:/Users/suici/Desktop/Tarleton/Fall 2021 - Graduate Studies/PSYC 5316-010 Advanced Quantitative Methods & Experiment Design/Lab 2 - the flanker task (an experiment on attention)/SM-subject-2.csv","legacy","Lentiform Loewenfeld","3.3.9","0","s","NA","s","NA","NA","s","510","NA","100264","NA","NA","510","2","legacy","1024","2","48000","-16","experiment","HHSHH","2","even","208033","101671","NA","NA","202896","1404","NA","NA","209060","1406","NA","NA","209160","209671","209059","209160","Flanker Task","62","34040","65","yes","1024"
"95.4545454545","95.4545454545","522.060606061","522.060606061","black","legacy","legacy","legacy","0","congruent","uniform","1","undefined","1","h","65","0","0","0","65","0","65","0","65","0","0","0","65","65","65","65","09/26/21 13:03:20","1500","The main experiment item","yes","FlankerTask.osexp","C:\Users\suici\Desktop\Tarleton\Fall 2021 - Graduate Studies\PSYC 5316-010 Advanced Quantitative Methods & Experiment Design\Lab 2 - the flanker task (an experiment on attention)","no","mono","no","18","no","white","no","yes","768","legacy","65","65","C:/Users/suici/Desktop/Tarleton/Fall 2021 - Graduate Studies/PSYC 5316-010 Advanced Quantitative Methods & Experiment Design/Lab 2 - the flanker task (an experiment on attention)/SM-subject-2.csv","legacy","Lentiform Loewenfeld","3.3.9","0","h","NA","s","NA","NA","h","416","NA","100264","NA","NA","416","2","legacy","1024","2","48000","-16","experiment","HHHHH","2","even","209672","101671","NA","NA","202896","1404","NA","NA","210699","1406","NA","NA","210799","211215","210698","210799","Flanker Task","63","34456","66","yes","1024"
"95.5223880597","95.5223880597","522.223880597","522.223880597","black","legacy","legacy","legacy","0","incongruent","uniform","1","undefined","1","s","66","0","0","0","66","0","66","0","66","0","0","0","66","66","66","66","09/26/21 13:03:20","1500","The main experiment item","yes","FlankerTask.osexp","C:\Users\suici\Desktop\Tarleton\Fall 2021 - Graduate Studies\PSYC 5316-010 Advanced Quantitative Methods & Experiment Design\Lab 2 - the flanker task (an experiment on attention)","no","mono","no","18","no","white","no","yes","768","legacy","66","66","C:/Users/suici/Desktop/Tarleton/Fall 2021 - Graduate Studies/PSYC 5316-010 Advanced Quantitative Methods & Experiment Design/Lab 2 - the flanker task (an experiment on attention)/SM-subject-2.csv","legacy","Lentiform Loewenfeld","3.3.9","0","s","NA","s","NA","NA","s","533","NA","100264","NA","NA","533","2","legacy","1024","2","48000","-16","experiment","HHSHH","2","even","211217","101671","NA","NA","202896","1404","NA","NA","212245","1406","NA","NA","212345","212879","212243","212345","Flanker Task","64","34989","67","yes","1024"
"95.5882352941","95.5882352941","521","521","black","legacy","legacy","legacy","0","incongruent","uniform","1","undefined","1","s","67","0","0","0","67","0","67","0","67","0","0","0","67","67","67","67","09/26/21 13:03:20","1500","The main experiment item","yes","FlankerTask.osexp","C:\Users\suici\Desktop\Tarleton\Fall 2021 - Graduate Studies\PSYC 5316-010 Advanced Quantitative Methods & Experiment Design\Lab 2 - the flanker task (an experiment on attention)","no","mono","no","18","no","white","no","yes","768","legacy","67","67","C:/Users/suici/Desktop/Tarleton/Fall 2021 - Graduate Studies/PSYC 5316-010 Advanced Quantitative Methods & Experiment Design/Lab 2 - the flanker task (an experiment on attention)/SM-subject-2.csv","legacy","Lentiform Loewenfeld","3.3.9","0","s","NA","s","NA","NA","s","439","NA","100264","NA","NA","439","2","legacy","1024","2","48000","-16","experiment","HHSHH","2","even","212880","101671","NA","NA","202896","1404","NA","NA","213908","1406","NA","NA","214008","214447","213906","214008","Flanker Task","65","35428","68","yes","1024"
"95.652173913","95.652173913","520.376811594","520.376811594","black","legacy","legacy","legacy","0","incongruent","uniform","1","undefined","1","h","68","0","0","0","68","0","68","0","68","0","0","0","68","68","68","68","09/26/21 13:03:20","1500","The main experiment item","yes","FlankerTask.osexp","C:\Users\suici\Desktop\Tarleton\Fall 2021 - Graduate Studies\PSYC 5316-010 Advanced Quantitative Methods & Experiment Design\Lab 2 - the flanker task (an experiment on attention)","no","mono","no","18","no","white","no","yes","768","legacy","68","68","C:/Users/suici/Desktop/Tarleton/Fall 2021 - Graduate Studies/PSYC 5316-010 Advanced Quantitative Methods & Experiment Design/Lab 2 - the flanker task (an experiment on attention)/SM-subject-2.csv","legacy","Lentiform Loewenfeld","3.3.9","0","h","NA","s","NA","NA","h","478","NA","100264","NA","NA","478","2","legacy","1024","2","48000","-16","experiment","SSHSS","2","even","214449","101671","NA","NA","202896","1404","NA","NA","215476","1406","NA","NA","215576","216055","215475","215576","Flanker Task","66","35906","69","yes","1024"
"95.7142857143","95.7142857143","518.871428571","518.871428571","black","legacy","legacy","legacy","0","incongruent","uniform","1","undefined","1","s","69","0","0","0","69","0","69","0","69","0","0","0","69","69","69","69","09/26/21 13:03:20","1500","The main experiment item","yes","FlankerTask.osexp","C:\Users\suici\Desktop\Tarleton\Fall 2021 - Graduate Studies\PSYC 5316-010 Advanced Quantitative Methods & Experiment Design\Lab 2 - the flanker task (an experiment on attention)","no","mono","no","18","no","white","no","yes","768","legacy","69","69","C:/Users/suici/Desktop/Tarleton/Fall 2021 - Graduate Studies/PSYC 5316-010 Advanced Quantitative Methods & Experiment Design/Lab 2 - the flanker task (an experiment on attention)/SM-subject-2.csv","legacy","Lentiform Loewenfeld","3.3.9","0","s","NA","s","NA","NA","s","415","NA","100264","NA","NA","415","2","legacy","1024","2","48000","-16","experiment","HHSHH","2","even","216056","101671","NA","NA","202896","1404","NA","NA","217083","1406","NA","NA","217183","217599","217082","217183","Flanker Task","67","36321","70","yes","1024"
"95.7746478873","95.7746478873","518.183098592","518.183098592","black","legacy","legacy","legacy","0","incongruent","uniform","1","undefined","1","s","70","0","0","0","70","0","70","0","70","0","0","0","70","70","70","70","09/26/21 13:03:20","1500","The main experiment item","yes","FlankerTask.osexp","C:\Users\suici\Desktop\Tarleton\Fall 2021 - Graduate Studies\PSYC 5316-010 Advanced Quantitative Methods & Experiment Design\Lab 2 - the flanker task (an experiment on attention)","no","mono","no","18","no","white","no","yes","768","legacy","70","70","C:/Users/suici/Desktop/Tarleton/Fall 2021 - Graduate Studies/PSYC 5316-010 Advanced Quantitative Methods & Experiment Design/Lab 2 - the flanker task (an experiment on attention)/SM-subject-2.csv","legacy","Lentiform Loewenfeld","3.3.9","0","s","NA","s","NA","NA","s","470","NA","100264","NA","NA","470","2","legacy","1024","2","48000","-16","experiment","HHSHH","2","even","217600","101671","NA","NA","202896","1404","NA","NA","218628","1406","NA","NA","218728","219199","218627","218728","Flanker Task","68","36791","71","yes","1024"
"95.8333333333","95.8333333333","517.763888889","517.763888889","black","legacy","legacy","legacy","0","incongruent","uniform","1","undefined","1","s","71","0","0","0","71","0","71","0","71","0","0","0","71","71","71","71","09/26/21 13:03:20","1500","The main experiment item","yes","FlankerTask.osexp","C:\Users\suici\Desktop\Tarleton\Fall 2021 - Graduate Studies\PSYC 5316-010 Advanced Quantitative Methods & Experiment Design\Lab 2 - the flanker task (an experiment on attention)","no","mono","no","18","no","white","no","yes","768","legacy","71","71","C:/Users/suici/Desktop/Tarleton/Fall 2021 - Graduate Studies/PSYC 5316-010 Advanced Quantitative Methods & Experiment Design/Lab 2 - the flanker task (an experiment on attention)/SM-subject-2.csv","legacy","Lentiform Loewenfeld","3.3.9","0","s","NA","s","NA","NA","s","488","NA","100264","NA","NA","488","2","legacy","1024","2","48000","-16","experiment","HHSHH","2","even","219200","101671","NA","NA","202896","1404","NA","NA","220227","1406","NA","NA","220327","220815","220226","220327","Flanker Task","69","37279","72","yes","1024"
"95.8904109589","95.8904109589","516.465753425","516.465753425","black","legacy","legacy","legacy","0","congruent","uniform","1","undefined","1","h","72","0","0","0","72","0","72","0","72","0","0","0","72","72","72","72","09/26/21 13:03:20","1500","The main experiment item","yes","FlankerTask.osexp","C:\Users\suici\Desktop\Tarleton\Fall 2021 - Graduate Studies\PSYC 5316-010 Advanced Quantitative Methods & Experiment Design\Lab 2 - the flanker task (an experiment on attention)","no","mono","no","18","no","white","no","yes","768","legacy","72","72","C:/Users/suici/Desktop/Tarleton/Fall 2021 - Graduate Studies/PSYC 5316-010 Advanced Quantitative Methods & Experiment Design/Lab 2 - the flanker task (an experiment on attention)/SM-subject-2.csv","legacy","Lentiform Loewenfeld","3.3.9","0","h","NA","s","NA","NA","h","423","NA","100264","NA","NA","423","2","legacy","1024","2","48000","-16","experiment","HHHHH","2","even","220817","101671","NA","NA","202896","1404","NA","NA","221844","1406","NA","NA","221944","222367","221843","221944","Flanker Task","70","37702","73","yes","1024"
"95.9459459459","95.9459459459","515.202702703","515.202702703","black","legacy","legacy","legacy","0","congruent","uniform","1","undefined","1","s","73","0","0","0","73","0","73","0","73","0","0","0","73","73","73","73","09/26/21 13:03:20","1500","The main experiment item","yes","FlankerTask.osexp","C:\Users\suici\Desktop\Tarleton\Fall 2021 - Graduate Studies\PSYC 5316-010 Advanced Quantitative Methods & Experiment Design\Lab 2 - the flanker task (an experiment on attention)","no","mono","no","18","no","white","no","yes","768","legacy","73","73","C:/Users/suici/Desktop/Tarleton/Fall 2021 - Graduate Studies/PSYC 5316-010 Advanced Quantitative Methods & Experiment Design/Lab 2 - the flanker task (an experiment on attention)/SM-subject-2.csv","legacy","Lentiform Loewenfeld","3.3.9","0","s","NA","s","NA","NA","s","423","NA","100264","NA","NA","423","2","legacy","1024","2","48000","-16","experiment","SSSSS","2","even","222369","101671","NA","NA","202896","1404","NA","NA","223396","1406","NA","NA","223496","223919","223395","223496","Flanker Task","71","38125","74","yes","1024"
"94.6666666667","94.6666666667","512.773333333","512.773333333","black","legacy","legacy","legacy","0","incongruent","uniform","0","undefined","0","h","74","0","0","0","74","0","74","0","74","0","0","0","74","74","74","74","09/26/21 13:03:20","1500","The main experiment item","yes","FlankerTask.osexp","C:\Users\suici\Desktop\Tarleton\Fall 2021 - Graduate Studies\PSYC 5316-010 Advanced Quantitative Methods & Experiment Design\Lab 2 - the flanker task (an experiment on attention)","no","mono","no","18","no","white","no","yes","768","legacy","74","74","C:/Users/suici/Desktop/Tarleton/Fall 2021 - Graduate Studies/PSYC 5316-010 Advanced Quantitative Methods & Experiment Design/Lab 2 - the flanker task (an experiment on attention)/SM-subject-2.csv","legacy","Lentiform Loewenfeld","3.3.9","0","s","NA","s","NA","NA","s","333","NA","100264","NA","NA","333","2","legacy","1024","2","48000","-16","experiment","SSHSS","2","even","223921","101671","NA","NA","202896","1404","NA","NA","224949","1406","NA","NA","225049","225383","224948","225049","Flanker Task","71","38458","75","yes","1024"
"94.7368421053","94.7368421053","511.644736842","511.644736842","black","legacy","legacy","legacy","0","congruent","uniform","1","undefined","1","h","75","0","0","0","75","0","75","0","75","0","0","0","75","75","75","75","09/26/21 13:03:20","1500","The main experiment item","yes","FlankerTask.osexp","C:\Users\suici\Desktop\Tarleton\Fall 2021 - Graduate Studies\PSYC 5316-010 Advanced Quantitative Methods & Experiment Design\Lab 2 - the flanker task (an experiment on attention)","no","mono","no","18","no","white","no","yes","768","legacy","75","75","C:/Users/suici/Desktop/Tarleton/Fall 2021 - Graduate Studies/PSYC 5316-010 Advanced Quantitative Methods & Experiment Design/Lab 2 - the flanker task (an experiment on attention)/SM-subject-2.csv","legacy","Lentiform Loewenfeld","3.3.9","0","h","NA","s","NA","NA","h","427","NA","100264","NA","NA","427","2","legacy","1024","2","48000","-16","experiment","HHHHH","2","even","225884","101671","NA","NA","225384","1404","NA","NA","226911","1406","NA","NA","227011","227439","226910","227011","Flanker Task","72","38885","76","yes","1024"
"94.8051948052","94.8051948052","509.961038961","509.961038961","black","legacy","legacy","legacy","0","congruent","uniform","1","undefined","1","s","76","0","0","0","76","0","76","0","76","0","0","0","76","76","76","76","09/26/21 13:03:20","1500","The main experiment item","yes","FlankerTask.osexp","C:\Users\suici\Desktop\Tarleton\Fall 2021 - Graduate Studies\PSYC 5316-010 Advanced Quantitative Methods & Experiment Design\Lab 2 - the flanker task (an experiment on attention)","no","mono","no","18","no","white","no","yes","768","legacy","76","76","C:/Users/suici/Desktop/Tarleton/Fall 2021 - Graduate Studies/PSYC 5316-010 Advanced Quantitative Methods & Experiment Design/Lab 2 - the flanker task (an experiment on attention)/SM-subject-2.csv","legacy","Lentiform Loewenfeld","3.3.9","0","s","NA","s","NA","NA","s","382","NA","100264","NA","NA","382","2","legacy","1024","2","48000","-16","experiment","SSSSS","2","even","227441","101671","NA","NA","225384","1404","NA","NA","228468","1406","NA","NA","228568","228950","228467","228568","Flanker Task","73","39267","77","yes","1024"
"94.8717948718","94.8717948718","509.987179487","509.987179487","black","legacy","legacy","legacy","0","incongruent","uniform","1","undefined","1","h","77","0","0","0","77","0","77","0","77","0","0","0","77","77","77","77","09/26/21 13:03:20","1500","The main experiment item","yes","FlankerTask.osexp","C:\Users\suici\Desktop\Tarleton\Fall 2021 - Graduate Studies\PSYC 5316-010 Advanced Quantitative Methods & Experiment Design\Lab 2 - the flanker task (an experiment on attention)","no","mono","no","18","no","white","no","yes","768","legacy","77","77","C:/Users/suici/Desktop/Tarleton/Fall 2021 - Graduate Studies/PSYC 5316-010 Advanced Quantitative Methods & Experiment Design/Lab 2 - the flanker task (an experiment on attention)/SM-subject-2.csv","legacy","Lentiform Loewenfeld","3.3.9","0","h","NA","s","NA","NA","h","512","NA","100264","NA","NA","512","2","legacy","1024","2","48000","-16","experiment","SSHSS","2","even","228952","101671","NA","NA","225384","1404","NA","NA","229979","1406","NA","NA","230079","230591","229978","230079","Flanker Task","74","39779","78","yes","1024"
"94.9367088608","94.9367088608","510.189873418","510.189873418","black","legacy","legacy","legacy","0","incongruent","uniform","1","undefined","1","s","78","0","0","0","78","0","78","0","78","0","0","0","78","78","78","78","09/26/21 13:03:20","1500","The main experiment item","yes","FlankerTask.osexp","C:\Users\suici\Desktop\Tarleton\Fall 2021 - Graduate Studies\PSYC 5316-010 Advanced Quantitative Methods & Experiment Design\Lab 2 - the flanker task (an experiment on attention)","no","mono","no","18","no","white","no","yes","768","legacy","78","78","C:/Users/suici/Desktop/Tarleton/Fall 2021 - Graduate Studies/PSYC 5316-010 Advanced Quantitative Methods & Experiment Design/Lab 2 - the flanker task (an experiment on attention)/SM-subject-2.csv","legacy","Lentiform Loewenfeld","3.3.9","0","s","NA","s","NA","NA","s","526","NA","100264","NA","NA","526","2","legacy","1024","2","48000","-16","experiment","HHSHH","2","even","230593","101671","NA","NA","225384","1404","NA","NA","231620","1406","NA","NA","231720","232247","231619","231720","Flanker Task","75","40305","79","yes","1024"
"95","95","508.9625","508.9625","black","legacy","legacy","legacy","0","incongruent","uniform","1","undefined","1","s","79","0","0","0","79","0","79","0","79","0","0","0","79","79","79","79","09/26/21 13:03:20","1500","The main experiment item","yes","FlankerTask.osexp","C:\Users\suici\Desktop\Tarleton\Fall 2021 - Graduate Studies\PSYC 5316-010 Advanced Quantitative Methods & Experiment Design\Lab 2 - the flanker task (an experiment on attention)","no","mono","no","18","no","white","no","yes","768","legacy","79","79","C:/Users/suici/Desktop/Tarleton/Fall 2021 - Graduate Studies/PSYC 5316-010 Advanced Quantitative Methods & Experiment Design/Lab 2 - the flanker task (an experiment on attention)/SM-subject-2.csv","legacy","Lentiform Loewenfeld","3.3.9","0","s","NA","s","NA","NA","s","412","NA","100264","NA","NA","412","2","legacy","1024","2","48000","-16","experiment","HHSHH","2","even","232249","101671","NA","NA","225384","1404","NA","NA","233278","1406","NA","NA","233378","233790","233276","233378","Flanker Task","76","40717","80","yes","1024"
"95.0617283951","95.0617283951","509.592592593","509.592592593","black","legacy","legacy","legacy","0","congruent","uniform","1","undefined","1","h","80","0","0","0","80","0","80","0","80","0","0","0","80","80","80","80","09/26/21 13:03:20","600","The main experiment item","yes","FlankerTask.osexp","C:\Users\suici\Desktop\Tarleton\Fall 2021 - Graduate Studies\PSYC 5316-010 Advanced Quantitative Methods & Experiment Design\Lab 2 - the flanker task (an experiment on attention)","no","mono","no","18","no","white","no","yes","768","legacy","0","79","C:/Users/suici/Desktop/Tarleton/Fall 2021 - Graduate Studies/PSYC 5316-010 Advanced Quantitative Methods & Experiment Design/Lab 2 - the flanker task (an experiment on attention)/SM-subject-2.csv","legacy","Lentiform Loewenfeld","3.3.9","0","h","NA","s","h","NA","h","560","NA","100264","13577","NA","560","2","legacy","1024","2","48000","-16","experiment","HHHHH","2","even","233792","101671","248375","NA","225384","1404","NA","NA","248402","1406","234798","NA","248502","249063","248401","248502","Flanker Task","77","41277","81","yes","1024"
"95.1219512195","95.1219512195","508.634146341","508.634146341","black","legacy","legacy","legacy","0","congruent","uniform","1","undefined","1","h","81","0","0","0","81","0","81","0","81","0","0","0","81","81","81","81","09/26/21 13:03:20","600","The main experiment item","yes","FlankerTask.osexp","C:\Users\suici\Desktop\Tarleton\Fall 2021 - Graduate Studies\PSYC 5316-010 Advanced Quantitative Methods & Experiment Design\Lab 2 - the flanker task (an experiment on attention)","no","mono","no","18","no","white","no","yes","768","legacy","1","79","C:/Users/suici/Desktop/Tarleton/Fall 2021 - Graduate Studies/PSYC 5316-010 Advanced Quantitative Methods & Experiment Design/Lab 2 - the flanker task (an experiment on attention)/SM-subject-2.csv","legacy","Lentiform Loewenfeld","3.3.9","0","h","NA","s","h","NA","h","431","NA","100264","13577","NA","431","2","legacy","1024","2","48000","-16","experiment","HHHHH","2","even","249064","101671","248375","NA","225384","1404","NA","NA","250091","1406","234798","NA","250191","250622","250090","250191","Flanker Task","78","41708","82","yes","1024"
"95.1807228916","95.1807228916","508.144578313","508.144578313","black","legacy","legacy","legacy","0","incongruent","uniform","1","undefined","1","s","82","0","0","0","82","0","82","0","82","0","0","0","82","82","82","82","09/26/21 13:03:20","600","The main experiment item","yes","FlankerTask.osexp","C:\Users\suici\Desktop\Tarleton\Fall 2021 - Graduate Studies\PSYC 5316-010 Advanced Quantitative Methods & Experiment Design\Lab 2 - the flanker task (an experiment on attention)","no","mono","no","18","no","white","no","yes","768","legacy","2","79","C:/Users/suici/Desktop/Tarleton/Fall 2021 - Graduate Studies/PSYC 5316-010 Advanced Quantitative Methods & Experiment Design/Lab 2 - the flanker task (an experiment on attention)/SM-subject-2.csv","legacy","Lentiform Loewenfeld","3.3.9","0","s","NA","s","h","NA","s","468","NA","100264","13577","NA","468","2","legacy","1024","2","48000","-16","experiment","HHSHH","2","even","250625","101671","248375","NA","225384","1404","NA","NA","251654","1406","234798","NA","251754","252223","251652","251754","Flanker Task","79","42176","83","yes","1024"
"95.2380952381","95.2380952381","507.988095238","507.988095238","black","legacy","legacy","legacy","0","incongruent","uniform","1","undefined","1","s","83","0","0","0","83","0","83","0","83","0","0","0","83","83","83","83","09/26/21 13:03:20","600","The main experiment item","yes","FlankerTask.osexp","C:\Users\suici\Desktop\Tarleton\Fall 2021 - Graduate Studies\PSYC 5316-010 Advanced Quantitative Methods & Experiment Design\Lab 2 - the flanker task (an experiment on attention)","no","mono","no","18","no","white","no","yes","768","legacy","3","79","C:/Users/suici/Desktop/Tarleton/Fall 2021 - Graduate Studies/PSYC 5316-010 Advanced Quantitative Methods & Experiment Design/Lab 2 - the flanker task (an experiment on attention)/SM-subject-2.csv","legacy","Lentiform Loewenfeld","3.3.9","0","s","NA","s","h","NA","s","495","NA","100264","13577","NA","495","2","legacy","1024","2","48000","-16","experiment","HHSHH","2","even","252224","101671","248375","NA","225384","1404","NA","NA","253251","1406","234798","NA","253351","253846","253250","253351","Flanker Task","80","42671","84","yes","1024"
"95.2941176471","95.2941176471","506.705882353","506.705882353","black","legacy","legacy","legacy","0","congruent","uniform","1","undefined","1","h","84","0","0","0","84","0","84","0","84","0","0","0","84","84","84","84","09/26/21 13:03:20","600","The main experiment item","yes","FlankerTask.osexp","C:\Users\suici\Desktop\Tarleton\Fall 2021 - Graduate Studies\PSYC 5316-010 Advanced Quantitative Methods & Experiment Design\Lab 2 - the flanker task (an experiment on attention)","no","mono","no","18","no","white","no","yes","768","legacy","4","79","C:/Users/suici/Desktop/Tarleton/Fall 2021 - Graduate Studies/PSYC 5316-010 Advanced Quantitative Methods & Experiment Design/Lab 2 - the flanker task (an experiment on attention)/SM-subject-2.csv","legacy","Lentiform Loewenfeld","3.3.9","0","h","NA","s","h","NA","h","399","NA","100264","13577","NA","399","2","legacy","1024","2","48000","-16","experiment","HHHHH","2","even","253848","101671","248375","NA","225384","1404","NA","NA","254875","1406","234798","NA","254975","255374","254874","254975","Flanker Task","81","43070","85","yes","1024"
"95.3488372093","95.3488372093","505.558139535","505.558139535","black","legacy","legacy","legacy","0","incongruent","uniform","1","undefined","1","s","85","0","0","0","85","0","85","0","85","0","0","0","85","85","85","85","09/26/21 13:03:20","600","The main experiment item","yes","FlankerTask.osexp","C:\Users\suici\Desktop\Tarleton\Fall 2021 - Graduate Studies\PSYC 5316-010 Advanced Quantitative Methods & Experiment Design\Lab 2 - the flanker task (an experiment on attention)","no","mono","no","18","no","white","no","yes","768","legacy","5","79","C:/Users/suici/Desktop/Tarleton/Fall 2021 - Graduate Studies/PSYC 5316-010 Advanced Quantitative Methods & Experiment Design/Lab 2 - the flanker task (an experiment on attention)/SM-subject-2.csv","legacy","Lentiform Loewenfeld","3.3.9","0","s","NA","s","h","NA","s","408","NA","100264","13577","NA","408","2","legacy","1024","2","48000","-16","experiment","HHSHH","2","even","255376","101671","248375","NA","225384","1404","NA","NA","256403","1406","234798","NA","256503","256911","256402","256503","Flanker Task","82","43478","86","yes","1024"
"95.4022988506","95.4022988506","504.597701149","504.597701149","black","legacy","legacy","legacy","0","congruent","uniform","1","undefined","1","s","86","0","0","0","86","0","86","0","86","0","0","0","86","86","86","86","09/26/21 13:03:20","600","The main experiment item","yes","FlankerTask.osexp","C:\Users\suici\Desktop\Tarleton\Fall 2021 - Graduate Studies\PSYC 5316-010 Advanced Quantitative Methods & Experiment Design\Lab 2 - the flanker task (an experiment on attention)","no","mono","no","18","no","white","no","yes","768","legacy","6","79","C:/Users/suici/Desktop/Tarleton/Fall 2021 - Graduate Studies/PSYC 5316-010 Advanced Quantitative Methods & Experiment Design/Lab 2 - the flanker task (an experiment on attention)/SM-subject-2.csv","legacy","Lentiform Loewenfeld","3.3.9","0","s","NA","s","h","NA","s","422","NA","100264","13577","NA","422","2","legacy","1024","2","48000","-16","experiment","SSSSS","2","even","256913","101671","248375","NA","225384","1404","NA","NA","257940","1406","234798","NA","258040","258463","257939","258040","Flanker Task","83","43900","87","yes","1024"
"95.4545454545","95.4545454545","503.477272727","503.477272727","black","legacy","legacy","legacy","0","congruent","uniform","1","undefined","1","s","87","0","0","0","87","0","87","0","87","0","0","0","87","87","87","87","09/26/21 13:03:20","600","The main experiment item","yes","FlankerTask.osexp","C:\Users\suici\Desktop\Tarleton\Fall 2021 - Graduate Studies\PSYC 5316-010 Advanced Quantitative Methods & Experiment Design\Lab 2 - the flanker task (an experiment on attention)","no","mono","no","18","no","white","no","yes","768","legacy","7","79","C:/Users/suici/Desktop/Tarleton/Fall 2021 - Graduate Studies/PSYC 5316-010 Advanced Quantitative Methods & Experiment Design/Lab 2 - the flanker task (an experiment on attention)/SM-subject-2.csv","legacy","Lentiform Loewenfeld","3.3.9","0","s","NA","s","h","NA","s","406","NA","100264","13577","NA","406","2","legacy","1024","2","48000","-16","experiment","SSSSS","2","even","258464","101671","248375","NA","225384","1404","NA","NA","259492","1406","234798","NA","259592","259999","259490","259592","Flanker Task","84","44306","88","yes","1024"
"95.5056179775","95.5056179775","504.08988764","504.08988764","black","legacy","legacy","legacy","0","incongruent","uniform","1","undefined","1","h","88","0","0","0","88","0","88","0","88","0","0","0","88","88","88","88","09/26/21 13:03:20","600","The main experiment item","yes","FlankerTask.osexp","C:\Users\suici\Desktop\Tarleton\Fall 2021 - Graduate Studies\PSYC 5316-010 Advanced Quantitative Methods & Experiment Design\Lab 2 - the flanker task (an experiment on attention)","no","mono","no","18","no","white","no","yes","768","legacy","8","79","C:/Users/suici/Desktop/Tarleton/Fall 2021 - Graduate Studies/PSYC 5316-010 Advanced Quantitative Methods & Experiment Design/Lab 2 - the flanker task (an experiment on attention)/SM-subject-2.csv","legacy","Lentiform Loewenfeld","3.3.9","0","h","NA","s","h","NA","h","558","NA","100264","13577","NA","558","2","legacy","1024","2","48000","-16","experiment","SSHSS","2","even","260001","101671","248375","NA","225384","1404","NA","NA","261028","1406","234798","NA","261128","261686","261027","261128","Flanker Task","85","44864","89","yes","1024"
"95.5555555556","95.5555555556","503.366666667","503.366666667","black","legacy","legacy","legacy","0","incongruent","uniform","1","undefined","1","s","89","0","0","0","89","0","89","0","89","0","0","0","89","89","89","89","09/26/21 13:03:20","600","The main experiment item","yes","FlankerTask.osexp","C:\Users\suici\Desktop\Tarleton\Fall 2021 - Graduate Studies\PSYC 5316-010 Advanced Quantitative Methods & Experiment Design\Lab 2 - the flanker task (an experiment on attention)","no","mono","no","18","no","white","no","yes","768","legacy","9","79","C:/Users/suici/Desktop/Tarleton/Fall 2021 - Graduate Studies/PSYC 5316-010 Advanced Quantitative Methods & Experiment Design/Lab 2 - the flanker task (an experiment on attention)/SM-subject-2.csv","legacy","Lentiform Loewenfeld","3.3.9","0","s","NA","s","h","NA","s","439","NA","100264","13577","NA","439","2","legacy","1024","2","48000","-16","experiment","HHSHH","2","even","261688","101671","248375","NA","225384","1404","NA","NA","262715","1406","234798","NA","262815","263255","262714","262815","Flanker Task","86","45303","90","yes","1024"
