acc,accuracy,average_response_time,avg_rt,background,canvas_backend,clock_backend,color_backend,compensation,condition,coordinates,correct,correct_instructions1,correct_keyboard_response,correct_response,count_Finish,count_ISI,count_block1,count_block2,count_block3,count_errorFeedback,count_experiment,count_faster,count_fixation,count_instructions1,count_instructions2,count_instructions3,count_keyboard_response,count_logger,count_sequence_1,count_stimulus,datetime,deadline,description,disable_garbage_collection,experiment_file,experiment_path,font_bold,font_family,font_italic,font_size,font_underline,foreground,form_clicks,fullscreen,height,keyboard_backend,live_row,live_row_block1,logfile,mouse_backend,opensesame_codename,opensesame_version,repeat_cycle,response,response_Finish,response_instructions1,response_instructions2,response_instructions3,response_keyboard_response,response_time,response_time_Finish,response_time_instructions1,response_time_instructions2,response_time_instructions3,response_time_keyboard_response,round_decimals,sampler_backend,sound_buf_size,sound_channels,sound_freq,sound_sample_size,start,stimulus,subject_nr,subject_parity,time_Finish,time_ISI,time_block1,time_block2,time_block3,time_errorFeedback,time_experiment,time_faster,time_fixation,time_instructions1,time_instructions2,time_instructions3,time_keyboard_response,time_logger,time_sequence_1,time_stimulus,title,total_correct,total_response_time,total_responses,uniform_coordinates,width
100,100,1135,1135,black,legacy,legacy,legacy,0,congruent,uniform,1,undefined,1,s,0,0,0,0,0,0,0,0,0,0,0,0,0,0,0,0,9/24/2021 20:30,1500,The main experiment item,yes,Flankertask.osexp,C:/Users/borna.000/Documents/PSYC/PSYC5316,no,mono,no,18,no,white,no,yes,768,legacy,0,0,C:/Users/borna.000/Desktop/SH-subject-3.csv,legacy,Lentiform Loewenfeld,3.3.9,0,s,NA,s,NA,NA,s,1135,NA,519706,NA,NA,1135,2,legacy,1024,2,48000,-16,experiment,SSSSS,3,odd,NA,NA,522124,NA,NA,NA,2412,NA,522202,2416,NA,NA,522304,523439,522201,522304,Flanker task,1,1135,1,yes,1024
100,100,944.5,944.5,black,legacy,legacy,legacy,0,congruent,uniform,1,undefined,1,h,0,1,0,0,0,1,0,1,1,0,0,0,1,1,1,1,9/24/2021 20:30,1500,The main experiment item,yes,Flankertask.osexp,C:/Users/borna.000/Documents/PSYC/PSYC5316,no,mono,no,18,no,white,no,yes,768,legacy,1,1,C:/Users/borna.000/Desktop/SH-subject-3.csv,legacy,Lentiform Loewenfeld,3.3.9,0,h,NA,s,NA,NA,h,754,NA,519706,NA,NA,754,2,legacy,1024,2,48000,-16,experiment,HHHHH,3,odd,NA,523452,522124,NA,NA,NA,2412,NA,524533,2416,NA,NA,524635,525389,524530,524635,Flanker task,2,1889,2,yes,1024
66.66666667,66.66666667,890.6666667,890.6666667,black,legacy,legacy,legacy,0,incongruent,uniform,0,undefined,0,s,0,2,0,0,0,2,0,2,2,0,0,0,2,2,2,2,9/24/2021 20:30,1500,The main experiment item,yes,Flankertask.osexp,C:/Users/borna.000/Documents/PSYC/PSYC5316,no,mono,no,18,no,white,no,yes,768,legacy,2,2,C:/Users/borna.000/Desktop/SH-subject-3.csv,legacy,Lentiform Loewenfeld,3.3.9,0,h,NA,s,NA,NA,h,783,NA,519706,NA,NA,783,2,legacy,1024,2,48000,-16,experiment,HHSHH,3,odd,NA,525397,522124,NA,NA,NA,2412,NA,526474,2416,NA,NA,526576,527360,526471,526576,Flanker task,2,2672,3,yes,1024
50,50,818.25,818.25,black,legacy,legacy,legacy,0,incongruent,uniform,0,undefined,0,h,0,3,0,0,0,3,0,3,3,0,0,0,3,3,3,3,9/24/2021 20:30,1500,The main experiment item,yes,Flankertask.osexp,C:/Users/borna.000/Documents/PSYC/PSYC5316,no,mono,no,18,no,white,no,yes,768,legacy,3,3,C:/Users/borna.000/Desktop/SH-subject-3.csv,legacy,Lentiform Loewenfeld,3.3.9,0,s,NA,s,NA,NA,s,601,NA,519706,NA,NA,601,2,legacy,1024,2,48000,-16,experiment,SSHSS,3,odd,NA,527870,522124,NA,NA,527369,2412,NA,528930,2416,NA,NA,529032,529633,528927,529032,Flanker task,2,3273,4,yes,1024
40,40,771.2,771.2,black,legacy,legacy,legacy,0,incongruent,uniform,0,undefined,0,s,0,4,0,0,0,4,0,4,4,0,0,0,4,4,4,4,9/24/2021 20:30,1500,The main experiment item,yes,Flankertask.osexp,C:/Users/borna.000/Documents/PSYC/PSYC5316,no,mono,no,18,no,white,no,yes,768,legacy,4,4,C:/Users/borna.000/Desktop/SH-subject-3.csv,legacy,Lentiform Loewenfeld,3.3.9,0,h,NA,s,NA,NA,h,583,NA,519706,NA,NA,583,2,legacy,1024,2,48000,-16,experiment,HHSHH,3,odd,NA,530146,522124,NA,NA,529642,2412,NA,531205,2416,NA,NA,531307,531891,531202,531307,Flanker task,2,3856,5,yes,1024
50,50,774.8333333,774.8333333,black,legacy,legacy,legacy,0,incongruent,uniform,1,undefined,1,s,0,5,0,0,0,5,0,5,5,0,0,0,5,5,5,5,9/24/2021 20:30,1500,The main experiment item,yes,Flankertask.osexp,C:/Users/borna.000/Documents/PSYC/PSYC5316,no,mono,no,18,no,white,no,yes,768,legacy,5,5,C:/Users/borna.000/Desktop/SH-subject-3.csv,legacy,Lentiform Loewenfeld,3.3.9,0,s,NA,s,NA,NA,s,793,NA,519706,NA,NA,793,2,legacy,1024,2,48000,-16,experiment,HHSHH,3,odd,NA,532400,522124,NA,NA,531899,2412,NA,533459,2416,NA,NA,533562,534355,533456,533562,Flanker task,3,4649,6,yes,1024
57.14285714,57.14285714,747.8571429,747.8571429,black,legacy,legacy,legacy,0,incongruent,uniform,1,undefined,1,h,0,6,0,0,0,6,0,6,6,0,0,0,6,6,6,6,9/24/2021 20:30,1500,The main experiment item,yes,Flankertask.osexp,C:/Users/borna.000/Documents/PSYC/PSYC5316,no,mono,no,18,no,white,no,yes,768,legacy,6,6,C:/Users/borna.000/Desktop/SH-subject-3.csv,legacy,Lentiform Loewenfeld,3.3.9,0,h,NA,s,NA,NA,h,586,NA,519706,NA,NA,586,2,legacy,1024,2,48000,-16,experiment,SSHSS,3,odd,NA,534363,522124,NA,NA,531899,2412,NA,535433,2416,NA,NA,535535,536121,535431,535535,Flanker task,4,5235,7,yes,1024
62.5,62.5,757.25,757.25,black,legacy,legacy,legacy,0,congruent,uniform,1,undefined,1,s,0,7,0,0,0,7,0,7,7,0,0,0,7,7,7,7,9/24/2021 20:30,1500,The main experiment item,yes,Flankertask.osexp,C:/Users/borna.000/Documents/PSYC/PSYC5316,no,mono,no,18,no,white,no,yes,768,legacy,7,7,C:/Users/borna.000/Desktop/SH-subject-3.csv,legacy,Lentiform Loewenfeld,3.3.9,0,s,NA,s,NA,NA,s,823,NA,519706,NA,NA,823,2,legacy,1024,2,48000,-16,experiment,SSSSS,3,odd,NA,536130,522124,NA,NA,531899,2412,NA,537197,2416,NA,NA,537299,538123,537195,537299,Flanker task,5,6058,8,yes,1024
66.66666667,66.66666667,723.2222222,723.2222222,black,legacy,legacy,legacy,0,incongruent,uniform,1,undefined,1,h,0,8,0,0,0,8,0,8,8,0,0,0,8,8,8,8,9/24/2021 20:30,1500,The main experiment item,yes,Flankertask.osexp,C:/Users/borna.000/Documents/PSYC/PSYC5316,no,mono,no,18,no,white,no,yes,768,legacy,8,8,C:/Users/borna.000/Desktop/SH-subject-3.csv,legacy,Lentiform Loewenfeld,3.3.9,0,h,NA,s,NA,NA,h,451,NA,519706,NA,NA,451,2,legacy,1024,2,48000,-16,experiment,SSHSS,3,odd,NA,538131,522124,NA,NA,531899,2412,NA,539201,2416,NA,NA,539302,539753,539198,539302,Flanker task,6,6509,9,yes,1024
70,70,696.9,696.9,black,legacy,legacy,legacy,0,incongruent,uniform,1,undefined,1,s,0,9,0,0,0,9,0,9,9,0,0,0,9,9,9,9,9/24/2021 20:30,1500,The main experiment item,yes,Flankertask.osexp,C:/Users/borna.000/Documents/PSYC/PSYC5316,no,mono,no,18,no,white,no,yes,768,legacy,9,9,C:/Users/borna.000/Desktop/SH-subject-3.csv,legacy,Lentiform Loewenfeld,3.3.9,0,s,NA,s,NA,NA,s,460,NA,519706,NA,NA,460,2,legacy,1024,2,48000,-16,experiment,HHSHH,3,odd,NA,539761,522124,NA,NA,531899,2412,NA,540829,2416,NA,NA,540931,541392,540827,540931,Flanker task,7,6969,10,yes,1024
63.63636364,63.63636364,672.9090909,672.9090909,black,legacy,legacy,legacy,0,incongruent,uniform,0,undefined,0,s,0,10,0,0,0,10,0,10,10,0,0,0,10,10,10,10,9/24/2021 20:30,1500,The main experiment item,yes,Flankertask.osexp,C:/Users/borna.000/Documents/PSYC/PSYC5316,no,mono,no,18,no,white,no,yes,768,legacy,10,10,C:/Users/borna.000/Desktop/SH-subject-3.csv,legacy,Lentiform Loewenfeld,3.3.9,0,h,NA,s,NA,NA,h,433,NA,519706,NA,NA,433,2,legacy,1024,2,48000,-16,experiment,HHSHH,3,odd,NA,541400,522124,NA,NA,531899,2412,NA,542470,2416,NA,NA,542572,543006,542468,542572,Flanker task,7,7402,11,yes,1024
66.66666667,66.66666667,659.3333333,659.3333333,black,legacy,legacy,legacy,0,incongruent,uniform,1,undefined,1,h,0,11,0,0,0,11,0,11,11,0,0,0,11,11,11,11,9/24/2021 20:30,1500,The main experiment item,yes,Flankertask.osexp,C:/Users/borna.000/Documents/PSYC/PSYC5316,no,mono,no,18,no,white,no,yes,768,legacy,11,11,C:/Users/borna.000/Desktop/SH-subject-3.csv,legacy,Lentiform Loewenfeld,3.3.9,0,h,NA,s,NA,NA,h,510,NA,519706,NA,NA,510,2,legacy,1024,2,48000,-16,experiment,SSHSS,3,odd,NA,543515,522124,NA,NA,543014,2412,NA,544575,2416,NA,NA,544676,545186,544572,544676,Flanker task,8,7912,12,yes,1024
69.23076923,69.23076923,645.6923077,645.6923077,black,legacy,legacy,legacy,0,incongruent,uniform,1,undefined,1,h,0,12,0,0,0,12,0,12,12,0,0,0,12,12,12,12,9/24/2021 20:30,1500,The main experiment item,yes,Flankertask.osexp,C:/Users/borna.000/Documents/PSYC/PSYC5316,no,mono,no,18,no,white,no,yes,768,legacy,12,12,C:/Users/borna.000/Desktop/SH-subject-3.csv,legacy,Lentiform Loewenfeld,3.3.9,0,h,NA,s,NA,NA,h,482,NA,519706,NA,NA,482,2,legacy,1024,2,48000,-16,experiment,SSHSS,3,odd,NA,545195,522124,NA,NA,543014,2412,NA,546264,2416,NA,NA,546366,546848,546262,546366,Flanker task,9,8394,13,yes,1024
71.42857143,71.42857143,631.0714286,631.0714286,black,legacy,legacy,legacy,0,congruent,uniform,1,undefined,1,s,0,13,0,0,0,13,0,13,13,0,0,0,13,13,13,13,9/24/2021 20:30,1500,The main experiment item,yes,Flankertask.osexp,C:/Users/borna.000/Documents/PSYC/PSYC5316,no,mono,no,18,no,white,no,yes,768,legacy,13,13,C:/Users/borna.000/Desktop/SH-subject-3.csv,legacy,Lentiform Loewenfeld,3.3.9,0,s,NA,s,NA,NA,s,441,NA,519706,NA,NA,441,2,legacy,1024,2,48000,-16,experiment,SSSSS,3,odd,NA,546856,522124,NA,NA,543014,2412,NA,547929,2416,NA,NA,548030,548472,547926,548030,Flanker task,10,8835,14,yes,1024
73.33333333,73.33333333,620.6,620.6,black,legacy,legacy,legacy,0,incongruent,uniform,1,undefined,1,h,0,14,0,0,0,14,0,14,14,0,0,0,14,14,14,14,9/24/2021 20:30,1500,The main experiment item,yes,Flankertask.osexp,C:/Users/borna.000/Documents/PSYC/PSYC5316,no,mono,no,18,no,white,no,yes,768,legacy,14,14,C:/Users/borna.000/Desktop/SH-subject-3.csv,legacy,Lentiform Loewenfeld,3.3.9,0,h,NA,s,NA,NA,h,474,NA,519706,NA,NA,474,2,legacy,1024,2,48000,-16,experiment,SSHSS,3,odd,NA,548480,522124,NA,NA,543014,2412,NA,549549,2416,NA,NA,549650,550124,549547,549650,Flanker task,11,9309,15,yes,1024
75,75,599.8125,599.8125,black,legacy,legacy,legacy,0,congruent,uniform,1,undefined,1,s,0,15,0,0,0,15,0,15,15,0,0,0,15,15,15,15,9/24/2021 20:30,1500,The main experiment item,yes,Flankertask.osexp,C:/Users/borna.000/Documents/PSYC/PSYC5316,no,mono,no,18,no,white,no,yes,768,legacy,15,15,C:/Users/borna.000/Desktop/SH-subject-3.csv,legacy,Lentiform Loewenfeld,3.3.9,0,s,NA,s,NA,NA,s,288,NA,519706,NA,NA,288,2,legacy,1024,2,48000,-16,experiment,SSSSS,3,odd,NA,550133,522124,NA,NA,543014,2412,NA,551203,2416,NA,NA,551304,551593,551201,551304,Flanker task,12,9597,16,yes,1024
76.47058824,76.47058824,590.6470588,590.6470588,black,legacy,legacy,legacy,0,incongruent,uniform,1,undefined,1,h,0,16,0,0,0,16,0,16,16,0,0,0,16,16,16,16,9/24/2021 20:30,1500,The main experiment item,yes,Flankertask.osexp,C:/Users/borna.000/Documents/PSYC/PSYC5316,no,mono,no,18,no,white,no,yes,768,legacy,16,16,C:/Users/borna.000/Desktop/SH-subject-3.csv,legacy,Lentiform Loewenfeld,3.3.9,0,h,NA,s,NA,NA,h,444,NA,519706,NA,NA,444,2,legacy,1024,2,48000,-16,experiment,SSHSS,3,odd,NA,551602,522124,NA,NA,543014,2412,NA,552660,2416,NA,NA,552761,553205,552658,552761,Flanker task,13,10041,17,yes,1024
72.22222222,72.22222222,573.3888889,573.3888889,black,legacy,legacy,legacy,0,incongruent,uniform,0,undefined,0,h,0,17,0,0,0,17,0,17,17,0,0,0,17,17,17,17,9/24/2021 20:30,1500,The main experiment item,yes,Flankertask.osexp,C:/Users/borna.000/Documents/PSYC/PSYC5316,no,mono,no,18,no,white,no,yes,768,legacy,17,17,C:/Users/borna.000/Desktop/SH-subject-3.csv,legacy,Lentiform Loewenfeld,3.3.9,0,s,NA,s,NA,NA,s,280,NA,519706,NA,NA,280,2,legacy,1024,2,48000,-16,experiment,SSHSS,3,odd,NA,553215,522124,NA,NA,543014,2412,NA,554284,2416,NA,NA,554385,554665,554282,554385,Flanker task,13,10321,18,yes,1024
73.68421053,73.68421053,563.6315789,563.6315789,black,legacy,legacy,legacy,0,congruent,uniform,1,undefined,1,s,0,18,0,0,0,18,0,18,18,0,0,0,18,18,18,18,9/24/2021 20:30,1500,The main experiment item,yes,Flankertask.osexp,C:/Users/borna.000/Documents/PSYC/PSYC5316,no,mono,no,18,no,white,no,yes,768,legacy,18,18,C:/Users/borna.000/Desktop/SH-subject-3.csv,legacy,Lentiform Loewenfeld,3.3.9,0,s,NA,s,NA,NA,s,388,NA,519706,NA,NA,388,2,legacy,1024,2,48000,-16,experiment,SSSSS,3,odd,NA,555175,522124,NA,NA,554674,2412,NA,556239,2416,NA,NA,556340,556729,556236,556340,Flanker task,14,10709,19,yes,1024
75,75,554.55,554.55,black,legacy,legacy,legacy,0,incongruent,uniform,1,undefined,1,h,0,19,0,0,0,19,0,19,19,0,0,0,19,19,19,19,9/24/2021 20:30,1500,The main experiment item,yes,Flankertask.osexp,C:/Users/borna.000/Documents/PSYC/PSYC5316,no,mono,no,18,no,white,no,yes,768,legacy,19,19,C:/Users/borna.000/Desktop/SH-subject-3.csv,legacy,Lentiform Loewenfeld,3.3.9,0,h,NA,s,NA,NA,h,382,NA,519706,NA,NA,382,2,legacy,1024,2,48000,-16,experiment,SSHSS,3,odd,NA,556737,522124,NA,NA,554674,2412,NA,557803,2416,NA,NA,557904,558287,557800,557904,Flanker task,15,11091,20,yes,1024
76.19047619,76.19047619,549.3333333,549.3333333,black,legacy,legacy,legacy,0,incongruent,uniform,1,undefined,1,h,0,20,0,0,0,20,0,20,20,0,0,0,20,20,20,20,9/24/2021 20:30,1500,The main experiment item,yes,Flankertask.osexp,C:/Users/borna.000/Documents/PSYC/PSYC5316,no,mono,no,18,no,white,no,yes,768,legacy,20,20,C:/Users/borna.000/Desktop/SH-subject-3.csv,legacy,Lentiform Loewenfeld,3.3.9,0,h,NA,s,NA,NA,h,445,NA,519706,NA,NA,445,2,legacy,1024,2,48000,-16,experiment,SSHSS,3,odd,NA,558295,522124,NA,NA,554674,2412,NA,559363,2416,NA,NA,559465,559910,559361,559465,Flanker task,16,11536,21,yes,1024
77.27272727,77.27272727,540.5909091,540.5909091,black,legacy,legacy,legacy,0,congruent,uniform,1,undefined,1,s,0,21,0,0,0,21,0,21,21,0,0,0,21,21,21,21,9/24/2021 20:30,1500,The main experiment item,yes,Flankertask.osexp,C:/Users/borna.000/Documents/PSYC/PSYC5316,no,mono,no,18,no,white,no,yes,768,legacy,21,21,C:/Users/borna.000/Desktop/SH-subject-3.csv,legacy,Lentiform Loewenfeld,3.3.9,0,s,NA,s,NA,NA,s,357,NA,519706,NA,NA,357,2,legacy,1024,2,48000,-16,experiment,SSSSS,3,odd,NA,559918,522124,NA,NA,554674,2412,NA,560989,2416,NA,NA,561090,561447,560986,561090,Flanker task,17,11893,22,yes,1024
73.91304348,73.91304348,529.7391304,529.7391304,black,legacy,legacy,legacy,0,incongruent,uniform,0,undefined,0,s,0,22,0,0,0,22,0,22,22,0,0,0,22,22,22,22,9/24/2021 20:30,1500,The main experiment item,yes,Flankertask.osexp,C:/Users/borna.000/Documents/PSYC/PSYC5316,no,mono,no,18,no,white,no,yes,768,legacy,22,22,C:/Users/borna.000/Desktop/SH-subject-3.csv,legacy,Lentiform Loewenfeld,3.3.9,0,h,NA,s,NA,NA,h,291,NA,519706,NA,NA,291,2,legacy,1024,2,48000,-16,experiment,HHSHH,3,odd,NA,561456,522124,NA,NA,554674,2412,NA,562521,2416,NA,NA,562622,562914,562519,562622,Flanker task,17,12184,23,yes,1024
75,75,526.6666667,526.6666667,black,legacy,legacy,legacy,0,congruent,uniform,1,undefined,1,s,0,23,0,0,0,23,0,23,23,0,0,0,23,23,23,23,9/24/2021 20:30,1500,The main experiment item,yes,Flankertask.osexp,C:/Users/borna.000/Documents/PSYC/PSYC5316,no,mono,no,18,no,white,no,yes,768,legacy,23,23,C:/Users/borna.000/Desktop/SH-subject-3.csv,legacy,Lentiform Loewenfeld,3.3.9,0,s,NA,s,NA,NA,s,456,NA,519706,NA,NA,456,2,legacy,1024,2,48000,-16,experiment,SSSSS,3,odd,NA,563425,522124,NA,NA,562923,2412,NA,564488,2416,NA,NA,564589,565046,564486,564589,Flanker task,18,12640,24,yes,1024
72,72,525.2,525.2,black,legacy,legacy,legacy,0,incongruent,uniform,0,undefined,0,s,0,24,0,0,0,24,0,24,24,0,0,0,24,24,24,24,9/24/2021 20:30,1500,The main experiment item,yes,Flankertask.osexp,C:/Users/borna.000/Documents/PSYC/PSYC5316,no,mono,no,18,no,white,no,yes,768,legacy,24,24,C:/Users/borna.000/Desktop/SH-subject-3.csv,legacy,Lentiform Loewenfeld,3.3.9,0,h,NA,s,NA,NA,h,490,NA,519706,NA,NA,490,2,legacy,1024,2,48000,-16,experiment,HHSHH,3,odd,NA,565054,522124,NA,NA,562923,2412,NA,566123,2416,NA,NA,566226,566717,566121,566226,Flanker task,18,13130,25,yes,1024
73.07692308,73.07692308,522.7307692,522.7307692,black,legacy,legacy,legacy,0,incongruent,uniform,1,undefined,1,s,0,25,0,0,0,25,0,25,25,0,0,0,25,25,25,25,9/24/2021 20:30,1500,The main experiment item,yes,Flankertask.osexp,C:/Users/borna.000/Documents/PSYC/PSYC5316,no,mono,no,18,no,white,no,yes,768,legacy,25,25,C:/Users/borna.000/Desktop/SH-subject-3.csv,legacy,Lentiform Loewenfeld,3.3.9,0,s,NA,s,NA,NA,s,461,NA,519706,NA,NA,461,2,legacy,1024,2,48000,-16,experiment,HHSHH,3,odd,NA,567227,522124,NA,NA,566725,2412,NA,568286,2416,NA,NA,568388,568850,568284,568388,Flanker task,19,13591,26,yes,1024
74.07407407,74.07407407,521.2222222,521.2222222,black,legacy,legacy,legacy,0,congruent,uniform,1,undefined,1,s,0,26,0,0,0,26,0,26,26,0,0,0,26,26,26,26,9/24/2021 20:30,1500,The main experiment item,yes,Flankertask.osexp,C:/Users/borna.000/Documents/PSYC/PSYC5316,no,mono,no,18,no,white,no,yes,768,legacy,26,26,C:/Users/borna.000/Desktop/SH-subject-3.csv,legacy,Lentiform Loewenfeld,3.3.9,0,s,NA,s,NA,NA,s,482,NA,519706,NA,NA,482,2,legacy,1024,2,48000,-16,experiment,SSSSS,3,odd,NA,568858,522124,NA,NA,566725,2412,NA,569930,2416,NA,NA,570031,570514,569928,570031,Flanker task,20,14073,27,yes,1024
75,75,516.9642857,516.9642857,black,legacy,legacy,legacy,0,congruent,uniform,1,undefined,1,h,0,27,0,0,0,27,0,27,27,0,0,0,27,27,27,27,9/24/2021 20:30,1500,The main experiment item,yes,Flankertask.osexp,C:/Users/borna.000/Documents/PSYC/PSYC5316,no,mono,no,18,no,white,no,yes,768,legacy,27,27,C:/Users/borna.000/Desktop/SH-subject-3.csv,legacy,Lentiform Loewenfeld,3.3.9,0,h,NA,s,NA,NA,h,402,NA,519706,NA,NA,402,2,legacy,1024,2,48000,-16,experiment,HHHHH,3,odd,NA,570522,522124,NA,NA,566725,2412,NA,571597,2416,NA,NA,571699,572102,571594,571699,Flanker task,21,14475,28,yes,1024
75.86206897,75.86206897,513.8275862,513.8275862,black,legacy,legacy,legacy,0,incongruent,uniform,1,undefined,1,s,0,28,0,0,0,28,0,28,28,0,0,0,28,28,28,28,9/24/2021 20:30,1500,The main experiment item,yes,Flankertask.osexp,C:/Users/borna.000/Documents/PSYC/PSYC5316,no,mono,no,18,no,white,no,yes,768,legacy,28,28,C:/Users/borna.000/Desktop/SH-subject-3.csv,legacy,Lentiform Loewenfeld,3.3.9,0,s,NA,s,NA,NA,s,426,NA,519706,NA,NA,426,2,legacy,1024,2,48000,-16,experiment,HHSHH,3,odd,NA,572110,522124,NA,NA,566725,2412,NA,573182,2416,NA,NA,573284,573711,573180,573284,Flanker task,22,14901,29,yes,1024
76.66666667,76.66666667,511.9333333,511.9333333,black,legacy,legacy,legacy,0,congruent,uniform,1,undefined,1,s,0,29,0,0,0,29,0,29,29,0,0,0,29,29,29,29,9/24/2021 20:30,1500,The main experiment item,yes,Flankertask.osexp,C:/Users/borna.000/Documents/PSYC/PSYC5316,no,mono,no,18,no,white,no,yes,768,legacy,29,29,C:/Users/borna.000/Desktop/SH-subject-3.csv,legacy,Lentiform Loewenfeld,3.3.9,0,s,NA,s,NA,NA,s,457,NA,519706,NA,NA,457,2,legacy,1024,2,48000,-16,experiment,SSSSS,3,odd,NA,573719,522124,NA,NA,566725,2412,NA,574791,2416,NA,NA,574892,575349,574789,574892,Flanker task,23,15358,30,yes,1024
77.41935484,77.41935484,509.7419355,509.7419355,black,legacy,legacy,legacy,0,incongruent,uniform,1,undefined,1,s,0,30,0,0,0,30,0,30,30,0,0,0,30,30,30,30,9/24/2021 20:30,1500,The main experiment item,yes,Flankertask.osexp,C:/Users/borna.000/Documents/PSYC/PSYC5316,no,mono,no,18,no,white,no,yes,768,legacy,30,30,C:/Users/borna.000/Desktop/SH-subject-3.csv,legacy,Lentiform Loewenfeld,3.3.9,0,s,NA,s,NA,NA,s,444,NA,519706,NA,NA,444,2,legacy,1024,2,48000,-16,experiment,HHSHH,3,odd,NA,575358,522124,NA,NA,566725,2412,NA,576425,2416,NA,NA,576527,576972,576423,576527,Flanker task,24,15802,31,yes,1024
78.125,78.125,507.6875,507.6875,black,legacy,legacy,legacy,0,congruent,uniform,1,undefined,1,h,0,31,0,0,0,31,0,31,31,0,0,0,31,31,31,31,9/24/2021 20:30,1500,The main experiment item,yes,Flankertask.osexp,C:/Users/borna.000/Documents/PSYC/PSYC5316,no,mono,no,18,no,white,no,yes,768,legacy,31,31,C:/Users/borna.000/Desktop/SH-subject-3.csv,legacy,Lentiform Loewenfeld,3.3.9,0,h,NA,s,NA,NA,h,444,NA,519706,NA,NA,444,2,legacy,1024,2,48000,-16,experiment,HHHHH,3,odd,NA,576976,522124,NA,NA,566725,2412,NA,578046,2416,NA,NA,578147,578592,578044,578147,Flanker task,25,16246,32,yes,1024
78.78787879,78.78787879,504.6060606,504.6060606,black,legacy,legacy,legacy,0,congruent,uniform,1,undefined,1,h,0,32,0,0,0,32,0,32,32,0,0,0,32,32,32,32,9/24/2021 20:30,1500,The main experiment item,yes,Flankertask.osexp,C:/Users/borna.000/Documents/PSYC/PSYC5316,no,mono,no,18,no,white,no,yes,768,legacy,32,32,C:/Users/borna.000/Desktop/SH-subject-3.csv,legacy,Lentiform Loewenfeld,3.3.9,0,h,NA,s,NA,NA,h,406,NA,519706,NA,NA,406,2,legacy,1024,2,48000,-16,experiment,HHHHH,3,odd,NA,578600,522124,NA,NA,566725,2412,NA,579671,2416,NA,NA,579772,580179,579668,579772,Flanker task,26,16652,33,yes,1024
79.41176471,79.41176471,501.3823529,501.3823529,black,legacy,legacy,legacy,0,congruent,uniform,1,undefined,1,h,0,33,0,0,0,33,0,33,33,0,0,0,33,33,33,33,9/24/2021 20:30,1500,The main experiment item,yes,Flankertask.osexp,C:/Users/borna.000/Documents/PSYC/PSYC5316,no,mono,no,18,no,white,no,yes,768,legacy,33,33,C:/Users/borna.000/Desktop/SH-subject-3.csv,legacy,Lentiform Loewenfeld,3.3.9,0,h,NA,s,NA,NA,h,395,NA,519706,NA,NA,395,2,legacy,1024,2,48000,-16,experiment,HHHHH,3,odd,NA,580187,522124,NA,NA,566725,2412,NA,581252,2416,NA,NA,581354,581749,581250,581354,Flanker task,27,17047,34,yes,1024
80,80,500.0571429,500.0571429,black,legacy,legacy,legacy,0,congruent,uniform,1,undefined,1,s,0,34,0,0,0,34,0,34,34,0,0,0,34,34,34,34,9/24/2021 20:30,1500,The main experiment item,yes,Flankertask.osexp,C:/Users/borna.000/Documents/PSYC/PSYC5316,no,mono,no,18,no,white,no,yes,768,legacy,34,34,C:/Users/borna.000/Desktop/SH-subject-3.csv,legacy,Lentiform Loewenfeld,3.3.9,0,s,NA,s,NA,NA,s,455,NA,519706,NA,NA,455,2,legacy,1024,2,48000,-16,experiment,SSSSS,3,odd,NA,581757,522124,NA,NA,566725,2412,NA,582825,2416,NA,NA,582927,583382,582822,582927,Flanker task,28,17502,35,yes,1024
77.77777778,77.77777778,496.8888889,496.8888889,black,legacy,legacy,legacy,0,incongruent,uniform,0,undefined,0,h,0,35,0,0,0,35,0,35,35,0,0,0,35,35,35,35,9/24/2021 20:30,1500,The main experiment item,yes,Flankertask.osexp,C:/Users/borna.000/Documents/PSYC/PSYC5316,no,mono,no,18,no,white,no,yes,768,legacy,35,35,C:/Users/borna.000/Desktop/SH-subject-3.csv,legacy,Lentiform Loewenfeld,3.3.9,0,s,NA,s,NA,NA,s,386,NA,519706,NA,NA,386,2,legacy,1024,2,48000,-16,experiment,SSHSS,3,odd,NA,583390,522124,NA,NA,566725,2412,NA,584456,2416,NA,NA,584558,584945,584454,584558,Flanker task,28,17888,36,yes,1024
78.37837838,78.37837838,496.2702703,496.2702703,black,legacy,legacy,legacy,0,incongruent,uniform,1,undefined,1,h,0,36,0,0,0,36,0,36,36,0,0,0,36,36,36,36,9/24/2021 20:30,1500,The main experiment item,yes,Flankertask.osexp,C:/Users/borna.000/Documents/PSYC/PSYC5316,no,mono,no,18,no,white,no,yes,768,legacy,36,36,C:/Users/borna.000/Desktop/SH-subject-3.csv,legacy,Lentiform Loewenfeld,3.3.9,0,h,NA,s,NA,NA,h,474,NA,519706,NA,NA,474,2,legacy,1024,2,48000,-16,experiment,SSHSS,3,odd,NA,585454,522124,NA,NA,584953,2412,NA,586513,2416,NA,NA,586614,587089,586510,586614,Flanker task,29,18362,37,yes,1024
78.94736842,78.94736842,493.4736842,493.4736842,black,legacy,legacy,legacy,0,congruent,uniform,1,undefined,1,h,0,37,0,0,0,37,0,37,37,0,0,0,37,37,37,37,9/24/2021 20:30,1500,The main experiment item,yes,Flankertask.osexp,C:/Users/borna.000/Documents/PSYC/PSYC5316,no,mono,no,18,no,white,no,yes,768,legacy,37,37,C:/Users/borna.000/Desktop/SH-subject-3.csv,legacy,Lentiform Loewenfeld,3.3.9,0,h,NA,s,NA,NA,h,390,NA,519706,NA,NA,390,2,legacy,1024,2,48000,-16,experiment,HHHHH,3,odd,NA,587097,522124,NA,NA,584953,2412,NA,588163,2416,NA,NA,588264,588655,588161,588264,Flanker task,30,18752,38,yes,1024
79.48717949,79.48717949,490.5897436,490.5897436,black,legacy,legacy,legacy,0,congruent,uniform,1,undefined,1,h,0,38,0,0,0,38,0,38,38,0,0,0,38,38,38,38,9/24/2021 20:30,1500,The main experiment item,yes,Flankertask.osexp,C:/Users/borna.000/Documents/PSYC/PSYC5316,no,mono,no,18,no,white,no,yes,768,legacy,38,38,C:/Users/borna.000/Desktop/SH-subject-3.csv,legacy,Lentiform Loewenfeld,3.3.9,0,h,NA,s,NA,NA,h,381,NA,519706,NA,NA,381,2,legacy,1024,2,48000,-16,experiment,HHHHH,3,odd,NA,588664,522124,NA,NA,584953,2412,NA,589732,2416,NA,NA,589833,590215,589730,589833,Flanker task,31,19133,39,yes,1024
80,80,490.75,490.75,black,legacy,legacy,legacy,0,congruent,uniform,1,undefined,1,s,0,39,0,0,0,39,0,39,39,0,0,0,39,39,39,39,9/24/2021 20:30,1500,The main experiment item,yes,Flankertask.osexp,C:/Users/borna.000/Documents/PSYC/PSYC5316,no,mono,no,18,no,white,no,yes,768,legacy,39,39,C:/Users/borna.000/Desktop/SH-subject-3.csv,legacy,Lentiform Loewenfeld,3.3.9,0,s,NA,s,NA,NA,s,497,NA,519706,NA,NA,497,2,legacy,1024,2,48000,-16,experiment,SSSSS,3,odd,NA,590223,522124,NA,NA,584953,2412,NA,591288,2416,NA,NA,591389,591887,591286,591389,Flanker task,32,19630,40,yes,1024
78.04878049,78.04878049,487.8292683,487.8292683,black,legacy,legacy,legacy,0,incongruent,uniform,0,undefined,0,s,0,40,0,0,0,40,0,40,40,0,0,0,40,40,40,40,9/24/2021 20:30,1500,The main experiment item,yes,Flankertask.osexp,C:/Users/borna.000/Documents/PSYC/PSYC5316,no,mono,no,18,no,white,no,yes,768,legacy,40,40,C:/Users/borna.000/Desktop/SH-subject-3.csv,legacy,Lentiform Loewenfeld,3.3.9,0,h,NA,s,NA,NA,h,371,NA,519706,NA,NA,371,2,legacy,1024,2,48000,-16,experiment,HHSHH,3,odd,NA,591896,522124,NA,NA,584953,2412,NA,592959,2416,NA,NA,593060,593431,592956,593060,Flanker task,32,20001,41,yes,1024
78.57142857,78.57142857,487.8571429,487.8571429,black,legacy,legacy,legacy,0,congruent,uniform,1,undefined,1,h,0,41,0,0,0,41,0,41,41,0,0,0,41,41,41,41,9/24/2021 20:30,1500,The main experiment item,yes,Flankertask.osexp,C:/Users/borna.000/Documents/PSYC/PSYC5316,no,mono,no,18,no,white,no,yes,768,legacy,41,41,C:/Users/borna.000/Desktop/SH-subject-3.csv,legacy,Lentiform Loewenfeld,3.3.9,0,h,NA,s,NA,NA,h,489,NA,519706,NA,NA,489,2,legacy,1024,2,48000,-16,experiment,HHHHH,3,odd,NA,593942,522124,NA,NA,593440,2412,NA,595002,2416,NA,NA,595103,595592,594999,595103,Flanker task,33,20490,42,yes,1024
79.06976744,79.06976744,486.6046512,486.6046512,black,legacy,legacy,legacy,0,congruent,uniform,1,undefined,1,s,0,42,0,0,0,42,0,42,42,0,0,0,42,42,42,42,9/24/2021 20:30,1500,The main experiment item,yes,Flankertask.osexp,C:/Users/borna.000/Documents/PSYC/PSYC5316,no,mono,no,18,no,white,no,yes,768,legacy,42,42,C:/Users/borna.000/Desktop/SH-subject-3.csv,legacy,Lentiform Loewenfeld,3.3.9,0,s,NA,s,NA,NA,s,434,NA,519706,NA,NA,434,2,legacy,1024,2,48000,-16,experiment,SSSSS,3,odd,NA,595601,522124,NA,NA,593440,2412,NA,596671,2416,NA,NA,596772,597207,596669,596772,Flanker task,34,20924,43,yes,1024
79.54545455,79.54545455,485.9772727,485.9772727,black,legacy,legacy,legacy,0,incongruent,uniform,1,undefined,1,h,0,43,0,0,0,43,0,43,43,0,0,0,43,43,43,43,9/24/2021 20:30,1500,The main experiment item,yes,Flankertask.osexp,C:/Users/borna.000/Documents/PSYC/PSYC5316,no,mono,no,18,no,white,no,yes,768,legacy,43,43,C:/Users/borna.000/Desktop/SH-subject-3.csv,legacy,Lentiform Loewenfeld,3.3.9,0,h,NA,s,NA,NA,h,459,NA,519706,NA,NA,459,2,legacy,1024,2,48000,-16,experiment,SSHSS,3,odd,NA,597215,522124,NA,NA,593440,2412,NA,598284,2416,NA,NA,598385,598845,598282,598385,Flanker task,35,21383,44,yes,1024
80,80,487.5555556,487.5555556,black,legacy,legacy,legacy,0,congruent,uniform,1,undefined,1,h,0,44,0,0,0,44,0,44,44,0,0,0,44,44,44,44,9/24/2021 20:30,1500,The main experiment item,yes,Flankertask.osexp,C:/Users/borna.000/Documents/PSYC/PSYC5316,no,mono,no,18,no,white,no,yes,768,legacy,44,44,C:/Users/borna.000/Desktop/SH-subject-3.csv,legacy,Lentiform Loewenfeld,3.3.9,0,h,NA,s,NA,NA,h,557,NA,519706,NA,NA,557,2,legacy,1024,2,48000,-16,experiment,HHHHH,3,odd,NA,598854,522124,NA,NA,593440,2412,NA,599921,2416,NA,NA,600022,600579,599919,600022,Flanker task,36,21940,45,yes,1024
80.43478261,80.43478261,488.1086957,488.1086957,black,legacy,legacy,legacy,0,incongruent,uniform,1,undefined,1,h,0,45,0,0,0,45,0,45,45,0,0,0,45,45,45,45,9/24/2021 20:30,1500,The main experiment item,yes,Flankertask.osexp,C:/Users/borna.000/Documents/PSYC/PSYC5316,no,mono,no,18,no,white,no,yes,768,legacy,45,45,C:/Users/borna.000/Desktop/SH-subject-3.csv,legacy,Lentiform Loewenfeld,3.3.9,0,h,NA,s,NA,NA,h,513,NA,519706,NA,NA,513,2,legacy,1024,2,48000,-16,experiment,SSHSS,3,odd,NA,600588,522124,NA,NA,593440,2412,NA,601658,2416,NA,NA,601760,602273,601655,601760,Flanker task,37,22453,46,yes,1024
80.85106383,80.85106383,487.4042553,487.4042553,black,legacy,legacy,legacy,0,incongruent,uniform,1,undefined,1,h,0,46,0,0,0,46,0,46,46,0,0,0,46,46,46,46,9/24/2021 20:30,1500,The main experiment item,yes,Flankertask.osexp,C:/Users/borna.000/Documents/PSYC/PSYC5316,no,mono,no,18,no,white,no,yes,768,legacy,46,46,C:/Users/borna.000/Desktop/SH-subject-3.csv,legacy,Lentiform Loewenfeld,3.3.9,0,h,NA,s,NA,NA,h,455,NA,519706,NA,NA,455,2,legacy,1024,2,48000,-16,experiment,SSHSS,3,odd,NA,602282,522124,NA,NA,593440,2412,NA,603361,2416,NA,NA,603462,603917,603359,603462,Flanker task,38,22908,47,yes,1024
81.25,81.25,488.4791667,488.4791667,black,legacy,legacy,legacy,0,congruent,uniform,1,undefined,1,h,0,47,0,0,0,47,0,47,47,0,0,0,47,47,47,47,9/24/2021 20:30,1500,The main experiment item,yes,Flankertask.osexp,C:/Users/borna.000/Documents/PSYC/PSYC5316,no,mono,no,18,no,white,no,yes,768,legacy,47,47,C:/Users/borna.000/Desktop/SH-subject-3.csv,legacy,Lentiform Loewenfeld,3.3.9,0,h,NA,s,NA,NA,h,539,NA,519706,NA,NA,539,2,legacy,1024,2,48000,-16,experiment,HHHHH,3,odd,NA,603926,522124,NA,NA,593440,2412,NA,604991,2416,NA,NA,605092,605632,604989,605092,Flanker task,39,23447,48,yes,1024
81.63265306,81.63265306,487.4285714,487.4285714,black,legacy,legacy,legacy,0,congruent,uniform,1,undefined,1,h,0,48,0,0,0,48,0,48,48,0,0,0,48,48,48,48,9/24/2021 20:30,1500,The main experiment item,yes,Flankertask.osexp,C:/Users/borna.000/Documents/PSYC/PSYC5316,no,mono,no,18,no,white,no,yes,768,legacy,48,48,C:/Users/borna.000/Desktop/SH-subject-3.csv,legacy,Lentiform Loewenfeld,3.3.9,0,h,NA,s,NA,NA,h,437,NA,519706,NA,NA,437,2,legacy,1024,2,48000,-16,experiment,HHHHH,3,odd,NA,605641,522124,NA,NA,593440,2412,NA,606706,2416,NA,NA,606808,607246,606704,606808,Flanker task,40,23884,49,yes,1024
82,82,490.76,490.76,black,legacy,legacy,legacy,0,incongruent,uniform,1,undefined,1,h,0,49,0,0,0,49,0,49,49,0,0,0,49,49,49,49,9/24/2021 20:30,1500,The main experiment item,yes,Flankertask.osexp,C:/Users/borna.000/Documents/PSYC/PSYC5316,no,mono,no,18,no,white,no,yes,768,legacy,49,49,C:/Users/borna.000/Desktop/SH-subject-3.csv,legacy,Lentiform Loewenfeld,3.3.9,0,h,NA,s,NA,NA,h,654,NA,519706,NA,NA,654,2,legacy,1024,2,48000,-16,experiment,SSHSS,3,odd,NA,607255,522124,NA,NA,593440,2412,NA,608324,2416,NA,NA,608425,609080,608322,608425,Flanker task,41,24538,50,yes,1024
82.35294118,82.35294118,491.1176471,491.1176471,black,legacy,legacy,legacy,0,congruent,uniform,1,undefined,1,s,0,50,0,0,0,50,0,50,50,0,0,0,50,50,50,50,9/24/2021 20:30,1500,The main experiment item,yes,Flankertask.osexp,C:/Users/borna.000/Documents/PSYC/PSYC5316,no,mono,no,18,no,white,no,yes,768,legacy,50,50,C:/Users/borna.000/Desktop/SH-subject-3.csv,legacy,Lentiform Loewenfeld,3.3.9,0,s,NA,s,NA,NA,s,509,NA,519706,NA,NA,509,2,legacy,1024,2,48000,-16,experiment,SSSSS,3,odd,NA,609088,522124,NA,NA,593440,2412,NA,610158,2416,NA,NA,610259,610768,610155,610259,Flanker task,42,25047,51,yes,1024
82.69230769,82.69230769,492.5769231,492.5769231,black,legacy,legacy,legacy,0,congruent,uniform,1,undefined,1,s,0,51,0,0,0,51,0,51,51,0,0,0,51,51,51,51,9/24/2021 20:30,1500,The main experiment item,yes,Flankertask.osexp,C:/Users/borna.000/Documents/PSYC/PSYC5316,no,mono,no,18,no,white,no,yes,768,legacy,51,51,C:/Users/borna.000/Desktop/SH-subject-3.csv,legacy,Lentiform Loewenfeld,3.3.9,0,s,NA,s,NA,NA,s,567,NA,519706,NA,NA,567,2,legacy,1024,2,48000,-16,experiment,SSSSS,3,odd,NA,610777,522124,NA,NA,593440,2412,NA,611846,2416,NA,NA,611947,612515,611844,611947,Flanker task,43,25614,52,yes,1024
83.01886792,83.01886792,492.6603774,492.6603774,black,legacy,legacy,legacy,0,congruent,uniform,1,undefined,1,h,0,52,0,0,0,52,0,52,52,0,0,0,52,52,52,52,9/24/2021 20:30,1500,The main experiment item,yes,Flankertask.osexp,C:/Users/borna.000/Documents/PSYC/PSYC5316,no,mono,no,18,no,white,no,yes,768,legacy,52,52,C:/Users/borna.000/Desktop/SH-subject-3.csv,legacy,Lentiform Loewenfeld,3.3.9,0,h,NA,s,NA,NA,h,497,NA,519706,NA,NA,497,2,legacy,1024,2,48000,-16,experiment,HHHHH,3,odd,NA,612523,522124,NA,NA,593440,2412,NA,613591,2416,NA,NA,613692,614190,613589,613692,Flanker task,44,26111,53,yes,1024
83.33333333,83.33333333,506.3888889,506.3888889,black,legacy,legacy,legacy,0,congruent,uniform,1,undefined,1,h,0,53,0,0,0,53,0,53,53,0,0,0,53,53,53,53,9/24/2021 20:30,1500,The main experiment item,yes,Flankertask.osexp,C:/Users/borna.000/Documents/PSYC/PSYC5316,no,mono,no,18,no,white,no,yes,768,legacy,53,53,C:/Users/borna.000/Desktop/SH-subject-3.csv,legacy,Lentiform Loewenfeld,3.3.9,0,h,NA,s,NA,NA,h,1234,NA,519706,NA,NA,1234,2,legacy,1024,2,48000,-16,experiment,HHHHH,3,odd,NA,614198,522124,NA,NA,593440,2412,NA,615264,2416,NA,NA,615365,616599,615261,615365,Flanker task,45,27345,54,yes,1024
83.63636364,83.63636364,516.7454545,516.7454545,black,legacy,legacy,legacy,0,incongruent,uniform,1,undefined,1,s,0,54,0,0,0,54,0,54,54,0,0,0,54,54,54,54,9/24/2021 20:30,1500,The main experiment item,yes,Flankertask.osexp,C:/Users/borna.000/Documents/PSYC/PSYC5316,no,mono,no,18,no,white,no,yes,768,legacy,54,54,C:/Users/borna.000/Desktop/SH-subject-3.csv,legacy,Lentiform Loewenfeld,3.3.9,0,s,NA,s,NA,NA,s,1076,NA,519706,NA,NA,1076,2,legacy,1024,2,48000,-16,experiment,HHSHH,3,odd,NA,616608,522124,NA,NA,593440,2412,NA,617675,2416,NA,NA,617776,618852,617672,617776,Flanker task,46,28421,55,yes,1024
82.14285714,82.14285714,518.7321429,518.7321429,black,legacy,legacy,legacy,0,incongruent,uniform,0,undefined,0,s,0,55,0,0,0,55,0,55,55,0,0,0,55,55,55,55,9/24/2021 20:30,1500,The main experiment item,yes,Flankertask.osexp,C:/Users/borna.000/Documents/PSYC/PSYC5316,no,mono,no,18,no,white,no,yes,768,legacy,55,55,C:/Users/borna.000/Desktop/SH-subject-3.csv,legacy,Lentiform Loewenfeld,3.3.9,0,h,NA,s,NA,NA,h,628,NA,519706,NA,NA,628,2,legacy,1024,2,48000,-16,experiment,HHSHH,3,odd,NA,618856,522124,NA,NA,593440,2412,NA,619922,2416,NA,NA,620023,620652,619920,620023,Flanker task,46,29049,56,yes,1024
82.45614035,82.45614035,516.4736842,516.4736842,black,legacy,legacy,legacy,0,incongruent,uniform,1,undefined,1,s,0,56,0,0,0,56,0,56,56,0,0,0,56,56,56,56,9/24/2021 20:30,1500,The main experiment item,yes,Flankertask.osexp,C:/Users/borna.000/Documents/PSYC/PSYC5316,no,mono,no,18,no,white,no,yes,768,legacy,56,56,C:/Users/borna.000/Desktop/SH-subject-3.csv,legacy,Lentiform Loewenfeld,3.3.9,0,s,NA,s,NA,NA,s,390,NA,519706,NA,NA,390,2,legacy,1024,2,48000,-16,experiment,HHSHH,3,odd,NA,621165,522124,NA,NA,620661,2412,NA,622222,2416,NA,NA,622325,622716,622220,622325,Flanker task,47,29439,57,yes,1024
82.75862069,82.75862069,515.8103448,515.8103448,black,legacy,legacy,legacy,0,congruent,uniform,1,undefined,1,h,0,57,0,0,0,57,0,57,57,0,0,0,57,57,57,57,9/24/2021 20:30,1500,The main experiment item,yes,Flankertask.osexp,C:/Users/borna.000/Documents/PSYC/PSYC5316,no,mono,no,18,no,white,no,yes,768,legacy,57,57,C:/Users/borna.000/Desktop/SH-subject-3.csv,legacy,Lentiform Loewenfeld,3.3.9,0,h,NA,s,NA,NA,h,478,NA,519706,NA,NA,478,2,legacy,1024,2,48000,-16,experiment,HHHHH,3,odd,NA,622724,522124,NA,NA,620661,2412,NA,623790,2416,NA,NA,623892,624371,623788,623892,Flanker task,48,29917,58,yes,1024
83.05084746,83.05084746,514.7627119,514.7627119,black,legacy,legacy,legacy,0,congruent,uniform,1,undefined,1,h,0,58,0,0,0,58,0,58,58,0,0,0,58,58,58,58,9/24/2021 20:30,1500,The main experiment item,yes,Flankertask.osexp,C:/Users/borna.000/Documents/PSYC/PSYC5316,no,mono,no,18,no,white,no,yes,768,legacy,58,58,C:/Users/borna.000/Desktop/SH-subject-3.csv,legacy,Lentiform Loewenfeld,3.3.9,0,h,NA,s,NA,NA,h,454,NA,519706,NA,NA,454,2,legacy,1024,2,48000,-16,experiment,HHHHH,3,odd,NA,624379,522124,NA,NA,620661,2412,NA,625454,2416,NA,NA,625556,626011,625452,625556,Flanker task,49,30371,59,yes,1024
83.33333333,83.33333333,512.9666667,512.9666667,black,legacy,legacy,legacy,0,congruent,uniform,1,undefined,1,h,0,59,0,0,0,59,0,59,59,0,0,0,59,59,59,59,9/24/2021 20:30,1500,The main experiment item,yes,Flankertask.osexp,C:/Users/borna.000/Documents/PSYC/PSYC5316,no,mono,no,18,no,white,no,yes,768,legacy,59,59,C:/Users/borna.000/Desktop/SH-subject-3.csv,legacy,Lentiform Loewenfeld,3.3.9,0,h,NA,s,NA,NA,h,407,NA,519706,NA,NA,407,2,legacy,1024,2,48000,-16,experiment,HHHHH,3,odd,NA,626020,522124,NA,NA,620661,2412,NA,627088,2416,NA,NA,627190,627598,627086,627190,Flanker task,50,30778,60,yes,1024
83.60655738,83.60655738,512.2459016,512.2459016,black,legacy,legacy,legacy,0,incongruent,uniform,1,undefined,1,s,0,60,0,0,0,60,0,60,60,0,0,0,60,60,60,60,9/24/2021 20:30,1500,The main experiment item,yes,Flankertask.osexp,C:/Users/borna.000/Documents/PSYC/PSYC5316,no,mono,no,18,no,white,no,yes,768,legacy,60,60,C:/Users/borna.000/Desktop/SH-subject-3.csv,legacy,Lentiform Loewenfeld,3.3.9,0,s,NA,s,NA,NA,s,469,NA,519706,NA,NA,469,2,legacy,1024,2,48000,-16,experiment,HHSHH,3,odd,NA,627607,522124,NA,NA,620661,2412,NA,628681,2416,NA,NA,628785,629255,628679,628785,Flanker task,51,31247,61,yes,1024
82.25806452,82.25806452,510.8387097,510.8387097,black,legacy,legacy,legacy,0,incongruent,uniform,0,undefined,0,s,0,61,0,0,0,61,0,61,61,0,0,0,61,61,61,61,9/24/2021 20:30,1500,The main experiment item,yes,Flankertask.osexp,C:/Users/borna.000/Documents/PSYC/PSYC5316,no,mono,no,18,no,white,no,yes,768,legacy,61,61,C:/Users/borna.000/Desktop/SH-subject-3.csv,legacy,Lentiform Loewenfeld,3.3.9,0,h,NA,s,NA,NA,h,425,NA,519706,NA,NA,425,2,legacy,1024,2,48000,-16,experiment,HHSHH,3,odd,NA,629264,522124,NA,NA,620661,2412,NA,630339,2416,NA,NA,630441,630867,630337,630441,Flanker task,51,31672,62,yes,1024
82.53968254,82.53968254,508.952381,508.952381,black,legacy,legacy,legacy,0,incongruent,uniform,1,undefined,1,s,0,62,0,0,0,62,0,62,62,0,0,0,62,62,62,62,9/24/2021 20:30,1500,The main experiment item,yes,Flankertask.osexp,C:/Users/borna.000/Documents/PSYC/PSYC5316,no,mono,no,18,no,white,no,yes,768,legacy,62,62,C:/Users/borna.000/Desktop/SH-subject-3.csv,legacy,Lentiform Loewenfeld,3.3.9,0,s,NA,s,NA,NA,s,392,NA,519706,NA,NA,392,2,legacy,1024,2,48000,-16,experiment,HHSHH,3,odd,NA,631378,522124,NA,NA,630876,2412,NA,632438,2416,NA,NA,632539,632932,632436,632539,Flanker task,52,32064,63,yes,1024
82.8125,82.8125,508.640625,508.640625,black,legacy,legacy,legacy,0,congruent,uniform,1,undefined,1,h,0,63,0,0,0,63,0,63,63,0,0,0,63,63,63,63,9/24/2021 20:30,1500,The main experiment item,yes,Flankertask.osexp,C:/Users/borna.000/Documents/PSYC/PSYC5316,no,mono,no,18,no,white,no,yes,768,legacy,63,63,C:/Users/borna.000/Desktop/SH-subject-3.csv,legacy,Lentiform Loewenfeld,3.3.9,0,h,NA,s,NA,NA,h,489,NA,519706,NA,NA,489,2,legacy,1024,2,48000,-16,experiment,HHHHH,3,odd,NA,632940,522124,NA,NA,630876,2412,NA,634013,2416,NA,NA,634115,634605,634011,634115,Flanker task,53,32553,64,yes,1024
83.07692308,83.07692308,506.3230769,506.3230769,black,legacy,legacy,legacy,0,congruent,uniform,1,undefined,1,s,0,64,0,0,0,64,0,64,64,0,0,0,64,64,64,64,9/24/2021 20:30,1500,The main experiment item,yes,Flankertask.osexp,C:/Users/borna.000/Documents/PSYC/PSYC5316,no,mono,no,18,no,white,no,yes,768,legacy,64,64,C:/Users/borna.000/Desktop/SH-subject-3.csv,legacy,Lentiform Loewenfeld,3.3.9,0,s,NA,s,NA,NA,s,358,NA,519706,NA,NA,358,2,legacy,1024,2,48000,-16,experiment,SSSSS,3,odd,NA,634613,522124,NA,NA,630876,2412,NA,635679,2416,NA,NA,635781,636139,635677,635781,Flanker task,54,32911,65,yes,1024
83.33333333,83.33333333,506.1212121,506.1212121,black,legacy,legacy,legacy,0,incongruent,uniform,1,undefined,1,h,0,65,0,0,0,65,0,65,65,0,0,0,65,65,65,65,9/24/2021 20:30,1500,The main experiment item,yes,Flankertask.osexp,C:/Users/borna.000/Documents/PSYC/PSYC5316,no,mono,no,18,no,white,no,yes,768,legacy,65,65,C:/Users/borna.000/Desktop/SH-subject-3.csv,legacy,Lentiform Loewenfeld,3.3.9,0,h,NA,s,NA,NA,h,493,NA,519706,NA,NA,493,2,legacy,1024,2,48000,-16,experiment,SSHSS,3,odd,NA,636149,522124,NA,NA,630876,2412,NA,637217,2416,NA,NA,637319,637812,637215,637319,Flanker task,55,33404,66,yes,1024
83.58208955,83.58208955,507.1492537,507.1492537,black,legacy,legacy,legacy,0,congruent,uniform,1,undefined,1,s,0,66,0,0,0,66,0,66,66,0,0,0,66,66,66,66,9/24/2021 20:30,1500,The main experiment item,yes,Flankertask.osexp,C:/Users/borna.000/Documents/PSYC/PSYC5316,no,mono,no,18,no,white,no,yes,768,legacy,66,66,C:/Users/borna.000/Desktop/SH-subject-3.csv,legacy,Lentiform Loewenfeld,3.3.9,0,s,NA,s,NA,NA,s,575,NA,519706,NA,NA,575,2,legacy,1024,2,48000,-16,experiment,SSSSS,3,odd,NA,637820,522124,NA,NA,630876,2412,NA,638886,2416,NA,NA,638987,639563,638884,638987,Flanker task,56,33979,67,yes,1024
83.82352941,83.82352941,506.7205882,506.7205882,black,legacy,legacy,legacy,0,incongruent,uniform,1,undefined,1,h,0,67,0,0,0,67,0,67,67,0,0,0,67,67,67,67,9/24/2021 20:30,1500,The main experiment item,yes,Flankertask.osexp,C:/Users/borna.000/Documents/PSYC/PSYC5316,no,mono,no,18,no,white,no,yes,768,legacy,67,67,C:/Users/borna.000/Desktop/SH-subject-3.csv,legacy,Lentiform Loewenfeld,3.3.9,0,h,NA,s,NA,NA,h,478,NA,519706,NA,NA,478,2,legacy,1024,2,48000,-16,experiment,SSHSS,3,odd,NA,639571,522124,NA,NA,630876,2412,NA,640640,2416,NA,NA,640742,641220,640638,640742,Flanker task,57,34457,68,yes,1024
84.05797101,84.05797101,505.884058,505.884058,black,legacy,legacy,legacy,0,incongruent,uniform,1,undefined,1,h,0,68,0,0,0,68,0,68,68,0,0,0,68,68,68,68,9/24/2021 20:30,1500,The main experiment item,yes,Flankertask.osexp,C:/Users/borna.000/Documents/PSYC/PSYC5316,no,mono,no,18,no,white,no,yes,768,legacy,68,68,C:/Users/borna.000/Desktop/SH-subject-3.csv,legacy,Lentiform Loewenfeld,3.3.9,0,h,NA,s,NA,NA,h,449,NA,519706,NA,NA,449,2,legacy,1024,2,48000,-16,experiment,SSHSS,3,odd,NA,641229,522124,NA,NA,630876,2412,NA,642300,2416,NA,NA,642402,642852,642298,642402,Flanker task,58,34906,69,yes,1024
84.28571429,84.28571429,503.9571429,503.9571429,black,legacy,legacy,legacy,0,congruent,uniform,1,undefined,1,s,0,69,0,0,0,69,0,69,69,0,0,0,69,69,69,69,9/24/2021 20:30,1500,The main experiment item,yes,Flankertask.osexp,C:/Users/borna.000/Documents/PSYC/PSYC5316,no,mono,no,18,no,white,no,yes,768,legacy,69,69,C:/Users/borna.000/Desktop/SH-subject-3.csv,legacy,Lentiform Loewenfeld,3.3.9,0,s,NA,s,NA,NA,s,371,NA,519706,NA,NA,371,2,legacy,1024,2,48000,-16,experiment,SSSSS,3,odd,NA,642860,522124,NA,NA,630876,2412,NA,643924,2416,NA,NA,644026,644398,643922,644026,Flanker task,59,35277,70,yes,1024
84.50704225,84.50704225,504.1126761,504.1126761,black,legacy,legacy,legacy,0,congruent,uniform,1,undefined,1,h,0,70,0,0,0,70,0,70,70,0,0,0,70,70,70,70,9/24/2021 20:30,1500,The main experiment item,yes,Flankertask.osexp,C:/Users/borna.000/Documents/PSYC/PSYC5316,no,mono,no,18,no,white,no,yes,768,legacy,70,70,C:/Users/borna.000/Desktop/SH-subject-3.csv,legacy,Lentiform Loewenfeld,3.3.9,0,h,NA,s,NA,NA,h,515,NA,519706,NA,NA,515,2,legacy,1024,2,48000,-16,experiment,HHHHH,3,odd,NA,644407,522124,NA,NA,630876,2412,NA,645469,2416,NA,NA,645571,646087,645467,645571,Flanker task,60,35792,71,yes,1024
84.72222222,84.72222222,503.7777778,503.7777778,black,legacy,legacy,legacy,0,incongruent,uniform,1,undefined,1,s,0,71,0,0,0,71,0,71,71,0,0,0,71,71,71,71,9/24/2021 20:30,1500,The main experiment item,yes,Flankertask.osexp,C:/Users/borna.000/Documents/PSYC/PSYC5316,no,mono,no,18,no,white,no,yes,768,legacy,71,71,C:/Users/borna.000/Desktop/SH-subject-3.csv,legacy,Lentiform Loewenfeld,3.3.9,0,s,NA,s,NA,NA,s,480,NA,519706,NA,NA,480,2,legacy,1024,2,48000,-16,experiment,HHSHH,3,odd,NA,646095,522124,NA,NA,630876,2412,NA,647164,2416,NA,NA,647266,647746,647162,647266,Flanker task,61,36272,72,yes,1024
84.93150685,84.93150685,502.9041096,502.9041096,black,legacy,legacy,legacy,0,incongruent,uniform,1,undefined,1,s,0,72,0,0,0,72,0,72,72,0,0,0,72,72,72,72,9/24/2021 20:30,1500,The main experiment item,yes,Flankertask.osexp,C:/Users/borna.000/Documents/PSYC/PSYC5316,no,mono,no,18,no,white,no,yes,768,legacy,72,72,C:/Users/borna.000/Desktop/SH-subject-3.csv,legacy,Lentiform Loewenfeld,3.3.9,0,s,NA,s,NA,NA,s,440,NA,519706,NA,NA,440,2,legacy,1024,2,48000,-16,experiment,HHSHH,3,odd,NA,647755,522124,NA,NA,630876,2412,NA,648824,2416,NA,NA,648926,649367,648822,648926,Flanker task,62,36712,73,yes,1024
85.13513514,85.13513514,502.7837838,502.7837838,black,legacy,legacy,legacy,0,congruent,uniform,1,undefined,1,s,0,73,0,0,0,73,0,73,73,0,0,0,73,73,73,73,9/24/2021 20:30,1500,The main experiment item,yes,Flankertask.osexp,C:/Users/borna.000/Documents/PSYC/PSYC5316,no,mono,no,18,no,white,no,yes,768,legacy,73,73,C:/Users/borna.000/Desktop/SH-subject-3.csv,legacy,Lentiform Loewenfeld,3.3.9,0,s,NA,s,NA,NA,s,494,NA,519706,NA,NA,494,2,legacy,1024,2,48000,-16,experiment,SSSSS,3,odd,NA,649376,522124,NA,NA,630876,2412,NA,650449,2416,NA,NA,650551,651046,650447,650551,Flanker task,63,37206,74,yes,1024
85.33333333,85.33333333,500.2666667,500.2666667,black,legacy,legacy,legacy,0,congruent,uniform,1,undefined,1,s,0,74,0,0,0,74,0,74,74,0,0,0,74,74,74,74,9/24/2021 20:30,1500,The main experiment item,yes,Flankertask.osexp,C:/Users/borna.000/Documents/PSYC/PSYC5316,no,mono,no,18,no,white,no,yes,768,legacy,74,74,C:/Users/borna.000/Desktop/SH-subject-3.csv,legacy,Lentiform Loewenfeld,3.3.9,0,s,NA,s,NA,NA,s,314,NA,519706,NA,NA,314,2,legacy,1024,2,48000,-16,experiment,SSSSS,3,odd,NA,651051,522124,NA,NA,630876,2412,NA,652119,2416,NA,NA,652221,652536,652116,652221,Flanker task,64,37520,75,yes,1024
85.52631579,85.52631579,498.1315789,498.1315789,black,legacy,legacy,legacy,0,incongruent,uniform,1,undefined,1,s,0,75,0,0,0,75,0,75,75,0,0,0,75,75,75,75,9/24/2021 20:30,1500,The main experiment item,yes,Flankertask.osexp,C:/Users/borna.000/Documents/PSYC/PSYC5316,no,mono,no,18,no,white,no,yes,768,legacy,75,75,C:/Users/borna.000/Desktop/SH-subject-3.csv,legacy,Lentiform Loewenfeld,3.3.9,0,s,NA,s,NA,NA,s,338,NA,519706,NA,NA,338,2,legacy,1024,2,48000,-16,experiment,HHSHH,3,odd,NA,652544,522124,NA,NA,630876,2412,NA,653607,2416,NA,NA,653709,654048,653604,653709,Flanker task,65,37858,76,yes,1024
84.41558442,84.41558442,495.5844156,495.5844156,black,legacy,legacy,legacy,0,incongruent,uniform,0,undefined,0,h,0,76,0,0,0,76,0,76,76,0,0,0,76,76,76,76,9/24/2021 20:30,1500,The main experiment item,yes,Flankertask.osexp,C:/Users/borna.000/Documents/PSYC/PSYC5316,no,mono,no,18,no,white,no,yes,768,legacy,76,76,C:/Users/borna.000/Desktop/SH-subject-3.csv,legacy,Lentiform Loewenfeld,3.3.9,0,s,NA,s,NA,NA,s,302,NA,519706,NA,NA,302,2,legacy,1024,2,48000,-16,experiment,SSHSS,3,odd,NA,654056,522124,NA,NA,630876,2412,NA,655125,2416,NA,NA,655227,655530,655123,655227,Flanker task,65,38160,77,yes,1024
84.61538462,84.61538462,495.5769231,495.5769231,black,legacy,legacy,legacy,0,congruent,uniform,1,undefined,1,h,0,77,0,0,0,77,0,77,77,0,0,0,77,77,77,77,9/24/2021 20:30,1500,The main experiment item,yes,Flankertask.osexp,C:/Users/borna.000/Documents/PSYC/PSYC5316,no,mono,no,18,no,white,no,yes,768,legacy,77,77,C:/Users/borna.000/Desktop/SH-subject-3.csv,legacy,Lentiform Loewenfeld,3.3.9,0,h,NA,s,NA,NA,h,495,NA,519706,NA,NA,495,2,legacy,1024,2,48000,-16,experiment,HHHHH,3,odd,NA,656041,522124,NA,NA,655539,2412,NA,657098,2416,NA,NA,657200,657696,657096,657200,Flanker task,66,38655,78,yes,1024
84.81012658,84.81012658,498.3417722,498.3417722,black,legacy,legacy,legacy,0,congruent,uniform,1,undefined,1,s,0,78,0,0,0,78,0,78,78,0,0,0,78,78,78,78,9/24/2021 20:30,1500,The main experiment item,yes,Flankertask.osexp,C:/Users/borna.000/Documents/PSYC/PSYC5316,no,mono,no,18,no,white,no,yes,768,legacy,78,78,C:/Users/borna.000/Desktop/SH-subject-3.csv,legacy,Lentiform Loewenfeld,3.3.9,0,s,NA,s,NA,NA,s,714,NA,519706,NA,NA,714,2,legacy,1024,2,48000,-16,experiment,SSSSS,3,odd,NA,657706,522124,NA,NA,655539,2412,NA,658773,2416,NA,NA,658875,659590,658770,658875,Flanker task,67,39369,79,yes,1024
85,85,496.8,496.8,black,legacy,legacy,legacy,0,congruent,uniform,1,undefined,1,h,0,79,0,0,0,79,0,79,79,0,0,0,79,79,79,79,9/24/2021 20:30,1500,The main experiment item,yes,Flankertask.osexp,C:/Users/borna.000/Documents/PSYC/PSYC5316,no,mono,no,18,no,white,no,yes,768,legacy,79,79,C:/Users/borna.000/Desktop/SH-subject-3.csv,legacy,Lentiform Loewenfeld,3.3.9,0,h,NA,s,NA,NA,h,375,NA,519706,NA,NA,375,2,legacy,1024,2,48000,-16,experiment,HHHHH,3,odd,NA,659598,522124,NA,NA,655539,2412,NA,660666,2416,NA,NA,660767,661143,660664,660767,Flanker task,68,39744,80,yes,1024
85.18518519,85.18518519,496.3950617,496.3950617,black,legacy,legacy,legacy,0,congruent,uniform,1,undefined,1,s,0,80,0,0,0,80,0,80,80,0,0,0,80,80,80,80,9/24/2021 20:30,600,The main experiment item,yes,Flankertask.osexp,C:/Users/borna.000/Documents/PSYC/PSYC5316,no,mono,no,18,no,white,no,yes,768,legacy,0,79,C:/Users/borna.000/Desktop/SH-subject-3.csv,legacy,Lentiform Loewenfeld,3.3.9,0,s,NA,s,s,NA,s,464,NA,519706,17285,NA,464,2,legacy,1024,2,48000,-16,experiment,SSSSS,3,odd,NA,661151,522124,679448,NA,655539,2412,NA,679509,2416,662163,NA,679611,680076,679507,679611,Flanker task,69,40208,81,yes,1024
85.36585366,85.36585366,493.9146341,493.9146341,black,legacy,legacy,legacy,0,congruent,uniform,1,undefined,1,h,0,81,0,0,0,81,0,81,81,0,0,0,81,81,81,81,9/24/2021 20:30,600,The main experiment item,yes,Flankertask.osexp,C:/Users/borna.000/Documents/PSYC/PSYC5316,no,mono,no,18,no,white,no,yes,768,legacy,1,79,C:/Users/borna.000/Desktop/SH-subject-3.csv,legacy,Lentiform Loewenfeld,3.3.9,0,h,NA,s,s,NA,h,293,NA,519706,17285,NA,293,2,legacy,1024,2,48000,-16,experiment,HHHHH,3,odd,NA,680085,522124,679448,NA,655539,2412,NA,681160,2416,662163,NA,681261,681555,681158,681261,Flanker task,70,40501,82,yes,1024
85.54216867,85.54216867,492.4096386,492.4096386,black,legacy,legacy,legacy,0,congruent,uniform,1,undefined,1,h,0,82,0,0,0,82,0,82,82,0,0,0,82,82,82,82,9/24/2021 20:30,600,The main experiment item,yes,Flankertask.osexp,C:/Users/borna.000/Documents/PSYC/PSYC5316,no,mono,no,18,no,white,no,yes,768,legacy,2,79,C:/Users/borna.000/Desktop/SH-subject-3.csv,legacy,Lentiform Loewenfeld,3.3.9,0,h,NA,s,s,NA,h,369,NA,519706,17285,NA,369,2,legacy,1024,2,48000,-16,experiment,HHHHH,3,odd,NA,681563,522124,679448,NA,655539,2412,NA,682619,2416,662163,NA,682720,683090,682617,682720,Flanker task,71,40870,83,yes,1024
85.71428571,85.71428571,491.047619,491.047619,black,legacy,legacy,legacy,0,congruent,uniform,1,undefined,1,s,0,83,0,0,0,83,0,83,83,0,0,0,83,83,83,83,9/24/2021 20:30,600,The main experiment item,yes,Flankertask.osexp,C:/Users/borna.000/Documents/PSYC/PSYC5316,no,mono,no,18,no,white,no,yes,768,legacy,3,79,C:/Users/borna.000/Desktop/SH-subject-3.csv,legacy,Lentiform Loewenfeld,3.3.9,0,s,NA,s,s,NA,s,378,NA,519706,17285,NA,378,2,legacy,1024,2,48000,-16,experiment,SSSSS,3,odd,NA,683098,522124,679448,NA,655539,2412,NA,684167,2416,662163,NA,684268,684647,684165,684268,Flanker task,72,41248,84,yes,1024
85.88235294,85.88235294,490.4941176,490.4941176,black,legacy,legacy,legacy,0,incongruent,uniform,1,undefined,1,s,0,84,0,0,0,84,0,84,84,0,0,0,84,84,84,84,9/24/2021 20:30,600,The main experiment item,yes,Flankertask.osexp,C:/Users/borna.000/Documents/PSYC/PSYC5316,no,mono,no,18,no,white,no,yes,768,legacy,4,79,C:/Users/borna.000/Desktop/SH-subject-3.csv,legacy,Lentiform Loewenfeld,3.3.9,0,s,NA,s,s,NA,s,444,NA,519706,17285,NA,444,2,legacy,1024,2,48000,-16,experiment,HHSHH,3,odd,NA,684656,522124,679448,NA,655539,2412,NA,685726,2416,662163,NA,685827,686271,685724,685827,Flanker task,73,41692,85,yes,1024
86.04651163,86.04651163,489.4302326,489.4302326,black,legacy,legacy,legacy,0,congruent,uniform,1,undefined,1,s,0,85,0,0,0,85,0,85,85,0,0,0,85,85,85,85,9/24/2021 20:30,600,The main experiment item,yes,Flankertask.osexp,C:/Users/borna.000/Documents/PSYC/PSYC5316,no,mono,no,18,no,white,no,yes,768,legacy,5,79,C:/Users/borna.000/Desktop/SH-subject-3.csv,legacy,Lentiform Loewenfeld,3.3.9,0,s,NA,s,s,NA,s,399,NA,519706,17285,NA,399,2,legacy,1024,2,48000,-16,experiment,SSSSS,3,odd,NA,686281,522124,679448,NA,655539,2412,NA,687346,2416,662163,NA,687447,687847,687344,687447,Flanker task,74,42091,86,yes,1024
86.20689655,86.20689655,488.9770115,488.9770115,black,legacy,legacy,legacy,0,incongruent,uniform,1,undefined,1,h,0,86,0,0,0,86,0,86,86,0,0,0,86,86,86,86,9/24/2021 20:30,600,The main experiment item,yes,Flankertask.osexp,C:/Users/borna.000/Documents/PSYC/PSYC5316,no,mono,no,18,no,white,no,yes,768,legacy,6,79,C:/Users/borna.000/Desktop/SH-subject-3.csv,legacy,Lentiform Loewenfeld,3.3.9,0,h,NA,s,s,NA,h,450,NA,519706,17285,NA,450,2,legacy,1024,2,48000,-16,experiment,SSHSS,3,odd,NA,687855,522124,679448,NA,655539,2412,NA,688922,2416,662163,NA,689023,689475,688920,689023,Flanker task,75,42541,87,yes,1024
86.36363636,86.36363636,488.4545455,488.4545455,black,legacy,legacy,legacy,0,incongruent,uniform,1,undefined,1,h,0,87,0,0,0,87,0,87,87,0,0,0,87,87,87,87,9/24/2021 20:30,600,The main experiment item,yes,Flankertask.osexp,C:/Users/borna.000/Documents/PSYC/PSYC5316,no,mono,no,18,no,white,no,yes,768,legacy,7,79,C:/Users/borna.000/Desktop/SH-subject-3.csv,legacy,Lentiform Loewenfeld,3.3.9,0,h,NA,s,s,NA,h,443,NA,519706,17285,NA,443,2,legacy,1024,2,48000,-16,experiment,SSHSS,3,odd,NA,689483,522124,679448,NA,655539,2412,NA,690552,2416,662163,NA,690653,691097,690550,690653,Flanker task,76,42984,88,yes,1024
86.51685393,86.51685393,487.5505618,487.5505618,black,legacy,legacy,legacy,0,congruent,uniform,1,undefined,1,h,0,88,0,0,0,88,0,88,88,0,0,0,88,88,88,88,9/24/2021 20:30,600,The main experiment item,yes,Flankertask.osexp,C:/Users/borna.000/Documents/PSYC/PSYC5316,no,mono,no,18,no,white,no,yes,768,legacy,8,79,C:/Users/borna.000/Desktop/SH-subject-3.csv,legacy,Lentiform Loewenfeld,3.3.9,0,h,NA,s,s,NA,h,408,NA,519706,17285,NA,408,2,legacy,1024,2,48000,-16,experiment,HHHHH,3,odd,NA,691105,522124,679448,NA,655539,2412,NA,692176,2416,662163,NA,692278,692687,692173,692278,Flanker task,77,43392,89,yes,1024
86.66666667,86.66666667,486.5,486.5,black,legacy,legacy,legacy,0,congruent,uniform,1,undefined,1,h,0,89,0,0,0,89,0,89,89,0,0,0,89,89,89,89,9/24/2021 20:30,600,The main experiment item,yes,Flankertask.osexp,C:/Users/borna.000/Documents/PSYC/PSYC5316,no,mono,no,18,no,white,no,yes,768,legacy,9,79,C:/Users/borna.000/Desktop/SH-subject-3.csv,legacy,Lentiform Loewenfeld,3.3.9,0,h,NA,s,s,NA,h,393,NA,519706,17285,NA,393,2,legacy,1024,2,48000,-16,experiment,HHHHH,3,odd,NA,692696,522124,679448,NA,655539,2412,NA,693768,2416,662163,NA,693869,694262,693766,693869,Flanker task,78,43785,90,yes,1024
86.81318681,86.81318681,484.978022,484.978022,black,legacy,legacy,legacy,0,congruent,uniform,1,undefined,1,h,0,90,0,0,0,90,0,90,90,0,0,0,90,90,90,90,9/24/2021 20:30,600,The main experiment item,yes,Flankertask.osexp,C:/Users/borna.000/Documents/PSYC/PSYC5316,no,mono,no,18,no,white,no,yes,768,legacy,10,79,C:/Users/borna.000/Desktop/SH-subject-3.csv,legacy,Lentiform Loewenfeld,3.3.9,0,h,NA,s,s,NA,h,348,NA,519706,17285,NA,348,2,legacy,1024,2,48000,-16,experiment,HHHHH,3,odd,NA,694271,522124,679448,NA,655539,2412,NA,695335,2416,662163,NA,695437,695786,695332,695437,Flanker task,79,44133,91,yes,1024
86.95652174,86.95652174,484.1086957,484.1086957,black,legacy,legacy,legacy,0,congruent,uniform,1,undefined,1,h,0,91,0,0,0,91,0,91,91,0,0,0,91,91,91,91,9/24/2021 20:30,600,The main experiment item,yes,Flankertask.osexp,C:/Users/borna.000/Documents/PSYC/PSYC5316,no,mono,no,18,no,white,no,yes,768,legacy,11,79,C:/Users/borna.000/Desktop/SH-subject-3.csv,legacy,Lentiform Loewenfeld,3.3.9,0,h,NA,s,s,NA,h,405,NA,519706,17285,NA,405,2,legacy,1024,2,48000,-16,experiment,HHHHH,3,odd,NA,695795,522124,679448,NA,655539,2412,NA,696860,2416,662163,NA,696962,697368,696858,696962,Flanker task,80,44538,92,yes,1024
86.02150538,86.02150538,482.9247312,482.9247312,black,legacy,legacy,legacy,0,incongruent,uniform,0,undefined,0,s,0,92,0,0,0,92,0,92,92,0,0,0,92,92,92,92,9/24/2021 20:30,600,The main experiment item,yes,Flankertask.osexp,C:/Users/borna.000/Documents/PSYC/PSYC5316,no,mono,no,18,no,white,no,yes,768,legacy,12,79,C:/Users/borna.000/Desktop/SH-subject-3.csv,legacy,Lentiform Loewenfeld,3.3.9,0,h,NA,s,s,NA,h,374,NA,519706,17285,NA,374,2,legacy,1024,2,48000,-16,experiment,HHSHH,3,odd,NA,697376,522124,679448,NA,655539,2412,NA,698567,2416,662163,NA,698669,699043,698565,698669,Flanker task,80,44912,93,yes,1024
86.17021277,86.17021277,482.4893617,482.4893617,black,legacy,legacy,legacy,0,incongruent,uniform,1,undefined,1,h,0,93,0,0,0,93,0,93,93,0,0,0,93,93,93,93,9/24/2021 20:30,600,The main experiment item,yes,Flankertask.osexp,C:/Users/borna.000/Documents/PSYC/PSYC5316,no,mono,no,18,no,white,no,yes,768,legacy,13,79,C:/Users/borna.000/Desktop/SH-subject-3.csv,legacy,Lentiform Loewenfeld,3.3.9,0,h,NA,s,s,NA,h,442,NA,519706,17285,NA,442,2,legacy,1024,2,48000,-16,experiment,SSHSS,3,odd,NA,699553,522124,679448,NA,699052,2412,NA,700613,2416,662163,NA,700715,701157,700610,700715,Flanker task,81,45354,94,yes,1024
86.31578947,86.31578947,482.7052632,482.7052632,black,legacy,legacy,legacy,0,incongruent,uniform,1,undefined,1,s,0,94,0,0,0,94,0,94,94,0,0,0,94,94,94,94,9/24/2021 20:30,600,The main experiment item,yes,Flankertask.osexp,C:/Users/borna.000/Documents/PSYC/PSYC5316,no,mono,no,18,no,white,no,yes,768,legacy,14,79,C:/Users/borna.000/Desktop/SH-subject-3.csv,legacy,Lentiform Loewenfeld,3.3.9,0,s,NA,s,s,NA,s,503,NA,519706,17285,NA,503,2,legacy,1024,2,48000,-16,experiment,HHSHH,3,odd,NA,701166,522124,679448,NA,699052,2412,NA,702239,2416,662163,NA,702341,702845,702235,702341,Flanker task,82,45857,95,yes,1024
86.45833333,86.45833333,482.6979167,482.6979167,black,legacy,legacy,legacy,0,congruent,uniform,1,undefined,1,h,0,95,0,0,0,95,0,95,95,0,0,0,95,95,95,95,9/24/2021 20:30,600,The main experiment item,yes,Flankertask.osexp,C:/Users/borna.000/Documents/PSYC/PSYC5316,no,mono,no,18,no,white,no,yes,768,legacy,15,79,C:/Users/borna.000/Desktop/SH-subject-3.csv,legacy,Lentiform Loewenfeld,3.3.9,0,h,NA,s,s,NA,h,482,NA,519706,17285,NA,482,2,legacy,1024,2,48000,-16,experiment,HHHHH,3,odd,NA,702852,522124,679448,NA,699052,2412,NA,703919,2416,662163,NA,704021,704504,703917,704021,Flanker task,83,46339,96,yes,1024
86.59793814,86.59793814,482.8659794,482.8659794,black,legacy,legacy,legacy,0,incongruent,uniform,1,undefined,1,s,0,96,0,0,0,96,0,96,96,0,0,0,96,96,96,96,9/24/2021 20:30,600,The main experiment item,yes,Flankertask.osexp,C:/Users/borna.000/Documents/PSYC/PSYC5316,no,mono,no,18,no,white,no,yes,768,legacy,16,79,C:/Users/borna.000/Desktop/SH-subject-3.csv,legacy,Lentiform Loewenfeld,3.3.9,0,s,NA,s,s,NA,s,499,NA,519706,17285,NA,499,2,legacy,1024,2,48000,-16,experiment,HHSHH,3,odd,NA,704512,522124,679448,NA,699052,2412,NA,705578,2416,662163,NA,705680,706180,705576,705680,Flanker task,84,46838,97,yes,1024
86.73469388,86.73469388,482.3571429,482.3571429,black,legacy,legacy,legacy,0,incongruent,uniform,1,undefined,1,s,0,97,0,0,0,97,0,97,97,0,0,0,97,97,97,97,9/24/2021 20:30,600,The main experiment item,yes,Flankertask.osexp,C:/Users/borna.000/Documents/PSYC/PSYC5316,no,mono,no,18,no,white,no,yes,768,legacy,17,79,C:/Users/borna.000/Desktop/SH-subject-3.csv,legacy,Lentiform Loewenfeld,3.3.9,0,s,NA,s,s,NA,s,433,NA,519706,17285,NA,433,2,legacy,1024,2,48000,-16,experiment,HHSHH,3,odd,NA,706188,522124,679448,NA,699052,2412,NA,707260,2416,662163,NA,707362,707796,707258,707362,Flanker task,85,47271,98,yes,1024
86.86868687,86.86868687,482.8484848,482.8484848,black,legacy,legacy,legacy,0,incongruent,uniform,1,undefined,1,s,0,98,0,0,0,98,0,98,98,0,0,0,98,98,98,98,9/24/2021 20:30,600,The main experiment item,yes,Flankertask.osexp,C:/Users/borna.000/Documents/PSYC/PSYC5316,no,mono,no,18,no,white,no,yes,768,legacy,18,79,C:/Users/borna.000/Desktop/SH-subject-3.csv,legacy,Lentiform Loewenfeld,3.3.9,0,s,NA,s,s,NA,s,531,NA,519706,17285,NA,531,2,legacy,1024,2,48000,-16,experiment,HHSHH,3,odd,NA,707804,522124,679448,NA,699052,2412,NA,708883,2416,662163,NA,708984,709516,708881,708984,Flanker task,86,47802,99,yes,1024
87,87,482.67,482.67,black,legacy,legacy,legacy,0,incongruent,uniform,1,undefined,1,s,0,99,0,0,0,99,0,99,99,0,0,0,99,99,99,99,9/24/2021 20:30,600,The main experiment item,yes,Flankertask.osexp,C:/Users/borna.000/Documents/PSYC/PSYC5316,no,mono,no,18,no,white,no,yes,768,legacy,19,79,C:/Users/borna.000/Desktop/SH-subject-3.csv,legacy,Lentiform Loewenfeld,3.3.9,0,s,NA,s,s,NA,s,465,NA,519706,17285,NA,465,2,legacy,1024,2,48000,-16,experiment,HHSHH,3,odd,NA,709524,522124,679448,NA,699052,2412,NA,710598,2416,662163,NA,710700,711167,710595,710700,Flanker task,87,48267,100,yes,1024
87.12871287,87.12871287,482.7128713,482.7128713,black,legacy,legacy,legacy,0,incongruent,uniform,1,undefined,1,h,0,100,0,0,0,100,0,100,100,0,0,0,100,100,100,100,9/24/2021 20:30,600,The main experiment item,yes,Flankertask.osexp,C:/Users/borna.000/Documents/PSYC/PSYC5316,no,mono,no,18,no,white,no,yes,768,legacy,20,79,C:/Users/borna.000/Desktop/SH-subject-3.csv,legacy,Lentiform Loewenfeld,3.3.9,0,h,NA,s,s,NA,h,487,NA,519706,17285,NA,487,2,legacy,1024,2,48000,-16,experiment,SSHSS,3,odd,NA,711176,522124,679448,NA,699052,2412,NA,712250,2416,662163,NA,712351,712840,712248,712351,Flanker task,88,48754,101,yes,1024
87.25490196,87.25490196,482.6862745,482.6862745,black,legacy,legacy,legacy,0,incongruent,uniform,1,undefined,1,h,0,101,0,0,0,101,0,101,101,0,0,0,101,101,101,101,9/24/2021 20:30,600,The main experiment item,yes,Flankertask.osexp,C:/Users/borna.000/Documents/PSYC/PSYC5316,no,mono,no,18,no,white,no,yes,768,legacy,21,79,C:/Users/borna.000/Desktop/SH-subject-3.csv,legacy,Lentiform Loewenfeld,3.3.9,0,h,NA,s,s,NA,h,480,NA,519706,17285,NA,480,2,legacy,1024,2,48000,-16,experiment,SSHSS,3,odd,NA,712850,522124,679448,NA,699052,2412,NA,713910,2416,662163,NA,714012,714493,713908,714012,Flanker task,89,49234,102,yes,1024
87.37864078,87.37864078,481.9805825,481.9805825,black,legacy,legacy,legacy,0,congruent,uniform,1,undefined,1,s,0,102,0,0,0,102,0,102,102,0,0,0,102,102,102,102,9/24/2021 20:30,600,The main experiment item,yes,Flankertask.osexp,C:/Users/borna.000/Documents/PSYC/PSYC5316,no,mono,no,18,no,white,no,yes,768,legacy,22,79,C:/Users/borna.000/Desktop/SH-subject-3.csv,legacy,Lentiform Loewenfeld,3.3.9,0,s,NA,s,s,NA,s,410,NA,519706,17285,NA,410,2,legacy,1024,2,48000,-16,experiment,SSSSS,3,odd,NA,714505,522124,679448,NA,699052,2412,NA,715579,2416,662163,NA,715681,716092,715577,715681,Flanker task,90,49644,103,yes,1024
87.5,87.5,481.7211538,481.7211538,black,legacy,legacy,legacy,0,congruent,uniform,1,undefined,1,s,0,103,0,0,0,103,0,103,103,0,0,0,103,103,103,103,9/24/2021 20:30,600,The main experiment item,yes,Flankertask.osexp,C:/Users/borna.000/Documents/PSYC/PSYC5316,no,mono,no,18,no,white,no,yes,768,legacy,23,79,C:/Users/borna.000/Desktop/SH-subject-3.csv,legacy,Lentiform Loewenfeld,3.3.9,0,s,NA,s,s,NA,s,455,NA,519706,17285,NA,455,2,legacy,1024,2,48000,-16,experiment,SSSSS,3,odd,NA,716096,522124,679448,NA,699052,2412,NA,717161,2416,662163,NA,717263,717719,717159,717263,Flanker task,91,50099,104,yes,1024
87.61904762,87.61904762,481.6857143,481.6857143,black,legacy,legacy,legacy,0,incongruent,uniform,1,undefined,1,s,0,104,0,0,0,104,0,104,104,0,0,0,104,104,104,104,9/24/2021 20:30,600,The main experiment item,yes,Flankertask.osexp,C:/Users/borna.000/Documents/PSYC/PSYC5316,no,mono,no,18,no,white,no,yes,768,legacy,24,79,C:/Users/borna.000/Desktop/SH-subject-3.csv,legacy,Lentiform Loewenfeld,3.3.9,0,s,NA,s,s,NA,s,478,NA,519706,17285,NA,478,2,legacy,1024,2,48000,-16,experiment,HHSHH,3,odd,NA,717729,522124,679448,NA,699052,2412,NA,718798,2416,662163,NA,718899,719378,718796,718899,Flanker task,92,50577,105,yes,1024
87.73584906,87.73584906,481.7264151,481.7264151,black,legacy,legacy,legacy,0,incongruent,uniform,1,undefined,1,h,0,105,0,0,0,105,0,105,105,0,0,0,105,105,105,105,9/24/2021 20:30,600,The main experiment item,yes,Flankertask.osexp,C:/Users/borna.000/Documents/PSYC/PSYC5316,no,mono,no,18,no,white,no,yes,768,legacy,25,79,C:/Users/borna.000/Desktop/SH-subject-3.csv,legacy,Lentiform Loewenfeld,3.3.9,0,h,NA,s,s,NA,h,486,NA,519706,17285,NA,486,2,legacy,1024,2,48000,-16,experiment,SSHSS,3,odd,NA,719387,522124,679448,NA,699052,2412,NA,720453,2416,662163,NA,720555,721042,720451,720555,Flanker task,93,51063,106,yes,1024
87.85046729,87.85046729,481.7850467,481.7850467,black,legacy,legacy,legacy,0,incongruent,uniform,1,undefined,1,s,0,106,0,0,0,106,0,106,106,0,0,0,106,106,106,106,9/24/2021 20:30,600,The main experiment item,yes,Flankertask.osexp,C:/Users/borna.000/Documents/PSYC/PSYC5316,no,mono,no,18,no,white,no,yes,768,legacy,26,79,C:/Users/borna.000/Desktop/SH-subject-3.csv,legacy,Lentiform Loewenfeld,3.3.9,0,s,NA,s,s,NA,s,488,NA,519706,17285,NA,488,2,legacy,1024,2,48000,-16,experiment,HHSHH,3,odd,NA,721051,522124,679448,NA,699052,2412,NA,722119,2416,662163,NA,722221,722710,722117,722221,Flanker task,94,51551,107,yes,1024
87.96296296,87.96296296,482.2407407,482.2407407,black,legacy,legacy,legacy,0,congruent,uniform,1,undefined,1,h,0,107,0,0,0,107,0,107,107,0,0,0,107,107,107,107,9/24/2021 20:30,600,The main experiment item,yes,Flankertask.osexp,C:/Users/borna.000/Documents/PSYC/PSYC5316,no,mono,no,18,no,white,no,yes,768,legacy,27,79,C:/Users/borna.000/Desktop/SH-subject-3.csv,legacy,Lentiform Loewenfeld,3.3.9,0,h,NA,s,s,NA,h,531,NA,519706,17285,NA,531,2,legacy,1024,2,48000,-16,experiment,HHHHH,3,odd,NA,722718,522124,679448,NA,699052,2412,NA,723787,2416,662163,NA,723888,724420,723785,723888,Flanker task,95,52082,108,yes,1024
88.0733945,88.0733945,482.6513761,482.6513761,black,legacy,legacy,legacy,0,incongruent,uniform,1,undefined,1,s,0,108,0,0,0,108,0,108,108,0,0,0,108,108,108,108,9/24/2021 20:30,600,The main experiment item,yes,Flankertask.osexp,C:/Users/borna.000/Documents/PSYC/PSYC5316,no,mono,no,18,no,white,no,yes,768,legacy,28,79,C:/Users/borna.000/Desktop/SH-subject-3.csv,legacy,Lentiform Loewenfeld,3.3.9,0,s,NA,s,s,NA,s,527,NA,519706,17285,NA,527,2,legacy,1024,2,48000,-16,experiment,HHSHH,3,odd,NA,724428,522124,679448,NA,699052,2412,NA,725494,2416,662163,NA,725596,726124,725492,725596,Flanker task,96,52609,109,yes,1024
88.18181818,88.18181818,485.8181818,485.8181818,black,legacy,legacy,legacy,0,congruent,uniform,1,undefined,1,s,0,109,0,0,0,109,0,109,109,0,0,0,109,109,109,109,9/24/2021 20:30,600,The main experiment item,yes,Flankertask.osexp,C:/Users/borna.000/Documents/PSYC/PSYC5316,no,mono,no,18,no,white,no,yes,768,legacy,29,79,C:/Users/borna.000/Desktop/SH-subject-3.csv,legacy,Lentiform Loewenfeld,3.3.9,0,s,NA,s,s,NA,s,831,NA,519706,17285,NA,831,2,legacy,1024,2,48000,-16,experiment,SSSSS,3,odd,NA,726132,522124,679448,NA,699052,2412,NA,727201,2416,662163,NA,727303,728135,727199,727303,Flanker task,97,53440,110,yes,1024
88.28828829,88.28828829,484.7117117,484.7117117,black,legacy,legacy,legacy,0,congruent,uniform,1,undefined,1,s,0,110,0,0,0,110,0,110,110,0,0,0,110,110,110,110,9/24/2021 20:30,600,The main experiment item,yes,Flankertask.osexp,C:/Users/borna.000/Documents/PSYC/PSYC5316,no,mono,no,18,no,white,no,yes,768,legacy,30,79,C:/Users/borna.000/Desktop/SH-subject-3.csv,legacy,Lentiform Loewenfeld,3.3.9,0,s,NA,s,s,NA,s,363,NA,519706,17285,NA,363,2,legacy,1024,2,48000,-16,experiment,SSSSS,3,odd,NA,728645,522124,679448,NA,699052,2412,728144,729701,2416,662163,NA,729804,730168,729699,729803,Flanker task,98,53803,111,yes,1024
88.39285714,88.39285714,484.3303571,484.3303571,black,legacy,legacy,legacy,0,incongruent,uniform,1,undefined,1,h,0,111,0,0,0,111,0,111,111,0,0,0,111,111,111,111,9/24/2021 20:30,600,The main experiment item,yes,Flankertask.osexp,C:/Users/borna.000/Documents/PSYC/PSYC5316,no,mono,no,18,no,white,no,yes,768,legacy,31,79,C:/Users/borna.000/Desktop/SH-subject-3.csv,legacy,Lentiform Loewenfeld,3.3.9,0,h,NA,s,s,NA,h,442,NA,519706,17285,NA,442,2,legacy,1024,2,48000,-16,experiment,SSHSS,3,odd,NA,730177,522124,679448,NA,699052,2412,728144,731244,2416,662163,NA,731346,731789,731241,731346,Flanker task,99,54245,112,yes,1024
88.49557522,88.49557522,484.3982301,484.3982301,black,legacy,legacy,legacy,0,congruent,uniform,1,undefined,1,h,0,112,0,0,0,112,0,112,112,0,0,0,112,112,112,112,9/24/2021 20:30,600,The main experiment item,yes,Flankertask.osexp,C:/Users/borna.000/Documents/PSYC/PSYC5316,no,mono,no,18,no,white,no,yes,768,legacy,32,79,C:/Users/borna.000/Desktop/SH-subject-3.csv,legacy,Lentiform Loewenfeld,3.3.9,0,h,NA,s,s,NA,h,492,NA,519706,17285,NA,492,2,legacy,1024,2,48000,-16,experiment,HHHHH,3,odd,NA,731797,522124,679448,NA,699052,2412,728144,732861,2416,662163,NA,732963,733456,732859,732963,Flanker task,100,54737,113,yes,1024
88.59649123,88.59649123,483.877193,483.877193,black,legacy,legacy,legacy,0,congruent,uniform,1,undefined,1,s,0,113,0,0,0,113,0,113,113,0,0,0,113,113,113,113,9/24/2021 20:30,600,The main experiment item,yes,Flankertask.osexp,C:/Users/borna.000/Documents/PSYC/PSYC5316,no,mono,no,18,no,white,no,yes,768,legacy,33,79,C:/Users/borna.000/Desktop/SH-subject-3.csv,legacy,Lentiform Loewenfeld,3.3.9,0,s,NA,s,s,NA,s,425,NA,519706,17285,NA,425,2,legacy,1024,2,48000,-16,experiment,SSSSS,3,odd,NA,733464,522124,679448,NA,699052,2412,728144,734529,2416,662163,NA,734630,735056,734527,734630,Flanker task,101,55162,114,yes,1024
88.69565217,88.69565217,483.6173913,483.6173913,black,legacy,legacy,legacy,0,congruent,uniform,1,undefined,1,s,0,114,0,0,0,114,0,114,114,0,0,0,114,114,114,114,9/24/2021 20:30,600,The main experiment item,yes,Flankertask.osexp,C:/Users/borna.000/Documents/PSYC/PSYC5316,no,mono,no,18,no,white,no,yes,768,legacy,34,79,C:/Users/borna.000/Desktop/SH-subject-3.csv,legacy,Lentiform Loewenfeld,3.3.9,0,s,NA,s,s,NA,s,454,NA,519706,17285,NA,454,2,legacy,1024,2,48000,-16,experiment,SSSSS,3,odd,NA,735064,522124,679448,NA,699052,2412,728144,736132,2416,662163,NA,736233,736688,736129,736233,Flanker task,102,55616,115,yes,1024
88.79310345,88.79310345,484.4396552,484.4396552,black,legacy,legacy,legacy,0,incongruent,uniform,1,undefined,1,s,0,115,0,0,0,115,0,115,115,0,0,0,115,115,115,115,9/24/2021 20:30,600,The main experiment item,yes,Flankertask.osexp,C:/Users/borna.000/Documents/PSYC/PSYC5316,no,mono,no,18,no,white,no,yes,768,legacy,35,79,C:/Users/borna.000/Desktop/SH-subject-3.csv,legacy,Lentiform Loewenfeld,3.3.9,0,s,NA,s,s,NA,s,579,NA,519706,17285,NA,579,2,legacy,1024,2,48000,-16,experiment,HHSHH,3,odd,NA,736697,522124,679448,NA,699052,2412,728144,737761,2416,662163,NA,737863,738443,737758,737863,Flanker task,103,56195,116,yes,1024
88.88888889,88.88888889,484.4957265,484.4957265,black,legacy,legacy,legacy,0,incongruent,uniform,1,undefined,1,s,0,116,0,0,0,116,0,116,116,0,0,0,116,116,116,116,9/24/2021 20:30,600,The main experiment item,yes,Flankertask.osexp,C:/Users/borna.000/Documents/PSYC/PSYC5316,no,mono,no,18,no,white,no,yes,768,legacy,36,79,C:/Users/borna.000/Desktop/SH-subject-3.csv,legacy,Lentiform Loewenfeld,3.3.9,0,s,NA,s,s,NA,s,491,NA,519706,17285,NA,491,2,legacy,1024,2,48000,-16,experiment,HHSHH,3,odd,NA,738451,522124,679448,NA,699052,2412,728144,739526,2416,662163,NA,739628,740120,739524,739628,Flanker task,104,56686,117,yes,1024
88.98305085,88.98305085,487.7033898,487.7033898,black,legacy,legacy,legacy,0,incongruent,uniform,1,undefined,1,h,0,117,0,0,0,117,0,117,117,0,0,0,117,117,117,117,9/24/2021 20:30,600,The main experiment item,yes,Flankertask.osexp,C:/Users/borna.000/Documents/PSYC/PSYC5316,no,mono,no,18,no,white,no,yes,768,legacy,37,79,C:/Users/borna.000/Desktop/SH-subject-3.csv,legacy,Lentiform Loewenfeld,3.3.9,0,h,NA,s,s,NA,h,863,NA,519706,17285,NA,863,2,legacy,1024,2,48000,-16,experiment,SSHSS,3,odd,NA,740129,522124,679448,NA,699052,2412,728144,741200,2416,662163,NA,741301,742165,741197,741301,Flanker task,105,57549,118,yes,1024
89.07563025,89.07563025,487.5378151,487.5378151,black,legacy,legacy,legacy,0,incongruent,uniform,1,undefined,1,h,0,118,0,0,0,118,0,118,118,0,0,0,118,118,118,118,9/24/2021 20:30,600,The main experiment item,yes,Flankertask.osexp,C:/Users/borna.000/Documents/PSYC/PSYC5316,no,mono,no,18,no,white,no,yes,768,legacy,38,79,C:/Users/borna.000/Desktop/SH-subject-3.csv,legacy,Lentiform Loewenfeld,3.3.9,0,h,NA,s,s,NA,h,468,NA,519706,17285,NA,468,2,legacy,1024,2,48000,-16,experiment,SSHSS,3,odd,NA,742676,522124,679448,NA,699052,2412,742173,743739,2416,662163,NA,743841,744310,743736,743841,Flanker task,106,58017,119,yes,1024
89.16666667,89.16666667,487.5083333,487.5083333,black,legacy,legacy,legacy,0,incongruent,uniform,1,undefined,1,h,0,119,0,0,0,119,0,119,119,0,0,0,119,119,119,119,9/24/2021 20:30,600,The main experiment item,yes,Flankertask.osexp,C:/Users/borna.000/Documents/PSYC/PSYC5316,no,mono,no,18,no,white,no,yes,768,legacy,39,79,C:/Users/borna.000/Desktop/SH-subject-3.csv,legacy,Lentiform Loewenfeld,3.3.9,0,h,NA,s,s,NA,h,484,NA,519706,17285,NA,484,2,legacy,1024,2,48000,-16,experiment,SSHSS,3,odd,NA,744320,522124,679448,NA,699052,2412,742173,745386,2416,662163,NA,745487,745972,745384,745487,Flanker task,107,58501,120,yes,1024
89.25619835,89.25619835,487.231405,487.231405,black,legacy,legacy,legacy,0,incongruent,uniform,1,undefined,1,h,0,120,0,0,0,120,0,120,120,0,0,0,120,120,120,120,9/24/2021 20:30,600,The main experiment item,yes,Flankertask.osexp,C:/Users/borna.000/Documents/PSYC/PSYC5316,no,mono,no,18,no,white,no,yes,768,legacy,40,79,C:/Users/borna.000/Desktop/SH-subject-3.csv,legacy,Lentiform Loewenfeld,3.3.9,0,h,NA,s,s,NA,h,454,NA,519706,17285,NA,454,2,legacy,1024,2,48000,-16,experiment,SSHSS,3,odd,NA,745980,522124,679448,NA,699052,2412,742173,747047,2416,662163,NA,747149,747605,747045,747149,Flanker task,108,58955,121,yes,1024
89.3442623,89.3442623,487.442623,487.442623,black,legacy,legacy,legacy,0,incongruent,uniform,1,undefined,1,s,0,121,0,0,0,121,0,121,121,0,0,0,121,121,121,121,9/24/2021 20:30,600,The main experiment item,yes,Flankertask.osexp,C:/Users/borna.000/Documents/PSYC/PSYC5316,no,mono,no,18,no,white,no,yes,768,legacy,41,79,C:/Users/borna.000/Desktop/SH-subject-3.csv,legacy,Lentiform Loewenfeld,3.3.9,0,s,NA,s,s,NA,s,513,NA,519706,17285,NA,513,2,legacy,1024,2,48000,-16,experiment,HHSHH,3,odd,NA,747613,522124,679448,NA,699052,2412,742173,748675,2416,662163,NA,748776,749291,748672,748776,Flanker task,109,59468,122,yes,1024
89.43089431,89.43089431,486.1463415,486.1463415,black,legacy,legacy,legacy,0,congruent,uniform,1,undefined,1,s,0,122,0,0,0,122,0,122,122,0,0,0,122,122,122,122,9/24/2021 20:30,600,The main experiment item,yes,Flankertask.osexp,C:/Users/borna.000/Documents/PSYC/PSYC5316,no,mono,no,18,no,white,no,yes,768,legacy,42,79,C:/Users/borna.000/Desktop/SH-subject-3.csv,legacy,Lentiform Loewenfeld,3.3.9,0,s,NA,s,s,NA,s,328,NA,519706,17285,NA,328,2,legacy,1024,2,48000,-16,experiment,SSSSS,3,odd,NA,749299,522124,679448,NA,699052,2412,742173,750366,2416,662163,NA,750467,750796,750362,750467,Flanker task,110,59796,123,yes,1024
89.51612903,89.51612903,484.9596774,484.9596774,black,legacy,legacy,legacy,0,congruent,uniform,1,undefined,1,s,0,123,0,0,0,123,0,123,123,0,0,0,123,123,123,123,9/24/2021 20:30,600,The main experiment item,yes,Flankertask.osexp,C:/Users/borna.000/Documents/PSYC/PSYC5316,no,mono,no,18,no,white,no,yes,768,legacy,43,79,C:/Users/borna.000/Desktop/SH-subject-3.csv,legacy,Lentiform Loewenfeld,3.3.9,0,s,NA,s,s,NA,s,339,NA,519706,17285,NA,339,2,legacy,1024,2,48000,-16,experiment,SSSSS,3,odd,NA,750805,522124,679448,NA,699052,2412,742173,751875,2416,662163,NA,751976,752316,751872,751976,Flanker task,111,60135,124,yes,1024
89.6,89.6,484.704,484.704,black,legacy,legacy,legacy,0,incongruent,uniform,1,undefined,1,h,0,124,0,0,0,124,0,124,124,0,0,0,124,124,124,124,9/24/2021 20:30,600,The main experiment item,yes,Flankertask.osexp,C:/Users/borna.000/Documents/PSYC/PSYC5316,no,mono,no,18,no,white,no,yes,768,legacy,44,79,C:/Users/borna.000/Desktop/SH-subject-3.csv,legacy,Lentiform Loewenfeld,3.3.9,0,h,NA,s,s,NA,h,453,NA,519706,17285,NA,453,2,legacy,1024,2,48000,-16,experiment,SSHSS,3,odd,NA,752324,522124,679448,NA,699052,2412,742173,753393,2416,662163,NA,753494,753948,753390,753494,Flanker task,112,60588,125,yes,1024
89.68253968,89.68253968,483.2539683,483.2539683,black,legacy,legacy,legacy,0,congruent,uniform,1,undefined,1,s,0,125,0,0,0,125,0,125,125,0,0,0,125,125,125,125,9/24/2021 20:30,600,The main experiment item,yes,Flankertask.osexp,C:/Users/borna.000/Documents/PSYC/PSYC5316,no,mono,no,18,no,white,no,yes,768,legacy,45,79,C:/Users/borna.000/Desktop/SH-subject-3.csv,legacy,Lentiform Loewenfeld,3.3.9,0,s,NA,s,s,NA,s,302,NA,519706,17285,NA,302,2,legacy,1024,2,48000,-16,experiment,SSSSS,3,odd,NA,753957,522124,679448,NA,699052,2412,742173,755028,2416,662163,NA,755130,755434,755026,755130,Flanker task,113,60890,126,yes,1024
88.97637795,88.97637795,482.0393701,482.0393701,black,legacy,legacy,legacy,0,congruent,uniform,0,undefined,0,h,0,126,0,0,0,126,0,126,126,0,0,0,126,126,126,126,9/24/2021 20:30,600,The main experiment item,yes,Flankertask.osexp,C:/Users/borna.000/Documents/PSYC/PSYC5316,no,mono,no,18,no,white,no,yes,768,legacy,46,79,C:/Users/borna.000/Desktop/SH-subject-3.csv,legacy,Lentiform Loewenfeld,3.3.9,0,s,NA,s,s,NA,s,329,NA,519706,17285,NA,329,2,legacy,1024,2,48000,-16,experiment,HHHHH,3,odd,NA,755443,522124,679448,NA,699052,2412,742173,756501,2416,662163,NA,756602,756932,756499,756602,Flanker task,113,61219,127,yes,1024
89.0625,89.0625,481.484375,481.484375,black,legacy,legacy,legacy,0,congruent,uniform,1,undefined,1,h,0,127,0,0,0,127,0,127,127,0,0,0,127,127,127,127,9/24/2021 20:30,600,The main experiment item,yes,Flankertask.osexp,C:/Users/borna.000/Documents/PSYC/PSYC5316,no,mono,no,18,no,white,no,yes,768,legacy,47,79,C:/Users/borna.000/Desktop/SH-subject-3.csv,legacy,Lentiform Loewenfeld,3.3.9,0,h,NA,s,s,NA,h,411,NA,519706,17285,NA,411,2,legacy,1024,2,48000,-16,experiment,HHHHH,3,odd,NA,757442,522124,679448,NA,756941,2412,742173,758507,2416,662163,NA,758609,759021,758504,758608,Flanker task,114,61630,128,yes,1024
88.37209302,88.37209302,480.3875969,480.3875969,black,legacy,legacy,legacy,0,congruent,uniform,0,undefined,0,s,0,128,0,0,0,128,0,128,128,0,0,0,128,128,128,128,9/24/2021 20:30,600,The main experiment item,yes,Flankertask.osexp,C:/Users/borna.000/Documents/PSYC/PSYC5316,no,mono,no,18,no,white,no,yes,768,legacy,48,79,C:/Users/borna.000/Desktop/SH-subject-3.csv,legacy,Lentiform Loewenfeld,3.3.9,0,h,NA,s,s,NA,h,340,NA,519706,17285,NA,340,2,legacy,1024,2,48000,-16,experiment,SSSSS,3,odd,NA,759030,522124,679448,NA,756941,2412,742173,760097,2416,662163,NA,760198,760539,760095,760198,Flanker task,114,61970,129,yes,1024
88.46153846,88.46153846,479.5153846,479.5153846,black,legacy,legacy,legacy,0,congruent,uniform,1,undefined,1,s,0,129,0,0,0,129,0,129,129,0,0,0,129,129,129,129,9/24/2021 20:30,600,The main experiment item,yes,Flankertask.osexp,C:/Users/borna.000/Documents/PSYC/PSYC5316,no,mono,no,18,no,white,no,yes,768,legacy,49,79,C:/Users/borna.000/Desktop/SH-subject-3.csv,legacy,Lentiform Loewenfeld,3.3.9,0,s,NA,s,s,NA,s,367,NA,519706,17285,NA,367,2,legacy,1024,2,48000,-16,experiment,SSSSS,3,odd,NA,761049,522124,679448,NA,760547,2412,742173,762109,2416,662163,NA,762211,762579,762106,762211,Flanker task,115,62337,130,yes,1024
88.54961832,88.54961832,478.9236641,478.9236641,black,legacy,legacy,legacy,0,congruent,uniform,1,undefined,1,h,0,130,0,0,0,130,0,130,130,0,0,0,130,130,130,130,9/24/2021 20:30,600,The main experiment item,yes,Flankertask.osexp,C:/Users/borna.000/Documents/PSYC/PSYC5316,no,mono,no,18,no,white,no,yes,768,legacy,50,79,C:/Users/borna.000/Desktop/SH-subject-3.csv,legacy,Lentiform Loewenfeld,3.3.9,0,h,NA,s,s,NA,h,402,NA,519706,17285,NA,402,2,legacy,1024,2,48000,-16,experiment,HHHHH,3,odd,NA,762587,522124,679448,NA,760547,2412,742173,763654,2416,662163,NA,763756,764159,763651,763756,Flanker task,116,62739,131,yes,1024
87.87878788,87.87878788,478.2575758,478.2575758,black,legacy,legacy,legacy,0,incongruent,uniform,0,undefined,0,h,0,131,0,0,0,131,0,131,131,0,0,0,131,131,131,131,9/24/2021 20:30,600,The main experiment item,yes,Flankertask.osexp,C:/Users/borna.000/Documents/PSYC/PSYC5316,no,mono,no,18,no,white,no,yes,768,legacy,51,79,C:/Users/borna.000/Desktop/SH-subject-3.csv,legacy,Lentiform Loewenfeld,3.3.9,0,s,NA,s,s,NA,s,391,NA,519706,17285,NA,391,2,legacy,1024,2,48000,-16,experiment,SSHSS,3,odd,NA,764168,522124,679448,NA,760547,2412,742173,765231,2416,662163,NA,765333,765725,765229,765333,Flanker task,116,63130,132,yes,1024
87.96992481,87.96992481,477.5714286,477.5714286,black,legacy,legacy,legacy,0,congruent,uniform,1,undefined,1,h,0,132,0,0,0,132,0,132,132,0,0,0,132,132,132,132,9/24/2021 20:30,600,The main experiment item,yes,Flankertask.osexp,C:/Users/borna.000/Documents/PSYC/PSYC5316,no,mono,no,18,no,white,no,yes,768,legacy,52,79,C:/Users/borna.000/Desktop/SH-subject-3.csv,legacy,Lentiform Loewenfeld,3.3.9,0,h,NA,s,s,NA,h,387,NA,519706,17285,NA,387,2,legacy,1024,2,48000,-16,experiment,HHHHH,3,odd,NA,766235,522124,679448,NA,765734,2412,742173,767293,2416,662163,NA,767395,767783,767291,767395,Flanker task,117,63517,133,yes,1024
88.05970149,88.05970149,477.9776119,477.9776119,black,legacy,legacy,legacy,0,incongruent,uniform,1,undefined,1,h,0,133,0,0,0,133,0,133,133,0,0,0,133,133,133,133,9/24/2021 20:30,600,The main experiment item,yes,Flankertask.osexp,C:/Users/borna.000/Documents/PSYC/PSYC5316,no,mono,no,18,no,white,no,yes,768,legacy,53,79,C:/Users/borna.000/Desktop/SH-subject-3.csv,legacy,Lentiform Loewenfeld,3.3.9,0,h,NA,s,s,NA,h,532,NA,519706,17285,NA,532,2,legacy,1024,2,48000,-16,experiment,SSHSS,3,odd,NA,767791,522124,679448,NA,765734,2412,742173,768870,2416,662163,NA,768972,769505,768868,768972,Flanker task,118,64049,134,yes,1024
88.14814815,88.14814815,479,479,black,legacy,legacy,legacy,0,congruent,uniform,1,undefined,1,s,0,134,0,0,0,134,0,134,134,0,0,0,134,134,134,134,9/24/2021 20:30,600,The main experiment item,yes,Flankertask.osexp,C:/Users/borna.000/Documents/PSYC/PSYC5316,no,mono,no,18,no,white,no,yes,768,legacy,54,79,C:/Users/borna.000/Desktop/SH-subject-3.csv,legacy,Lentiform Loewenfeld,3.3.9,0,s,NA,s,s,NA,s,616,NA,519706,17285,NA,616,2,legacy,1024,2,48000,-16,experiment,SSSSS,3,odd,NA,769514,522124,679448,NA,765734,2412,742173,770585,2416,662163,NA,770687,771304,770583,770687,Flanker task,119,64665,135,yes,1024
88.23529412,88.23529412,478.875,478.875,black,legacy,legacy,legacy,0,incongruent,uniform,1,undefined,1,s,0,135,0,0,0,135,0,135,135,0,0,0,135,135,135,135,9/24/2021 20:30,600,The main experiment item,yes,Flankertask.osexp,C:/Users/borna.000/Documents/PSYC/PSYC5316,no,mono,no,18,no,white,no,yes,768,legacy,55,79,C:/Users/borna.000/Desktop/SH-subject-3.csv,legacy,Lentiform Loewenfeld,3.3.9,0,s,NA,s,s,NA,s,462,NA,519706,17285,NA,462,2,legacy,1024,2,48000,-16,experiment,HHSHH,3,odd,NA,771813,522124,679448,NA,765734,2412,771312,772872,2416,662163,NA,772974,773437,772870,772974,Flanker task,120,65127,136,yes,1024
88.32116788,88.32116788,478.9708029,478.9708029,black,legacy,legacy,legacy,0,incongruent,uniform,1,undefined,1,h,0,136,0,0,0,136,0,136,136,0,0,0,136,136,136,136,9/24/2021 20:30,600,The main experiment item,yes,Flankertask.osexp,C:/Users/borna.000/Documents/PSYC/PSYC5316,no,mono,no,18,no,white,no,yes,768,legacy,56,79,C:/Users/borna.000/Desktop/SH-subject-3.csv,legacy,Lentiform Loewenfeld,3.3.9,0,h,NA,s,s,NA,h,492,NA,519706,17285,NA,492,2,legacy,1024,2,48000,-16,experiment,SSHSS,3,odd,NA,773445,522124,679448,NA,765734,2412,771312,774514,2416,662163,NA,774616,775109,774511,774616,Flanker task,121,65619,137,yes,1024
88.4057971,88.4057971,479.3115942,479.3115942,black,legacy,legacy,legacy,0,incongruent,uniform,1,undefined,1,s,0,137,0,0,0,137,0,137,137,0,0,0,137,137,137,137,9/24/2021 20:30,600,The main experiment item,yes,Flankertask.osexp,C:/Users/borna.000/Documents/PSYC/PSYC5316,no,mono,no,18,no,white,no,yes,768,legacy,57,79,C:/Users/borna.000/Desktop/SH-subject-3.csv,legacy,Lentiform Loewenfeld,3.3.9,0,s,NA,s,s,NA,s,526,NA,519706,17285,NA,526,2,legacy,1024,2,48000,-16,experiment,HHSHH,3,odd,NA,775119,522124,679448,NA,765734,2412,771312,776190,2416,662163,NA,776292,776819,776188,776292,Flanker task,122,66145,138,yes,1024
88.48920863,88.48920863,479.1870504,479.1870504,black,legacy,legacy,legacy,0,incongruent,uniform,1,undefined,1,h,0,138,0,0,0,138,0,138,138,0,0,0,138,138,138,138,9/24/2021 20:30,600,The main experiment item,yes,Flankertask.osexp,C:/Users/borna.000/Documents/PSYC/PSYC5316,no,mono,no,18,no,white,no,yes,768,legacy,58,79,C:/Users/borna.000/Desktop/SH-subject-3.csv,legacy,Lentiform Loewenfeld,3.3.9,0,h,NA,s,s,NA,h,462,NA,519706,17285,NA,462,2,legacy,1024,2,48000,-16,experiment,SSHSS,3,odd,NA,776828,522124,679448,NA,765734,2412,771312,777897,2416,662163,NA,777999,778462,777895,777999,Flanker task,123,66607,139,yes,1024
88.57142857,88.57142857,479.1142857,479.1142857,black,legacy,legacy,legacy,0,incongruent,uniform,1,undefined,1,s,0,139,0,0,0,139,0,139,139,0,0,0,139,139,139,139,9/24/2021 20:30,600,The main experiment item,yes,Flankertask.osexp,C:/Users/borna.000/Documents/PSYC/PSYC5316,no,mono,no,18,no,white,no,yes,768,legacy,59,79,C:/Users/borna.000/Desktop/SH-subject-3.csv,legacy,Lentiform Loewenfeld,3.3.9,0,s,NA,s,s,NA,s,469,NA,519706,17285,NA,469,2,legacy,1024,2,48000,-16,experiment,HHSHH,3,odd,NA,778471,522124,679448,NA,765734,2412,771312,779538,2416,662163,NA,779640,780110,779536,779640,Flanker task,124,67076,140,yes,1024
88.65248227,88.65248227,479.2836879,479.2836879,black,legacy,legacy,legacy,0,congruent,uniform,1,undefined,1,s,0,140,0,0,0,140,0,140,140,0,0,0,140,140,140,140,9/24/2021 20:30,600,The main experiment item,yes,Flankertask.osexp,C:/Users/borna.000/Documents/PSYC/PSYC5316,no,mono,no,18,no,white,no,yes,768,legacy,60,79,C:/Users/borna.000/Desktop/SH-subject-3.csv,legacy,Lentiform Loewenfeld,3.3.9,0,s,NA,s,s,NA,s,503,NA,519706,17285,NA,503,2,legacy,1024,2,48000,-16,experiment,SSSSS,3,odd,NA,780118,522124,679448,NA,765734,2412,771312,781186,2416,662163,NA,781288,781792,781184,781288,Flanker task,125,67579,141,yes,1024
88.73239437,88.73239437,479.528169,479.528169,black,legacy,legacy,legacy,0,incongruent,uniform,1,undefined,1,s,0,141,0,0,0,141,0,141,141,0,0,0,141,141,141,141,9/24/2021 20:30,600,The main experiment item,yes,Flankertask.osexp,C:/Users/borna.000/Documents/PSYC/PSYC5316,no,mono,no,18,no,white,no,yes,768,legacy,61,79,C:/Users/borna.000/Desktop/SH-subject-3.csv,legacy,Lentiform Loewenfeld,3.3.9,0,s,NA,s,s,NA,s,514,NA,519706,17285,NA,514,2,legacy,1024,2,48000,-16,experiment,HHSHH,3,odd,NA,781802,522124,679448,NA,765734,2412,771312,782863,2416,662163,NA,782965,783480,782860,782965,Flanker task,126,68093,142,yes,1024
88.81118881,88.81118881,479.8041958,479.8041958,black,legacy,legacy,legacy,0,congruent,uniform,1,undefined,1,h,0,142,0,0,0,142,0,142,142,0,0,0,142,142,142,142,9/24/2021 20:30,600,The main experiment item,yes,Flankertask.osexp,C:/Users/borna.000/Documents/PSYC/PSYC5316,no,mono,no,18,no,white,no,yes,768,legacy,62,79,C:/Users/borna.000/Desktop/SH-subject-3.csv,legacy,Lentiform Loewenfeld,3.3.9,0,h,NA,s,s,NA,h,519,NA,519706,17285,NA,519,2,legacy,1024,2,48000,-16,experiment,HHHHH,3,odd,NA,783488,522124,679448,NA,765734,2412,771312,784553,2416,662163,NA,784655,785175,784551,784655,Flanker task,127,68612,143,yes,1024
88.19444444,88.19444444,479.2152778,479.2152778,black,legacy,legacy,legacy,0,incongruent,uniform,0,undefined,0,h,0,143,0,0,0,143,0,143,143,0,0,0,143,143,143,143,9/24/2021 20:30,600,The main experiment item,yes,Flankertask.osexp,C:/Users/borna.000/Documents/PSYC/PSYC5316,no,mono,no,18,no,white,no,yes,768,legacy,63,79,C:/Users/borna.000/Desktop/SH-subject-3.csv,legacy,Lentiform Loewenfeld,3.3.9,0,s,NA,s,s,NA,s,395,NA,519706,17285,NA,395,2,legacy,1024,2,48000,-16,experiment,SSHSS,3,odd,NA,785183,522124,679448,NA,765734,2412,771312,786251,2416,662163,NA,786352,786749,786249,786352,Flanker task,127,69007,144,yes,1024
88.27586207,88.27586207,479.1793103,479.1793103,black,legacy,legacy,legacy,0,incongruent,uniform,1,undefined,1,s,0,144,0,0,0,144,0,144,144,0,0,0,144,144,144,144,9/24/2021 20:30,600,The main experiment item,yes,Flankertask.osexp,C:/Users/borna.000/Documents/PSYC/PSYC5316,no,mono,no,18,no,white,no,yes,768,legacy,64,79,C:/Users/borna.000/Desktop/SH-subject-3.csv,legacy,Lentiform Loewenfeld,3.3.9,0,s,NA,s,s,NA,s,474,NA,519706,17285,NA,474,2,legacy,1024,2,48000,-16,experiment,HHSHH,3,odd,NA,787259,522124,679448,NA,786757,2412,771312,788319,2416,662163,NA,788420,788895,788317,788420,Flanker task,128,69481,145,yes,1024
88.35616438,88.35616438,478.9794521,478.9794521,black,legacy,legacy,legacy,0,congruent,uniform,1,undefined,1,h,0,145,0,0,0,145,0,145,145,0,0,0,145,145,145,145,9/24/2021 20:30,600,The main experiment item,yes,Flankertask.osexp,C:/Users/borna.000/Documents/PSYC/PSYC5316,no,mono,no,18,no,white,no,yes,768,legacy,65,79,C:/Users/borna.000/Desktop/SH-subject-3.csv,legacy,Lentiform Loewenfeld,3.3.9,0,h,NA,s,s,NA,h,450,NA,519706,17285,NA,450,2,legacy,1024,2,48000,-16,experiment,HHHHH,3,odd,NA,788905,522124,679448,NA,786757,2412,771312,789981,2416,662163,NA,790082,790533,789979,790082,Flanker task,129,69931,146,yes,1024
88.43537415,88.43537415,479.3197279,479.3197279,black,legacy,legacy,legacy,0,congruent,uniform,1,undefined,1,s,0,146,0,0,0,146,0,146,146,0,0,0,146,146,146,146,9/24/2021 20:30,600,The main experiment item,yes,Flankertask.osexp,C:/Users/borna.000/Documents/PSYC/PSYC5316,no,mono,no,18,no,white,no,yes,768,legacy,66,79,C:/Users/borna.000/Desktop/SH-subject-3.csv,legacy,Lentiform Loewenfeld,3.3.9,0,s,NA,s,s,NA,s,529,NA,519706,17285,NA,529,2,legacy,1024,2,48000,-16,experiment,SSSSS,3,odd,NA,790542,522124,679448,NA,786757,2412,771312,791612,2416,662163,NA,791714,792244,791610,791714,Flanker task,130,70460,147,yes,1024
88.51351351,88.51351351,479.4662162,479.4662162,black,legacy,legacy,legacy,0,congruent,uniform,1,undefined,1,s,0,147,0,0,0,147,0,147,147,0,0,0,147,147,147,147,9/24/2021 20:30,600,The main experiment item,yes,Flankertask.osexp,C:/Users/borna.000/Documents/PSYC/PSYC5316,no,mono,no,18,no,white,no,yes,768,legacy,67,79,C:/Users/borna.000/Desktop/SH-subject-3.csv,legacy,Lentiform Loewenfeld,3.3.9,0,s,NA,s,s,NA,s,501,NA,519706,17285,NA,501,2,legacy,1024,2,48000,-16,experiment,SSSSS,3,odd,NA,792252,522124,679448,NA,786757,2412,771312,793316,2416,662163,NA,793417,793919,793313,793417,Flanker task,131,70961,148,yes,1024
88.59060403,88.59060403,479.1342282,479.1342282,black,legacy,legacy,legacy,0,congruent,uniform,1,undefined,1,h,0,148,0,0,0,148,0,148,148,0,0,0,148,148,148,148,9/24/2021 20:30,600,The main experiment item,yes,Flankertask.osexp,C:/Users/borna.000/Documents/PSYC/PSYC5316,no,mono,no,18,no,white,no,yes,768,legacy,68,79,C:/Users/borna.000/Desktop/SH-subject-3.csv,legacy,Lentiform Loewenfeld,3.3.9,0,h,NA,s,s,NA,h,430,NA,519706,17285,NA,430,2,legacy,1024,2,48000,-16,experiment,HHHHH,3,odd,NA,793928,522124,679448,NA,786757,2412,771312,794998,2416,662163,NA,795099,795531,794996,795099,Flanker task,132,71391,149,yes,1024
88.66666667,88.66666667,478.9666667,478.9666667,black,legacy,legacy,legacy,0,incongruent,uniform,1,undefined,1,s,0,149,0,0,0,149,0,149,149,0,0,0,149,149,149,149,9/24/2021 20:30,600,The main experiment item,yes,Flankertask.osexp,C:/Users/borna.000/Documents/PSYC/PSYC5316,no,mono,no,18,no,white,no,yes,768,legacy,69,79,C:/Users/borna.000/Desktop/SH-subject-3.csv,legacy,Lentiform Loewenfeld,3.3.9,0,s,NA,s,s,NA,s,454,NA,519706,17285,NA,454,2,legacy,1024,2,48000,-16,experiment,HHSHH,3,odd,NA,795539,522124,679448,NA,786757,2412,771312,796608,2416,662163,NA,796710,797165,796606,796710,Flanker task,133,71845,150,yes,1024
88.74172185,88.74172185,478.6887417,478.6887417,black,legacy,legacy,legacy,0,congruent,uniform,1,undefined,1,s,0,150,0,0,0,150,0,150,150,0,0,0,150,150,150,150,9/24/2021 20:30,600,The main experiment item,yes,Flankertask.osexp,C:/Users/borna.000/Documents/PSYC/PSYC5316,no,mono,no,18,no,white,no,yes,768,legacy,70,79,C:/Users/borna.000/Desktop/SH-subject-3.csv,legacy,Lentiform Loewenfeld,3.3.9,0,s,NA,s,s,NA,s,437,NA,519706,17285,NA,437,2,legacy,1024,2,48000,-16,experiment,SSSSS,3,odd,NA,797173,522124,679448,NA,786757,2412,771312,798246,2416,662163,NA,798348,798787,798244,798348,Flanker task,134,72282,151,yes,1024
88.81578947,88.81578947,478.3026316,478.3026316,black,legacy,legacy,legacy,0,congruent,uniform,1,undefined,1,h,0,151,0,0,0,151,0,151,151,0,0,0,151,151,151,151,9/24/2021 20:30,600,The main experiment item,yes,Flankertask.osexp,C:/Users/borna.000/Documents/PSYC/PSYC5316,no,mono,no,18,no,white,no,yes,768,legacy,71,79,C:/Users/borna.000/Desktop/SH-subject-3.csv,legacy,Lentiform Loewenfeld,3.3.9,0,h,NA,s,s,NA,h,420,NA,519706,17285,NA,420,2,legacy,1024,2,48000,-16,experiment,HHHHH,3,odd,NA,798795,522124,679448,NA,786757,2412,771312,799863,2416,662163,NA,799964,800385,799861,799964,Flanker task,135,72702,152,yes,1024
88.88888889,88.88888889,478.751634,478.751634,black,legacy,legacy,legacy,0,congruent,uniform,1,undefined,1,h,0,152,0,0,0,152,0,152,152,0,0,0,152,152,152,152,9/24/2021 20:30,600,The main experiment item,yes,Flankertask.osexp,C:/Users/borna.000/Documents/PSYC/PSYC5316,no,mono,no,18,no,white,no,yes,768,legacy,72,79,C:/Users/borna.000/Desktop/SH-subject-3.csv,legacy,Lentiform Loewenfeld,3.3.9,0,h,NA,s,s,NA,h,547,NA,519706,17285,NA,547,2,legacy,1024,2,48000,-16,experiment,HHHHH,3,odd,NA,800395,522124,679448,NA,786757,2412,771312,801459,2416,662163,NA,801561,802109,801457,801561,Flanker task,136,73249,153,yes,1024
88.96103896,88.96103896,478.2662338,478.2662338,black,legacy,legacy,legacy,0,congruent,uniform,1,undefined,1,s,0,153,0,0,0,153,0,153,153,0,0,0,153,153,153,153,9/24/2021 20:30,600,The main experiment item,yes,Flankertask.osexp,C:/Users/borna.000/Documents/PSYC/PSYC5316,no,mono,no,18,no,white,no,yes,768,legacy,73,79,C:/Users/borna.000/Desktop/SH-subject-3.csv,legacy,Lentiform Loewenfeld,3.3.9,0,s,NA,s,s,NA,s,404,NA,519706,17285,NA,404,2,legacy,1024,2,48000,-16,experiment,SSSSS,3,odd,NA,802118,522124,679448,NA,786757,2412,771312,803186,2416,662163,NA,803287,803692,803184,803287,Flanker task,137,73653,154,yes,1024
89.03225806,89.03225806,477.8064516,477.8064516,black,legacy,legacy,legacy,0,congruent,uniform,1,undefined,1,h,0,154,0,0,0,154,0,154,154,0,0,0,154,154,154,154,9/24/2021 20:30,600,The main experiment item,yes,Flankertask.osexp,C:/Users/borna.000/Documents/PSYC/PSYC5316,no,mono,no,18,no,white,no,yes,768,legacy,74,79,C:/Users/borna.000/Desktop/SH-subject-3.csv,legacy,Lentiform Loewenfeld,3.3.9,0,h,NA,s,s,NA,h,407,NA,519706,17285,NA,407,2,legacy,1024,2,48000,-16,experiment,HHHHH,3,odd,NA,803701,522124,679448,NA,786757,2412,771312,804768,2416,662163,NA,804869,805277,804766,804869,Flanker task,138,74060,155,yes,1024
89.1025641,89.1025641,477.775641,477.775641,black,legacy,legacy,legacy,0,incongruent,uniform,1,undefined,1,h,0,155,0,0,0,155,0,155,155,0,0,0,155,155,155,155,9/24/2021 20:30,600,The main experiment item,yes,Flankertask.osexp,C:/Users/borna.000/Documents/PSYC/PSYC5316,no,mono,no,18,no,white,no,yes,768,legacy,75,79,C:/Users/borna.000/Desktop/SH-subject-3.csv,legacy,Lentiform Loewenfeld,3.3.9,0,h,NA,s,s,NA,h,473,NA,519706,17285,NA,473,2,legacy,1024,2,48000,-16,experiment,SSHSS,3,odd,NA,805286,522124,679448,NA,786757,2412,771312,806354,2416,662163,NA,806455,806930,806351,806455,Flanker task,139,74533,156,yes,1024
89.17197452,89.17197452,477.5987261,477.5987261,black,legacy,legacy,legacy,0,incongruent,uniform,1,undefined,1,h,0,156,0,0,0,156,0,156,156,0,0,0,156,156,156,156,9/24/2021 20:30,600,The main experiment item,yes,Flankertask.osexp,C:/Users/borna.000/Documents/PSYC/PSYC5316,no,mono,no,18,no,white,no,yes,768,legacy,76,79,C:/Users/borna.000/Desktop/SH-subject-3.csv,legacy,Lentiform Loewenfeld,3.3.9,0,h,NA,s,s,NA,h,450,NA,519706,17285,NA,450,2,legacy,1024,2,48000,-16,experiment,SSHSS,3,odd,NA,806938,522124,679448,NA,786757,2412,771312,808008,2416,662163,NA,808109,808560,808005,808109,Flanker task,140,74983,157,yes,1024
89.24050633,89.24050633,477.4240506,477.4240506,black,legacy,legacy,legacy,0,incongruent,uniform,1,undefined,1,s,0,157,0,0,0,157,0,157,157,0,0,0,157,157,157,157,9/24/2021 20:30,600,The main experiment item,yes,Flankertask.osexp,C:/Users/borna.000/Documents/PSYC/PSYC5316,no,mono,no,18,no,white,no,yes,768,legacy,77,79,C:/Users/borna.000/Desktop/SH-subject-3.csv,legacy,Lentiform Loewenfeld,3.3.9,0,s,NA,s,s,NA,s,450,NA,519706,17285,NA,450,2,legacy,1024,2,48000,-16,experiment,HHSHH,3,odd,NA,808569,522124,679448,NA,786757,2412,771312,809639,2416,662163,NA,809741,810193,809637,809741,Flanker task,141,75433,158,yes,1024
89.3081761,89.3081761,477.2201258,477.2201258,black,legacy,legacy,legacy,0,incongruent,uniform,1,undefined,1,h,0,158,0,0,0,158,0,158,158,0,0,0,158,158,158,158,9/24/2021 20:30,600,The main experiment item,yes,Flankertask.osexp,C:/Users/borna.000/Documents/PSYC/PSYC5316,no,mono,no,18,no,white,no,yes,768,legacy,78,79,C:/Users/borna.000/Desktop/SH-subject-3.csv,legacy,Lentiform Loewenfeld,3.3.9,0,h,NA,s,s,NA,h,445,NA,519706,17285,NA,445,2,legacy,1024,2,48000,-16,experiment,SSHSS,3,odd,NA,810201,522124,679448,NA,786757,2412,771312,811274,2416,662163,NA,811375,811822,811271,811375,Flanker task,142,75878,159,yes,1024
89.375,89.375,477.28125,477.28125,black,legacy,legacy,legacy,0,congruent,uniform,1,undefined,1,h,0,159,0,0,0,159,0,159,159,0,0,0,159,159,159,159,9/24/2021 20:30,600,The main experiment item,yes,Flankertask.osexp,C:/Users/borna.000/Documents/PSYC/PSYC5316,no,mono,no,18,no,white,no,yes,768,legacy,79,79,C:/Users/borna.000/Desktop/SH-subject-3.csv,legacy,Lentiform Loewenfeld,3.3.9,0,h,NA,s,s,NA,h,487,NA,519706,17285,NA,487,2,legacy,1024,2,48000,-16,experiment,HHHHH,3,odd,NA,811830,522124,679448,NA,786757,2412,771312,812893,2416,662163,NA,812994,813482,812891,812994,Flanker task,143,76365,160,yes,1024
89.44099379,89.44099379,477.2732919,477.2732919,black,legacy,legacy,legacy,0,incongruent,uniform,1,undefined,1,h,0,160,0,0,0,160,0,160,160,0,0,0,160,160,160,160,9/24/2021 20:30,300,The main experiment item,yes,Flankertask.osexp,C:/Users/borna.000/Documents/PSYC/PSYC5316,no,mono,no,18,no,white,no,yes,768,legacy,0,79,C:/Users/borna.000/Desktop/SH-subject-3.csv,legacy,Lentiform Loewenfeld,3.3.9,0,h,NA,s,s,s,h,476,NA,519706,17285,9449,476,2,legacy,1024,2,48000,-16,experiment,SSHSS,3,odd,NA,813491,522124,679448,823958,786757,2412,771312,824018,2416,662163,814508,824119,824597,824017,824119,Flanker task,144,76841,161,yes,1024
89.50617284,89.50617284,476.0493827,476.0493827,black,legacy,legacy,legacy,0,congruent,uniform,1,undefined,1,s,0,161,0,0,0,161,0,161,161,0,0,0,161,161,161,161,9/24/2021 20:30,300,The main experiment item,yes,Flankertask.osexp,C:/Users/borna.000/Documents/PSYC/PSYC5316,no,mono,no,18,no,white,no,yes,768,legacy,1,79,C:/Users/borna.000/Desktop/SH-subject-3.csv,legacy,Lentiform Loewenfeld,3.3.9,0,s,NA,s,s,s,s,279,NA,519706,17285,9449,279,2,legacy,1024,2,48000,-16,experiment,SSSSS,3,odd,NA,825107,522124,679448,823958,786757,2412,824605,826168,2416,662163,814508,826270,826550,826166,826270,Flanker task,145,77120,162,yes,1024
89.57055215,89.57055215,474.8895706,474.8895706,black,legacy,legacy,legacy,0,congruent,uniform,1,undefined,1,h,0,162,0,0,0,162,0,162,162,0,0,0,162,162,162,162,9/24/2021 20:30,300,The main experiment item,yes,Flankertask.osexp,C:/Users/borna.000/Documents/PSYC/PSYC5316,no,mono,no,18,no,white,no,yes,768,legacy,2,79,C:/Users/borna.000/Desktop/SH-subject-3.csv,legacy,Lentiform Loewenfeld,3.3.9,0,h,NA,s,s,s,h,287,NA,519706,17285,9449,287,2,legacy,1024,2,48000,-16,experiment,HHHHH,3,odd,NA,826558,522124,679448,823958,786757,2412,824605,827632,2416,662163,814508,827733,828021,827630,827733,Flanker task,146,77407,163,yes,1024
