"acc","accuracy","average_response_time","avg_rt","background","canvas_backend","clock_backend","color_backend","condition","correct","correct_Instructions1","correct_keyboard_response","correct_response","count_Faster","count_Finish","count_ISI","count_Instructions1","count_Instructions2","count_Instructions3","count_block1","count_block2","count_block3","count_errorFeedback","count_experiment","count_fixation","count_keyboard_response","count_logger","count_sequence","count_stimulus","datetime","deadline","description","disable_garbage_collection","experiment_file","experiment_path","font_bold","font_family","font_italic","font_size","font_underline","foreground","form_clicks","fullscreen","height","keyboard_backend","live_row","live_row_block1","logfile","mouse_backend","opensesame_codename","opensesame_version","repeat_cycle","response","response_Finish","response_Instructions1","response_Instructions2","response_Instructions3","response_keyboard_response","response_time","response_time_Finish","response_time_Instructions1","response_time_Instructions2","response_time_Instructions3","response_time_keyboard_response","round_decimals","sampler_backend","sound_buf_size","sound_channels","sound_freq","sound_sample_size","start","stimulus","subject_nr","subject_parity","time_Faster","time_Finish","time_ISI","time_Instructions1","time_Instructions2","time_Instructions3","time_block1","time_block2","time_block3","time_errorFeedback","time_experiment","time_fixation","time_keyboard_response","time_logger","time_sequence","time_stimulus","title","total_correct","total_response_time","total_responses","width"
"100","100","1319","1319","black","legacy","legacy","legacy","congruent","1","undefined","1","h","0","0","0","0","0","0","0","0","0","0","0","0","0","0","0","0","Sat Sep 23 12:37:04 2023","1500","The main experiment item","True","FlankerTask.osexp","/Users/baileymcwhirter/Downloads","False","mono","False","18","no","white","no","yes","768","legacy","0","0","/Users/baileymcwhirter/Downloads/BMsubject-3.csv","legacy","Melodramatic Milgram","4.0.5","0","h","NA","s","NA","NA","h","1319.0","NA","33673","NA","NA","1319","2","legacy","1024","2","48000","-16","experiment","HHHHH","3","odd","NA","NA","NA","1154","NA","NA","34835","NA","NA","NA","1110","34875","34977","36296","34871","34977","Flanker Task","1","1319.0","1","1024"
"100","100","1040","1040","black","legacy","legacy","legacy","incongruent","1","undefined","1","h","1","0","1","0","0","0","0","0","0","1","0","1","1","1","1","1","Sat Sep 23 12:37:04 2023","1500","The main experiment item","True","FlankerTask.osexp","/Users/baileymcwhirter/Downloads","False","mono","False","18","no","white","no","yes","768","legacy","1","1","/Users/baileymcwhirter/Downloads/BMsubject-3.csv","legacy","Melodramatic Milgram","4.0.5","0","h","NA","s","NA","NA","h","761.0","NA","33673","NA","NA","761","2","legacy","1024","2","48000","-16","experiment","SSHSS","3","odd","NA","NA","36301","1154","NA","NA","34835","NA","NA","NA","1110","37341","37443","38211","37334","37443","Flanker Task","2","2080.0","2","1024"
"100","100","870","870","black","legacy","legacy","legacy","congruent","1","undefined","1","s","2","0","2","0","0","0","0","0","0","2","0","2","2","2","2","2","Sat Sep 23 12:37:04 2023","1500","The main experiment item","True","FlankerTask.osexp","/Users/baileymcwhirter/Downloads","False","mono","False","18","no","white","no","yes","768","legacy","2","2","/Users/baileymcwhirter/Downloads/BMsubject-3.csv","legacy","Melodramatic Milgram","4.0.5","0","s","NA","s","NA","NA","s","531.0","NA","33673","NA","NA","531","2","legacy","1024","2","48000","-16","experiment","SSSSS","3","odd","NA","NA","38214","1154","NA","NA","34835","NA","NA","NA","1110","39253","39356","39887","39248","39355","Flanker Task","3","2611.0","3","1024"
"100","100","808","808","black","legacy","legacy","legacy","congruent","1","undefined","1","s","3","0","3","0","0","0","0","0","0","3","0","3","3","3","3","3","Sat Sep 23 12:37:04 2023","1500","The main experiment item","True","FlankerTask.osexp","/Users/baileymcwhirter/Downloads","False","mono","False","18","no","white","no","yes","768","legacy","3","3","/Users/baileymcwhirter/Downloads/BMsubject-3.csv","legacy","Melodramatic Milgram","4.0.5","0","s","NA","s","NA","NA","s","623.0","NA","33673","NA","NA","623","2","legacy","1024","2","48000","-16","experiment","SSSSS","3","odd","NA","NA","39890","1154","NA","NA","34835","NA","NA","NA","1110","40925","41027","41650","40922","41027","Flanker Task","4","3234.0","4","1024"
"100","100","777","777","black","legacy","legacy","legacy","incongruent","1","undefined","1","s","4","0","4","0","0","0","0","0","0","4","0","4","4","4","4","4","Sat Sep 23 12:37:04 2023","1500","The main experiment item","True","FlankerTask.osexp","/Users/baileymcwhirter/Downloads","False","mono","False","18","no","white","no","yes","768","legacy","4","4","/Users/baileymcwhirter/Downloads/BMsubject-3.csv","legacy","Melodramatic Milgram","4.0.5","0","s","NA","s","NA","NA","s","652.0","NA","33673","NA","NA","652","2","legacy","1024","2","48000","-16","experiment","HHSHH","3","odd","NA","NA","41653","1154","NA","NA","34835","NA","NA","NA","1110","42687","42789","43442","42684","42789","Flanker Task","5","3886.0","5","1024"
"100","100","734","734","black","legacy","legacy","legacy","congruent","1","undefined","1","h","5","0","5","0","0","0","0","0","0","5","0","5","5","5","5","5","Sat Sep 23 12:37:04 2023","1500","The main experiment item","True","FlankerTask.osexp","/Users/baileymcwhirter/Downloads","False","mono","False","18","no","white","no","yes","768","legacy","5","5","/Users/baileymcwhirter/Downloads/BMsubject-3.csv","legacy","Melodramatic Milgram","4.0.5","0","h","NA","s","NA","NA","h","521.0","NA","33673","NA","NA","521","2","legacy","1024","2","48000","-16","experiment","HHHHH","3","odd","NA","NA","43445","1154","NA","NA","34835","NA","NA","NA","1110","44479","44581","45103","44476","44581","Flanker Task","6","4407.0","6","1024"
"100","100","695","695","black","legacy","legacy","legacy","congruent","1","undefined","1","s","6","0","6","0","0","0","0","0","0","6","0","6","6","6","6","6","Sat Sep 23 12:37:04 2023","1500","The main experiment item","True","FlankerTask.osexp","/Users/baileymcwhirter/Downloads","False","mono","False","18","no","white","no","yes","768","legacy","6","6","/Users/baileymcwhirter/Downloads/BMsubject-3.csv","legacy","Melodramatic Milgram","4.0.5","0","s","NA","s","NA","NA","s","463.0","NA","33673","NA","NA","463","2","legacy","1024","2","48000","-16","experiment","SSSSS","3","odd","NA","NA","45105","1154","NA","NA","34835","NA","NA","NA","1110","46141","46243","46707","46137","46243","Flanker Task","7","4870.0","7","1024"
"100","100","670","670","black","legacy","legacy","legacy","incongruent","1","undefined","1","s","7","0","7","0","0","0","0","0","0","7","0","7","7","7","7","7","Sat Sep 23 12:37:04 2023","1500","The main experiment item","True","FlankerTask.osexp","/Users/baileymcwhirter/Downloads","False","mono","False","18","no","white","no","yes","768","legacy","7","7","/Users/baileymcwhirter/Downloads/BMsubject-3.csv","legacy","Melodramatic Milgram","4.0.5","0","s","NA","s","NA","NA","s","493.0","NA","33673","NA","NA","493","2","legacy","1024","2","48000","-16","experiment","HHSHH","3","odd","NA","NA","46710","1154","NA","NA","34835","NA","NA","NA","1110","47748","47850","48344","47745","47850","Flanker Task","8","5363.0","8","1024"
"100","100","651","651","black","legacy","legacy","legacy","congruent","1","undefined","1","s","8","0","8","0","0","0","0","0","0","8","0","8","8","8","8","8","Sat Sep 23 12:37:04 2023","1500","The main experiment item","True","FlankerTask.osexp","/Users/baileymcwhirter/Downloads","False","mono","False","18","no","white","no","yes","768","legacy","8","8","/Users/baileymcwhirter/Downloads/BMsubject-3.csv","legacy","Melodramatic Milgram","4.0.5","0","s","NA","s","NA","NA","s","504.0","NA","33673","NA","NA","504","2","legacy","1024","2","48000","-16","experiment","SSSSS","3","odd","NA","NA","48346","1154","NA","NA","34835","NA","NA","NA","1110","49382","49486","49991","49379","49486","Flanker Task","9","5867.0","9","1024"
"100","100","628","628","black","legacy","legacy","legacy","congruent","1","undefined","1","s","9","0","9","0","0","0","0","0","0","9","0","9","9","9","9","9","Sat Sep 23 12:37:04 2023","1500","The main experiment item","True","FlankerTask.osexp","/Users/baileymcwhirter/Downloads","False","mono","False","18","no","white","no","yes","768","legacy","9","9","/Users/baileymcwhirter/Downloads/BMsubject-3.csv","legacy","Melodramatic Milgram","4.0.5","0","s","NA","s","NA","NA","s","422.0","NA","33673","NA","NA","422","2","legacy","1024","2","48000","-16","experiment","SSSSS","3","odd","NA","NA","49993","1154","NA","NA","34835","NA","NA","NA","1110","51027","51129","51551","51024","51129","Flanker Task","10","6289.0","10","1024"
"90","90","628","628","black","legacy","legacy","legacy","incongruent","0","undefined","0","s","10","0","10","0","0","0","0","0","0","10","0","10","10","10","10","10","Sat Sep 23 12:37:04 2023","1500","The main experiment item","True","FlankerTask.osexp","/Users/baileymcwhirter/Downloads","False","mono","False","18","no","white","no","yes","768","legacy","10","10","/Users/baileymcwhirter/Downloads/BMsubject-3.csv","legacy","Melodramatic Milgram","4.0.5","0","h","NA","s","NA","NA","h","623.0","NA","33673","NA","NA","623","2","legacy","1024","2","48000","-16","experiment","HHSHH","3","odd","NA","NA","51554","1154","NA","NA","34835","NA","NA","NA","1110","52591","52694","53318","52589","52694","Flanker Task","10","6912.0","11","1024"
"91","91","620","620","black","legacy","legacy","legacy","congruent","1","undefined","1","h","11","0","11","0","0","0","0","0","0","11","0","11","11","11","11","11","Sat Sep 23 12:37:04 2023","1500","The main experiment item","True","FlankerTask.osexp","/Users/baileymcwhirter/Downloads","False","mono","False","18","no","white","no","yes","768","legacy","11","11","/Users/baileymcwhirter/Downloads/BMsubject-3.csv","legacy","Melodramatic Milgram","4.0.5","0","h","NA","s","NA","NA","h","528.0","NA","33673","NA","NA","528","2","legacy","1024","2","48000","-16","experiment","HHHHH","3","odd","NA","NA","53827","1154","NA","NA","34835","NA","NA","53321","1110","54862","54964","55492","54859","54964","Flanker Task","11","7440.0","12","1024"
"92","92","620","620","black","legacy","legacy","legacy","incongruent","1","undefined","1","h","12","0","12","0","0","0","0","0","0","12","0","12","12","12","12","12","Sat Sep 23 12:37:04 2023","1500","The main experiment item","True","FlankerTask.osexp","/Users/baileymcwhirter/Downloads","False","mono","False","18","no","white","no","yes","768","legacy","12","12","/Users/baileymcwhirter/Downloads/BMsubject-3.csv","legacy","Melodramatic Milgram","4.0.5","0","h","NA","s","NA","NA","h","622.0","NA","33673","NA","NA","622","2","legacy","1024","2","48000","-16","experiment","SSHSS","3","odd","NA","NA","55495","1154","NA","NA","34835","NA","NA","53321","1110","56530","56633","57255","56527","56633","Flanker Task","12","8062.0","13","1024"
"92","92","623","623","black","legacy","legacy","legacy","incongruent","1","undefined","1","s","13","0","13","0","0","0","0","0","0","13","0","13","13","13","13","13","Sat Sep 23 12:37:04 2023","1500","The main experiment item","True","FlankerTask.osexp","/Users/baileymcwhirter/Downloads","False","mono","False","18","no","white","no","yes","768","legacy","13","13","/Users/baileymcwhirter/Downloads/BMsubject-3.csv","legacy","Melodramatic Milgram","4.0.5","0","s","NA","s","NA","NA","s","668.0","NA","33673","NA","NA","668","2","legacy","1024","2","48000","-16","experiment","HHSHH","3","odd","NA","NA","57258","1154","NA","NA","34835","NA","NA","53321","1110","58293","58395","59063","58289","58395","Flanker Task","13","8730.0","14","1024"
"93","93","616","616","black","legacy","legacy","legacy","congruent","1","undefined","1","s","14","0","14","0","0","0","0","0","0","14","0","14","14","14","14","14","Sat Sep 23 12:37:04 2023","1500","The main experiment item","True","FlankerTask.osexp","/Users/baileymcwhirter/Downloads","False","mono","False","18","no","white","no","yes","768","legacy","14","14","/Users/baileymcwhirter/Downloads/BMsubject-3.csv","legacy","Melodramatic Milgram","4.0.5","0","s","NA","s","NA","NA","s","510.0","NA","33673","NA","NA","510","2","legacy","1024","2","48000","-16","experiment","SSSSS","3","odd","NA","NA","59066","1154","NA","NA","34835","NA","NA","53321","1110","60102","60205","60716","60099","60205","Flanker Task","14","9240.0","15","1024"
"93","93","607","607","black","legacy","legacy","legacy","incongruent","1","undefined","1","s","15","0","15","0","0","0","0","0","0","15","0","15","15","15","15","15","Sat Sep 23 12:37:04 2023","1500","The main experiment item","True","FlankerTask.osexp","/Users/baileymcwhirter/Downloads","False","mono","False","18","no","white","no","yes","768","legacy","15","15","/Users/baileymcwhirter/Downloads/BMsubject-3.csv","legacy","Melodramatic Milgram","4.0.5","0","s","NA","s","NA","NA","s","485.0","NA","33673","NA","NA","485","2","legacy","1024","2","48000","-16","experiment","HHSHH","3","odd","NA","NA","60718","1154","NA","NA","34835","NA","NA","53321","1110","61755","61857","62342","61752","61857","Flanker Task","15","9725.0","16","1024"
"94","94","601","601","black","legacy","legacy","legacy","congruent","1","undefined","1","h","16","0","16","0","0","0","0","0","0","16","0","16","16","16","16","16","Sat Sep 23 12:37:04 2023","1500","The main experiment item","True","FlankerTask.osexp","/Users/baileymcwhirter/Downloads","False","mono","False","18","no","white","no","yes","768","legacy","16","16","/Users/baileymcwhirter/Downloads/BMsubject-3.csv","legacy","Melodramatic Milgram","4.0.5","0","h","NA","s","NA","NA","h","500.0","NA","33673","NA","NA","500","2","legacy","1024","2","48000","-16","experiment","HHHHH","3","odd","NA","NA","62345","1154","NA","NA","34835","NA","NA","53321","1110","63383","63486","63986","63380","63486","Flanker Task","16","10225.0","17","1024"
"94","94","593","593","black","legacy","legacy","legacy","congruent","1","undefined","1","h","17","0","17","0","0","0","0","0","0","17","0","17","17","17","17","17","Sat Sep 23 12:37:04 2023","1500","The main experiment item","True","FlankerTask.osexp","/Users/baileymcwhirter/Downloads","False","mono","False","18","no","white","no","yes","768","legacy","17","17","/Users/baileymcwhirter/Downloads/BMsubject-3.csv","legacy","Melodramatic Milgram","4.0.5","0","h","NA","s","NA","NA","h","453.0","NA","33673","NA","NA","453","2","legacy","1024","2","48000","-16","experiment","HHHHH","3","odd","NA","NA","63989","1154","NA","NA","34835","NA","NA","53321","1110","65032","65135","65588","65029","65135","Flanker Task","17","10678.0","18","1024"
"94","94","585","585","black","legacy","legacy","legacy","congruent","1","undefined","1","s","18","0","18","0","0","0","0","0","0","18","0","18","18","18","18","18","Sat Sep 23 12:37:04 2023","1500","The main experiment item","True","FlankerTask.osexp","/Users/baileymcwhirter/Downloads","False","mono","False","18","no","white","no","yes","768","legacy","18","18","/Users/baileymcwhirter/Downloads/BMsubject-3.csv","legacy","Melodramatic Milgram","4.0.5","0","s","NA","s","NA","NA","s","447.0","NA","33673","NA","NA","447","2","legacy","1024","2","48000","-16","experiment","SSSSS","3","odd","NA","NA","65591","1154","NA","NA","34835","NA","NA","53321","1110","66631","66734","67182","66627","66734","Flanker Task","18","11125.0","19","1024"
"95","95","580","580","black","legacy","legacy","legacy","incongruent","1","undefined","1","h","19","0","19","0","0","0","0","0","0","19","0","19","19","19","19","19","Sat Sep 23 12:37:04 2023","1500","The main experiment item","True","FlankerTask.osexp","/Users/baileymcwhirter/Downloads","False","mono","False","18","no","white","no","yes","768","legacy","19","19","/Users/baileymcwhirter/Downloads/BMsubject-3.csv","legacy","Melodramatic Milgram","4.0.5","0","h","NA","s","NA","NA","h","487.0","NA","33673","NA","NA","487","2","legacy","1024","2","48000","-16","experiment","SSHSS","3","odd","NA","NA","67185","1154","NA","NA","34835","NA","NA","53321","1110","68220","68322","68810","68217","68322","Flanker Task","19","11612.0","20","1024"
"95","95","576","576","black","legacy","legacy","legacy","congruent","1","undefined","1","h","20","0","20","0","0","0","0","0","0","20","0","20","20","20","20","20","Sat Sep 23 12:37:04 2023","1500","The main experiment item","True","FlankerTask.osexp","/Users/baileymcwhirter/Downloads","False","mono","False","18","no","white","no","yes","768","legacy","20","20","/Users/baileymcwhirter/Downloads/BMsubject-3.csv","legacy","Melodramatic Milgram","4.0.5","0","h","NA","s","NA","NA","h","495.0","NA","33673","NA","NA","495","2","legacy","1024","2","48000","-16","experiment","HHHHH","3","odd","NA","NA","68813","1154","NA","NA","34835","NA","NA","53321","1110","69849","69951","70447","69845","69951","Flanker Task","20","12107.0","21","1024"
"95","95","574","574","black","legacy","legacy","legacy","incongruent","1","undefined","1","s","21","0","21","0","0","0","0","0","0","21","0","21","21","21","21","21","Sat Sep 23 12:37:04 2023","1500","The main experiment item","True","FlankerTask.osexp","/Users/baileymcwhirter/Downloads","False","mono","False","18","no","white","no","yes","768","legacy","21","21","/Users/baileymcwhirter/Downloads/BMsubject-3.csv","legacy","Melodramatic Milgram","4.0.5","0","s","NA","s","NA","NA","s","525.0","NA","33673","NA","NA","525","2","legacy","1024","2","48000","-16","experiment","HHSHH","3","odd","NA","NA","70450","1154","NA","NA","34835","NA","NA","53321","1110","71487","71589","72115","71483","71589","Flanker Task","21","12632.0","22","1024"
"95","95","571","571","black","legacy","legacy","legacy","congruent","1","undefined","1","h","22","0","22","0","0","0","0","0","0","22","0","22","22","22","22","22","Sat Sep 23 12:37:04 2023","1500","The main experiment item","True","FlankerTask.osexp","/Users/baileymcwhirter/Downloads","False","mono","False","18","no","white","no","yes","768","legacy","22","22","/Users/baileymcwhirter/Downloads/BMsubject-3.csv","legacy","Melodramatic Milgram","4.0.5","0","h","NA","s","NA","NA","h","503.0","NA","33673","NA","NA","503","2","legacy","1024","2","48000","-16","experiment","HHHHH","3","odd","NA","NA","72117","1154","NA","NA","34835","NA","NA","53321","1110","73150","73253","73757","73147","73253","Flanker Task","22","13135.0","23","1024"
"95","95","568","568","black","legacy","legacy","legacy","congruent","1","undefined","1","s","23","0","23","0","0","0","0","0","0","23","0","23","23","23","23","23","Sat Sep 23 12:37:04 2023","1500","The main experiment item","True","FlankerTask.osexp","/Users/baileymcwhirter/Downloads","False","mono","False","18","no","white","no","yes","768","legacy","23","23","/Users/baileymcwhirter/Downloads/BMsubject-3.csv","legacy","Melodramatic Milgram","4.0.5","0","s","NA","s","NA","NA","s","515.0","NA","33673","NA","NA","515","2","legacy","1024","2","48000","-16","experiment","SSSSS","3","odd","NA","NA","73759","1154","NA","NA","34835","NA","NA","53321","1110","74789","74893","75409","74786","74893","Flanker Task","23","13650.0","24","1024"
"96","96","569","569","black","legacy","legacy","legacy","incongruent","1","undefined","1","h","24","0","24","0","0","0","0","0","0","24","0","24","24","24","24","24","Sat Sep 23 12:37:04 2023","1500","The main experiment item","True","FlankerTask.osexp","/Users/baileymcwhirter/Downloads","False","mono","False","18","no","white","no","yes","768","legacy","24","24","/Users/baileymcwhirter/Downloads/BMsubject-3.csv","legacy","Melodramatic Milgram","4.0.5","0","h","NA","s","NA","NA","h","597.0","NA","33673","NA","NA","597","2","legacy","1024","2","48000","-16","experiment","SSHSS","3","odd","NA","NA","75411","1154","NA","NA","34835","NA","NA","53321","1110","76441","76543","77141","76439","76543","Flanker Task","24","14247.0","25","1024"
"96","96","565","565","black","legacy","legacy","legacy","congruent","1","undefined","1","s","25","0","25","0","0","0","0","0","0","25","0","25","25","25","25","25","Sat Sep 23 12:37:04 2023","1500","The main experiment item","True","FlankerTask.osexp","/Users/baileymcwhirter/Downloads","False","mono","False","18","no","white","no","yes","768","legacy","25","25","/Users/baileymcwhirter/Downloads/BMsubject-3.csv","legacy","Melodramatic Milgram","4.0.5","0","s","NA","s","NA","NA","s","459.0","NA","33673","NA","NA","459","2","legacy","1024","2","48000","-16","experiment","SSSSS","3","odd","NA","NA","77143","1154","NA","NA","34835","NA","NA","53321","1110","78171","78273","78733","78168","78273","Flanker Task","25","14706.0","26","1024"
"96","96","563","563","black","legacy","legacy","legacy","congruent","1","undefined","1","h","26","0","26","0","0","0","0","0","0","26","0","26","26","26","26","26","Sat Sep 23 12:37:04 2023","1500","The main experiment item","True","FlankerTask.osexp","/Users/baileymcwhirter/Downloads","False","mono","False","18","no","white","no","yes","768","legacy","26","26","/Users/baileymcwhirter/Downloads/BMsubject-3.csv","legacy","Melodramatic Milgram","4.0.5","0","h","NA","s","NA","NA","h","506.0","NA","33673","NA","NA","506","2","legacy","1024","2","48000","-16","experiment","HHHHH","3","odd","NA","NA","78735","1154","NA","NA","34835","NA","NA","53321","1110","79765","79868","80374","79763","79868","Flanker Task","26","15212.0","27","1024"
"96","96","561","561","black","legacy","legacy","legacy","congruent","1","undefined","1","h","27","0","27","0","0","0","0","0","0","27","0","27","27","27","27","27","Sat Sep 23 12:37:04 2023","1500","The main experiment item","True","FlankerTask.osexp","/Users/baileymcwhirter/Downloads","False","mono","False","18","no","white","no","yes","768","legacy","27","27","/Users/baileymcwhirter/Downloads/BMsubject-3.csv","legacy","Melodramatic Milgram","4.0.5","0","h","NA","s","NA","NA","h","512.0","NA","33673","NA","NA","512","2","legacy","1024","2","48000","-16","experiment","HHHHH","3","odd","NA","NA","80377","1154","NA","NA","34835","NA","NA","53321","1110","81412","81514","82027","81409","81514","Flanker Task","27","15724.0","28","1024"
"96","96","560","560","black","legacy","legacy","legacy","incongruent","1","undefined","1","s","28","0","28","0","0","0","0","0","0","28","0","28","28","28","28","28","Sat Sep 23 12:37:04 2023","1500","The main experiment item","True","FlankerTask.osexp","/Users/baileymcwhirter/Downloads","False","mono","False","18","no","white","no","yes","768","legacy","28","28","/Users/baileymcwhirter/Downloads/BMsubject-3.csv","legacy","Melodramatic Milgram","4.0.5","0","s","NA","s","NA","NA","s","536.0","NA","33673","NA","NA","536","2","legacy","1024","2","48000","-16","experiment","HHSHH","3","odd","NA","NA","82029","1154","NA","NA","34835","NA","NA","53321","1110","83063","83166","83703","83060","83166","Flanker Task","28","16260.0","29","1024"
"96","96","562","562","black","legacy","legacy","legacy","incongruent","1","undefined","1","h","29","0","29","0","0","0","0","0","0","29","0","29","29","29","29","29","Sat Sep 23 12:37:04 2023","1500","The main experiment item","True","FlankerTask.osexp","/Users/baileymcwhirter/Downloads","False","mono","False","18","no","white","no","yes","768","legacy","29","29","/Users/baileymcwhirter/Downloads/BMsubject-3.csv","legacy","Melodramatic Milgram","4.0.5","0","h","NA","s","NA","NA","h","627.0","NA","33673","NA","NA","627","2","legacy","1024","2","48000","-16","experiment","SSHSS","3","odd","NA","NA","83705","1154","NA","NA","34835","NA","NA","53321","1110","84734","84837","85464","84732","84837","Flanker Task","29","16887.0","30","1024"
"96","96","562","562","black","legacy","legacy","legacy","congruent","1","undefined","1","h","30","0","30","0","0","0","0","0","0","30","0","30","30","30","30","30","Sat Sep 23 12:37:04 2023","1500","The main experiment item","True","FlankerTask.osexp","/Users/baileymcwhirter/Downloads","False","mono","False","18","no","white","no","yes","768","legacy","30","30","/Users/baileymcwhirter/Downloads/BMsubject-3.csv","legacy","Melodramatic Milgram","4.0.5","0","h","NA","s","NA","NA","h","553.0","NA","33673","NA","NA","553","2","legacy","1024","2","48000","-16","experiment","HHHHH","3","odd","NA","NA","85467","1154","NA","NA","34835","NA","NA","53321","1110","86496","86599","87152","86493","86599","Flanker Task","30","17440.0","31","1024"
"96","96","559","559","black","legacy","legacy","legacy","incongruent","1","undefined","1","s","31","0","31","0","0","0","0","0","0","31","0","31","31","31","31","31","Sat Sep 23 12:37:04 2023","1500","The main experiment item","True","FlankerTask.osexp","/Users/baileymcwhirter/Downloads","False","mono","False","18","no","white","no","yes","768","legacy","31","31","/Users/baileymcwhirter/Downloads/BMsubject-3.csv","legacy","Melodramatic Milgram","4.0.5","0","s","NA","s","NA","NA","s","472.0","NA","33673","NA","NA","472","2","legacy","1024","2","48000","-16","experiment","HHSHH","3","odd","NA","NA","87155","1154","NA","NA","34835","NA","NA","53321","1110","88192","88296","88768","88189","88296","Flanker Task","31","17912.0","32","1024"
"96","96","557","557","black","legacy","legacy","legacy","incongruent","1","undefined","1","s","32","0","32","0","0","0","0","0","0","32","0","32","32","32","32","32","Sat Sep 23 12:37:04 2023","1500","The main experiment item","True","FlankerTask.osexp","/Users/baileymcwhirter/Downloads","False","mono","False","18","no","white","no","yes","768","legacy","32","32","/Users/baileymcwhirter/Downloads/BMsubject-3.csv","legacy","Melodramatic Milgram","4.0.5","0","s","NA","s","NA","NA","s","499.0","NA","33673","NA","NA","499","2","legacy","1024","2","48000","-16","experiment","HHSHH","3","odd","NA","NA","88771","1154","NA","NA","34835","NA","NA","53321","1110","89798","89900","90399","89795","89900","Flanker Task","32","18411.0","33","1024"
"97","97","556","556","black","legacy","legacy","legacy","incongruent","1","undefined","1","h","33","0","33","0","0","0","0","0","0","33","0","33","33","33","33","33","Sat Sep 23 12:37:04 2023","1500","The main experiment item","True","FlankerTask.osexp","/Users/baileymcwhirter/Downloads","False","mono","False","18","no","white","no","yes","768","legacy","33","33","/Users/baileymcwhirter/Downloads/BMsubject-3.csv","legacy","Melodramatic Milgram","4.0.5","0","h","NA","s","NA","NA","h","507.0","NA","33673","NA","NA","507","2","legacy","1024","2","48000","-16","experiment","SSHSS","3","odd","NA","NA","90402","1154","NA","NA","34835","NA","NA","53321","1110","91433","91536","92043","91431","91536","Flanker Task","33","18918.0","34","1024"
"97","97","556","556","black","legacy","legacy","legacy","incongruent","1","undefined","1","h","34","0","34","0","0","0","0","0","0","34","0","34","34","34","34","34","Sat Sep 23 12:37:04 2023","1500","The main experiment item","True","FlankerTask.osexp","/Users/baileymcwhirter/Downloads","False","mono","False","18","no","white","no","yes","768","legacy","34","34","/Users/baileymcwhirter/Downloads/BMsubject-3.csv","legacy","Melodramatic Milgram","4.0.5","0","h","NA","s","NA","NA","h","544.0","NA","33673","NA","NA","544","2","legacy","1024","2","48000","-16","experiment","SSHSS","3","odd","NA","NA","92046","1154","NA","NA","34835","NA","NA","53321","1110","93074","93176","93720","93071","93176","Flanker Task","34","19462.0","35","1024"
"97","97","554","554","black","legacy","legacy","legacy","congruent","1","undefined","1","h","35","0","35","0","0","0","0","0","0","35","0","35","35","35","35","35","Sat Sep 23 12:37:04 2023","1500","The main experiment item","True","FlankerTask.osexp","/Users/baileymcwhirter/Downloads","False","mono","False","18","no","white","no","yes","768","legacy","35","35","/Users/baileymcwhirter/Downloads/BMsubject-3.csv","legacy","Melodramatic Milgram","4.0.5","0","h","NA","s","NA","NA","h","490.0","NA","33673","NA","NA","490","2","legacy","1024","2","48000","-16","experiment","HHHHH","3","odd","NA","NA","93723","1154","NA","NA","34835","NA","NA","53321","1110","94750","94852","95343","94747","94852","Flanker Task","35","19952.0","36","1024"
"97","97","551","551","black","legacy","legacy","legacy","congruent","1","undefined","1","s","36","0","36","0","0","0","0","0","0","36","0","36","36","36","36","36","Sat Sep 23 12:37:04 2023","1500","The main experiment item","True","FlankerTask.osexp","/Users/baileymcwhirter/Downloads","False","mono","False","18","no","white","no","yes","768","legacy","36","36","/Users/baileymcwhirter/Downloads/BMsubject-3.csv","legacy","Melodramatic Milgram","4.0.5","0","s","NA","s","NA","NA","s","458.0","NA","33673","NA","NA","458","2","legacy","1024","2","48000","-16","experiment","SSSSS","3","odd","NA","NA","95346","1154","NA","NA","34835","NA","NA","53321","1110","96385","96488","96947","96383","96488","Flanker Task","36","20410.0","37","1024"
"97","97","548","548","black","legacy","legacy","legacy","incongruent","1","undefined","1","s","37","0","37","0","0","0","0","0","0","37","0","37","37","37","37","37","Sat Sep 23 12:37:04 2023","1500","The main experiment item","True","FlankerTask.osexp","/Users/baileymcwhirter/Downloads","False","mono","False","18","no","white","no","yes","768","legacy","37","37","/Users/baileymcwhirter/Downloads/BMsubject-3.csv","legacy","Melodramatic Milgram","4.0.5","0","s","NA","s","NA","NA","s","443.0","NA","33673","NA","NA","443","2","legacy","1024","2","48000","-16","experiment","HHSHH","3","odd","NA","NA","96950","1154","NA","NA","34835","NA","NA","53321","1110","97977","98080","98524","97975","98080","Flanker Task","37","20853.0","38","1024"
"97","97","546","546","black","legacy","legacy","legacy","incongruent","1","undefined","1","s","38","0","38","0","0","0","0","0","0","38","0","38","38","38","38","38","Sat Sep 23 12:37:04 2023","1500","The main experiment item","True","FlankerTask.osexp","/Users/baileymcwhirter/Downloads","False","mono","False","18","no","white","no","yes","768","legacy","38","38","/Users/baileymcwhirter/Downloads/BMsubject-3.csv","legacy","Melodramatic Milgram","4.0.5","0","s","NA","s","NA","NA","s","463.0","NA","33673","NA","NA","463","2","legacy","1024","2","48000","-16","experiment","HHSHH","3","odd","NA","NA","98527","1154","NA","NA","34835","NA","NA","53321","1110","99552","99654","100118","99550","99654","Flanker Task","38","21316.0","39","1024"
"97","97","543","543","black","legacy","legacy","legacy","congruent","1","undefined","1","s","39","0","39","0","0","0","0","0","0","39","0","39","39","39","39","39","Sat Sep 23 12:37:04 2023","1500","The main experiment item","True","FlankerTask.osexp","/Users/baileymcwhirter/Downloads","False","mono","False","18","no","white","no","yes","768","legacy","39","39","/Users/baileymcwhirter/Downloads/BMsubject-3.csv","legacy","Melodramatic Milgram","4.0.5","0","s","NA","s","NA","NA","s","417.0","NA","33673","NA","NA","417","2","legacy","1024","2","48000","-16","experiment","SSSSS","3","odd","NA","NA","100120","1154","NA","NA","34835","NA","NA","53321","1110","101148","101250","101668","101146","101250","Flanker Task","39","21733.0","40","1024"
"97","97","543","543","black","legacy","legacy","legacy","incongruent","1","undefined","1","h","40","0","40","0","0","0","0","0","0","40","0","40","40","40","40","40","Sat Sep 23 12:37:04 2023","1500","The main experiment item","True","FlankerTask.osexp","/Users/baileymcwhirter/Downloads","False","mono","False","18","no","white","no","yes","768","legacy","40","40","/Users/baileymcwhirter/Downloads/BMsubject-3.csv","legacy","Melodramatic Milgram","4.0.5","0","h","NA","s","NA","NA","h","533.0","NA","33673","NA","NA","533","2","legacy","1024","2","48000","-16","experiment","SSHSS","3","odd","NA","NA","101671","1154","NA","NA","34835","NA","NA","53321","1110","102698","102801","103335","102696","102801","Flanker Task","40","22266.0","41","1024"
"97","97","541","541","black","legacy","legacy","legacy","congruent","1","undefined","1","h","41","0","41","0","0","0","0","0","0","41","0","41","41","41","41","41","Sat Sep 23 12:37:04 2023","1500","The main experiment item","True","FlankerTask.osexp","/Users/baileymcwhirter/Downloads","False","mono","False","18","no","white","no","yes","768","legacy","41","41","/Users/baileymcwhirter/Downloads/BMsubject-3.csv","legacy","Melodramatic Milgram","4.0.5","0","h","NA","s","NA","NA","h","457.0","NA","33673","NA","NA","457","2","legacy","1024","2","48000","-16","experiment","HHHHH","3","odd","NA","NA","103337","1154","NA","NA","34835","NA","NA","53321","1110","104366","104469","104927","104364","104468","Flanker Task","41","22723.0","42","1024"
"97","97","538","538","black","legacy","legacy","legacy","congruent","1","undefined","1","s","42","0","42","0","0","0","0","0","0","42","0","42","42","42","42","42","Sat Sep 23 12:37:04 2023","1500","The main experiment item","True","FlankerTask.osexp","/Users/baileymcwhirter/Downloads","False","mono","False","18","no","white","no","yes","768","legacy","42","42","/Users/baileymcwhirter/Downloads/BMsubject-3.csv","legacy","Melodramatic Milgram","4.0.5","0","s","NA","s","NA","NA","s","434.0","NA","33673","NA","NA","434","2","legacy","1024","2","48000","-16","experiment","SSSSS","3","odd","NA","NA","104930","1154","NA","NA","34835","NA","NA","53321","1110","105956","106058","106493","105953","106058","Flanker Task","42","23157.0","43","1024"
"97","97","536","536","black","legacy","legacy","legacy","congruent","1","undefined","1","h","43","0","43","0","0","0","0","0","0","43","0","43","43","43","43","43","Sat Sep 23 12:37:04 2023","1500","The main experiment item","True","FlankerTask.osexp","/Users/baileymcwhirter/Downloads","False","mono","False","18","no","white","no","yes","768","legacy","43","43","/Users/baileymcwhirter/Downloads/BMsubject-3.csv","legacy","Melodramatic Milgram","4.0.5","0","h","NA","s","NA","NA","h","451.0","NA","33673","NA","NA","451","2","legacy","1024","2","48000","-16","experiment","HHHHH","3","odd","NA","NA","106495","1154","NA","NA","34835","NA","NA","53321","1110","107520","107622","108074","107518","107622","Flanker Task","43","23608.0","44","1024"
"97","97","534","534","black","legacy","legacy","legacy","incongruent","1","undefined","1","s","44","0","44","0","0","0","0","0","0","44","0","44","44","44","44","44","Sat Sep 23 12:37:04 2023","1500","The main experiment item","True","FlankerTask.osexp","/Users/baileymcwhirter/Downloads","False","mono","False","18","no","white","no","yes","768","legacy","44","44","/Users/baileymcwhirter/Downloads/BMsubject-3.csv","legacy","Melodramatic Milgram","4.0.5","0","s","NA","s","NA","NA","s","422.0","NA","33673","NA","NA","422","2","legacy","1024","2","48000","-16","experiment","HHSHH","3","odd","NA","NA","108076","1154","NA","NA","34835","NA","NA","53321","1110","109113","109216","109638","109110","109216","Flanker Task","44","24030.0","45","1024"
"97","97","532","532","black","legacy","legacy","legacy","incongruent","1","undefined","1","s","45","0","45","0","0","0","0","0","0","45","0","45","45","45","45","45","Sat Sep 23 12:37:04 2023","1500","The main experiment item","True","FlankerTask.osexp","/Users/baileymcwhirter/Downloads","False","mono","False","18","no","white","no","yes","768","legacy","45","45","/Users/baileymcwhirter/Downloads/BMsubject-3.csv","legacy","Melodramatic Milgram","4.0.5","0","s","NA","s","NA","NA","s","459.0","NA","33673","NA","NA","459","2","legacy","1024","2","48000","-16","experiment","HHSHH","3","odd","NA","NA","109641","1154","NA","NA","34835","NA","NA","53321","1110","110672","110777","111236","110669","110777","Flanker Task","45","24489.0","46","1024"
"97","97","531","531","black","legacy","legacy","legacy","congruent","1","undefined","1","h","46","0","46","0","0","0","0","0","0","46","0","46","46","46","46","46","Sat Sep 23 12:37:04 2023","1500","The main experiment item","True","FlankerTask.osexp","/Users/baileymcwhirter/Downloads","False","mono","False","18","no","white","no","yes","768","legacy","46","46","/Users/baileymcwhirter/Downloads/BMsubject-3.csv","legacy","Melodramatic Milgram","4.0.5","0","h","NA","s","NA","NA","h","476.0","NA","33673","NA","NA","476","2","legacy","1024","2","48000","-16","experiment","HHHHH","3","odd","NA","NA","111239","1154","NA","NA","34835","NA","NA","53321","1110","112266","112368","112844","112263","112368","Flanker Task","46","24965.0","47","1024"
"97","97","531","531","black","legacy","legacy","legacy","incongruent","1","undefined","1","h","47","0","47","0","0","0","0","0","0","47","0","47","47","47","47","47","Sat Sep 23 12:37:04 2023","1500","The main experiment item","True","FlankerTask.osexp","/Users/baileymcwhirter/Downloads","False","mono","False","18","no","white","no","yes","768","legacy","47","47","/Users/baileymcwhirter/Downloads/BMsubject-3.csv","legacy","Melodramatic Milgram","4.0.5","0","h","NA","s","NA","NA","h","569.0","NA","33673","NA","NA","569","2","legacy","1024","2","48000","-16","experiment","SSHSS","3","odd","NA","NA","112847","1154","NA","NA","34835","NA","NA","53321","1110","113877","113981","114550","113874","113980","Flanker Task","47","25534.0","48","1024"
"97","97","532","532","black","legacy","legacy","legacy","congruent","1","undefined","1","h","48","0","48","0","0","0","0","0","0","48","0","48","48","48","48","48","Sat Sep 23 12:37:04 2023","1500","The main experiment item","True","FlankerTask.osexp","/Users/baileymcwhirter/Downloads","False","mono","False","18","no","white","no","yes","768","legacy","48","48","/Users/baileymcwhirter/Downloads/BMsubject-3.csv","legacy","Melodramatic Milgram","4.0.5","0","h","NA","s","NA","NA","h","546.0","NA","33673","NA","NA","546","2","legacy","1024","2","48000","-16","experiment","HHHHH","3","odd","NA","NA","114553","1154","NA","NA","34835","NA","NA","53321","1110","115583","115686","116233","115580","115686","Flanker Task","48","26080.0","49","1024"
"98","98","530","530","black","legacy","legacy","legacy","congruent","1","undefined","1","s","49","0","49","0","0","0","0","0","0","49","0","49","49","49","49","49","Sat Sep 23 12:37:04 2023","1500","The main experiment item","True","FlankerTask.osexp","/Users/baileymcwhirter/Downloads","False","mono","False","18","no","white","no","yes","768","legacy","49","49","/Users/baileymcwhirter/Downloads/BMsubject-3.csv","legacy","Melodramatic Milgram","4.0.5","0","s","NA","s","NA","NA","s","423.0","NA","33673","NA","NA","423","2","legacy","1024","2","48000","-16","experiment","SSSSS","3","odd","NA","NA","116236","1154","NA","NA","34835","NA","NA","53321","1110","117269","117374","117797","117266","117374","Flanker Task","49","26503.0","50","1024"
"98","98","529","529","black","legacy","legacy","legacy","incongruent","1","undefined","1","h","50","0","50","0","0","0","0","0","0","50","0","50","50","50","50","50","Sat Sep 23 12:37:04 2023","1500","The main experiment item","True","FlankerTask.osexp","/Users/baileymcwhirter/Downloads","False","mono","False","18","no","white","no","yes","768","legacy","50","50","/Users/baileymcwhirter/Downloads/BMsubject-3.csv","legacy","Melodramatic Milgram","4.0.5","0","h","NA","s","NA","NA","h","510.0","NA","33673","NA","NA","510","2","legacy","1024","2","48000","-16","experiment","SSHSS","3","odd","NA","NA","117800","1154","NA","NA","34835","NA","NA","53321","1110","118831","118933","119444","118828","118933","Flanker Task","50","27013.0","51","1024"
"98","98","527","527","black","legacy","legacy","legacy","incongruent","1","undefined","1","h","51","0","51","0","0","0","0","0","0","51","0","51","51","51","51","51","Sat Sep 23 12:37:04 2023","1500","The main experiment item","True","FlankerTask.osexp","/Users/baileymcwhirter/Downloads","False","mono","False","18","no","white","no","yes","768","legacy","51","51","/Users/baileymcwhirter/Downloads/BMsubject-3.csv","legacy","Melodramatic Milgram","4.0.5","0","h","NA","s","NA","NA","h","437.0","NA","33673","NA","NA","437","2","legacy","1024","2","48000","-16","experiment","SSHSS","3","odd","NA","NA","119447","1154","NA","NA","34835","NA","NA","53321","1110","120474","120576","121014","120471","120576","Flanker Task","51","27450.0","52","1024"
"98","98","526","526","black","legacy","legacy","legacy","incongruent","1","undefined","1","h","52","0","52","0","0","0","0","0","0","52","0","52","52","52","52","52","Sat Sep 23 12:37:04 2023","1500","The main experiment item","True","FlankerTask.osexp","/Users/baileymcwhirter/Downloads","False","mono","False","18","no","white","no","yes","768","legacy","52","52","/Users/baileymcwhirter/Downloads/BMsubject-3.csv","legacy","Melodramatic Milgram","4.0.5","0","h","NA","s","NA","NA","h","445.0","NA","33673","NA","NA","445","2","legacy","1024","2","48000","-16","experiment","SSHSS","3","odd","NA","NA","121017","1154","NA","NA","34835","NA","NA","53321","1110","122051","122154","122600","122048","122154","Flanker Task","52","27895.0","53","1024"
"98","98","528","528","black","legacy","legacy","legacy","incongruent","1","undefined","1","s","53","0","53","0","0","0","0","0","0","53","0","53","53","53","53","53","Sat Sep 23 12:37:04 2023","1500","The main experiment item","True","FlankerTask.osexp","/Users/baileymcwhirter/Downloads","False","mono","False","18","no","white","no","yes","768","legacy","53","53","/Users/baileymcwhirter/Downloads/BMsubject-3.csv","legacy","Melodramatic Milgram","4.0.5","0","s","NA","s","NA","NA","s","618.0","NA","33673","NA","NA","618","2","legacy","1024","2","48000","-16","experiment","HHSHH","3","odd","NA","NA","122603","1154","NA","NA","34835","NA","NA","53321","1110","123630","123733","124352","123626","123733","Flanker Task","53","28513.0","54","1024"
"98","98","526","526","black","legacy","legacy","legacy","congruent","1","undefined","1","s","54","0","54","0","0","0","0","0","0","54","0","54","54","54","54","54","Sat Sep 23 12:37:04 2023","1500","The main experiment item","True","FlankerTask.osexp","/Users/baileymcwhirter/Downloads","False","mono","False","18","no","white","no","yes","768","legacy","54","54","/Users/baileymcwhirter/Downloads/BMsubject-3.csv","legacy","Melodramatic Milgram","4.0.5","0","s","NA","s","NA","NA","s","465.0","NA","33673","NA","NA","465","2","legacy","1024","2","48000","-16","experiment","SSSSS","3","odd","NA","NA","124355","1154","NA","NA","34835","NA","NA","53321","1110","125384","125486","125952","125381","125486","Flanker Task","54","28978.0","55","1024"
"98","98","526","526","black","legacy","legacy","legacy","incongruent","1","undefined","1","h","55","0","55","0","0","0","0","0","0","55","0","55","55","55","55","55","Sat Sep 23 12:37:04 2023","1500","The main experiment item","True","FlankerTask.osexp","/Users/baileymcwhirter/Downloads","False","mono","False","18","no","white","no","yes","768","legacy","55","55","/Users/baileymcwhirter/Downloads/BMsubject-3.csv","legacy","Melodramatic Milgram","4.0.5","0","h","NA","s","NA","NA","h","494.0","NA","33673","NA","NA","494","2","legacy","1024","2","48000","-16","experiment","SSHSS","3","odd","NA","NA","125955","1154","NA","NA","34835","NA","NA","53321","1110","126985","127087","127582","126982","127087","Flanker Task","55","29472.0","56","1024"
"98","98","525","525","black","legacy","legacy","legacy","incongruent","1","undefined","1","s","56","0","56","0","0","0","0","0","0","56","0","56","56","56","56","56","Sat Sep 23 12:37:04 2023","1500","The main experiment item","True","FlankerTask.osexp","/Users/baileymcwhirter/Downloads","False","mono","False","18","no","white","no","yes","768","legacy","56","56","/Users/baileymcwhirter/Downloads/BMsubject-3.csv","legacy","Melodramatic Milgram","4.0.5","0","s","NA","s","NA","NA","s","503.0","NA","33673","NA","NA","503","2","legacy","1024","2","48000","-16","experiment","HHSHH","3","odd","NA","NA","127585","1154","NA","NA","34835","NA","NA","53321","1110","128620","128724","129228","128617","128724","Flanker Task","56","29975.0","57","1024"
"98","98","528","528","black","legacy","legacy","legacy","congruent","1","undefined","1","s","57","0","57","0","0","0","0","0","0","57","0","57","57","57","57","57","Sat Sep 23 12:37:04 2023","1500","The main experiment item","True","FlankerTask.osexp","/Users/baileymcwhirter/Downloads","False","mono","False","18","no","white","no","yes","768","legacy","57","57","/Users/baileymcwhirter/Downloads/BMsubject-3.csv","legacy","Melodramatic Milgram","4.0.5","0","s","NA","s","NA","NA","s","688.0","NA","33673","NA","NA","688","2","legacy","1024","2","48000","-16","experiment","SSSSS","3","odd","NA","NA","129230","1154","NA","NA","34835","NA","NA","53321","1110","130259","130361","131050","130257","130361","Flanker Task","57","30663.0","58","1024"
"98","98","526","526","black","legacy","legacy","legacy","incongruent","1","undefined","1","h","58","0","58","0","0","0","0","0","0","58","0","58","58","58","58","58","Sat Sep 23 12:37:04 2023","1500","The main experiment item","True","FlankerTask.osexp","/Users/baileymcwhirter/Downloads","False","mono","False","18","no","white","no","yes","768","legacy","58","58","/Users/baileymcwhirter/Downloads/BMsubject-3.csv","legacy","Melodramatic Milgram","4.0.5","0","h","NA","s","NA","NA","h","420.0","NA","33673","NA","NA","420","2","legacy","1024","2","48000","-16","experiment","SSHSS","3","odd","NA","NA","131052","1154","NA","NA","34835","NA","NA","53321","1110","132081","132184","132605","132078","132184","Flanker Task","58","31083.0","59","1024"
"98","98","525","525","black","legacy","legacy","legacy","incongruent","1","undefined","1","h","59","0","59","0","0","0","0","0","0","59","0","59","59","59","59","59","Sat Sep 23 12:37:04 2023","1500","The main experiment item","True","FlankerTask.osexp","/Users/baileymcwhirter/Downloads","False","mono","False","18","no","white","no","yes","768","legacy","59","59","/Users/baileymcwhirter/Downloads/BMsubject-3.csv","legacy","Melodramatic Milgram","4.0.5","0","h","NA","s","NA","NA","h","458.0","NA","33673","NA","NA","458","2","legacy","1024","2","48000","-16","experiment","SSHSS","3","odd","NA","NA","132607","1154","NA","NA","34835","NA","NA","53321","1110","133634","133736","134195","133632","133736","Flanker Task","59","31541.0","60","1024"
"98","98","527","527","black","legacy","legacy","legacy","incongruent","1","undefined","1","s","60","0","60","0","0","0","0","0","0","60","0","60","60","60","60","60","Sat Sep 23 12:37:04 2023","1500","The main experiment item","True","FlankerTask.osexp","/Users/baileymcwhirter/Downloads","False","mono","False","18","no","white","no","yes","768","legacy","60","60","/Users/baileymcwhirter/Downloads/BMsubject-3.csv","legacy","Melodramatic Milgram","4.0.5","0","s","NA","s","NA","NA","s","652.0","NA","33673","NA","NA","652","2","legacy","1024","2","48000","-16","experiment","HHSHH","3","odd","NA","NA","134197","1154","NA","NA","34835","NA","NA","53321","1110","135231","135336","135989","135228","135335","Flanker Task","60","32193.0","61","1024"
"98","98","526","526","black","legacy","legacy","legacy","congruent","1","undefined","1","s","61","0","61","0","0","0","0","0","0","61","0","61","61","61","61","61","Sat Sep 23 12:37:04 2023","1500","The main experiment item","True","FlankerTask.osexp","/Users/baileymcwhirter/Downloads","False","mono","False","18","no","white","no","yes","768","legacy","61","61","/Users/baileymcwhirter/Downloads/BMsubject-3.csv","legacy","Melodramatic Milgram","4.0.5","0","s","NA","s","NA","NA","s","457.0","NA","33673","NA","NA","457","2","legacy","1024","2","48000","-16","experiment","SSSSS","3","odd","NA","NA","135991","1154","NA","NA","34835","NA","NA","53321","1110","137017","137119","137577","137015","137119","Flanker Task","61","32650.0","62","1024"
"98","98","525","525","black","legacy","legacy","legacy","congruent","1","undefined","1","h","62","0","62","0","0","0","0","0","0","62","0","62","62","62","62","62","Sat Sep 23 12:37:04 2023","1500","The main experiment item","True","FlankerTask.osexp","/Users/baileymcwhirter/Downloads","False","mono","False","18","no","white","no","yes","768","legacy","62","62","/Users/baileymcwhirter/Downloads/BMsubject-3.csv","legacy","Melodramatic Milgram","4.0.5","0","h","NA","s","NA","NA","h","458.0","NA","33673","NA","NA","458","2","legacy","1024","2","48000","-16","experiment","HHHHH","3","odd","NA","NA","137579","1154","NA","NA","34835","NA","NA","53321","1110","138605","138708","139166","138603","138708","Flanker Task","62","33108.0","63","1024"
"98","98","525","525","black","legacy","legacy","legacy","incongruent","1","undefined","1","s","63","0","63","0","0","0","0","0","0","63","0","63","63","63","63","63","Sat Sep 23 12:37:04 2023","1500","The main experiment item","True","FlankerTask.osexp","/Users/baileymcwhirter/Downloads","False","mono","False","18","no","white","no","yes","768","legacy","63","63","/Users/baileymcwhirter/Downloads/BMsubject-3.csv","legacy","Melodramatic Milgram","4.0.5","0","s","NA","s","NA","NA","s","552.0","NA","33673","NA","NA","552","2","legacy","1024","2","48000","-16","experiment","HHSHH","3","odd","NA","NA","139169","1154","NA","NA","34835","NA","NA","53321","1110","140195","140299","140851","140192","140299","Flanker Task","63","33660.0","64","1024"
"98","98","524","524","black","legacy","legacy","legacy","congruent","1","undefined","1","s","64","0","64","0","0","0","0","0","0","64","0","64","64","64","64","64","Sat Sep 23 12:37:04 2023","1500","The main experiment item","True","FlankerTask.osexp","/Users/baileymcwhirter/Downloads","False","mono","False","18","no","white","no","yes","768","legacy","64","64","/Users/baileymcwhirter/Downloads/BMsubject-3.csv","legacy","Melodramatic Milgram","4.0.5","0","s","NA","s","NA","NA","s","456.0","NA","33673","NA","NA","456","2","legacy","1024","2","48000","-16","experiment","SSSSS","3","odd","NA","NA","140855","1154","NA","NA","34835","NA","NA","53321","1110","141882","141985","142442","141880","141985","Flanker Task","64","34116.0","65","1024"
"98","98","524","524","black","legacy","legacy","legacy","congruent","1","undefined","1","h","65","0","65","0","0","0","0","0","0","65","0","65","65","65","65","65","Sat Sep 23 12:37:04 2023","1500","The main experiment item","True","FlankerTask.osexp","/Users/baileymcwhirter/Downloads","False","mono","False","18","no","white","no","yes","768","legacy","65","65","/Users/baileymcwhirter/Downloads/BMsubject-3.csv","legacy","Melodramatic Milgram","4.0.5","0","h","NA","s","NA","NA","h","482.0","NA","33673","NA","NA","482","2","legacy","1024","2","48000","-16","experiment","HHHHH","3","odd","NA","NA","142445","1154","NA","NA","34835","NA","NA","53321","1110","143478","143580","144063","143475","143580","Flanker Task","65","34598.0","66","1024"
"98","98","522","522","black","legacy","legacy","legacy","congruent","1","undefined","1","h","66","0","66","0","0","0","0","0","0","66","0","66","66","66","66","66","Sat Sep 23 12:37:04 2023","1500","The main experiment item","True","FlankerTask.osexp","/Users/baileymcwhirter/Downloads","False","mono","False","18","no","white","no","yes","768","legacy","66","66","/Users/baileymcwhirter/Downloads/BMsubject-3.csv","legacy","Melodramatic Milgram","4.0.5","0","h","NA","s","NA","NA","h","430.0","NA","33673","NA","NA","430","2","legacy","1024","2","48000","-16","experiment","HHHHH","3","odd","NA","NA","144065","1154","NA","NA","34835","NA","NA","53321","1110","145091","145193","145624","145089","145193","Flanker Task","66","35028.0","67","1024"
"98","98","521","521","black","legacy","legacy","legacy","congruent","1","undefined","1","s","67","0","67","0","0","0","0","0","0","67","0","67","67","67","67","67","Sat Sep 23 12:37:04 2023","1500","The main experiment item","True","FlankerTask.osexp","/Users/baileymcwhirter/Downloads","False","mono","False","18","no","white","no","yes","768","legacy","67","67","/Users/baileymcwhirter/Downloads/BMsubject-3.csv","legacy","Melodramatic Milgram","4.0.5","0","s","NA","s","NA","NA","s","451.0","NA","33673","NA","NA","451","2","legacy","1024","2","48000","-16","experiment","SSSSS","3","odd","NA","NA","145626","1154","NA","NA","34835","NA","NA","53321","1110","146660","146765","147217","146657","146765","Flanker Task","67","35479.0","68","1024"
"98","98","521","521","black","legacy","legacy","legacy","incongruent","1","undefined","1","h","68","0","68","0","0","0","0","0","0","68","0","68","68","68","68","68","Sat Sep 23 12:37:04 2023","1500","The main experiment item","True","FlankerTask.osexp","/Users/baileymcwhirter/Downloads","False","mono","False","18","no","white","no","yes","768","legacy","68","68","/Users/baileymcwhirter/Downloads/BMsubject-3.csv","legacy","Melodramatic Milgram","4.0.5","0","h","NA","s","NA","NA","h","513.0","NA","33673","NA","NA","513","2","legacy","1024","2","48000","-16","experiment","SSHSS","3","odd","NA","NA","147219","1154","NA","NA","34835","NA","NA","53321","1110","148244","148347","148860","148242","148347","Flanker Task","68","35992.0","69","1024"
"98","98","521","521","black","legacy","legacy","legacy","congruent","1","undefined","1","s","69","0","69","0","0","0","0","0","0","69","0","69","69","69","69","69","Sat Sep 23 12:37:04 2023","1500","The main experiment item","True","FlankerTask.osexp","/Users/baileymcwhirter/Downloads","False","mono","False","18","no","white","no","yes","768","legacy","69","69","/Users/baileymcwhirter/Downloads/BMsubject-3.csv","legacy","Melodramatic Milgram","4.0.5","0","s","NA","s","NA","NA","s","506.0","NA","33673","NA","NA","506","2","legacy","1024","2","48000","-16","experiment","SSSSS","3","odd","NA","NA","148863","1154","NA","NA","34835","NA","NA","53321","1110","149888","149990","150497","149886","149990","Flanker Task","69","36498.0","70","1024"
"98","98","520","520","black","legacy","legacy","legacy","incongruent","1","undefined","1","h","70","0","70","0","0","0","0","0","0","70","0","70","70","70","70","70","Sat Sep 23 12:37:04 2023","1500","The main experiment item","True","FlankerTask.osexp","/Users/baileymcwhirter/Downloads","False","mono","False","18","no","white","no","yes","768","legacy","70","70","/Users/baileymcwhirter/Downloads/BMsubject-3.csv","legacy","Melodramatic Milgram","4.0.5","0","h","NA","s","NA","NA","h","444.0","NA","33673","NA","NA","444","2","legacy","1024","2","48000","-16","experiment","SSHSS","3","odd","NA","NA","150500","1154","NA","NA","34835","NA","NA","53321","1110","151528","151633","152078","151526","151633","Flanker Task","70","36942.0","71","1024"
"98","98","520","520","black","legacy","legacy","legacy","congruent","1","undefined","1","s","71","0","71","0","0","0","0","0","0","71","0","71","71","71","71","71","Sat Sep 23 12:37:04 2023","1500","The main experiment item","True","FlankerTask.osexp","/Users/baileymcwhirter/Downloads","False","mono","False","18","no","white","no","yes","768","legacy","71","71","/Users/baileymcwhirter/Downloads/BMsubject-3.csv","legacy","Melodramatic Milgram","4.0.5","0","s","NA","s","NA","NA","s","515.0","NA","33673","NA","NA","515","2","legacy","1024","2","48000","-16","experiment","SSSSS","3","odd","NA","NA","152080","1154","NA","NA","34835","NA","NA","53321","1110","153105","153207","153723","153103","153207","Flanker Task","71","37457.0","72","1024"
"98","98","519","519","black","legacy","legacy","legacy","incongruent","1","undefined","1","h","72","0","72","0","0","0","0","0","0","72","0","72","72","72","72","72","Sat Sep 23 12:37:04 2023","1500","The main experiment item","True","FlankerTask.osexp","/Users/baileymcwhirter/Downloads","False","mono","False","18","no","white","no","yes","768","legacy","72","72","/Users/baileymcwhirter/Downloads/BMsubject-3.csv","legacy","Melodramatic Milgram","4.0.5","0","h","NA","s","NA","NA","h","486.0","NA","33673","NA","NA","486","2","legacy","1024","2","48000","-16","experiment","SSHSS","3","odd","NA","NA","153726","1154","NA","NA","34835","NA","NA","53321","1110","154752","154854","155340","154749","154854","Flanker Task","72","37943.0","73","1024"
"98","98","518","518","black","legacy","legacy","legacy","incongruent","1","undefined","1","s","73","0","73","0","0","0","0","0","0","73","0","73","73","73","73","73","Sat Sep 23 12:37:04 2023","1500","The main experiment item","True","FlankerTask.osexp","/Users/baileymcwhirter/Downloads","False","mono","False","18","no","white","no","yes","768","legacy","73","73","/Users/baileymcwhirter/Downloads/BMsubject-3.csv","legacy","Melodramatic Milgram","4.0.5","0","s","NA","s","NA","NA","s","455.0","NA","33673","NA","NA","455","2","legacy","1024","2","48000","-16","experiment","HHSHH","3","odd","NA","NA","155343","1154","NA","NA","34835","NA","NA","53321","1110","156379","156484","156940","156376","156484","Flanker Task","73","38398.0","74","1024"
"98","98","519","519","black","legacy","legacy","legacy","incongruent","1","undefined","1","s","74","0","74","0","0","0","0","0","0","74","0","74","74","74","74","74","Sat Sep 23 12:37:04 2023","1500","The main experiment item","True","FlankerTask.osexp","/Users/baileymcwhirter/Downloads","False","mono","False","18","no","white","no","yes","768","legacy","74","74","/Users/baileymcwhirter/Downloads/BMsubject-3.csv","legacy","Melodramatic Milgram","4.0.5","0","s","NA","s","NA","NA","s","578.0","NA","33673","NA","NA","578","2","legacy","1024","2","48000","-16","experiment","HHSHH","3","odd","NA","NA","156943","1154","NA","NA","34835","NA","NA","53321","1110","157972","158075","158654","157970","158075","Flanker Task","74","38976.0","75","1024"
"98","98","519","519","black","legacy","legacy","legacy","incongruent","1","undefined","1","s","75","0","75","0","0","0","0","0","0","75","0","75","75","75","75","75","Sat Sep 23 12:37:04 2023","1500","The main experiment item","True","FlankerTask.osexp","/Users/baileymcwhirter/Downloads","False","mono","False","18","no","white","no","yes","768","legacy","75","75","/Users/baileymcwhirter/Downloads/BMsubject-3.csv","legacy","Melodramatic Milgram","4.0.5","0","s","NA","s","NA","NA","s","522.0","NA","33673","NA","NA","522","2","legacy","1024","2","48000","-16","experiment","HHSHH","3","odd","NA","NA","158657","1154","NA","NA","34835","NA","NA","53321","1110","159689","159792","160315","159686","159792","Flanker Task","75","39498.0","76","1024"
"98","98","518","518","black","legacy","legacy","legacy","congruent","1","undefined","1","h","76","0","76","0","0","0","0","0","0","76","0","76","76","76","76","76","Sat Sep 23 12:37:04 2023","1500","The main experiment item","True","FlankerTask.osexp","/Users/baileymcwhirter/Downloads","False","mono","False","18","no","white","no","yes","768","legacy","76","76","/Users/baileymcwhirter/Downloads/BMsubject-3.csv","legacy","Melodramatic Milgram","4.0.5","0","h","NA","s","NA","NA","h","436.0","NA","33673","NA","NA","436","2","legacy","1024","2","48000","-16","experiment","HHHHH","3","odd","NA","NA","160317","1154","NA","NA","34835","NA","NA","53321","1110","161344","161447","161884","161342","161447","Flanker Task","76","39934.0","77","1024"
"98","98","516","516","black","legacy","legacy","legacy","congruent","1","undefined","1","h","77","0","77","0","0","0","0","0","0","77","0","77","77","77","77","77","Sat Sep 23 12:37:04 2023","1500","The main experiment item","True","FlankerTask.osexp","/Users/baileymcwhirter/Downloads","False","mono","False","18","no","white","no","yes","768","legacy","77","77","/Users/baileymcwhirter/Downloads/BMsubject-3.csv","legacy","Melodramatic Milgram","4.0.5","0","h","NA","s","NA","NA","h","376.0","NA","33673","NA","NA","376","2","legacy","1024","2","48000","-16","experiment","HHHHH","3","odd","NA","NA","161886","1154","NA","NA","34835","NA","NA","53321","1110","162913","163016","163392","162910","163016","Flanker Task","77","40310.0","78","1024"
"97","97","515","515","black","legacy","legacy","legacy","incongruent","0","undefined","0","h","78","0","78","0","0","0","0","0","0","78","0","78","78","78","78","78","Sat Sep 23 12:37:04 2023","1500","The main experiment item","True","FlankerTask.osexp","/Users/baileymcwhirter/Downloads","False","mono","False","18","no","white","no","yes","768","legacy","78","78","/Users/baileymcwhirter/Downloads/BMsubject-3.csv","legacy","Melodramatic Milgram","4.0.5","0","s","NA","s","NA","NA","s","453.0","NA","33673","NA","NA","453","2","legacy","1024","2","48000","-16","experiment","SSHSS","3","odd","NA","NA","163395","1154","NA","NA","34835","NA","NA","53321","1110","164422","164525","164979","164419","164525","Flanker Task","77","40763.0","79","1024"
"97","97","516","516","black","legacy","legacy","legacy","incongruent","1","undefined","1","h","79","0","79","0","0","0","0","0","0","79","0","79","79","79","79","79","Sat Sep 23 12:37:04 2023","1500","The main experiment item","True","FlankerTask.osexp","/Users/baileymcwhirter/Downloads","False","mono","False","18","no","white","no","yes","768","legacy","79","79","/Users/baileymcwhirter/Downloads/BMsubject-3.csv","legacy","Melodramatic Milgram","4.0.5","0","h","NA","s","NA","NA","h","540.0","NA","33673","NA","NA","540","2","legacy","1024","2","48000","-16","experiment","SSHSS","3","odd","NA","NA","165487","1154","NA","NA","34835","NA","NA","164981","1110","166521","166625","167166","166519","166625","Flanker Task","78","41303.0","80","1024"
"97","97","516","516","black","legacy","legacy","legacy","congruent","1","undefined","1","s","80","0","80","0","0","0","0","0","0","80","0","80","80","80","80","80","Sat Sep 23 12:37:04 2023","600","The main experiment item","True","FlankerTask.osexp","/Users/baileymcwhirter/Downloads","False","mono","False","18","no","white","no","yes","768","legacy","0","79","/Users/baileymcwhirter/Downloads/BMsubject-3.csv","legacy","Melodramatic Milgram","4.0.5","0","s","NA","s","h","NA","s","546.0","NA","33673","5188","NA","546","2","legacy","1024","2","48000","-16","experiment","SSSSS","3","odd","NA","NA","167169","1154","168173","NA","34835","173362","NA","164981","1110","173397","173498","174045","173395","173498","Flanker Task","79","41849.0","81","1024"
"97","97","515","515","black","legacy","legacy","legacy","congruent","1","undefined","1","s","81","0","81","0","0","0","0","0","0","81","0","81","81","81","81","81","Sat Sep 23 12:37:04 2023","600","The main experiment item","True","FlankerTask.osexp","/Users/baileymcwhirter/Downloads","False","mono","False","18","no","white","no","yes","768","legacy","1","79","/Users/baileymcwhirter/Downloads/BMsubject-3.csv","legacy","Melodramatic Milgram","4.0.5","0","s","NA","s","h","NA","s","426.0","NA","33673","5188","NA","426","2","legacy","1024","2","48000","-16","experiment","SSSSS","3","odd","NA","NA","174048","1154","168173","NA","34835","173362","NA","164981","1110","175073","175175","175602","175071","175175","Flanker Task","80","42275.0","82","1024"
"97","97","513","513","black","legacy","legacy","legacy","congruent","1","undefined","1","s","82","0","82","0","0","0","0","0","0","82","0","82","82","82","82","82","Sat Sep 23 12:37:04 2023","600","The main experiment item","True","FlankerTask.osexp","/Users/baileymcwhirter/Downloads","False","mono","False","18","no","white","no","yes","768","legacy","2","79","/Users/baileymcwhirter/Downloads/BMsubject-3.csv","legacy","Melodramatic Milgram","4.0.5","0","s","NA","s","h","NA","s","376.0","NA","33673","5188","NA","376","2","legacy","1024","2","48000","-16","experiment","SSSSS","3","odd","NA","NA","175605","1154","168173","NA","34835","173362","NA","164981","1110","176629","176731","177108","176627","176731","Flanker Task","81","42651.0","83","1024"
"97","97","512","512","black","legacy","legacy","legacy","congruent","1","undefined","1","h","83","0","83","0","0","0","0","0","0","83","0","83","83","83","83","83","Sat Sep 23 12:37:04 2023","600","The main experiment item","True","FlankerTask.osexp","/Users/baileymcwhirter/Downloads","False","mono","False","18","no","white","no","yes","768","legacy","3","79","/Users/baileymcwhirter/Downloads/BMsubject-3.csv","legacy","Melodramatic Milgram","4.0.5","0","h","NA","s","h","NA","h","391.0","NA","33673","5188","NA","391","2","legacy","1024","2","48000","-16","experiment","HHHHH","3","odd","NA","NA","177110","1154","168173","NA","34835","173362","NA","164981","1110","178135","178237","178629","178133","178237","Flanker Task","82","43042.0","84","1024"
"97","97","512","512","black","legacy","legacy","legacy","incongruent","1","undefined","1","s","84","0","84","0","0","0","0","0","0","84","0","84","84","84","84","84","Sat Sep 23 12:37:04 2023","600","The main experiment item","True","FlankerTask.osexp","/Users/baileymcwhirter/Downloads","False","mono","False","18","no","white","no","yes","768","legacy","4","79","/Users/baileymcwhirter/Downloads/BMsubject-3.csv","legacy","Melodramatic Milgram","4.0.5","0","s","NA","s","h","NA","s","518.0","NA","33673","5188","NA","518","2","legacy","1024","2","48000","-16","experiment","HHSHH","3","odd","NA","NA","178632","1154","168173","NA","34835","173362","NA","164981","1110","179663","179768","180287","179660","179768","Flanker Task","83","43560.0","85","1024"
"97","97","511","511","black","legacy","legacy","legacy","congruent","1","undefined","1","h","85","0","85","0","0","0","0","0","0","85","0","85","85","85","85","85","Sat Sep 23 12:37:04 2023","600","The main experiment item","True","FlankerTask.osexp","/Users/baileymcwhirter/Downloads","False","mono","False","18","no","white","no","yes","768","legacy","5","79","/Users/baileymcwhirter/Downloads/BMsubject-3.csv","legacy","Melodramatic Milgram","4.0.5","0","h","NA","s","h","NA","h","441.0","NA","33673","5188","NA","441","2","legacy","1024","2","48000","-16","experiment","HHHHH","3","odd","NA","NA","180290","1154","168173","NA","34835","173362","NA","164981","1110","181316","181418","181859","181313","181418","Flanker Task","84","44001.0","86","1024"
"97","97","510","510","black","legacy","legacy","legacy","congruent","1","undefined","1","s","86","0","86","0","0","0","0","0","0","86","0","86","86","86","86","86","Sat Sep 23 12:37:04 2023","600","The main experiment item","True","FlankerTask.osexp","/Users/baileymcwhirter/Downloads","False","mono","False","18","no","white","no","yes","768","legacy","6","79","/Users/baileymcwhirter/Downloads/BMsubject-3.csv","legacy","Melodramatic Milgram","4.0.5","0","s","NA","s","h","NA","s","419.0","NA","33673","5188","NA","419","2","legacy","1024","2","48000","-16","experiment","SSSSS","3","odd","NA","NA","181862","1154","168173","NA","34835","173362","NA","164981","1110","182888","182991","183411","182885","182991","Flanker Task","85","44420.0","87","1024"
"97","97","509","509","black","legacy","legacy","legacy","incongruent","1","undefined","1","s","87","0","87","0","0","0","0","0","0","87","0","87","87","87","87","87","Sat Sep 23 12:37:04 2023","600","The main experiment item","True","FlankerTask.osexp","/Users/baileymcwhirter/Downloads","False","mono","False","18","no","white","no","yes","768","legacy","7","79","/Users/baileymcwhirter/Downloads/BMsubject-3.csv","legacy","Melodramatic Milgram","4.0.5","0","s","NA","s","h","NA","s","426.0","NA","33673","5188","NA","426","2","legacy","1024","2","48000","-16","experiment","HHSHH","3","odd","NA","NA","183414","1154","168173","NA","34835","173362","NA","164981","1110","184451","184556","184983","184449","184555","Flanker Task","86","44846.0","88","1024"
"97","97","510","510","black","legacy","legacy","legacy","incongruent","1","undefined","1","h","88","0","88","0","0","0","0","0","0","88","0","88","88","88","88","88","Sat Sep 23 12:37:04 2023","600","The main experiment item","True","FlankerTask.osexp","/Users/baileymcwhirter/Downloads","False","mono","False","18","no","white","no","yes","768","legacy","8","79","/Users/baileymcwhirter/Downloads/BMsubject-3.csv","legacy","Melodramatic Milgram","4.0.5","0","h","NA","s","h","NA","h","607.0","NA","33673","5188","NA","607","2","legacy","1024","2","48000","-16","experiment","SSHSS","3","odd","NA","NA","184985","1154","168173","NA","34835","173362","NA","164981","1110","186013","186116","186724","186011","186116","Flanker Task","87","45453.0","89","1024"
"97","97","512","512","black","legacy","legacy","legacy","congruent","1","undefined","1","s","89","0","89","0","0","0","0","0","0","89","0","89","89","89","89","89","Sat Sep 23 12:37:04 2023","600","The main experiment item","True","FlankerTask.osexp","/Users/baileymcwhirter/Downloads","False","mono","False","18","no","white","no","yes","768","legacy","9","79","/Users/baileymcwhirter/Downloads/BMsubject-3.csv","legacy","Melodramatic Milgram","4.0.5","0","s","NA","s","h","NA","s","644.0","NA","33673","5188","NA","644","2","legacy","1024","2","48000","-16","experiment","SSSSS","3","odd","186726","NA","187231","1154","168173","NA","34835","173362","NA","164981","1110","188256","188358","189003","188253","188358","Flanker Task","88","46097.0","90","1024"
"96","96","510","510","black","legacy","legacy","legacy","incongruent","0","undefined","0","h","90","0","90","0","0","0","0","0","0","90","0","90","90","90","90","90","Sat Sep 23 12:37:04 2023","600","The main experiment item","True","FlankerTask.osexp","/Users/baileymcwhirter/Downloads","False","mono","False","18","no","white","no","yes","768","legacy","10","79","/Users/baileymcwhirter/Downloads/BMsubject-3.csv","legacy","Melodramatic Milgram","4.0.5","0","s","NA","s","h","NA","s","318.0","NA","33673","5188","NA","318","2","legacy","1024","2","48000","-16","experiment","SSHSS","3","odd","189006","NA","189508","1154","168173","NA","34835","173362","NA","164981","1110","190535","190637","190956","190533","190637","Flanker Task","88","46415.0","91","1024"
"96","96","508","508","black","legacy","legacy","legacy","incongruent","1","undefined","1","s","91","0","91","0","0","0","0","0","0","91","0","91","91","91","91","91","Sat Sep 23 12:37:04 2023","600","The main experiment item","True","FlankerTask.osexp","/Users/baileymcwhirter/Downloads","False","mono","False","18","no","white","no","yes","768","legacy","11","79","/Users/baileymcwhirter/Downloads/BMsubject-3.csv","legacy","Melodramatic Milgram","4.0.5","0","s","NA","s","h","NA","s","394.0","NA","33673","5188","NA","394","2","legacy","1024","2","48000","-16","experiment","HHSHH","3","odd","189006","NA","191461","1154","168173","NA","34835","173362","NA","190959","1110","192493","192599","192994","192492","192599","Flanker Task","89","46809.0","92","1024"
"96","96","509","509","black","legacy","legacy","legacy","incongruent","1","undefined","1","s","92","0","92","0","0","0","0","0","0","92","0","92","92","92","92","92","Sat Sep 23 12:37:04 2023","600","The main experiment item","True","FlankerTask.osexp","/Users/baileymcwhirter/Downloads","False","mono","False","18","no","white","no","yes","768","legacy","12","79","/Users/baileymcwhirter/Downloads/BMsubject-3.csv","legacy","Melodramatic Milgram","4.0.5","0","s","NA","s","h","NA","s","528.0","NA","33673","5188","NA","528","2","legacy","1024","2","48000","-16","experiment","HHSHH","3","odd","189006","NA","192997","1154","168173","NA","34835","173362","NA","190959","1110","194030","194134","194663","194028","194134","Flanker Task","90","47337.0","93","1024"
"96","96","507","507","black","legacy","legacy","legacy","congruent","1","undefined","1","s","93","0","93","0","0","0","0","0","0","93","0","93","93","93","93","93","Sat Sep 23 12:37:04 2023","600","The main experiment item","True","FlankerTask.osexp","/Users/baileymcwhirter/Downloads","False","mono","False","18","no","white","no","yes","768","legacy","13","79","/Users/baileymcwhirter/Downloads/BMsubject-3.csv","legacy","Melodramatic Milgram","4.0.5","0","s","NA","s","h","NA","s","337.0","NA","33673","5188","NA","337","2","legacy","1024","2","48000","-16","experiment","SSSSS","3","odd","189006","NA","194665","1154","168173","NA","34835","173362","NA","190959","1110","195691","195794","196132","195689","195794","Flanker Task","91","47674.0","94","1024"
"95","95","505","505","black","legacy","legacy","legacy","incongruent","0","undefined","0","h","94","0","94","0","0","0","0","0","0","94","0","94","94","94","94","94","Sat Sep 23 12:37:04 2023","600","The main experiment item","True","FlankerTask.osexp","/Users/baileymcwhirter/Downloads","False","mono","False","18","no","white","no","yes","768","legacy","14","79","/Users/baileymcwhirter/Downloads/BMsubject-3.csv","legacy","Melodramatic Milgram","4.0.5","0","s","NA","s","h","NA","s","357.0","NA","33673","5188","NA","357","2","legacy","1024","2","48000","-16","experiment","SSHSS","3","odd","189006","NA","196134","1154","168173","NA","34835","173362","NA","190959","1110","197167","197271","197629","197165","197270","Flanker Task","91","48031.0","95","1024"
"95","95","505","505","black","legacy","legacy","legacy","incongruent","1","undefined","1","s","95","0","95","0","0","0","0","0","0","95","0","95","95","95","95","95","Sat Sep 23 12:37:04 2023","600","The main experiment item","True","FlankerTask.osexp","/Users/baileymcwhirter/Downloads","False","mono","False","18","no","white","no","yes","768","legacy","15","79","/Users/baileymcwhirter/Downloads/BMsubject-3.csv","legacy","Melodramatic Milgram","4.0.5","0","s","NA","s","h","NA","s","482.0","NA","33673","5188","NA","482","2","legacy","1024","2","48000","-16","experiment","HHSHH","3","odd","189006","NA","198134","1154","168173","NA","34835","173362","NA","197631","1110","199166","199270","199753","199164","199270","Flanker Task","92","48513.0","96","1024"
"95","95","506","506","black","legacy","legacy","legacy","incongruent","1","undefined","1","h","96","0","96","0","0","0","0","0","0","96","0","96","96","96","96","96","Sat Sep 23 12:37:04 2023","600","The main experiment item","True","FlankerTask.osexp","/Users/baileymcwhirter/Downloads","False","mono","False","18","no","white","no","yes","768","legacy","16","79","/Users/baileymcwhirter/Downloads/BMsubject-3.csv","legacy","Melodramatic Milgram","4.0.5","0","h","NA","s","h","NA","h","570.0","NA","33673","5188","NA","570","2","legacy","1024","2","48000","-16","experiment","SSHSS","3","odd","189006","NA","199756","1154","168173","NA","34835","173362","NA","197631","1110","200781","200883","201454","200779","200883","Flanker Task","93","49083.0","97","1024"
"95","95","505","505","black","legacy","legacy","legacy","incongruent","1","undefined","1","h","97","0","97","0","0","0","0","0","0","97","0","97","97","97","97","97","Sat Sep 23 12:37:04 2023","600","The main experiment item","True","FlankerTask.osexp","/Users/baileymcwhirter/Downloads","False","mono","False","18","no","white","no","yes","768","legacy","17","79","/Users/baileymcwhirter/Downloads/BMsubject-3.csv","legacy","Melodramatic Milgram","4.0.5","0","h","NA","s","h","NA","h","440.0","NA","33673","5188","NA","440","2","legacy","1024","2","48000","-16","experiment","SSHSS","3","odd","189006","NA","201457","1154","168173","NA","34835","173362","NA","197631","1110","202486","202588","203029","202483","202587","Flanker Task","94","49523.0","98","1024"
"95","95","504","504","black","legacy","legacy","legacy","incongruent","1","undefined","1","s","98","0","98","0","0","0","0","0","0","98","0","98","98","98","98","98","Sat Sep 23 12:37:04 2023","600","The main experiment item","True","FlankerTask.osexp","/Users/baileymcwhirter/Downloads","False","mono","False","18","no","white","no","yes","768","legacy","18","79","/Users/baileymcwhirter/Downloads/BMsubject-3.csv","legacy","Melodramatic Milgram","4.0.5","0","s","NA","s","h","NA","s","420.0","NA","33673","5188","NA","420","2","legacy","1024","2","48000","-16","experiment","HHSHH","3","odd","189006","NA","203032","1154","168173","NA","34835","173362","NA","197631","1110","204059","204162","204583","204056","204162","Flanker Task","95","49943.0","99","1024"
"96","96","504","504","black","legacy","legacy","legacy","incongruent","1","undefined","1","h","99","0","99","0","0","0","0","0","0","99","0","99","99","99","99","99","Sat Sep 23 12:37:04 2023","600","The main experiment item","True","FlankerTask.osexp","/Users/baileymcwhirter/Downloads","False","mono","False","18","no","white","no","yes","768","legacy","19","79","/Users/baileymcwhirter/Downloads/BMsubject-3.csv","legacy","Melodramatic Milgram","4.0.5","0","h","NA","s","h","NA","h","478.0","NA","33673","5188","NA","478","2","legacy","1024","2","48000","-16","experiment","SSHSS","3","odd","189006","NA","204586","1154","168173","NA","34835","173362","NA","197631","1110","205611","205713","206192","205608","205713","Flanker Task","96","50421.0","100","1024"
"96","96","504","504","black","legacy","legacy","legacy","congruent","1","undefined","1","h","100","0","100","0","0","0","0","0","0","100","0","100","100","100","100","100","Sat Sep 23 12:37:04 2023","600","The main experiment item","True","FlankerTask.osexp","/Users/baileymcwhirter/Downloads","False","mono","False","18","no","white","no","yes","768","legacy","20","79","/Users/baileymcwhirter/Downloads/BMsubject-3.csv","legacy","Melodramatic Milgram","4.0.5","0","h","NA","s","h","NA","h","512.0","NA","33673","5188","NA","512","2","legacy","1024","2","48000","-16","experiment","HHHHH","3","odd","189006","NA","206195","1154","168173","NA","34835","173362","NA","197631","1110","207229","207330","207843","207226","207330","Flanker Task","97","50933.0","101","1024"
"96","96","503","503","black","legacy","legacy","legacy","incongruent","1","undefined","1","s","101","0","101","0","0","0","0","0","0","101","0","101","101","101","101","101","Sat Sep 23 12:37:04 2023","600","The main experiment item","True","FlankerTask.osexp","/Users/baileymcwhirter/Downloads","False","mono","False","18","no","white","no","yes","768","legacy","21","79","/Users/baileymcwhirter/Downloads/BMsubject-3.csv","legacy","Melodramatic Milgram","4.0.5","0","s","NA","s","h","NA","s","444.0","NA","33673","5188","NA","444","2","legacy","1024","2","48000","-16","experiment","HHSHH","3","odd","189006","NA","207846","1154","168173","NA","34835","173362","NA","197631","1110","208873","208975","209420","208871","208975","Flanker Task","98","51377.0","102","1024"
"96","96","503","503","black","legacy","legacy","legacy","incongruent","1","undefined","1","s","102","0","102","0","0","0","0","0","0","102","0","102","102","102","102","102","Sat Sep 23 12:37:04 2023","600","The main experiment item","True","FlankerTask.osexp","/Users/baileymcwhirter/Downloads","False","mono","False","18","no","white","no","yes","768","legacy","22","79","/Users/baileymcwhirter/Downloads/BMsubject-3.csv","legacy","Melodramatic Milgram","4.0.5","0","s","NA","s","h","NA","s","464.0","NA","33673","5188","NA","464","2","legacy","1024","2","48000","-16","experiment","HHSHH","3","odd","189006","NA","209423","1154","168173","NA","34835","173362","NA","197631","1110","210454","210558","211023","210452","210558","Flanker Task","99","51841.0","103","1024"
"96","96","502","502","black","legacy","legacy","legacy","congruent","1","undefined","1","h","103","0","103","0","0","0","0","0","0","103","0","103","103","103","103","103","Sat Sep 23 12:37:04 2023","600","The main experiment item","True","FlankerTask.osexp","/Users/baileymcwhirter/Downloads","False","mono","False","18","no","white","no","yes","768","legacy","23","79","/Users/baileymcwhirter/Downloads/BMsubject-3.csv","legacy","Melodramatic Milgram","4.0.5","0","h","NA","s","h","NA","h","438.0","NA","33673","5188","NA","438","2","legacy","1024","2","48000","-16","experiment","HHHHH","3","odd","189006","NA","211025","1154","168173","NA","34835","173362","NA","197631","1110","212058","212160","212599","212056","212160","Flanker Task","100","52279.0","104","1024"
"96","96","501","501","black","legacy","legacy","legacy","congruent","1","undefined","1","h","104","0","104","0","0","0","0","0","0","104","0","104","104","104","104","104","Sat Sep 23 12:37:04 2023","600","The main experiment item","True","FlankerTask.osexp","/Users/baileymcwhirter/Downloads","False","mono","False","18","no","white","no","yes","768","legacy","24","79","/Users/baileymcwhirter/Downloads/BMsubject-3.csv","legacy","Melodramatic Milgram","4.0.5","0","h","NA","s","h","NA","h","404.0","NA","33673","5188","NA","404","2","legacy","1024","2","48000","-16","experiment","HHHHH","3","odd","189006","NA","212602","1154","168173","NA","34835","173362","NA","197631","1110","213634","213738","214143","213632","213738","Flanker Task","101","52683.0","105","1024"
"96","96","501","501","black","legacy","legacy","legacy","incongruent","1","undefined","1","h","105","0","105","0","0","0","0","0","0","105","0","105","105","105","105","105","Sat Sep 23 12:37:04 2023","600","The main experiment item","True","FlankerTask.osexp","/Users/baileymcwhirter/Downloads","False","mono","False","18","no","white","no","yes","768","legacy","25","79","/Users/baileymcwhirter/Downloads/BMsubject-3.csv","legacy","Melodramatic Milgram","4.0.5","0","h","NA","s","h","NA","h","508.0","NA","33673","5188","NA","508","2","legacy","1024","2","48000","-16","experiment","SSHSS","3","odd","189006","NA","214145","1154","168173","NA","34835","173362","NA","197631","1110","215179","215282","215791","215176","215282","Flanker Task","102","53191.0","106","1024"
"96","96","501","501","black","legacy","legacy","legacy","incongruent","1","undefined","1","h","106","0","106","0","0","0","0","0","0","106","0","106","106","106","106","106","Sat Sep 23 12:37:04 2023","600","The main experiment item","True","FlankerTask.osexp","/Users/baileymcwhirter/Downloads","False","mono","False","18","no","white","no","yes","768","legacy","26","79","/Users/baileymcwhirter/Downloads/BMsubject-3.csv","legacy","Melodramatic Milgram","4.0.5","0","h","NA","s","h","NA","h","460.0","NA","33673","5188","NA","460","2","legacy","1024","2","48000","-16","experiment","SSHSS","3","odd","189006","NA","215794","1154","168173","NA","34835","173362","NA","197631","1110","216832","216934","217395","216828","216934","Flanker Task","103","53651.0","107","1024"
"96","96","501","501","black","legacy","legacy","legacy","incongruent","1","undefined","1","h","107","0","107","0","0","0","0","0","0","107","0","107","107","107","107","107","Sat Sep 23 12:37:04 2023","600","The main experiment item","True","FlankerTask.osexp","/Users/baileymcwhirter/Downloads","False","mono","False","18","no","white","no","yes","768","legacy","27","79","/Users/baileymcwhirter/Downloads/BMsubject-3.csv","legacy","Melodramatic Milgram","4.0.5","0","h","NA","s","h","NA","h","496.0","NA","33673","5188","NA","496","2","legacy","1024","2","48000","-16","experiment","SSHSS","3","odd","189006","NA","217397","1154","168173","NA","34835","173362","NA","197631","1110","218431","218533","219030","218428","218533","Flanker Task","104","54147.0","108","1024"
"96","96","501","501","black","legacy","legacy","legacy","congruent","1","undefined","1","s","108","0","108","0","0","0","0","0","0","108","0","108","108","108","108","108","Sat Sep 23 12:37:04 2023","600","The main experiment item","True","FlankerTask.osexp","/Users/baileymcwhirter/Downloads","False","mono","False","18","no","white","no","yes","768","legacy","28","79","/Users/baileymcwhirter/Downloads/BMsubject-3.csv","legacy","Melodramatic Milgram","4.0.5","0","s","NA","s","h","NA","s","494.0","NA","33673","5188","NA","494","2","legacy","1024","2","48000","-16","experiment","SSSSS","3","odd","189006","NA","219032","1154","168173","NA","34835","173362","NA","197631","1110","220068","220170","220665","220064","220170","Flanker Task","105","54641.0","109","1024"
"96","96","500","500","black","legacy","legacy","legacy","congruent","1","undefined","1","h","109","0","109","0","0","0","0","0","0","109","0","109","109","109","109","109","Sat Sep 23 12:37:04 2023","600","The main experiment item","True","FlankerTask.osexp","/Users/baileymcwhirter/Downloads","False","mono","False","18","no","white","no","yes","768","legacy","29","79","/Users/baileymcwhirter/Downloads/BMsubject-3.csv","legacy","Melodramatic Milgram","4.0.5","0","h","NA","s","h","NA","h","388.0","NA","33673","5188","NA","388","2","legacy","1024","2","48000","-16","experiment","HHHHH","3","odd","189006","NA","220667","1154","168173","NA","34835","173362","NA","197631","1110","221699","221801","222190","221697","221801","Flanker Task","106","55029.0","110","1024"
"96","96","498","498","black","legacy","legacy","legacy","congruent","1","undefined","1","s","110","0","110","0","0","0","0","0","0","110","0","110","110","110","110","110","Sat Sep 23 12:37:04 2023","600","The main experiment item","True","FlankerTask.osexp","/Users/baileymcwhirter/Downloads","False","mono","False","18","no","white","no","yes","768","legacy","30","79","/Users/baileymcwhirter/Downloads/BMsubject-3.csv","legacy","Melodramatic Milgram","4.0.5","0","s","NA","s","h","NA","s","343.0","NA","33673","5188","NA","343","2","legacy","1024","2","48000","-16","experiment","SSSSS","3","odd","189006","NA","222192","1154","168173","NA","34835","173362","NA","197631","1110","223220","223322","223666","223217","223322","Flanker Task","107","55372.0","111","1024"
"96","96","498","498","black","legacy","legacy","legacy","congruent","1","undefined","1","h","111","0","111","0","0","0","0","0","0","111","0","111","111","111","111","111","Sat Sep 23 12:37:04 2023","600","The main experiment item","True","FlankerTask.osexp","/Users/baileymcwhirter/Downloads","False","mono","False","18","no","white","no","yes","768","legacy","31","79","/Users/baileymcwhirter/Downloads/BMsubject-3.csv","legacy","Melodramatic Milgram","4.0.5","0","h","NA","s","h","NA","h","448.0","NA","33673","5188","NA","448","2","legacy","1024","2","48000","-16","experiment","HHHHH","3","odd","189006","NA","223668","1154","168173","NA","34835","173362","NA","197631","1110","224695","224797","225246","224693","224797","Flanker Task","108","55820.0","112","1024"
"96","96","497","497","black","legacy","legacy","legacy","congruent","1","undefined","1","s","112","0","112","0","0","0","0","0","0","112","0","112","112","112","112","112","Sat Sep 23 12:37:04 2023","600","The main experiment item","True","FlankerTask.osexp","/Users/baileymcwhirter/Downloads","False","mono","False","18","no","white","no","yes","768","legacy","32","79","/Users/baileymcwhirter/Downloads/BMsubject-3.csv","legacy","Melodramatic Milgram","4.0.5","0","s","NA","s","h","NA","s","404.0","NA","33673","5188","NA","404","2","legacy","1024","2","48000","-16","experiment","SSSSS","3","odd","189006","NA","225248","1154","168173","NA","34835","173362","NA","197631","1110","226274","226376","226781","226272","226376","Flanker Task","109","56224.0","113","1024"
"96","96","496","496","black","legacy","legacy","legacy","congruent","1","undefined","1","h","113","0","113","0","0","0","0","0","0","113","0","113","113","113","113","113","Sat Sep 23 12:37:04 2023","600","The main experiment item","True","FlankerTask.osexp","/Users/baileymcwhirter/Downloads","False","mono","False","18","no","white","no","yes","768","legacy","33","79","/Users/baileymcwhirter/Downloads/BMsubject-3.csv","legacy","Melodramatic Milgram","4.0.5","0","h","NA","s","h","NA","h","401.0","NA","33673","5188","NA","401","2","legacy","1024","2","48000","-16","experiment","HHHHH","3","odd","189006","NA","226783","1154","168173","NA","34835","173362","NA","197631","1110","227812","227915","228317","227810","227915","Flanker Task","110","56625.0","114","1024"
"96","96","497","497","black","legacy","legacy","legacy","congruent","1","undefined","1","h","114","0","114","0","0","0","0","0","0","114","0","114","114","114","114","114","Sat Sep 23 12:37:04 2023","600","The main experiment item","True","FlankerTask.osexp","/Users/baileymcwhirter/Downloads","False","mono","False","18","no","white","no","yes","768","legacy","34","79","/Users/baileymcwhirter/Downloads/BMsubject-3.csv","legacy","Melodramatic Milgram","4.0.5","0","h","NA","s","h","NA","h","586.0","NA","33673","5188","NA","586","2","legacy","1024","2","48000","-16","experiment","HHHHH","3","odd","189006","NA","228320","1154","168173","NA","34835","173362","NA","197631","1110","229345","229447","230034","229342","229447","Flanker Task","111","57211.0","115","1024"
"96","96","497","497","black","legacy","legacy","legacy","congruent","1","undefined","1","h","115","0","115","0","0","0","0","0","0","115","0","115","115","115","115","115","Sat Sep 23 12:37:04 2023","600","The main experiment item","True","FlankerTask.osexp","/Users/baileymcwhirter/Downloads","False","mono","False","18","no","white","no","yes","768","legacy","35","79","/Users/baileymcwhirter/Downloads/BMsubject-3.csv","legacy","Melodramatic Milgram","4.0.5","0","h","NA","s","h","NA","h","444.0","NA","33673","5188","NA","444","2","legacy","1024","2","48000","-16","experiment","HHHHH","3","odd","189006","NA","230037","1154","168173","NA","34835","173362","NA","197631","1110","231072","231175","231620","231070","231175","Flanker Task","112","57655.0","116","1024"
"96","96","496","496","black","legacy","legacy","legacy","incongruent","1","undefined","1","h","116","0","116","0","0","0","0","0","0","116","0","116","116","116","116","116","Sat Sep 23 12:37:04 2023","600","The main experiment item","True","FlankerTask.osexp","/Users/baileymcwhirter/Downloads","False","mono","False","18","no","white","no","yes","768","legacy","36","79","/Users/baileymcwhirter/Downloads/BMsubject-3.csv","legacy","Melodramatic Milgram","4.0.5","0","h","NA","s","h","NA","h","463.0","NA","33673","5188","NA","463","2","legacy","1024","2","48000","-16","experiment","SSHSS","3","odd","189006","NA","231623","1154","168173","NA","34835","173362","NA","197631","1110","232658","232761","233225","232655","232761","Flanker Task","113","58118.0","117","1024"
"96","96","495","495","black","legacy","legacy","legacy","congruent","1","undefined","1","h","117","0","117","0","0","0","0","0","0","117","0","117","117","117","117","117","Sat Sep 23 12:37:04 2023","600","The main experiment item","True","FlankerTask.osexp","/Users/baileymcwhirter/Downloads","False","mono","False","18","no","white","no","yes","768","legacy","37","79","/Users/baileymcwhirter/Downloads/BMsubject-3.csv","legacy","Melodramatic Milgram","4.0.5","0","h","NA","s","h","NA","h","369.0","NA","33673","5188","NA","369","2","legacy","1024","2","48000","-16","experiment","HHHHH","3","odd","189006","NA","233228","1154","168173","NA","34835","173362","NA","197631","1110","234253","234355","234725","234251","234355","Flanker Task","114","58487.0","118","1024"
"96","96","495","495","black","legacy","legacy","legacy","congruent","1","undefined","1","s","118","0","118","0","0","0","0","0","0","118","0","118","118","118","118","118","Sat Sep 23 12:37:04 2023","600","The main experiment item","True","FlankerTask.osexp","/Users/baileymcwhirter/Downloads","False","mono","False","18","no","white","no","yes","768","legacy","38","79","/Users/baileymcwhirter/Downloads/BMsubject-3.csv","legacy","Melodramatic Milgram","4.0.5","0","s","NA","s","h","NA","s","447.0","NA","33673","5188","NA","447","2","legacy","1024","2","48000","-16","experiment","SSSSS","3","odd","189006","NA","234728","1154","168173","NA","34835","173362","NA","197631","1110","235760","235866","236314","235758","235866","Flanker Task","115","58934.0","119","1024"
"96","96","495","495","black","legacy","legacy","legacy","congruent","1","undefined","1","s","119","0","119","0","0","0","0","0","0","119","0","119","119","119","119","119","Sat Sep 23 12:37:04 2023","600","The main experiment item","True","FlankerTask.osexp","/Users/baileymcwhirter/Downloads","False","mono","False","18","no","white","no","yes","768","legacy","39","79","/Users/baileymcwhirter/Downloads/BMsubject-3.csv","legacy","Melodramatic Milgram","4.0.5","0","s","NA","s","h","NA","s","492.0","NA","33673","5188","NA","492","2","legacy","1024","2","48000","-16","experiment","SSSSS","3","odd","189006","NA","236317","1154","168173","NA","34835","173362","NA","197631","1110","237345","237448","237941","237343","237447","Flanker Task","116","59426.0","120","1024"
"96","96","495","495","black","legacy","legacy","legacy","incongruent","1","undefined","1","h","120","0","120","0","0","0","0","0","0","120","0","120","120","120","120","120","Sat Sep 23 12:37:04 2023","600","The main experiment item","True","FlankerTask.osexp","/Users/baileymcwhirter/Downloads","False","mono","False","18","no","white","no","yes","768","legacy","40","79","/Users/baileymcwhirter/Downloads/BMsubject-3.csv","legacy","Melodramatic Milgram","4.0.5","0","h","NA","s","h","NA","h","483.0","NA","33673","5188","NA","483","2","legacy","1024","2","48000","-16","experiment","SSHSS","3","odd","189006","NA","237944","1154","168173","NA","34835","173362","NA","197631","1110","238970","239075","239559","238968","239075","Flanker Task","117","59909.0","121","1024"
"96","96","494","494","black","legacy","legacy","legacy","incongruent","1","undefined","1","s","121","0","121","0","0","0","0","0","0","121","0","121","121","121","121","121","Sat Sep 23 12:37:04 2023","600","The main experiment item","True","FlankerTask.osexp","/Users/baileymcwhirter/Downloads","False","mono","False","18","no","white","no","yes","768","legacy","41","79","/Users/baileymcwhirter/Downloads/BMsubject-3.csv","legacy","Melodramatic Milgram","4.0.5","0","s","NA","s","h","NA","s","457.0","NA","33673","5188","NA","457","2","legacy","1024","2","48000","-16","experiment","HHSHH","3","odd","189006","NA","239562","1154","168173","NA","34835","173362","NA","197631","1110","240587","240689","241147","240585","240689","Flanker Task","118","60366.0","122","1024"
"96","96","494","494","black","legacy","legacy","legacy","incongruent","1","undefined","1","h","122","0","122","0","0","0","0","0","0","122","0","122","122","122","122","122","Sat Sep 23 12:37:04 2023","600","The main experiment item","True","FlankerTask.osexp","/Users/baileymcwhirter/Downloads","False","mono","False","18","no","white","no","yes","768","legacy","42","79","/Users/baileymcwhirter/Downloads/BMsubject-3.csv","legacy","Melodramatic Milgram","4.0.5","0","h","NA","s","h","NA","h","485.0","NA","33673","5188","NA","485","2","legacy","1024","2","48000","-16","experiment","SSHSS","3","odd","189006","NA","241149","1154","168173","NA","34835","173362","NA","197631","1110","242177","242281","242767","242175","242281","Flanker Task","119","60851.0","123","1024"
"96","96","494","494","black","legacy","legacy","legacy","incongruent","1","undefined","1","h","123","0","123","0","0","0","0","0","0","123","0","123","123","123","123","123","Sat Sep 23 12:37:04 2023","600","The main experiment item","True","FlankerTask.osexp","/Users/baileymcwhirter/Downloads","False","mono","False","18","no","white","no","yes","768","legacy","43","79","/Users/baileymcwhirter/Downloads/BMsubject-3.csv","legacy","Melodramatic Milgram","4.0.5","0","h","NA","s","h","NA","h","443.0","NA","33673","5188","NA","443","2","legacy","1024","2","48000","-16","experiment","SSHSS","3","odd","189006","NA","242771","1154","168173","NA","34835","173362","NA","197631","1110","243807","243909","244353","243804","243909","Flanker Task","120","61294.0","124","1024"
"96","96","493","493","black","legacy","legacy","legacy","incongruent","1","undefined","1","h","124","0","124","0","0","0","0","0","0","124","0","124","124","124","124","124","Sat Sep 23 12:37:04 2023","600","The main experiment item","True","FlankerTask.osexp","/Users/baileymcwhirter/Downloads","False","mono","False","18","no","white","no","yes","768","legacy","44","79","/Users/baileymcwhirter/Downloads/BMsubject-3.csv","legacy","Melodramatic Milgram","4.0.5","0","h","NA","s","h","NA","h","446.0","NA","33673","5188","NA","446","2","legacy","1024","2","48000","-16","experiment","SSHSS","3","odd","189006","NA","244355","1154","168173","NA","34835","173362","NA","197631","1110","245385","245489","245936","245382","245489","Flanker Task","121","61740.0","125","1024"
"96","96","493","493","black","legacy","legacy","legacy","congruent","1","undefined","1","h","125","0","125","0","0","0","0","0","0","125","0","125","125","125","125","125","Sat Sep 23 12:37:04 2023","600","The main experiment item","True","FlankerTask.osexp","/Users/baileymcwhirter/Downloads","False","mono","False","18","no","white","no","yes","768","legacy","45","79","/Users/baileymcwhirter/Downloads/BMsubject-3.csv","legacy","Melodramatic Milgram","4.0.5","0","h","NA","s","h","NA","h","449.0","NA","33673","5188","NA","449","2","legacy","1024","2","48000","-16","experiment","HHHHH","3","odd","189006","NA","245938","1154","168173","NA","34835","173362","NA","197631","1110","246974","247078","247528","246971","247078","Flanker Task","122","62189.0","126","1024"
"96","96","492","492","black","legacy","legacy","legacy","congruent","1","undefined","1","s","126","0","126","0","0","0","0","0","0","126","0","126","126","126","126","126","Sat Sep 23 12:37:04 2023","600","The main experiment item","True","FlankerTask.osexp","/Users/baileymcwhirter/Downloads","False","mono","False","18","no","white","no","yes","768","legacy","46","79","/Users/baileymcwhirter/Downloads/BMsubject-3.csv","legacy","Melodramatic Milgram","4.0.5","0","s","NA","s","h","NA","s","406.0","NA","33673","5188","NA","406","2","legacy","1024","2","48000","-16","experiment","SSSSS","3","odd","189006","NA","247531","1154","168173","NA","34835","173362","NA","197631","1110","248556","248658","249065","248553","248658","Flanker Task","123","62595.0","127","1024"
"96","96","492","492","black","legacy","legacy","legacy","congruent","1","undefined","1","s","127","0","127","0","0","0","0","0","0","127","0","127","127","127","127","127","Sat Sep 23 12:37:04 2023","600","The main experiment item","True","FlankerTask.osexp","/Users/baileymcwhirter/Downloads","False","mono","False","18","no","white","no","yes","768","legacy","47","79","/Users/baileymcwhirter/Downloads/BMsubject-3.csv","legacy","Melodramatic Milgram","4.0.5","0","s","NA","s","h","NA","s","398.0","NA","33673","5188","NA","398","2","legacy","1024","2","48000","-16","experiment","SSSSS","3","odd","189006","NA","249067","1154","168173","NA","34835","173362","NA","197631","1110","250101","250205","250605","250099","250205","Flanker Task","124","62993.0","128","1024"
"96","96","491","491","black","legacy","legacy","legacy","congruent","1","undefined","1","s","128","0","128","0","0","0","0","0","0","128","0","128","128","128","128","128","Sat Sep 23 12:37:04 2023","600","The main experiment item","True","FlankerTask.osexp","/Users/baileymcwhirter/Downloads","False","mono","False","18","no","white","no","yes","768","legacy","48","79","/Users/baileymcwhirter/Downloads/BMsubject-3.csv","legacy","Melodramatic Milgram","4.0.5","0","s","NA","s","h","NA","s","399.0","NA","33673","5188","NA","399","2","legacy","1024","2","48000","-16","experiment","SSSSS","3","odd","189006","NA","250607","1154","168173","NA","34835","173362","NA","197631","1110","251634","251736","252136","251632","251736","Flanker Task","125","63392.0","129","1024"
"96","96","491","491","black","legacy","legacy","legacy","congruent","1","undefined","1","h","129","0","129","0","0","0","0","0","0","129","0","129","129","129","129","129","Sat Sep 23 12:37:04 2023","600","The main experiment item","True","FlankerTask.osexp","/Users/baileymcwhirter/Downloads","False","mono","False","18","no","white","no","yes","768","legacy","49","79","/Users/baileymcwhirter/Downloads/BMsubject-3.csv","legacy","Melodramatic Milgram","4.0.5","0","h","NA","s","h","NA","h","459.0","NA","33673","5188","NA","459","2","legacy","1024","2","48000","-16","experiment","HHHHH","3","odd","189006","NA","252138","1154","168173","NA","34835","173362","NA","197631","1110","253174","253278","253738","253172","253278","Flanker Task","126","63851.0","130","1024"
