"acc","accuracy","average_response_time","avg_rt","background","canvas_backend","clock_backend","color_backend","condition","correct","correct_instructions1","correct_keyboard_response","correct_response","count_ISI","count_block1","count_block2","count_block3","count_errorFeedback","count_experiment","count_faster","count_finish","count_fixatiom","count_instructions1","count_instructions2","count_instructions3","count_keyboard_response","count_logger","count_sequence","count_stimulus","datetime","deadline","description","disable_garbage_collection","experiment_file","experiment_path","font_bold","font_family","font_italic","font_size","font_underline","foreground","form_clicks","fullscreen","height","keyboard_backend","live_row","live_row_block1","logfile","mouse_backend","opensesame_codename","opensesame_version","repeat_cycle","response","response_finish","response_instructions1","response_instructions2","response_instructions3","response_keyboard_response","response_time","response_time_finish","response_time_instructions1","response_time_instructions2","response_time_instructions3","response_time_keyboard_response","round_decimals","sampler_backend","sound_buf_size","sound_channels","sound_freq","sound_sample_size","start","stimulus","subject_nr","subject_parity","time_ISI","time_block1","time_block2","time_block3","time_errorFeedback","time_experiment","time_faster","time_finish","time_fixatiom","time_instructions1","time_instructions2","time_instructions3","time_keyboard_response","time_logger","time_sequence","time_stimulus","title","total_correct","total_response_time","total_responses","width"
"0","0","1500","1500","black","psycho","psycho","psycho","congruent","0","undefined","0","h","0","0","0","0","0","0","0","0","0","0","0","0","0","0","0","0","Thu Sep 21 16:15:19 2023","1500","The main experiment item","True","Flankertask.osexp","/Users/xaleyelyse/Desktop","False","mono","False","18","no","white","no","yes","768","psycho","0","0","/Users/xaleyelyse/Desktop/xw-subject-2.csv","psycho","Melodramatic Milgram","4.0.5","0","None","NA","s","NA","NA","None","1500.0410249922425","NA","45439.24482300645","NA","NA","1500.0410249922425","2","psycho","1024","2","48000","-16","experiment","HHHHH","2","even","NA","53835.86297300644","NA","NA","NA","8318.6730069865","NA","NA","53929.69675999484","8359.455945988884","NA","NA","54037.939280009596","55538.16351099522","53895.29764800682","54037.48557899962","Flanker task","0","1500.0410249922425","1","1024"
"0","0","1500","1500","black","psycho","psycho","psycho","incongruent","0","undefined","0","s","1","0","0","0","1","0","1","0","1","0","0","0","1","1","1","1","Thu Sep 21 16:15:19 2023","1500","The main experiment item","True","Flankertask.osexp","/Users/xaleyelyse/Desktop","False","mono","False","18","no","white","no","yes","768","psycho","1","1","/Users/xaleyelyse/Desktop/xw-subject-2.csv","psycho","Melodramatic Milgram","4.0.5","0","None","NA","s","NA","NA","None","1500.0810729980003","NA","45439.24482300645","NA","NA","1500.0810729980003","2","psycho","1024","2","48000","-16","experiment","HHSHH","2","even","56558.23305298691","53835.86297300644","NA","NA","55545.61058199033","8318.6730069865","56053.30042200512","NA","57610.14149899711","8359.455945988884","NA","NA","57716.717397997854","59216.98044601362","57597.610997006996","57716.421282995725","Flanker task","0","3000.1220979902428","2","1024"
"33","33","1172","1172","black","psycho","psycho","psycho","congruent","1","undefined","1","s","2","0","0","0","2","0","2","0","2","0","0","0","2","2","2","2","Thu Sep 21 16:15:19 2023","1500","The main experiment item","True","Flankertask.osexp","/Users/xaleyelyse/Desktop","False","mono","False","18","no","white","no","yes","768","psycho","2","2","/Users/xaleyelyse/Desktop/xw-subject-2.csv","psycho","Melodramatic Milgram","4.0.5","0","s","NA","s","NA","NA","s","517.7464800071903","NA","45439.24482300645","NA","NA","517.7464800071903","2","psycho","1024","2","48000","-16","experiment","SSSSS","2","even","60237.196294998284","53835.86297300644","NA","NA","59222.78154498781","8318.6730069865","59730.12845299672","NA","61291.9843189884","8359.455945988884","NA","NA","61398.96211199812","61918.63984899828","61278.68260399555","61398.50897400174","Flanker task","1","3517.868577997433","3","1024"
"50","50","968","968","black","psycho","psycho","psycho","incongruent","1","undefined","1","h","3","0","0","0","3","0","3","0","3","0","0","0","3","3","3","3","Thu Sep 21 16:15:19 2023","1500","The main experiment item","True","Flankertask.osexp","/Users/xaleyelyse/Desktop","False","mono","False","18","no","white","no","yes","768","psycho","3","3","/Users/xaleyelyse/Desktop/xw-subject-2.csv","psycho","Melodramatic Milgram","4.0.5","0","h","NA","s","NA","NA","h","356.62778400001116","NA","45439.24482300645","NA","NA","356.62778400001116","2","psycho","1024","2","48000","-16","experiment","SSHSS","2","even","61924.24745199969","53835.86297300644","NA","NA","59222.78154498781","8318.6730069865","59730.12845299672","NA","62978.25564199593","8359.455945988884","NA","NA","63084.09372999449","63442.92263299576","62964.29224900203","63082.83330401173","Flanker task","2","3874.496361997444","4","1024"
"40","40","1074","1074","black","psycho","psycho","psycho","incongruent","0","undefined","0","s","4","0","0","0","4","0","4","0","4","0","0","0","4","4","4","4","Thu Sep 21 16:15:19 2023","1500","The main experiment item","True","Flankertask.osexp","/Users/xaleyelyse/Desktop","False","mono","False","18","no","white","no","yes","768","psycho","4","4","/Users/xaleyelyse/Desktop/xw-subject-2.csv","psycho","Melodramatic Milgram","4.0.5","0","None","NA","s","NA","NA","None","1500.0646569824312","NA","45439.24482300645","NA","NA","1500.0646569824312","2","psycho","1024","2","48000","-16","experiment","HHSHH","2","even","63448.794783995254","53835.86297300644","NA","NA","59222.78154498781","8318.6730069865","59730.12845299672","NA","64509.24703601049","8359.455945988884","NA","NA","64616.93392100278","66117.1843239863","64492.28196698823","64616.645163012436","Flanker task","2","5374.561018979875","5","1024"
"50","50","1079","1079","black","psycho","psycho","psycho","incongruent","1","undefined","1","h","5","0","0","0","5","0","5","0","5","0","0","0","5","5","5","5","Thu Sep 21 16:15:19 2023","1500","The main experiment item","True","Flankertask.osexp","/Users/xaleyelyse/Desktop","False","mono","False","18","no","white","no","yes","768","psycho","5","5","/Users/xaleyelyse/Desktop/xw-subject-2.csv","psycho","Melodramatic Milgram","4.0.5","0","h","NA","s","NA","NA","h","1100.2493670093827","NA","45439.24482300645","NA","NA","1100.2493670093827","2","psycho","1024","2","48000","-16","experiment","SSHSS","2","even","67133.17691299017","53835.86297300644","NA","NA","66122.85364299896","8318.6730069865","66628.64437300595","NA","68187.25874798838","8359.455945988884","NA","NA","68294.34305298491","69396.4752299944","68173.4432799858","68293.99058301351","Flanker task","3","6474.810385989258","6","1024"
"57","57","1087","1087","black","psycho","psycho","psycho","congruent","1","undefined","1","h","6","0","0","0","6","0","6","0","6","0","0","0","6","6","6","6","Thu Sep 21 16:15:19 2023","1500","The main experiment item","True","Flankertask.osexp","/Users/xaleyelyse/Desktop","False","mono","False","18","no","white","no","yes","768","psycho","6","6","/Users/xaleyelyse/Desktop/xw-subject-2.csv","psycho","Melodramatic Milgram","4.0.5","0","h","NA","s","NA","NA","h","1135.905293020187","NA","45439.24482300645","NA","NA","1135.905293020187","2","psycho","1024","2","48000","-16","experiment","HHHHH","2","even","69401.02923000813","53835.86297300644","NA","NA","66122.85364299896","8318.6730069865","66628.64437300595","NA","70453.62027300871","8359.455945988884","NA","NA","70560.59215898858","71698.58009999734","70440.67636301043","70560.23297700449","Flanker task","4","7610.715679009445","7","1024"
"62","62","1042","1042","black","psycho","psycho","psycho","incongruent","1","undefined","1","s","7","0","0","0","7","0","7","0","7","0","0","0","7","7","7","7","Thu Sep 21 16:15:19 2023","1500","The main experiment item","True","Flankertask.osexp","/Users/xaleyelyse/Desktop","False","mono","False","18","no","white","no","yes","768","psycho","7","7","/Users/xaleyelyse/Desktop/xw-subject-2.csv","psycho","Melodramatic Milgram","4.0.5","0","s","NA","s","NA","NA","s","725.3482929954771","NA","45439.24482300645","NA","NA","725.3482929954771","2","psycho","1024","2","48000","-16","experiment","HHSHH","2","even","71709.1826509859","53835.86297300644","NA","NA","66122.85364299896","8318.6730069865","66628.64437300595","NA","72760.85071900161","8359.455945988884","NA","NA","72867.81320901355","73595.29658401152","72749.04463699204","72867.4548320123","Flanker task","5","8336.063972004922","8","1024"
"66","66","997","997","black","psycho","psycho","psycho","congruent","1","undefined","1","h","8","0","0","0","8","0","8","0","8","0","0","0","8","8","8","8","Thu Sep 21 16:15:19 2023","1500","The main experiment item","True","Flankertask.osexp","/Users/xaleyelyse/Desktop","False","mono","False","18","no","white","no","yes","768","psycho","8","8","/Users/xaleyelyse/Desktop/xw-subject-2.csv","psycho","Melodramatic Milgram","4.0.5","0","h","NA","s","NA","NA","h","639.0536759863608","NA","45439.24482300645","NA","NA","639.0536759863608","2","psycho","1024","2","48000","-16","experiment","HHHHH","2","even","73601.63169901352","53835.86297300644","NA","NA","66122.85364299896","8318.6730069865","66628.64437300595","NA","74655.18692100886","8359.455945988884","NA","NA","74762.22275701002","75403.35106800194","74641.65038600913","74761.77959798952","Flanker task","6","8975.117647991283","9","1024"
"70","70","1011","1011","black","psycho","psycho","psycho","congruent","1","undefined","1","s","9","0","0","0","9","0","9","0","9","0","0","0","9","9","9","9","Thu Sep 21 16:15:19 2023","1500","The main experiment item","True","Flankertask.osexp","/Users/xaleyelyse/Desktop","False","mono","False","18","no","white","no","yes","768","psycho","9","9","/Users/xaleyelyse/Desktop/xw-subject-2.csv","psycho","Melodramatic Milgram","4.0.5","0","s","NA","s","NA","NA","s","1141.801483987365","NA","45439.24482300645","NA","NA","1141.801483987365","2","psycho","1024","2","48000","-16","experiment","SSSSS","2","even","75408.20374598843","53835.86297300644","NA","NA","66122.85364299896","8318.6730069865","66628.64437300595","NA","76461.42805498675","8359.455945988884","NA","NA","76568.33787899814","77712.25828700699","76448.14684300218","76567.14888301212","Flanker task","7","10116.919131978648","10","1024"
"72","72","987","987","black","psycho","psycho","psycho","incongruent","1","undefined","1","h","10","0","0","0","10","0","10","0","10","0","0","0","10","10","10","10","Thu Sep 21 16:15:19 2023","1500","The main experiment item","True","Flankertask.osexp","/Users/xaleyelyse/Desktop","False","mono","False","18","no","white","no","yes","768","psycho","10","10","/Users/xaleyelyse/Desktop/xw-subject-2.csv","psycho","Melodramatic Milgram","4.0.5","0","h","NA","s","NA","NA","h","750.4103730025236","NA","45439.24482300645","NA","NA","750.4103730025236","2","psycho","1024","2","48000","-16","experiment","SSHSS","2","even","77717.49663099763","53835.86297300644","NA","NA","66122.85364299896","8318.6730069865","66628.64437300595","NA","78769.86166799907","8359.455945988884","NA","NA","78876.78468899685","79629.09405201208","78756.4296759956","78876.33741900208","Flanker task","8","10867.329504981171","11","1024"
"75","75","1006","1006","black","psycho","psycho","psycho","incongruent","1","undefined","1","s","11","0","0","0","11","0","11","0","11","0","0","0","11","11","11","11","Thu Sep 21 16:15:19 2023","1500","The main experiment item","True","Flankertask.osexp","/Users/xaleyelyse/Desktop","False","mono","False","18","no","white","no","yes","768","psycho","11","11","/Users/xaleyelyse/Desktop/xw-subject-2.csv","psycho","Melodramatic Milgram","4.0.5","0","s","NA","s","NA","NA","s","1207.3121069988701","NA","45439.24482300645","NA","NA","1207.3121069988701","2","psycho","1024","2","48000","-16","experiment","HHSHH","2","even","79634.04829299543","53835.86297300644","NA","NA","66122.85364299896","8318.6730069865","66628.64437300595","NA","80688.8624530111","8359.455945988884","NA","NA","80795.28544700588","82004.72458198783","80676.6951349855","80794.14985599578","Flanker task","9","12074.641611980041","12","1024"
"76","76","988","988","black","psycho","psycho","psycho","incongruent","1","undefined","1","s","12","0","0","0","12","0","12","0","12","0","0","0","12","12","12","12","Thu Sep 21 16:15:19 2023","1500","The main experiment item","True","Flankertask.osexp","/Users/xaleyelyse/Desktop","False","mono","False","18","no","white","no","yes","768","psycho","12","12","/Users/xaleyelyse/Desktop/xw-subject-2.csv","psycho","Melodramatic Milgram","4.0.5","0","s","NA","s","NA","NA","s","772.073864005506","NA","45439.24482300645","NA","NA","772.073864005506","2","psycho","1024","2","48000","-16","experiment","HHSHH","2","even","82009.21704500797","53835.86297300644","NA","NA","66122.85364299896","8318.6730069865","66628.64437300595","NA","83066.05359498644","8359.455945988884","NA","NA","83172.85123400507","83946.98995500221","83053.10505599482","83172.01579498942","Flanker task","10","12846.715475985548","13","1024"
"78","78","989","989","black","psycho","psycho","psycho","congruent","1","undefined","1","s","13","0","0","0","13","0","13","0","13","0","0","0","13","13","13","13","Thu Sep 21 16:15:19 2023","1500","The main experiment item","True","Flankertask.osexp","/Users/xaleyelyse/Desktop","False","mono","False","18","no","white","no","yes","768","psycho","13","13","/Users/xaleyelyse/Desktop/xw-subject-2.csv","psycho","Melodramatic Milgram","4.0.5","0","s","NA","s","NA","NA","s","1011.6692409792449","NA","45439.24482300645","NA","NA","1011.6692409792449","2","psycho","1024","2","48000","-16","experiment","SSSSS","2","even","83955.5992539972","53835.86297300644","NA","NA","66122.85364299896","8318.6730069865","66628.64437300595","NA","85006.56359299319","8359.455945988884","NA","NA","85113.30723500578","86126.92891800543","84995.15444599092","85112.8652979969","Flanker task","11","13858.384716964792","14","1024"
"80","80","967","967","black","psycho","psycho","psycho","congruent","1","undefined","1","s","14","0","0","0","14","0","14","0","14","0","0","0","14","14","14","14","Thu Sep 21 16:15:19 2023","1500","The main experiment item","True","Flankertask.osexp","/Users/xaleyelyse/Desktop","False","mono","False","18","no","white","no","yes","768","psycho","14","14","/Users/xaleyelyse/Desktop/xw-subject-2.csv","psycho","Melodramatic Milgram","4.0.5","0","s","NA","s","NA","NA","s","648.5225309734233","NA","45439.24482300645","NA","NA","648.5225309734233","2","psycho","1024","2","48000","-16","experiment","SSSSS","2","even","86131.96728698676","53835.86297300644","NA","NA","66122.85364299896","8318.6730069865","66628.64437300595","NA","87183.95035198773","8359.455945988884","NA","NA","87291.23528901255","87941.82189399726","87171.19175600237","87289.99329998624","Flanker task","12","14506.907247938216","15","1024"
"81","81","942","942","black","psycho","psycho","psycho","congruent","1","undefined","1","s","15","0","0","0","15","0","15","0","15","0","0","0","15","15","15","15","Thu Sep 21 16:15:19 2023","1500","The main experiment item","True","Flankertask.osexp","/Users/xaleyelyse/Desktop","False","mono","False","18","no","white","no","yes","768","psycho","15","15","/Users/xaleyelyse/Desktop/xw-subject-2.csv","psycho","Melodramatic Milgram","4.0.5","0","s","NA","s","NA","NA","s","572.6551180123352","NA","45439.24482300645","NA","NA","572.6551180123352","2","psycho","1024","2","48000","-16","experiment","SSSSS","2","even","87946.11631400767","53835.86297300644","NA","NA","66122.85364299896","8318.6730069865","66628.64437300595","NA","88999.08248300198","8359.455945988884","NA","NA","89105.96105500008","89680.74985398562","88985.59707199456","89104.85372701078","Flanker task","13","15079.56236595055","16","1024"
"82","82","928","928","black","psycho","psycho","psycho","incongruent","1","undefined","1","h","16","0","0","0","16","0","16","0","16","0","0","0","16","16","16","16","Thu Sep 21 16:15:19 2023","1500","The main experiment item","True","Flankertask.osexp","/Users/xaleyelyse/Desktop","False","mono","False","18","no","white","no","yes","768","psycho","16","16","/Users/xaleyelyse/Desktop/xw-subject-2.csv","psycho","Melodramatic Milgram","4.0.5","0","h","NA","s","NA","NA","h","711.0904239816591","NA","45439.24482300645","NA","NA","711.0904239816591","2","psycho","1024","2","48000","-16","experiment","SSHSS","2","even","89690.01812901115","53835.86297300644","NA","NA","66122.85364299896","8318.6730069865","66628.64437300595","NA","90745.09602799662","8359.455945988884","NA","NA","90851.35924001224","91564.61321000825","90733.78558299737","90850.07355600828","Flanker task","14","15790.65278993221","17","1024"
"83","83","913","913","black","psycho","psycho","psycho","incongruent","1","undefined","1","h","17","0","0","0","17","0","17","0","17","0","0","0","17","17","17","17","Thu Sep 21 16:15:19 2023","1500","The main experiment item","True","Flankertask.osexp","/Users/xaleyelyse/Desktop","False","mono","False","18","no","white","no","yes","768","psycho","17","17","/Users/xaleyelyse/Desktop/xw-subject-2.csv","psycho","Melodramatic Milgram","4.0.5","0","h","NA","s","NA","NA","h","656.6785220056772","NA","45439.24482300645","NA","NA","656.6785220056772","2","psycho","1024","2","48000","-16","experiment","SSHSS","2","even","91572.6024399919","53835.86297300644","NA","NA","66122.85364299896","8318.6730069865","66628.64437300595","NA","92623.78548100241","8359.455945988884","NA","NA","92730.7705229905","93389.62976500625","92610.68390798755","92730.4267330037","Flanker task","15","16447.331311937887","18","1024"
"84","84","898","898","black","psycho","psycho","psycho","congruent","1","undefined","1","h","18","0","0","0","18","0","18","0","18","0","0","0","18","18","18","18","Thu Sep 21 16:15:19 2023","1500","The main experiment item","True","Flankertask.osexp","/Users/xaleyelyse/Desktop","False","mono","False","18","no","white","no","yes","768","psycho","18","18","/Users/xaleyelyse/Desktop/xw-subject-2.csv","psycho","Melodramatic Milgram","4.0.5","0","h","NA","s","NA","NA","h","616.3390679867007","NA","45439.24482300645","NA","NA","616.3390679867007","2","psycho","1024","2","48000","-16","experiment","HHHHH","2","even","93395.44159799698","53835.86297300644","NA","NA","66122.85364299896","8318.6730069865","66628.64437300595","NA","94446.12090199371","8359.455945988884","NA","NA","94554.12436299957","95172.45985098998","94434.34883101145","94553.68212299072","Flanker task","16","17063.670379924588","19","1024"
"85","85","886","886","black","psycho","psycho","psycho","congruent","1","undefined","1","s","19","0","0","0","19","0","19","0","19","0","0","0","19","19","19","19","Thu Sep 21 16:15:19 2023","1500","The main experiment item","True","Flankertask.osexp","/Users/xaleyelyse/Desktop","False","mono","False","18","no","white","no","yes","768","psycho","19","19","/Users/xaleyelyse/Desktop/xw-subject-2.csv","psycho","Melodramatic Milgram","4.0.5","0","s","NA","s","NA","NA","s","667.8223359922413","NA","45439.24482300645","NA","NA","667.8223359922413","2","psycho","1024","2","48000","-16","experiment","SSSSS","2","even","95177.34408300021","53835.86297300644","NA","NA","66122.85364299896","8318.6730069865","66628.64437300595","NA","96227.66321300878","8359.455945988884","NA","NA","96334.57666100003","97004.53546899371","96216.00619700621","96334.27354801097","Flanker task","17","17731.49271591683","20","1024"
"80","80","868","868","black","psycho","psycho","psycho","incongruent","0","undefined","0","h","20","0","0","0","20","0","20","0","20","0","0","0","20","20","20","20","Thu Sep 21 16:15:19 2023","1500","The main experiment item","True","Flankertask.osexp","/Users/xaleyelyse/Desktop","False","mono","False","18","no","white","no","yes","768","psycho","20","20","/Users/xaleyelyse/Desktop/xw-subject-2.csv","psycho","Melodramatic Milgram","4.0.5","0","s","NA","s","NA","NA","s","513.8069870008621","NA","45439.24482300645","NA","NA","513.8069870008621","2","psycho","1024","2","48000","-16","experiment","SSHSS","2","even","97009.7442829865","53835.86297300644","NA","NA","66122.85364299896","8318.6730069865","66628.64437300595","NA","98061.42193599953","8359.455945988884","NA","NA","98169.52168100397","98685.31737898593","98048.74758599908","98168.84862500592","Flanker task","17","18245.29970291769","21","1024"
"81","81","859","859","black","psycho","psycho","psycho","congruent","1","undefined","1","s","21","0","0","0","21","0","21","0","21","0","0","0","21","21","21","21","Thu Sep 21 16:15:19 2023","1500","The main experiment item","True","Flankertask.osexp","/Users/xaleyelyse/Desktop","False","mono","False","18","no","white","no","yes","768","psycho","21","21","/Users/xaleyelyse/Desktop/xw-subject-2.csv","psycho","Melodramatic Milgram","4.0.5","0","s","NA","s","NA","NA","s","673.5358409932815","NA","45439.24482300645","NA","NA","673.5358409932815","2","psycho","1024","2","48000","-16","experiment","SSSSS","2","even","99195.4745890107","53835.86297300644","NA","NA","98690.70511800237","8318.6730069865","66628.64437300595","NA","100246.998816001","8359.455945988884","NA","NA","100354.36528900755","101030.08851999766","100235.43125600554","100353.91206099303","Flanker task","18","18918.835543910973","22","1024"
"82","82","859","859","black","psycho","psycho","psycho","incongruent","1","undefined","1","s","22","0","0","0","22","0","22","0","22","0","0","0","22","22","22","22","Thu Sep 21 16:15:19 2023","1500","The main experiment item","True","Flankertask.osexp","/Users/xaleyelyse/Desktop","False","mono","False","18","no","white","no","yes","768","psycho","22","22","/Users/xaleyelyse/Desktop/xw-subject-2.csv","psycho","Melodramatic Milgram","4.0.5","0","s","NA","s","NA","NA","s","853.1666790076997","NA","45439.24482300645","NA","NA","853.1666790076997","2","psycho","1024","2","48000","-16","experiment","HHSHH","2","even","101035.17086300417","53835.86297300644","NA","NA","98690.70511800237","8318.6730069865","66628.64437300595","NA","102085.43954699417","8359.455945988884","NA","NA","102192.12670798879","103047.31836498831","102073.74881900614","102191.77924099495","Flanker task","19","19772.002222918672","23","1024"
"83","83","849","849","black","psycho","psycho","psycho","congruent","1","undefined","1","s","23","0","0","0","23","0","23","0","23","0","0","0","23","23","23","23","Thu Sep 21 16:15:19 2023","1500","The main experiment item","True","Flankertask.osexp","/Users/xaleyelyse/Desktop","False","mono","False","18","no","white","no","yes","768","psycho","23","23","/Users/xaleyelyse/Desktop/xw-subject-2.csv","psycho","Melodramatic Milgram","4.0.5","0","s","NA","s","NA","NA","s","616.4791389892343","NA","45439.24482300645","NA","NA","616.4791389892343","2","psycho","1024","2","48000","-16","experiment","SSSSS","2","even","103056.22922399198","53835.86297300644","NA","NA","98690.70511800237","8318.6730069865","66628.64437300595","NA","104110.29233099543","8359.455945988884","NA","NA","104217.5243110105","104836.21332899202","104098.98426799919","104217.16133199516","Flanker task","20","20388.481361907907","24","1024"
"84","84","840","840","black","psycho","psycho","psycho","congruent","1","undefined","1","s","24","0","0","0","24","0","24","0","24","0","0","0","24","24","24","24","Thu Sep 21 16:15:19 2023","1500","The main experiment item","True","Flankertask.osexp","/Users/xaleyelyse/Desktop","False","mono","False","18","no","white","no","yes","768","psycho","24","24","/Users/xaleyelyse/Desktop/xw-subject-2.csv","psycho","Melodramatic Milgram","4.0.5","0","s","NA","s","NA","NA","s","633.6126079841051","NA","45439.24482300645","NA","NA","633.6126079841051","2","psycho","1024","2","48000","-16","experiment","SSSSS","2","even","104840.57738500996","53835.86297300644","NA","NA","98690.70511800237","8318.6730069865","66628.64437300595","NA","105894.5465249999","8359.455945988884","NA","NA","106000.32744000782","106636.03106600931","105883.78166899201","105999.08893299289","Flanker task","21","21022.093969892012","25","1024"
"84","84","829","829","black","psycho","psycho","psycho","congruent","1","undefined","1","s","25","0","0","0","25","0","25","0","25","0","0","0","25","25","25","25","Thu Sep 21 16:15:19 2023","1500","The main experiment item","True","Flankertask.osexp","/Users/xaleyelyse/Desktop","False","mono","False","18","no","white","no","yes","768","psycho","25","25","/Users/xaleyelyse/Desktop/xw-subject-2.csv","psycho","Melodramatic Milgram","4.0.5","0","s","NA","s","NA","NA","s","539.9274520168547","NA","45439.24482300645","NA","NA","539.9274520168547","2","psycho","1024","2","48000","-16","experiment","SSSSS","2","even","106641.11001300626","53835.86297300644","NA","NA","98690.70511800237","8318.6730069865","66628.64437300595","NA","107697.14244999341","8359.455945988884","NA","NA","107804.05027998495","108346.08115401352","107687.59245998808","107803.70085098548","Flanker task","22","21562.021421908867","26","1024"
"85","85","826","826","black","psycho","psycho","psycho","incongruent","1","undefined","1","s","26","0","0","0","26","0","26","0","26","0","0","0","26","26","26","26","Thu Sep 21 16:15:19 2023","1500","The main experiment item","True","Flankertask.osexp","/Users/xaleyelyse/Desktop","False","mono","False","18","no","white","no","yes","768","psycho","26","26","/Users/xaleyelyse/Desktop/xw-subject-2.csv","psycho","Melodramatic Milgram","4.0.5","0","s","NA","s","NA","NA","s","755.7336780009791","NA","45439.24482300645","NA","NA","755.7336780009791","2","psycho","1024","2","48000","-16","experiment","HHSHH","2","even","108354.57567800768","53835.86297300644","NA","NA","98690.70511800237","8318.6730069865","66628.64437300595","NA","109403.50142499665","8359.455945988884","NA","NA","109510.10026800213","110267.97559901024","109392.05120998668","109508.87983001303","Flanker task","23","22317.755099909846","27","1024"
"85","85","820","820","black","psycho","psycho","psycho","congruent","1","undefined","1","h","27","0","0","0","27","0","27","0","27","0","0","0","27","27","27","27","Thu Sep 21 16:15:19 2023","1500","The main experiment item","True","Flankertask.osexp","/Users/xaleyelyse/Desktop","False","mono","False","18","no","white","no","yes","768","psycho","27","27","/Users/xaleyelyse/Desktop/xw-subject-2.csv","psycho","Melodramatic Milgram","4.0.5","0","h","NA","s","NA","NA","h","664.2534710117616","NA","45439.24482300645","NA","NA","664.2534710117616","2","psycho","1024","2","48000","-16","experiment","HHHHH","2","even","110272.73439700366","53835.86297300644","NA","NA","98690.70511800237","8318.6730069865","66628.64437300595","NA","111323.30675199046","8359.455945988884","NA","NA","111429.49376598699","112095.92253499432","111313.35328199202","111428.38554899208","Flanker task","24","22982.008570921607","28","1024"
"86","86","813","813","black","psycho","psycho","psycho","incongruent","1","undefined","1","s","28","0","0","0","28","0","28","0","28","0","0","0","28","28","28","28","Thu Sep 21 16:15:19 2023","1500","The main experiment item","True","Flankertask.osexp","/Users/xaleyelyse/Desktop","False","mono","False","18","no","white","no","yes","768","psycho","28","28","/Users/xaleyelyse/Desktop/xw-subject-2.csv","psycho","Melodramatic Milgram","4.0.5","0","s","NA","s","NA","NA","s","611.4969839982223","NA","45439.24482300645","NA","NA","611.4969839982223","2","psycho","1024","2","48000","-16","experiment","HHSHH","2","even","112100.68171500461","53835.86297300644","NA","NA","98690.70511800237","8318.6730069865","66628.64437300595","NA","113150.22589999717","8359.455945988884","NA","NA","113257.14940699982","113870.82266100333","113138.81096898695","113256.84501999058","Flanker task","25","23593.50555491983","29","1024"
"83","83","811","811","black","psycho","psycho","psycho","incongruent","0","undefined","0","h","29","0","0","0","29","0","29","0","29","0","0","0","29","29","29","29","Thu Sep 21 16:15:19 2023","1500","The main experiment item","True","Flankertask.osexp","/Users/xaleyelyse/Desktop","False","mono","False","18","no","white","no","yes","768","psycho","29","29","/Users/xaleyelyse/Desktop/xw-subject-2.csv","psycho","Melodramatic Milgram","4.0.5","0","s","NA","s","NA","NA","s","756.7056439875159","NA","45439.24482300645","NA","NA","756.7056439875159","2","psycho","1024","2","48000","-16","experiment","SSHSS","2","even","113876.13589700777","53835.86297300644","NA","NA","98690.70511800237","8318.6730069865","66628.64437300595","NA","114925.13071600115","8359.455945988884","NA","NA","115032.84810000332","115791.76191598526","114915.43185900082","115032.38516300917","Flanker task","25","24350.211198907346","30","1024"
"83","83","810","810","black","psycho","psycho","psycho","incongruent","1","undefined","1","s","30","0","0","0","30","0","30","0","30","0","0","0","30","30","30","30","Thu Sep 21 16:15:19 2023","1500","The main experiment item","True","Flankertask.osexp","/Users/xaleyelyse/Desktop","False","mono","False","18","no","white","no","yes","768","psycho","30","30","/Users/xaleyelyse/Desktop/xw-subject-2.csv","psycho","Melodramatic Milgram","4.0.5","0","s","NA","s","NA","NA","s","778.5554860020056","NA","45439.24482300645","NA","NA","778.5554860020056","2","psycho","1024","2","48000","-16","experiment","HHSHH","2","even","116303.63461500383","53835.86297300644","NA","NA","115798.7963600026","8318.6730069865","66628.64437300595","NA","117353.3825520135","8359.455945988884","NA","NA","117460.88662900729","118241.6507070011","117342.54606900504","117459.65414700913","Flanker task","26","25128.76668490935","31","1024"
"84","84","806","806","black","psycho","psycho","psycho","congruent","1","undefined","1","h","31","0","0","0","31","0","31","0","31","0","0","0","31","31","31","31","Thu Sep 21 16:15:19 2023","1500","The main experiment item","True","Flankertask.osexp","/Users/xaleyelyse/Desktop","False","mono","False","18","no","white","no","yes","768","psycho","31","31","/Users/xaleyelyse/Desktop/xw-subject-2.csv","psycho","Melodramatic Milgram","4.0.5","0","h","NA","s","NA","NA","h","687.4002949916758","NA","45439.24482300645","NA","NA","687.4002949916758","2","psycho","1024","2","48000","-16","experiment","HHHHH","2","even","118246.98130501201","53835.86297300644","NA","NA","115798.7963600026","8318.6730069865","66628.64437300595","NA","119295.72104400722","8359.455945988884","NA","NA","119405.07877999335","120094.609828986","119285.7568509935","119404.82251200592","Flanker task","27","25816.166979901027","32","1024"
"84","84","799","799","black","psycho","psycho","psycho","congruent","1","undefined","1","h","32","0","0","0","32","0","32","0","32","0","0","0","32","32","32","32","Thu Sep 21 16:15:19 2023","1500","The main experiment item","True","Flankertask.osexp","/Users/xaleyelyse/Desktop","False","mono","False","18","no","white","no","yes","768","psycho","32","32","/Users/xaleyelyse/Desktop/xw-subject-2.csv","psycho","Melodramatic Milgram","4.0.5","0","h","NA","s","NA","NA","h","552.2451720025856","NA","45439.24482300645","NA","NA","552.2451720025856","2","psycho","1024","2","48000","-16","experiment","HHHHH","2","even","120099.266840989","53835.86297300644","NA","NA","115798.7963600026","8318.6730069865","66628.64437300595","NA","121156.08386299573","8359.455945988884","NA","NA","121262.79119600076","121817.31359098922","121145.59484799975","121262.4846539984","Flanker task","28","26368.412151903613","33","1024"
"85","85","795","795","black","psycho","psycho","psycho","incongruent","1","undefined","1","s","33","0","0","0","33","0","33","0","33","0","0","0","33","33","33","33","Thu Sep 21 16:15:19 2023","1500","The main experiment item","True","Flankertask.osexp","/Users/xaleyelyse/Desktop","False","mono","False","18","no","white","no","yes","768","psycho","33","33","/Users/xaleyelyse/Desktop/xw-subject-2.csv","psycho","Melodramatic Milgram","4.0.5","0","s","NA","s","NA","NA","s","669.6506629814394","NA","45439.24482300645","NA","NA","669.6506629814394","2","psycho","1024","2","48000","-16","experiment","HHSHH","2","even","121822.20988799236","53835.86297300644","NA","NA","115798.7963600026","8318.6730069865","66628.64437300595","NA","122878.1949999975","8359.455945988884","NA","NA","122985.66179801128","123657.42260898696","122867.24522899021","122984.98543299502","Flanker task","29","27038.062814885052","34","1024"
"85","85","792","792","black","psycho","psycho","psycho","incongruent","1","undefined","1","h","34","0","0","0","34","0","34","0","34","0","0","0","34","34","34","34","Thu Sep 21 16:15:19 2023","1500","The main experiment item","True","Flankertask.osexp","/Users/xaleyelyse/Desktop","False","mono","False","18","no","white","no","yes","768","psycho","34","34","/Users/xaleyelyse/Desktop/xw-subject-2.csv","psycho","Melodramatic Milgram","4.0.5","0","h","NA","s","NA","NA","h","686.4818430040032","NA","45439.24482300645","NA","NA","686.4818430040032","2","psycho","1024","2","48000","-16","experiment","SSHSS","2","even","123663.41869399184","53835.86297300644","NA","NA","115798.7963600026","8318.6730069865","66628.64437300595","NA","124719.64224800467","8359.455945988884","NA","NA","124826.73184998566","125515.36088899593","124708.60452600755","124826.3243350084","Flanker task","30","27724.544657889055","35","1024"
"86","86","791","791","black","psycho","psycho","psycho","incongruent","1","undefined","1","s","35","0","0","0","35","0","35","0","35","0","0","0","35","35","35","35","Thu Sep 21 16:15:19 2023","1500","The main experiment item","True","Flankertask.osexp","/Users/xaleyelyse/Desktop","False","mono","False","18","no","white","no","yes","768","psycho","35","35","/Users/xaleyelyse/Desktop/xw-subject-2.csv","psycho","Melodramatic Milgram","4.0.5","0","s","NA","s","NA","NA","s","781.3598480133805","NA","45439.24482300645","NA","NA","781.3598480133805","2","psycho","1024","2","48000","-16","experiment","HHSHH","2","even","125520.86957701249","53835.86297300644","NA","NA","115798.7963600026","8318.6730069865","66628.64437300595","NA","126573.77672800794","8359.455945988884","NA","NA","126679.49343699729","127462.93955700821","126563.59868400614","126678.45222400501","Flanker task","31","28505.904505902436","36","1024"
"86","86","790","790","black","psycho","psycho","psycho","congruent","1","undefined","1","h","36","0","0","0","36","0","36","0","36","0","0","0","36","36","36","36","Thu Sep 21 16:15:19 2023","1500","The main experiment item","True","Flankertask.osexp","/Users/xaleyelyse/Desktop","False","mono","False","18","no","white","no","yes","768","psycho","36","36","/Users/xaleyelyse/Desktop/xw-subject-2.csv","psycho","Melodramatic Milgram","4.0.5","0","h","NA","s","NA","NA","h","742.6689479907509","NA","45439.24482300645","NA","NA","742.6689479907509","2","psycho","1024","2","48000","-16","experiment","HHHHH","2","even","127472.03627499403","53835.86297300644","NA","NA","115798.7963600026","8318.6730069865","66628.64437300595","NA","128521.9593209913","8359.455945988884","NA","NA","128629.22574300319","129374.09847701201","128511.06601100764","128628.87270000647","Flanker task","32","29248.573453893187","37","1024"
"86","86","786","786","black","psycho","psycho","psycho","congruent","1","undefined","1","s","37","0","0","0","37","0","37","0","37","0","0","0","37","37","37","37","Thu Sep 21 16:15:19 2023","1500","The main experiment item","True","Flankertask.osexp","/Users/xaleyelyse/Desktop","False","mono","False","18","no","white","no","yes","768","psycho","37","37","/Users/xaleyelyse/Desktop/xw-subject-2.csv","psycho","Melodramatic Milgram","4.0.5","0","s","NA","s","NA","NA","s","651.412387000164","NA","45439.24482300645","NA","NA","651.412387000164","2","psycho","1024","2","48000","-16","experiment","SSSSS","2","even","129379.42043298972","53835.86297300644","NA","NA","115798.7963600026","8318.6730069865","66628.64437300595","NA","130428.81830999977","8359.455945988884","NA","NA","130536.30564600462","131190.05844800267","130417.93259899714","130535.85707800812","Flanker task","33","29899.98584089335","38","1024"
"87","87","790","790","black","psycho","psycho","psycho","congruent","1","undefined","1","s","38","0","0","0","38","0","38","0","38","0","0","0","38","38","38","38","Thu Sep 21 16:15:19 2023","1500","The main experiment item","True","Flankertask.osexp","/Users/xaleyelyse/Desktop","False","mono","False","18","no","white","no","yes","768","psycho","38","38","/Users/xaleyelyse/Desktop/xw-subject-2.csv","psycho","Melodramatic Milgram","4.0.5","0","s","NA","s","NA","NA","s","921.0193380131386","NA","45439.24482300645","NA","NA","921.0193380131386","2","psycho","1024","2","48000","-16","experiment","SSSSS","2","even","131195.23228198523","53835.86297300644","NA","NA","115798.7963600026","8318.6730069865","66628.64437300595","NA","132244.28418499883","8359.455945988884","NA","NA","132351.6091319907","133274.8851290089","132234.3403029954","132350.30007601017","Flanker task","34","30821.00517890649","39","1024"
"87","87","787","787","black","psycho","psycho","psycho","incongruent","1","undefined","1","h","39","0","0","0","39","0","39","0","39","0","0","0","39","39","39","39","Thu Sep 21 16:15:19 2023","1500","The main experiment item","True","Flankertask.osexp","/Users/xaleyelyse/Desktop","False","mono","False","18","no","white","no","yes","768","psycho","39","39","/Users/xaleyelyse/Desktop/xw-subject-2.csv","psycho","Melodramatic Milgram","4.0.5","0","h","NA","s","NA","NA","h","660.7816439936869","NA","45439.24482300645","NA","NA","660.7816439936869","2","psycho","1024","2","48000","-16","experiment","SSHSS","2","even","133281.29317099229","53835.86297300644","NA","NA","115798.7963600026","8318.6730069865","66628.64437300595","NA","134334.56004198524","8359.455945988884","NA","NA","134441.91403500736","135104.86527899047","134325.15570500982","134440.73172600474","Flanker task","35","31481.786822900176","40","1024"
"87","87","786","786","black","psycho","psycho","psycho","incongruent","1","undefined","1","s","40","0","0","0","40","0","40","0","40","0","0","0","40","40","40","40","Thu Sep 21 16:15:19 2023","1500","The main experiment item","True","Flankertask.osexp","/Users/xaleyelyse/Desktop","False","mono","False","18","no","white","no","yes","768","psycho","40","40","/Users/xaleyelyse/Desktop/xw-subject-2.csv","psycho","Melodramatic Milgram","4.0.5","0","s","NA","s","NA","NA","s","747.2769129963126","NA","45439.24482300645","NA","NA","747.2769129963126","2","psycho","1024","2","48000","-16","experiment","HHSHH","2","even","135109.210671013","53835.86297300644","NA","NA","115798.7963600026","8318.6730069865","66628.64437300595","NA","136162.36497400678","8359.455945988884","NA","NA","136268.3443519927","137017.65938400058","136151.68224999798","136267.12199600297","Flanker task","36","32229.06373589649","41","1024"
"88","88","781","781","black","psycho","psycho","psycho","congruent","1","undefined","1","h","41","0","0","0","41","0","41","0","41","0","0","0","41","41","41","41","Thu Sep 21 16:15:19 2023","1500","The main experiment item","True","Flankertask.osexp","/Users/xaleyelyse/Desktop","False","mono","False","18","no","white","no","yes","768","psycho","41","41","/Users/xaleyelyse/Desktop/xw-subject-2.csv","psycho","Melodramatic Milgram","4.0.5","0","h","NA","s","NA","NA","h","586.7193369776942","NA","45439.24482300645","NA","NA","586.7193369776942","2","psycho","1024","2","48000","-16","experiment","HHHHH","2","even","137022.8130769974","53835.86297300644","NA","NA","115798.7963600026","8318.6730069865","66628.64437300595","NA","138078.28705900465","8359.455945988884","NA","NA","138185.78982300824","138774.8990179971","138067.54038701183","138184.63649399928","Flanker task","37","32815.78307287418","42","1024"
"88","88","779","779","black","psycho","psycho","psycho","incongruent","1","undefined","1","s","42","0","0","0","42","0","42","0","42","0","0","0","42","42","42","42","Thu Sep 21 16:15:19 2023","1500","The main experiment item","True","Flankertask.osexp","/Users/xaleyelyse/Desktop","False","mono","False","18","no","white","no","yes","768","psycho","42","42","/Users/xaleyelyse/Desktop/xw-subject-2.csv","psycho","Melodramatic Milgram","4.0.5","0","s","NA","s","NA","NA","s","711.6457809752319","NA","45439.24482300645","NA","NA","711.6457809752319","2","psycho","1024","2","48000","-16","experiment","HHSHH","2","even","138781.93770398502","53835.86297300644","NA","NA","115798.7963600026","8318.6730069865","66628.64437300595","NA","139830.9389950009","8359.455945988884","NA","NA","139937.7145380131","140651.62141498877","139820.8390279906","139937.40703701042","Flanker task","38","33527.428853849415","43","1024"
"88","88","773","773","black","psycho","psycho","psycho","congruent","1","undefined","1","s","43","0","0","0","43","0","43","0","43","0","0","0","43","43","43","43","Thu Sep 21 16:15:19 2023","1500","The main experiment item","True","Flankertask.osexp","/Users/xaleyelyse/Desktop","False","mono","False","18","no","white","no","yes","768","psycho","43","43","/Users/xaleyelyse/Desktop/xw-subject-2.csv","psycho","Melodramatic Milgram","4.0.5","0","s","NA","s","NA","NA","s","515.434913977515","NA","45439.24482300645","NA","NA","515.434913977515","2","psycho","1024","2","48000","-16","experiment","SSSSS","2","even","140658.60120399157","53835.86297300644","NA","NA","115798.7963600026","8318.6730069865","66628.64437300595","NA","141710.42364501045","8359.455945988884","NA","NA","141817.08719101152","142334.69155000057","141699.94156900793","141816.7959029961","Flanker task","39","34042.86376782693","44","1024"
"88","88","767","767","black","psycho","psycho","psycho","congruent","1","undefined","1","s","44","0","0","0","44","0","44","0","44","0","0","0","44","44","44","44","Thu Sep 21 16:15:19 2023","1500","The main experiment item","True","Flankertask.osexp","/Users/xaleyelyse/Desktop","False","mono","False","18","no","white","no","yes","768","psycho","44","44","/Users/xaleyelyse/Desktop/xw-subject-2.csv","psycho","Melodramatic Milgram","4.0.5","0","s","NA","s","NA","NA","s","477.20115797710605","NA","45439.24482300645","NA","NA","477.20115797710605","2","psycho","1024","2","48000","-16","experiment","SSSSS","2","even","142339.9322819896","53835.86297300644","NA","NA","115798.7963600026","8318.6730069865","66628.64437300595","NA","143396.73643300193","8359.455945988884","NA","NA","143504.0258000081","143983.32288398524","143385.55533598992","143502.7342349931","Flanker task","40","34520.064925804036","45","1024"
"89","89","761","761","black","psycho","psycho","psycho","incongruent","1","undefined","1","s","45","0","0","0","45","0","45","0","45","0","0","0","45","45","45","45","Thu Sep 21 16:15:19 2023","1500","The main experiment item","True","Flankertask.osexp","/Users/xaleyelyse/Desktop","False","mono","False","18","no","white","no","yes","768","psycho","45","45","/Users/xaleyelyse/Desktop/xw-subject-2.csv","psycho","Melodramatic Milgram","4.0.5","0","s","NA","s","NA","NA","s","512.0642969850451","NA","45439.24482300645","NA","NA","512.0642969850451","2","psycho","1024","2","48000","-16","experiment","HHSHH","2","even","143988.51709999144","53835.86297300644","NA","NA","115798.7963600026","8318.6730069865","66628.64437300595","NA","145037.41734998766","8359.455945988884","NA","NA","145143.10784600093","145657.45653299382","145026.57419501338","145142.00562698534","Flanker task","41","35032.12922278908","46","1024"
"89","89","755","755","black","psycho","psycho","psycho","congruent","1","undefined","1","h","46","0","0","0","46","0","46","0","46","0","0","0","46","46","46","46","Thu Sep 21 16:15:19 2023","1500","The main experiment item","True","Flankertask.osexp","/Users/xaleyelyse/Desktop","False","mono","False","18","no","white","no","yes","768","psycho","46","46","/Users/xaleyelyse/Desktop/xw-subject-2.csv","psycho","Melodramatic Milgram","4.0.5","0","h","NA","s","NA","NA","h","459.77804900030605","NA","45439.24482300645","NA","NA","459.77804900030605","2","psycho","1024","2","48000","-16","experiment","HHHHH","2","even","145662.58582199225","53835.86297300644","NA","NA","115798.7963600026","8318.6730069865","66628.64437300595","NA","146710.91890300158","8359.455945988884","NA","NA","146819.3290999916","147281.37995599536","146701.22915599495","146818.6481189914","Flanker task","42","35491.90727178939","47","1024"
"89","89","749","749","black","psycho","psycho","psycho","congruent","1","undefined","1","s","47","0","0","0","47","0","47","0","47","0","0","0","47","47","47","47","Thu Sep 21 16:15:19 2023","1500","The main experiment item","True","Flankertask.osexp","/Users/xaleyelyse/Desktop","False","mono","False","18","no","white","no","yes","768","psycho","47","47","/Users/xaleyelyse/Desktop/xw-subject-2.csv","psycho","Melodramatic Milgram","4.0.5","0","s","NA","s","NA","NA","s","506.38663800782524","NA","45439.24482300645","NA","NA","506.38663800782524","2","psycho","1024","2","48000","-16","experiment","SSSSS","2","even","147289.39464100404","53835.86297300644","NA","NA","115798.7963600026","8318.6730069865","66628.64437300595","NA","148339.95033998508","8359.455945988884","NA","NA","148446.50383098633","148955.40152300964","148330.21086998633","148445.25043299654","Flanker task","43","35998.29390979721","48","1024"
"89","89","745","745","black","psycho","psycho","psycho","congruent","1","undefined","1","s","48","0","0","0","48","0","48","0","48","0","0","0","48","48","48","48","Thu Sep 21 16:15:19 2023","1500","The main experiment item","True","Flankertask.osexp","/Users/xaleyelyse/Desktop","False","mono","False","18","no","white","no","yes","768","psycho","48","48","/Users/xaleyelyse/Desktop/xw-subject-2.csv","psycho","Melodramatic Milgram","4.0.5","0","s","NA","s","NA","NA","s","539.0501880028751","NA","45439.24482300645","NA","NA","539.0501880028751","2","psycho","1024","2","48000","-16","experiment","SSSSS","2","even","148960.932151007","53835.86297300644","NA","NA","115798.7963600026","8318.6730069865","66628.64437300595","NA","150015.7637789962","8359.455945988884","NA","NA","150123.03259701002","150664.30598599254","150005.5729589949","150122.67783400603","Flanker task","44","36537.34409780009","49","1024"
"90","90","741","741","black","psycho","psycho","psycho","incongruent","1","undefined","1","h","49","0","0","0","49","0","49","0","49","0","0","0","49","49","49","49","Thu Sep 21 16:15:19 2023","1500","The main experiment item","True","Flankertask.osexp","/Users/xaleyelyse/Desktop","False","mono","False","18","no","white","no","yes","768","psycho","49","49","/Users/xaleyelyse/Desktop/xw-subject-2.csv","psycho","Melodramatic Milgram","4.0.5","0","h","NA","s","NA","NA","h","548.7578010070138","NA","45439.24482300645","NA","NA","548.7578010070138","2","psycho","1024","2","48000","-16","experiment","SSHSS","2","even","150672.22562400275","53835.86297300644","NA","NA","115798.7963600026","8318.6730069865","66628.64437300595","NA","151721.63984901272","8359.455945988884","NA","NA","151829.06331599224","152380.28128500446","151711.41674098908","151827.89830298861","Flanker task","45","37086.1018988071","50","1024"
"90","90","744","744","black","psycho","psycho","psycho","incongruent","1","undefined","1","h","50","0","0","0","50","0","50","0","50","0","0","0","50","50","50","50","Thu Sep 21 16:15:19 2023","1500","The main experiment item","True","Flankertask.osexp","/Users/xaleyelyse/Desktop","False","mono","False","18","no","white","no","yes","768","psycho","50","50","/Users/xaleyelyse/Desktop/xw-subject-2.csv","psycho","Melodramatic Milgram","4.0.5","0","h","NA","s","NA","NA","h","863.1275210063905","NA","45439.24482300645","NA","NA","863.1275210063905","2","psycho","1024","2","48000","-16","experiment","SSHSS","2","even","152389.02574399253","53835.86297300644","NA","NA","115798.7963600026","8318.6730069865","66628.64437300595","NA","153438.8661030098","8359.455945988884","NA","NA","153545.91630000505","154411.36221500346","153427.3991890077","153545.56315400987","Flanker task","46","37949.22941981349","51","1024"
"90","90","740","740","black","psycho","psycho","psycho","congruent","1","undefined","1","h","51","0","0","0","51","0","51","0","51","0","0","0","51","51","51","51","Thu Sep 21 16:15:19 2023","1500","The main experiment item","True","Flankertask.osexp","/Users/xaleyelyse/Desktop","False","mono","False","18","no","white","no","yes","768","psycho","51","51","/Users/xaleyelyse/Desktop/xw-subject-2.csv","psycho","Melodramatic Milgram","4.0.5","0","h","NA","s","NA","NA","h","551.8003479810432","NA","45439.24482300645","NA","NA","551.8003479810432","2","psycho","1024","2","48000","-16","experiment","HHHHH","2","even","154415.8828369982","53835.86297300644","NA","NA","115798.7963600026","8318.6730069865","66628.64437300595","NA","155469.4902379997","8359.455945988884","NA","NA","155577.02311800676","156131.110635004","155456.46676499746","155575.79081799486","Flanker task","47","38501.029767794535","52","1024"
"90","90","735","735","black","psycho","psycho","psycho","congruent","1","undefined","1","h","52","0","0","0","52","0","52","0","52","0","0","0","52","52","52","52","Thu Sep 21 16:15:19 2023","1500","The main experiment item","True","Flankertask.osexp","/Users/xaleyelyse/Desktop","False","mono","False","18","no","white","no","yes","768","psycho","52","52","/Users/xaleyelyse/Desktop/xw-subject-2.csv","psycho","Melodramatic Milgram","4.0.5","0","h","NA","s","NA","NA","h","474.3194069887977","NA","45439.24482300645","NA","NA","474.3194069887977","2","psycho","1024","2","48000","-16","experiment","HHHHH","2","even","156138.90553900274","53835.86297300644","NA","NA","115798.7963600026","8318.6730069865","66628.64437300595","NA","157190.71138300933","8359.455945988884","NA","NA","157297.48487399775","157773.99141498609","157180.86509598652","157296.31455001072","Flanker task","48","38975.34917478333","53","1024"
"90","90","730","730","black","psycho","psycho","psycho","congruent","1","undefined","1","s","53","0","0","0","53","0","53","0","53","0","0","0","53","53","53","53","Thu Sep 21 16:15:19 2023","1500","The main experiment item","True","Flankertask.osexp","/Users/xaleyelyse/Desktop","False","mono","False","18","no","white","no","yes","768","psycho","53","53","/Users/xaleyelyse/Desktop/xw-subject-2.csv","psycho","Melodramatic Milgram","4.0.5","0","s","NA","s","NA","NA","s","494.0352129924577","NA","45439.24482300645","NA","NA","494.0352129924577","2","psycho","1024","2","48000","-16","experiment","SSSSS","2","even","157779.0761649958","53835.86297300644","NA","NA","115798.7963600026","8318.6730069865","66628.64437300595","NA","158827.0452620054","8359.455945988884","NA","NA","158935.46865700046","159431.57027399866","158817.47706100577","158934.82658499852","Flanker task","49","39469.38438777579","54","1024"
"89","89","724","724","black","psycho","psycho","psycho","congruent","0","undefined","0","h","54","0","0","0","54","0","54","0","54","0","0","0","54","54","54","54","Thu Sep 21 16:15:19 2023","1500","The main experiment item","True","Flankertask.osexp","/Users/xaleyelyse/Desktop","False","mono","False","18","no","white","no","yes","768","psycho","54","54","/Users/xaleyelyse/Desktop/xw-subject-2.csv","psycho","Melodramatic Milgram","4.0.5","0","s","NA","s","NA","NA","s","387.9490499966778","NA","45439.24482300645","NA","NA","387.9490499966778","2","psycho","1024","2","48000","-16","experiment","HHHHH","2","even","159439.27072099177","53835.86297300644","NA","NA","115798.7963600026","8318.6730069865","66628.64437300595","NA","160488.32181698526","8359.455945988884","NA","NA","160595.62003001338","160986.20921600377","160477.88335199584","160595.15816700878","Flanker task","49","39857.33343777247","55","1024"
"89","89","729","729","black","psycho","psycho","psycho","congruent","1","undefined","1","h","55","0","0","0","55","0","55","0","55","0","0","0","55","55","55","55","Thu Sep 21 16:15:19 2023","1500","The main experiment item","True","Flankertask.osexp","/Users/xaleyelyse/Desktop","False","mono","False","18","no","white","no","yes","768","psycho","55","55","/Users/xaleyelyse/Desktop/xw-subject-2.csv","psycho","Melodramatic Milgram","4.0.5","0","h","NA","s","NA","NA","h","992.8529280005023","NA","45439.24482300645","NA","NA","992.8529280005023","2","psycho","1024","2","48000","-16","experiment","HHHHH","2","even","161495.63279899303","53835.86297300644","NA","NA","160990.78786099562","8318.6730069865","66628.64437300595","NA","162544.72711100243","8359.455945988884","NA","NA","162653.6261739966","163648.55889699538","162534.23017900786","162653.19491899572","Flanker task","50","40850.18636577297","56","1024"
"89","89","727","727","black","psycho","psycho","psycho","incongruent","1","undefined","1","h","56","0","0","0","56","0","56","0","56","0","0","0","56","56","56","56","Thu Sep 21 16:15:19 2023","1500","The main experiment item","True","Flankertask.osexp","/Users/xaleyelyse/Desktop","False","mono","False","18","no","white","no","yes","768","psycho","56","56","/Users/xaleyelyse/Desktop/xw-subject-2.csv","psycho","Melodramatic Milgram","4.0.5","0","h","NA","s","NA","NA","h","596.4543779846281","NA","45439.24482300645","NA","NA","596.4543779846281","2","psycho","1024","2","48000","-16","experiment","SSHSS","2","even","163654.8009479884","53835.86297300644","NA","NA","160990.78786099562","8318.6730069865","66628.64437300595","NA","164707.52738500596","8359.455945988884","NA","NA","164814.80853800895","165413.5022579867","164697.9651869915","164814.35868699919","Flanker task","51","41446.6407437576","57","1024"
"89","89","724","724","black","psycho","psycho","psycho","congruent","1","undefined","1","h","57","0","0","0","57","0","57","0","57","0","0","0","57","57","57","57","Thu Sep 21 16:15:19 2023","1500","The main experiment item","True","Flankertask.osexp","/Users/xaleyelyse/Desktop","False","mono","False","18","no","white","no","yes","768","psycho","57","57","/Users/xaleyelyse/Desktop/xw-subject-2.csv","psycho","Melodramatic Milgram","4.0.5","0","h","NA","s","NA","NA","h","548.7424799939618","NA","45439.24482300645","NA","NA","548.7424799939618","2","psycho","1024","2","48000","-16","experiment","HHHHH","2","even","165418.67899498902","53835.86297300644","NA","NA","160990.78786099562","8318.6730069865","66628.64437300595","NA","166471.6041139909","8359.455945988884","NA","NA","166578.62400601152","167129.52226999914","166461.2742679892","166578.31684898701","Flanker task","52","41995.38322375156","58","1024"
"89","89","720","720","black","psycho","psycho","psycho","congruent","1","undefined","1","h","58","0","0","0","58","0","58","0","58","0","0","0","58","58","58","58","Thu Sep 21 16:15:19 2023","1500","The main experiment item","True","Flankertask.osexp","/Users/xaleyelyse/Desktop","False","mono","False","18","no","white","no","yes","768","psycho","58","58","/Users/xaleyelyse/Desktop/xw-subject-2.csv","psycho","Melodramatic Milgram","4.0.5","0","h","NA","s","NA","NA","h","487.3525089933537","NA","45439.24482300645","NA","NA","487.3525089933537","2","psycho","1024","2","48000","-16","experiment","HHHHH","2","even","167139.00380500127","53835.86297300644","NA","NA","160990.78786099562","8318.6730069865","66628.64437300595","NA","168188.1919259904","8359.455945988884","NA","NA","168293.77166301128","168783.32366299583","168177.7820890129","168292.70349399303","Flanker task","53","42482.73573274491","59","1024"
"90","90","717","717","black","psycho","psycho","psycho","incongruent","1","undefined","1","s","59","0","0","0","59","0","59","0","59","0","0","0","59","59","59","59","Thu Sep 21 16:15:19 2023","1500","The main experiment item","True","Flankertask.osexp","/Users/xaleyelyse/Desktop","False","mono","False","18","no","white","no","yes","768","psycho","59","59","/Users/xaleyelyse/Desktop/xw-subject-2.csv","psycho","Melodramatic Milgram","4.0.5","0","s","NA","s","NA","NA","s","574.0203369932715","NA","45439.24482300645","NA","NA","574.0203369932715","2","psycho","1024","2","48000","-16","experiment","HHSHH","2","even","168787.8594500071","53835.86297300644","NA","NA","160990.78786099562","8318.6730069865","66628.64437300595","NA","169840.36150798784","8359.455945988884","NA","NA","169947.1625080041","170523.64006399876","169830.77105900156","169946.80478298687","Flanker task","54","43056.756069738185","60","1024"
"90","90","722","722","black","psycho","psycho","psycho","congruent","1","undefined","1","s","60","0","0","0","60","0","60","0","60","0","0","0","60","60","60","60","Thu Sep 21 16:15:19 2023","1500","The main experiment item","True","Flankertask.osexp","/Users/xaleyelyse/Desktop","False","mono","False","18","no","white","no","yes","768","psycho","60","60","/Users/xaleyelyse/Desktop/xw-subject-2.csv","psycho","Melodramatic Milgram","4.0.5","0","s","NA","s","NA","NA","s","1002.1055119868834","NA","45439.24482300645","NA","NA","1002.1055119868834","2","psycho","1024","2","48000","-16","experiment","SSSSS","2","even","170527.79134799493","53835.86297300644","NA","NA","160990.78786099562","8318.6730069865","66628.64437300595","NA","171578.54243399925","8359.455945988884","NA","NA","171687.05515400507","172691.36905801133","171568.3627850085","171686.80784199387","Flanker task","55","44058.86158172507","61","1024"
"90","90","719","719","black","psycho","psycho","psycho","congruent","1","undefined","1","h","61","0","0","0","61","0","61","0","61","0","0","0","61","61","61","61","Thu Sep 21 16:15:19 2023","1500","The main experiment item","True","Flankertask.osexp","/Users/xaleyelyse/Desktop","False","mono","False","18","no","white","no","yes","768","psycho","61","61","/Users/xaleyelyse/Desktop/xw-subject-2.csv","psycho","Melodramatic Milgram","4.0.5","0","h","NA","s","NA","NA","h","566.4827600121498","NA","45439.24482300645","NA","NA","566.4827600121498","2","psycho","1024","2","48000","-16","experiment","HHHHH","2","even","172696.53527298942","53835.86297300644","NA","NA","160990.78786099562","8318.6730069865","66628.64437300595","NA","173751.48340201122","8359.455945988884","NA","NA","173858.34590598824","174426.9023060042","173740.98328698892","173857.9935930029","Flanker task","56","44625.34434173722","62","1024"
"90","90","718","718","black","psycho","psycho","psycho","incongruent","1","undefined","1","s","62","0","0","0","62","0","62","0","62","0","0","0","62","62","62","62","Thu Sep 21 16:15:19 2023","1500","The main experiment item","True","Flankertask.osexp","/Users/xaleyelyse/Desktop","False","mono","False","18","no","white","no","yes","768","psycho","62","62","/Users/xaleyelyse/Desktop/xw-subject-2.csv","psycho","Melodramatic Milgram","4.0.5","0","s","NA","s","NA","NA","s","629.8224019992631","NA","45439.24482300645","NA","NA","629.8224019992631","2","psycho","1024","2","48000","-16","experiment","HHSHH","2","even","174433.91676599276","53835.86297300644","NA","NA","160990.78786099562","8318.6730069865","66628.64437300595","NA","175487.42935000337","8359.455945988884","NA","NA","175594.14823300904","176226.1958720046","175477.7829129889","175593.8411130046","Flanker task","57","45255.16674373648","63","1024"
"90","90","720","720","black","psycho","psycho","psycho","congruent","1","undefined","1","s","63","0","0","0","63","0","63","0","63","0","0","0","63","63","63","63","Thu Sep 21 16:15:19 2023","1500","The main experiment item","True","Flankertask.osexp","/Users/xaleyelyse/Desktop","False","mono","False","18","no","white","no","yes","768","psycho","63","63","/Users/xaleyelyse/Desktop/xw-subject-2.csv","psycho","Melodramatic Milgram","4.0.5","0","s","NA","s","NA","NA","s","863.3185409998987","NA","45439.24482300645","NA","NA","863.3185409998987","2","psycho","1024","2","48000","-16","experiment","SSSSS","2","even","176230.99911698955","53835.86297300644","NA","NA","160990.78786099562","8318.6730069865","66628.64437300595","NA","177279.4637939951","8359.455945988884","NA","NA","177386.23495600768","178252.03363600303","177269.59954798804","177385.927455005","Flanker task","58","46118.48528473638","64","1024"
"90","90","719","719","black","psycho","psycho","psycho","incongruent","1","undefined","1","h","64","0","0","0","64","0","64","0","64","0","0","0","64","64","64","64","Thu Sep 21 16:15:19 2023","1500","The main experiment item","True","Flankertask.osexp","/Users/xaleyelyse/Desktop","False","mono","False","18","no","white","no","yes","768","psycho","64","64","/Users/xaleyelyse/Desktop/xw-subject-2.csv","psycho","Melodramatic Milgram","4.0.5","0","h","NA","s","NA","NA","h","620.7864600000903","NA","45439.24482300645","NA","NA","620.7864600000903","2","psycho","1024","2","48000","-16","experiment","SSHSS","2","even","178257.37575499807","53835.86297300644","NA","NA","160990.78786099562","8318.6730069865","66628.64437300595","NA","179310.08545699297","8359.455945988884","NA","NA","179415.99797000526","180038.8789110002","179299.5115100057","179414.73367399885","Flanker task","59","46739.27174473647","65","1024"
"89","89","724","724","black","psycho","psycho","psycho","congruent","0","undefined","0","h","65","0","0","0","65","0","65","0","65","0","0","0","65","65","65","65","Thu Sep 21 16:15:19 2023","1500","The main experiment item","True","Flankertask.osexp","/Users/xaleyelyse/Desktop","False","mono","False","18","no","white","no","yes","768","psycho","65","65","/Users/xaleyelyse/Desktop/xw-subject-2.csv","psycho","Melodramatic Milgram","4.0.5","0","s","NA","s","NA","NA","s","1051.158390007913","NA","45439.24482300645","NA","NA","1051.158390007913","2","psycho","1024","2","48000","-16","experiment","HHHHH","2","even","180043.86665200582","53835.86297300644","NA","NA","160990.78786099562","8318.6730069865","66628.64437300595","NA","181096.9856310112","8359.455945988884","NA","NA","181204.52025698614","182257.97861200408","181086.53970601154","181204.05470300466","Flanker task","59","47790.43013474438","66","1024"
"89","89","725","725","black","psycho","psycho","psycho","incongruent","1","undefined","1","h","66","0","0","0","66","0","66","0","66","0","0","0","66","66","66","66","Thu Sep 21 16:15:19 2023","1500","The main experiment item","True","Flankertask.osexp","/Users/xaleyelyse/Desktop","False","mono","False","18","no","white","no","yes","768","psycho","66","66","/Users/xaleyelyse/Desktop/xw-subject-2.csv","psycho","Melodramatic Milgram","4.0.5","0","h","NA","s","NA","NA","h","842.0799210143741","NA","45439.24482300645","NA","NA","842.0799210143741","2","psycho","1024","2","48000","-16","experiment","SSHSS","2","even","182767.86771501065","53835.86297300644","NA","NA","182263.38519298588","8318.6730069865","66628.64437300595","NA","183817.7411550132","8359.455945988884","NA","NA","183925.39889799082","184769.8790029972","183806.29225098528","183924.94571898715","Flanker task","60","48632.51005575876","67","1024"
"89","89","722","722","black","psycho","psycho","psycho","congruent","1","undefined","1","h","67","0","0","0","67","0","67","0","67","0","0","0","67","67","67","67","Thu Sep 21 16:15:19 2023","1500","The main experiment item","True","Flankertask.osexp","/Users/xaleyelyse/Desktop","False","mono","False","18","no","white","no","yes","768","psycho","67","67","/Users/xaleyelyse/Desktop/xw-subject-2.csv","psycho","Melodramatic Milgram","4.0.5","0","h","NA","s","NA","NA","h","500.73987001087517","NA","45439.24482300645","NA","NA","500.73987001087517","2","psycho","1024","2","48000","-16","experiment","HHHHH","2","even","184774.4762559887","53835.86297300644","NA","NA","182263.38519298588","8318.6730069865","66628.64437300595","NA","185823.65452501108","8359.455945988884","NA","NA","185930.849700002","186433.93321399344","185813.42918399605","185930.49429100938","Flanker task","61","49133.24992576963","68","1024"
"89","89","722","722","black","psycho","psycho","psycho","incongruent","1","undefined","1","h","68","0","0","0","68","0","68","0","68","0","0","0","68","68","68","68","Thu Sep 21 16:15:19 2023","1500","The main experiment item","True","Flankertask.osexp","/Users/xaleyelyse/Desktop","False","mono","False","18","no","white","no","yes","768","psycho","68","68","/Users/xaleyelyse/Desktop/xw-subject-2.csv","psycho","Melodramatic Milgram","4.0.5","0","h","NA","s","NA","NA","h","697.5099660048727","NA","45439.24482300645","NA","NA","697.5099660048727","2","psycho","1024","2","48000","-16","experiment","SSHSS","2","even","186439.3900890136","53835.86297300644","NA","NA","182263.38519298588","8318.6730069865","66628.64437300595","NA","187492.07736100652","8359.455945988884","NA","NA","187599.81906600296","188300.26924799313","187482.21382699558","187598.31627999665","Flanker task","62","49830.759891774505","69","1024"
"90","90","720","720","black","psycho","psycho","psycho","incongruent","1","undefined","1","s","69","0","0","0","69","0","69","0","69","0","0","0","69","69","69","69","Thu Sep 21 16:15:19 2023","1500","The main experiment item","True","Flankertask.osexp","/Users/xaleyelyse/Desktop","False","mono","False","18","no","white","no","yes","768","psycho","69","69","/Users/xaleyelyse/Desktop/xw-subject-2.csv","psycho","Melodramatic Milgram","4.0.5","0","s","NA","s","NA","NA","s","636.9116980058607","NA","45439.24482300645","NA","NA","636.9116980058607","2","psycho","1024","2","48000","-16","experiment","HHSHH","2","even","188306.05829998967","53835.86297300644","NA","NA","182263.38519298588","8318.6730069865","66628.64437300595","NA","189355.58979900088","8359.455945988884","NA","NA","189463.37132298504","190102.689930005","189345.1446199906","189462.93016299023","Flanker task","63","50467.671589780366","70","1024"
"90","90","719","719","black","psycho","psycho","psycho","incongruent","1","undefined","1","s","70","0","0","0","70","0","70","0","70","0","0","0","70","70","70","70","Thu Sep 21 16:15:19 2023","1500","The main experiment item","True","Flankertask.osexp","/Users/xaleyelyse/Desktop","False","mono","False","18","no","white","no","yes","768","psycho","70","70","/Users/xaleyelyse/Desktop/xw-subject-2.csv","psycho","Melodramatic Milgram","4.0.5","0","s","NA","s","NA","NA","s","615.5971859989222","NA","45439.24482300645","NA","NA","615.5971859989222","2","psycho","1024","2","48000","-16","experiment","HHSHH","2","even","190108.00242700498","53835.86297300644","NA","NA","182263.38519298588","8318.6730069865","66628.64437300595","NA","191160.55753501132","8359.455945988884","NA","NA","191267.7296710026","191885.49377699383","191149.8690530134","191267.17170799384","Flanker task","64","51083.26877577929","71","1024"
"90","90","720","720","black","psycho","psycho","psycho","incongruent","1","undefined","1","h","71","0","0","0","71","0","71","0","71","0","0","0","71","71","71","71","Thu Sep 21 16:15:19 2023","1500","The main experiment item","True","Flankertask.osexp","/Users/xaleyelyse/Desktop","False","mono","False","18","no","white","no","yes","768","psycho","71","71","/Users/xaleyelyse/Desktop/xw-subject-2.csv","psycho","Melodramatic Milgram","4.0.5","0","h","NA","s","NA","NA","h","777.110338996863","NA","45439.24482300645","NA","NA","777.110338996863","2","psycho","1024","2","48000","-16","experiment","SSHSS","2","even","191890.50236399635","53835.86297300644","NA","NA","182263.38519298588","8318.6730069865","66628.64437300595","NA","192939.22733899672","8359.455945988884","NA","NA","193046.0628280125","193825.73311199667","192930.08607800584","193044.79653798626","Flanker task","65","51860.37911477615","72","1024"
"90","90","720","720","black","psycho","psycho","psycho","congruent","1","undefined","1","s","72","0","0","0","72","0","72","0","72","0","0","0","72","72","72","72","Thu Sep 21 16:15:19 2023","1500","The main experiment item","True","Flankertask.osexp","/Users/xaleyelyse/Desktop","False","mono","False","18","no","white","no","yes","768","psycho","72","72","/Users/xaleyelyse/Desktop/xw-subject-2.csv","psycho","Melodramatic Milgram","4.0.5","0","s","NA","s","NA","NA","s","706.4843219995964","NA","45439.24482300645","NA","NA","706.4843219995964","2","psycho","1024","2","48000","-16","experiment","SSSSS","2","even","193832.70364100463","53835.86297300644","NA","NA","182263.38519298588","8318.6730069865","66628.64437300595","NA","194885.89174300432","8359.455945988884","NA","NA","194993.5791780008","195702.4013180053","194875.92660999508","194992.2121099953","Flanker task","66","52566.86343677575","73","1024"
"89","89","730","730","black","psycho","psycho","psycho","incongruent","0","undefined","0","h","73","0","0","0","73","0","73","0","73","0","0","0","73","73","73","73","Thu Sep 21 16:15:19 2023","1500","The main experiment item","True","Flankertask.osexp","/Users/xaleyelyse/Desktop","False","mono","False","18","no","white","no","yes","768","psycho","73","73","/Users/xaleyelyse/Desktop/xw-subject-2.csv","psycho","Melodramatic Milgram","4.0.5","0","None","NA","s","NA","NA","None","1500.1749319781084","NA","45439.24482300645","NA","NA","1500.1749319781084","2","psycho","1024","2","48000","-16","experiment","SSHSS","2","even","195707.2937799967","53835.86297300644","NA","NA","182263.38519298588","8318.6730069865","66628.64437300595","NA","196757.11990499985","8359.455945988884","NA","NA","196862.69627700676","198363.38700700435","196746.87463301234","196861.62302299635","Flanker task","66","54067.038368753856","74","1024"
"88","88","740","740","black","psycho","psycho","psycho","incongruent","0","undefined","0","h","74","0","0","0","74","0","74","0","74","0","0","0","74","74","74","74","Thu Sep 21 16:15:19 2023","1500","The main experiment item","True","Flankertask.osexp","/Users/xaleyelyse/Desktop","False","mono","False","18","no","white","no","yes","768","psycho","74","74","/Users/xaleyelyse/Desktop/xw-subject-2.csv","psycho","Melodramatic Milgram","4.0.5","0","None","NA","s","NA","NA","None","1500.1457089965697","NA","45439.24482300645","NA","NA","1500.1457089965697","2","psycho","1024","2","48000","-16","experiment","SSHSS","2","even","199382.4307360046","53835.86297300644","NA","NA","198369.34637700324","8318.6730069865","198875.8478029922","NA","200433.88850500924","8359.455945988884","NA","NA","200540.1595350122","202040.70829998818","200424.35568501242","200539.1596519912","Flanker task","66","55567.184077750426","75","1024"
"88","88","741","741","black","psycho","psycho","psycho","incongruent","1","undefined","1","h","75","0","0","0","75","0","75","0","75","0","0","0","75","75","75","75","Thu Sep 21 16:15:19 2023","1500","The main experiment item","True","Flankertask.osexp","/Users/xaleyelyse/Desktop","False","mono","False","18","no","white","no","yes","768","psycho","75","75","/Users/xaleyelyse/Desktop/xw-subject-2.csv","psycho","Melodramatic Milgram","4.0.5","0","h","NA","s","NA","NA","h","771.3048929872457","NA","45439.24482300645","NA","NA","771.3048929872457","2","psycho","1024","2","48000","-16","experiment","SSHSS","2","even","203059.4345020072","53835.86297300644","NA","NA","202046.78548700758","8318.6730069865","202552.89665600867","NA","204111.0753089888","8359.455945988884","NA","NA","204217.75485400576","204991.20022400166","204100.67127400544","204216.6377179965","Flanker task","67","56338.48897073767","76","1024"
"88","88","739","739","black","psycho","psycho","psycho","incongruent","1","undefined","1","s","76","0","0","0","76","0","76","0","76","0","0","0","76","76","76","76","Thu Sep 21 16:15:19 2023","1500","The main experiment item","True","Flankertask.osexp","/Users/xaleyelyse/Desktop","False","mono","False","18","no","white","no","yes","768","psycho","76","76","/Users/xaleyelyse/Desktop/xw-subject-2.csv","psycho","Melodramatic Milgram","4.0.5","0","s","NA","s","NA","NA","s","633.4566159930546","NA","45439.24482300645","NA","NA","633.4566159930546","2","psycho","1024","2","48000","-16","experiment","HHSHH","2","even","204996.22340299538","53835.86297300644","NA","NA","202046.78548700758","8318.6730069865","202552.89665600867","NA","206045.4720639973","8359.455945988884","NA","NA","206152.1640550054","206787.92507300386","206035.27130399016","206151.81255099014","Flanker task","68","56971.945586730726","77","1024"
"88","88","738","738","black","psycho","psycho","psycho","incongruent","1","undefined","1","h","77","0","0","0","77","0","77","0","77","0","0","0","77","77","77","77","Thu Sep 21 16:15:19 2023","1500","The main experiment item","True","Flankertask.osexp","/Users/xaleyelyse/Desktop","False","mono","False","18","no","white","no","yes","768","psycho","77","77","/Users/xaleyelyse/Desktop/xw-subject-2.csv","psycho","Melodramatic Milgram","4.0.5","0","h","NA","s","NA","NA","h","619.6766030043364","NA","45439.24482300645","NA","NA","619.6766030043364","2","psycho","1024","2","48000","-16","experiment","SSHSS","2","even","206792.60450199945","53835.86297300644","NA","NA","202046.78548700758","8318.6730069865","202552.89665600867","NA","207846.9623629935","8359.455945988884","NA","NA","207952.8431360086","208574.75495099789","207836.59957698546","207951.64145700983","Flanker task","69","57591.62218973506","78","1024"
"88","88","736","736","black","psycho","psycho","psycho","congruent","1","undefined","1","h","78","0","0","0","78","0","78","0","78","0","0","0","78","78","78","78","Thu Sep 21 16:15:19 2023","1500","The main experiment item","True","Flankertask.osexp","/Users/xaleyelyse/Desktop","False","mono","False","18","no","white","no","yes","768","psycho","78","78","/Users/xaleyelyse/Desktop/xw-subject-2.csv","psycho","Melodramatic Milgram","4.0.5","0","h","NA","s","NA","NA","h","627.4318840005435","NA","45439.24482300645","NA","NA","627.4318840005435","2","psycho","1024","2","48000","-16","experiment","HHHHH","2","even","208579.81878900318","53835.86297300644","NA","NA","202046.78548700758","8318.6730069865","202552.89665600867","NA","209631.91704099881","8359.455945988884","NA","NA","209738.97581800702","210368.7026760017","209621.7157189967","209738.52457199246","Flanker task","70","58219.054073735606","79","1024"
"88","88","736","736","black","psycho","psycho","psycho","incongruent","1","undefined","1","s","79","0","0","0","79","0","79","0","79","0","0","0","79","79","79","79","Thu Sep 21 16:15:19 2023","1500","The main experiment item","True","Flankertask.osexp","/Users/xaleyelyse/Desktop","False","mono","False","18","no","white","no","yes","768","psycho","79","79","/Users/xaleyelyse/Desktop/xw-subject-2.csv","psycho","Melodramatic Milgram","4.0.5","0","s","NA","s","NA","NA","s","663.1273100210819","NA","45439.24482300645","NA","NA","663.1273100210819","2","psycho","1024","2","48000","-16","experiment","HHSHH","2","even","210373.45998600358","53835.86297300644","NA","NA","202046.78548700758","8318.6730069865","202552.89665600867","NA","211426.3331819966","8359.455945988884","NA","NA","211533.1213749887","212198.4161240107","211415.2184340055","211532.8210539883","Flanker task","71","58882.18138375669","80","1024"
"88","88","737","737","black","psycho","psycho","psycho","incongruent","1","undefined","1","h","80","0","0","0","80","0","80","0","80","0","0","0","80","80","80","80","Thu Sep 21 16:15:19 2023","600","The main experiment item","True","Flankertask.osexp","/Users/xaleyelyse/Desktop","False","mono","False","18","no","white","no","yes","768","psycho","0","79","/Users/xaleyelyse/Desktop/xw-subject-2.csv","psycho","Melodramatic Milgram","4.0.5","0","h","NA","s","s","NA","h","891.7303639755119","NA","45439.24482300645","15815.772003028542","NA","891.7303639755119","2","psycho","1024","2","48000","-16","experiment","SSHSS","2","even","212203.56404600898","53835.86297300644","229041.9613189879","NA","202046.78548700758","8318.6730069865","202552.89665600867","NA","229099.5557619899","8359.455945988884","213223.443631985","NA","229206.34848900954","230100.2882180037","229087.12350399583","229206.04727300815","Flanker task","72","59773.9117477322","81","1024"
"89","89","737","737","black","psycho","psycho","psycho","incongruent","1","undefined","1","h","81","0","0","0","81","0","81","0","81","0","0","0","81","81","81","81","Thu Sep 21 16:15:19 2023","600","The main experiment item","True","Flankertask.osexp","/Users/xaleyelyse/Desktop","False","mono","False","18","no","white","no","yes","768","psycho","1","79","/Users/xaleyelyse/Desktop/xw-subject-2.csv","psycho","Melodramatic Milgram","4.0.5","0","h","NA","s","s","NA","h","669.2758310236968","NA","45439.24482300645","15815.772003028542","NA","669.2758310236968","2","psycho","1024","2","48000","-16","experiment","SSHSS","2","even","230614.52122198534","53835.86297300644","229041.9613189879","NA","202046.78548700758","8318.6730069865","230108.60434398637","NA","231665.00885100686","8359.455945988884","213223.443631985","NA","231771.9455169863","232443.61351898988","231654.39104501274","231771.59291799762","Flanker task","73","60443.1875787559","82","1024"
"89","89","733","733","black","psycho","psycho","psycho","congruent","1","undefined","1","h","82","0","0","0","82","0","82","0","82","0","0","0","82","82","82","82","Thu Sep 21 16:15:19 2023","600","The main experiment item","True","Flankertask.osexp","/Users/xaleyelyse/Desktop","False","mono","False","18","no","white","no","yes","768","psycho","2","79","/Users/xaleyelyse/Desktop/xw-subject-2.csv","psycho","Melodramatic Milgram","4.0.5","0","h","NA","s","s","NA","h","457.9156720137689","NA","45439.24482300645","15815.772003028542","NA","457.9156720137689","2","psycho","1024","2","48000","-16","experiment","HHHHH","2","even","232959.3866149953","53835.86297300644","229041.9613189879","NA","202046.78548700758","8318.6730069865","232452.9087569972","NA","234009.29345199256","8359.455945988884","213223.443631985","NA","234115.4493399954","234575.8998300007","233999.11540999892","234114.17038700893","Flanker task","74","60901.103250769665","83","1024"
"89","89","730","730","black","psycho","psycho","psycho","congruent","1","undefined","1","h","83","0","0","0","83","0","83","0","83","0","0","0","83","83","83","83","Thu Sep 21 16:15:19 2023","600","The main experiment item","True","Flankertask.osexp","/Users/xaleyelyse/Desktop","False","mono","False","18","no","white","no","yes","768","psycho","3","79","/Users/xaleyelyse/Desktop/xw-subject-2.csv","psycho","Melodramatic Milgram","4.0.5","0","h","NA","s","s","NA","h","445.0068919977639","NA","45439.24482300645","15815.772003028542","NA","445.0068919977639","2","psycho","1024","2","48000","-16","experiment","HHHHH","2","even","234580.4711880046","53835.86297300644","229041.9613189879","NA","202046.78548700758","8318.6730069865","232452.9087569972","NA","235635.3116990067","8359.455945988884","213223.443631985","NA","235741.3444360136","236188.68872299208","235625.91808399884","235740.19100901205","Flanker task","75","61346.11014276743","84","1024"
"88","88","725","725","black","psycho","psycho","psycho","congruent","0","undefined","0","h","84","0","0","0","84","0","84","0","84","0","0","0","84","84","84","84","Thu Sep 21 16:15:19 2023","600","The main experiment item","True","Flankertask.osexp","/Users/xaleyelyse/Desktop","False","mono","False","18","no","white","no","yes","768","psycho","4","79","/Users/xaleyelyse/Desktop/xw-subject-2.csv","psycho","Melodramatic Milgram","4.0.5","0","s","NA","s","s","NA","s","358.9374989969656","NA","45439.24482300645","15815.772003028542","NA","358.9374989969656","2","psycho","1024","2","48000","-16","experiment","HHHHH","2","even","236193.77735300804","53835.86297300644","229041.9613189879","NA","202046.78548700758","8318.6730069865","232452.9087569972","NA","237241.8607439904","8359.455945988884","213223.443631985","NA","237349.0095169982","237710.24725600728","237232.24692599615","237348.6508660135","Flanker task","75","61705.047641764395","85","1024"
"88","88","725","725","black","psycho","psycho","psycho","incongruent","1","undefined","1","s","85","0","0","0","85","0","85","0","85","0","0","0","85","85","85","85","Thu Sep 21 16:15:19 2023","600","The main experiment item","True","Flankertask.osexp","/Users/xaleyelyse/Desktop","False","mono","False","18","no","white","no","yes","768","psycho","5","79","/Users/xaleyelyse/Desktop/xw-subject-2.csv","psycho","Melodramatic Milgram","4.0.5","0","s","NA","s","s","NA","s","664.650070015341","NA","45439.24482300645","15815.772003028542","NA","664.650070015341","2","psycho","1024","2","48000","-16","experiment","HHSHH","2","even","238226.14514399902","53835.86297300644","229041.9613189879","NA","237719.29196699057","8318.6730069865","232452.9087569972","NA","239274.58638200187","8359.455945988884","213223.443631985","NA","239381.2049299886","240048.0952009966","239265.39157799562","239380.91840600828","Flanker task","76","62369.697711779736","86","1024"
"88","88","725","725","black","psycho","psycho","psycho","incongruent","1","undefined","1","h","86","0","0","0","86","0","86","0","86","0","0","0","86","86","86","86","Thu Sep 21 16:15:19 2023","600","The main experiment item","True","Flankertask.osexp","/Users/xaleyelyse/Desktop","False","mono","False","18","no","white","no","yes","768","psycho","6","79","/Users/xaleyelyse/Desktop/xw-subject-2.csv","psycho","Melodramatic Milgram","4.0.5","0","h","NA","s","s","NA","h","737.7494150132407","NA","45439.24482300645","15815.772003028542","NA","737.7494150132407","2","psycho","1024","2","48000","-16","experiment","SSHSS","2","even","240562.7611920063","53835.86297300644","229041.9613189879","NA","237719.29196699057","8318.6730069865","240055.60529598733","NA","241613.4909449902","8359.455945988884","213223.443631985","NA","241719.2434479948","242459.50416798587","241604.0016360057","241718.2370699884","Flanker task","77","63107.44712679298","87","1024"
"88","88","723","723","black","psycho","psycho","psycho","congruent","1","undefined","1","h","87","0","0","0","87","0","87","0","87","0","0","0","87","87","87","87","Thu Sep 21 16:15:19 2023","600","The main experiment item","True","Flankertask.osexp","/Users/xaleyelyse/Desktop","False","mono","False","18","no","white","no","yes","768","psycho","7","79","/Users/xaleyelyse/Desktop/xw-subject-2.csv","psycho","Melodramatic Milgram","4.0.5","0","h","NA","s","s","NA","h","524.620099022286","NA","45439.24482300645","15815.772003028542","NA","524.620099022286","2","psycho","1024","2","48000","-16","experiment","HHHHH","2","even","242976.20487998938","53835.86297300644","229041.9613189879","NA","237719.29196699057","8318.6730069865","242469.06301900162","NA","244026.76791499835","8359.455945988884","213223.443631985","NA","244134.27601999138","244661.038405","244016.99470099993","244133.67731499602","Flanker task","78","63632.06722581526","88","1024"
"87","87","719","719","black","psycho","psycho","psycho","incongruent","0","undefined","0","s","88","0","0","0","88","0","88","0","88","0","0","0","88","88","88","88","Thu Sep 21 16:15:19 2023","600","The main experiment item","True","Flankertask.osexp","/Users/xaleyelyse/Desktop","False","mono","False","18","no","white","no","yes","768","psycho","8","79","/Users/xaleyelyse/Desktop/xw-subject-2.csv","psycho","Melodramatic Milgram","4.0.5","0","h","NA","s","s","NA","h","434.27861100644805","NA","45439.24482300645","15815.772003028542","NA","434.27861100644805","2","psycho","1024","2","48000","-16","experiment","HHSHH","2","even","244665.92192000826","53835.86297300644","229041.9613189879","NA","237719.29196699057","8318.6730069865","242469.06301900162","NA","245716.9412339863","8359.455945988884","213223.443631985","NA","245823.4332629945","246259.98638299643","245707.16560000437","245822.30712100863","Flanker task","78","64066.34583682171","89","1024"
"87","87","719","719","black","psycho","psycho","psycho","congruent","1","undefined","1","s","89","0","0","0","89","0","89","0","89","0","0","0","89","89","89","89","Thu Sep 21 16:15:19 2023","600","The main experiment item","True","Flankertask.osexp","/Users/xaleyelyse/Desktop","False","mono","False","18","no","white","no","yes","768","psycho","9","79","/Users/xaleyelyse/Desktop/xw-subject-2.csv","psycho","Melodramatic Milgram","4.0.5","0","s","NA","s","s","NA","s","712.2874929918908","NA","45439.24482300645","15815.772003028542","NA","712.2874929918908","2","psycho","1024","2","48000","-16","experiment","SSSSS","2","even","246772.95855700504","53835.86297300644","229041.9613189879","NA","246265.6816400122","8318.6730069865","242469.06301900162","NA","247821.09248501365","8359.455945988884","213223.443631985","NA","247929.3949569983","248643.94535700558","247811.55659799697","247928.92907600617","Flanker task","79","64778.6333298136","90","1024"
"87","87","719","719","black","psycho","psycho","psycho","incongruent","1","undefined","1","s","90","0","0","0","90","0","90","0","90","0","0","0","90","90","90","90","Thu Sep 21 16:15:19 2023","600","The main experiment item","True","Flankertask.osexp","/Users/xaleyelyse/Desktop","False","mono","False","18","no","white","no","yes","768","psycho","10","79","/Users/xaleyelyse/Desktop/xw-subject-2.csv","psycho","Melodramatic Milgram","4.0.5","0","s","NA","s","s","NA","s","695.170346996747","NA","45439.24482300645","15815.772003028542","NA","695.170346996747","2","psycho","1024","2","48000","-16","experiment","HHSHH","2","even","249158.39408899774","53835.86297300644","229041.9613189879","NA","246265.6816400122","8318.6730069865","248653.48351400462","NA","250207.08295499207","8359.455945988884","213223.443631985","NA","250314.14623899036","251011.54598599533","250197.06776799285","250313.71836399194","Flanker task","80","65473.80367681035","91","1024"
"88","88","719","719","black","psycho","psycho","psycho","incongruent","1","undefined","1","h","91","0","0","0","91","0","91","0","91","0","0","0","91","91","91","91","Thu Sep 21 16:15:19 2023","600","The main experiment item","True","Flankertask.osexp","/Users/xaleyelyse/Desktop","False","mono","False","18","no","white","no","yes","768","psycho","11","79","/Users/xaleyelyse/Desktop/xw-subject-2.csv","psycho","Melodramatic Milgram","4.0.5","0","h","NA","s","s","NA","h","686.7922320088837","NA","45439.24482300645","15815.772003028542","NA","686.7922320088837","2","psycho","1024","2","48000","-16","experiment","SSHSS","2","even","251527.05876500113","53835.86297300644","229041.9613189879","NA","246265.6816400122","8318.6730069865","251019.18475600542","NA","252574.9693030084","8359.455945988884","213223.443631985","NA","252681.6726620018","253370.94928699662","252565.74234299478","252681.3155229902","Flanker task","81","66160.59590881923","92","1024"
"88","88","717","717","black","psycho","psycho","psycho","congruent","1","undefined","1","s","92","0","0","0","92","0","92","0","92","0","0","0","92","92","92","92","Thu Sep 21 16:15:19 2023","600","The main experiment item","True","Flankertask.osexp","/Users/xaleyelyse/Desktop","False","mono","False","18","no","white","no","yes","768","psycho","12","79","/Users/xaleyelyse/Desktop/xw-subject-2.csv","psycho","Melodramatic Milgram","4.0.5","0","s","NA","s","s","NA","s","539.41230502096","NA","45439.24482300645","15815.772003028542","NA","539.41230502096","2","psycho","1024","2","48000","-16","experiment","SSSSS","2","even","253883.42829298927","53835.86297300644","229041.9613189879","NA","246265.6816400122","8318.6730069865","253378.6947799963","NA","254933.14729700796","8359.455945988884","213223.443631985","NA","255039.90018498735","255581.71026900527","254923.79977199016","255039.59869401297","Flanker task","82","66700.00821384019","93","1024"
"88","88","717","717","black","psycho","psycho","psycho","incongruent","1","undefined","1","s","93","0","0","0","93","0","93","0","93","0","0","0","93","93","93","93","Thu Sep 21 16:15:19 2023","600","The main experiment item","True","Flankertask.osexp","/Users/xaleyelyse/Desktop","False","mono","False","18","no","white","no","yes","768","psycho","13","79","/Users/xaleyelyse/Desktop/xw-subject-2.csv","psycho","Melodramatic Milgram","4.0.5","0","s","NA","s","s","NA","s","725.2986039966345","NA","45439.24482300645","15815.772003028542","NA","725.2986039966345","2","psycho","1024","2","48000","-16","experiment","HHSHH","2","even","255586.70779599925","53835.86297300644","229041.9613189879","NA","246265.6816400122","8318.6730069865","253378.6947799963","NA","256638.23649199912","8359.455945988884","213223.443631985","NA","256744.76598401088","257472.23379698698","256628.0782489921","256744.45630799164","Flanker task","83","67425.30681783683","94","1024"
"88","88","715","715","black","psycho","psycho","psycho","congruent","1","undefined","1","s","94","0","0","0","94","0","94","0","94","0","0","0","94","94","94","94","Thu Sep 21 16:15:19 2023","600","The main experiment item","True","Flankertask.osexp","/Users/xaleyelyse/Desktop","False","mono","False","18","no","white","no","yes","768","psycho","14","79","/Users/xaleyelyse/Desktop/xw-subject-2.csv","psycho","Melodramatic Milgram","4.0.5","0","s","NA","s","s","NA","s","540.1275029871613","NA","45439.24482300645","15815.772003028542","NA","540.1275029871613","2","psycho","1024","2","48000","-16","experiment","SSSSS","2","even","257984.2192440119","53835.86297300644","229041.9613189879","NA","246265.6816400122","8318.6730069865","257479.89764501108","NA","259039.3363040057","8359.455945988884","213223.443631985","NA","259147.0879910048","259689.56849499955","259028.5835810064","259146.63095300784","Flanker task","84","67965.43432082399","95","1024"
"88","88","714","714","black","psycho","psycho","psycho","congruent","1","undefined","1","h","95","0","0","0","95","0","95","0","95","0","0","0","95","95","95","95","Thu Sep 21 16:15:19 2023","600","The main experiment item","True","Flankertask.osexp","/Users/xaleyelyse/Desktop","False","mono","False","18","no","white","no","yes","768","psycho","15","79","/Users/xaleyelyse/Desktop/xw-subject-2.csv","psycho","Melodramatic Milgram","4.0.5","0","h","NA","s","s","NA","h","586.9122160074767","NA","45439.24482300645","15815.772003028542","NA","586.9122160074767","2","psycho","1024","2","48000","-16","experiment","HHHHH","2","even","259694.57069499185","53835.86297300644","229041.9613189879","NA","246265.6816400122","8318.6730069865","257479.89764501108","NA","260747.47464299435","8359.455945988884","213223.443631985","NA","260853.2760560047","261442.49806099106","260737.50460299198","260852.04779199557","Flanker task","85","68552.34653683146","96","1024"
"88","88","712","712","black","psycho","psycho","psycho","congruent","1","undefined","1","h","96","0","0","0","96","0","96","0","96","0","0","0","96","96","96","96","Thu Sep 21 16:15:19 2023","600","The main experiment item","True","Flankertask.osexp","/Users/xaleyelyse/Desktop","False","mono","False","18","no","white","no","yes","768","psycho","16","79","/Users/xaleyelyse/Desktop/xw-subject-2.csv","psycho","Melodramatic Milgram","4.0.5","0","h","NA","s","s","NA","h","550.6500510091428","NA","45439.24482300645","15815.772003028542","NA","550.6500510091428","2","psycho","1024","2","48000","-16","experiment","HHHHH","2","even","261447.47201600694","53835.86297300644","229041.9613189879","NA","246265.6816400122","8318.6730069865","257479.89764501108","NA","262496.8591989891","8359.455945988884","213223.443631985","NA","262602.5490209868","263155.5889619922","262486.7372569861","262601.4607489924","Flanker task","86","69102.99658784061","97","1024"
"88","88","711","711","black","psycho","psycho","psycho","incongruent","1","undefined","1","s","97","0","0","0","97","0","97","0","97","0","0","0","97","97","97","97","Thu Sep 21 16:15:19 2023","600","The main experiment item","True","Flankertask.osexp","/Users/xaleyelyse/Desktop","False","mono","False","18","no","white","no","yes","768","psycho","17","79","/Users/xaleyelyse/Desktop/xw-subject-2.csv","psycho","Melodramatic Milgram","4.0.5","0","s","NA","s","s","NA","s","583.3610699919518","NA","45439.24482300645","15815.772003028542","NA","583.3610699919518","2","psycho","1024","2","48000","-16","experiment","HHSHH","2","even","263159.5742540085","53835.86297300644","229041.9613189879","NA","246265.6816400122","8318.6730069865","257479.89764501108","NA","264210.8450639935","8359.455945988884","213223.443631985","NA","264319.202743005","264904.9210700032","264201.33740399615","264318.85925200186","Flanker task","87","69686.35765783256","98","1024"
"88","88","709","709","black","psycho","psycho","psycho","congruent","1","undefined","1","h","98","0","0","0","98","0","98","0","98","0","0","0","98","98","98","98","Thu Sep 21 16:15:19 2023","600","The main experiment item","True","Flankertask.osexp","/Users/xaleyelyse/Desktop","False","mono","False","18","no","white","no","yes","768","psycho","18","79","/Users/xaleyelyse/Desktop/xw-subject-2.csv","psycho","Melodramatic Milgram","4.0.5","0","h","NA","s","s","NA","h","548.7902349850629","NA","45439.24482300645","15815.772003028542","NA","548.7902349850629","2","psycho","1024","2","48000","-16","experiment","HHHHH","2","even","264909.39327998785","53835.86297300644","229041.9613189879","NA","246265.6816400122","8318.6730069865","257479.89764501108","NA","265958.99693499086","8359.455945988884","213223.443631985","NA","266066.1264900118","266617.4403009936","265950.75270801317","266065.6130790012","Flanker task","88","70235.14789281762","99","1024"
"89","89","708","708","black","psycho","psycho","psycho","incongruent","1","undefined","1","s","99","0","0","0","99","0","99","0","99","0","0","0","99","99","99","99","Thu Sep 21 16:15:19 2023","600","The main experiment item","True","Flankertask.osexp","/Users/xaleyelyse/Desktop","False","mono","False","18","no","white","no","yes","768","psycho","19","79","/Users/xaleyelyse/Desktop/xw-subject-2.csv","psycho","Melodramatic Milgram","4.0.5","0","s","NA","s","s","NA","s","579.8450889997184","NA","45439.24482300645","15815.772003028542","NA","579.8450889997184","2","psycho","1024","2","48000","-16","experiment","HHSHH","2","even","266623.7790840096","53835.86297300644","229041.9613189879","NA","246265.6816400122","8318.6730069865","257479.89764501108","NA","267673.82157201064","8359.455945988884","213223.443631985","NA","267780.16029301216","268362.59436799446","267664.48624100303","267779.88177599036","Flanker task","89","70814.99298181734","100","1024"
"89","89","706","706","black","psycho","psycho","psycho","incongruent","1","undefined","1","s","100","0","0","0","100","0","100","0","100","0","0","0","100","100","100","100","Thu Sep 21 16:15:19 2023","600","The main experiment item","True","Flankertask.osexp","/Users/xaleyelyse/Desktop","False","mono","False","18","no","white","no","yes","768","psycho","20","79","/Users/xaleyelyse/Desktop/xw-subject-2.csv","psycho","Melodramatic Milgram","4.0.5","0","s","NA","s","s","NA","s","572.8934639773797","NA","45439.24482300645","15815.772003028542","NA","572.8934639773797","2","psycho","1024","2","48000","-16","experiment","HHSHH","2","even","268371.111571003","53835.86297300644","229041.9613189879","NA","246265.6816400122","8318.6730069865","257479.89764501108","NA","269426.66566799744","8359.455945988884","213223.443631985","NA","269535.75318001094","270111.2969619862","269418.5203280067","269535.50131298834","Flanker task","90","71387.88644579472","101","1024"
"89","89","705","705","black","psycho","psycho","psycho","congruent","1","undefined","1","h","101","0","0","0","101","0","101","0","101","0","0","0","101","101","101","101","Thu Sep 21 16:15:19 2023","600","The main experiment item","True","Flankertask.osexp","/Users/xaleyelyse/Desktop","False","mono","False","18","no","white","no","yes","768","psycho","21","79","/Users/xaleyelyse/Desktop/xw-subject-2.csv","psycho","Melodramatic Milgram","4.0.5","0","h","NA","s","s","NA","h","546.8216599838343","NA","45439.24482300645","15815.772003028542","NA","546.8216599838343","2","psycho","1024","2","48000","-16","experiment","HHHHH","2","even","270116.45622199285","53835.86297300644","229041.9613189879","NA","246265.6816400122","8318.6730069865","257479.89764501108","NA","271167.7422620123","8359.455945988884","213223.443631985","NA","271273.68452301016","271822.942867002","271156.6858069855","271272.43820999865","Flanker task","91","71934.70810577855","102","1024"
"89","89","704","704","black","psycho","psycho","psycho","incongruent","1","undefined","1","h","102","0","0","0","102","0","102","0","102","0","0","0","102","102","102","102","Thu Sep 21 16:15:19 2023","600","The main experiment item","True","Flankertask.osexp","/Users/xaleyelyse/Desktop","False","mono","False","18","no","white","no","yes","768","psycho","22","79","/Users/xaleyelyse/Desktop/xw-subject-2.csv","psycho","Melodramatic Milgram","4.0.5","0","h","NA","s","s","NA","h","654.0198599977884","NA","45439.24482300645","15815.772003028542","NA","654.0198599977884","2","psycho","1024","2","48000","-16","experiment","SSHSS","2","even","271827.52159499796","53835.86297300644","229041.9613189879","NA","246265.6816400122","8318.6730069865","257479.89764501108","NA","272879.4773420086","8359.455945988884","213223.443631985","NA","272986.3946400001","273642.9794089927","272871.1323280004","272985.1432220021","Flanker task","92","72588.72796577634","103","1024"
"89","89","704","704","black","psycho","psycho","psycho","incongruent","1","undefined","1","s","103","0","0","0","103","0","103","0","103","0","0","0","103","103","103","103","Thu Sep 21 16:15:19 2023","600","The main experiment item","True","Flankertask.osexp","/Users/xaleyelyse/Desktop","False","mono","False","18","no","white","no","yes","768","psycho","23","79","/Users/xaleyelyse/Desktop/xw-subject-2.csv","psycho","Melodramatic Milgram","4.0.5","0","s","NA","s","s","NA","s","646.061451989226","NA","45439.24482300645","15815.772003028542","NA","646.061451989226","2","psycho","1024","2","48000","-16","experiment","HHSHH","2","even","274156.6821929882","53835.86297300644","229041.9613189879","NA","246265.6816400122","8318.6730069865","273652.03863798524","NA","275205.220525997","8359.455945988884","213223.443631985","NA","275312.2056279972","275961.0109310015","275196.7947779922","275311.8513080117","Flanker task","93","73234.78941776557","104","1024"
"89","89","703","703","black","psycho","psycho","psycho","congruent","1","undefined","1","h","104","0","0","0","104","0","104","0","104","0","0","0","104","104","104","104","Thu Sep 21 16:15:19 2023","600","The main experiment item","True","Flankertask.osexp","/Users/xaleyelyse/Desktop","False","mono","False","18","no","white","no","yes","768","psycho","24","79","/Users/xaleyelyse/Desktop/xw-subject-2.csv","psycho","Melodramatic Milgram","4.0.5","0","h","NA","s","s","NA","h","590.0089990173001","NA","45439.24482300645","15815.772003028542","NA","590.0089990173001","2","psycho","1024","2","48000","-16","experiment","HHHHH","2","even","276476.76158699323","53835.86297300644","229041.9613189879","NA","246265.6816400122","8318.6730069865","275970.44525199453","NA","277524.51427601045","8359.455945988884","213223.443631985","NA","277630.3547399875","278222.84492998733","277516.2063649914","277629.024777998","Flanker task","94","73824.79841678287","105","1024"
