acc,accuracy,average_response_time,avg_rt,background,canvas_backend,clock_backend,color_backend,condition,correct,correct_Instructions1,correct_keyboardresponse,correct_response,count_Block1,count_Block2,count_Block3,count_Finish,count_ISI,count_Instructions1,count_Instructions2,count_errorFeedback,count_experiment,count_faster,count_fixation,count_instructions3,count_keyboardresponse,count_logger,count_sequence,count_stimulus,datetime,deadline,description,disable_garbage_collection,experiment_file,experiment_path,font_bold,font_family,font_italic,font_size,font_underline,foreground,form_clicks,fullscreen,height,keyboard_backend,live_row,live_row_Block1,logfile,mouse_backend,opensesame_codename,opensesame_version,repeat_cycle,response,response_Finish,response_Instructions1,response_Instructions2,response_instructions3,response_keyboardresponse,response_time,response_time_Finish,response_time_Instructions1,response_time_Instructions2,response_time_instructions3,response_time_keyboardresponse,round_decimals,sampler_backend,sound_buf_size,sound_channels,sound_freq,sound_sample_size,start,stimulus,subject_nr,subject_parity,time_Block1,time_Block2,time_Block3,time_Finish,time_ISI,time_Instructions1,time_Instructions2,time_errorFeedback,time_experiment,time_faster,time_fixation,time_instructions3,time_keyboardresponse,time_logger,time_sequence,time_stimulus,title,total_correct,total_response_time,total_responses,width
100,100,830,830,#000000,legacy,legacy,legacy,congruent,1,undefined,1,h,0,0,0,0,0,0,0,0,0,0,0,0,0,0,0,0,Fri Sep 22 12:54:24 2023,1500,The main experiment item,FALSE,FlankerTaskLab21.osexp,C:\Users\katjo\OneDrive\Desktop,FALSE,mono,FALSE,18,no,white,no,yes,768,legacy,0,0,C:/Users/katjo/OneDrive/Desktop/KJ-subject-3 22F.csv,legacy,Melodramatic Milgram,4.0.5,0,h,NA,s,NA,NA,h,830,NA,43996,NA,NA,830,2,legacy,1024,2,48000,-16,experiment,HHHHH,3,odd,45984,NA,NA,NA,NA,1988,NA,NA,1985,NA,46074,NA,46174,47004,46073,46174,Flanker Task Lab 2.1,1,830,1,1024
100,100,670,670,#000000,legacy,legacy,legacy,congruent,1,undefined,1,s,0,0,0,0,1,0,0,1,0,1,1,0,1,1,1,1,Fri Sep 22 12:54:24 2023,1500,The main experiment item,FALSE,FlankerTaskLab21.osexp,C:\Users\katjo\OneDrive\Desktop,FALSE,mono,FALSE,18,no,white,no,yes,768,legacy,1,1,C:/Users/katjo/OneDrive/Desktop/KJ-subject-3 22F.csv,legacy,Melodramatic Milgram,4.0.5,0,s,NA,s,NA,NA,s,510,NA,43996,NA,NA,510,2,legacy,1024,2,48000,-16,experiment,SSSSS,3,odd,45984,NA,NA,NA,47013,1988,NA,NA,1985,NA,48034,NA,48134,48644,48033,48134,Flanker Task Lab 2.1,2,1340,2,1024
100,100,559,559,#000000,legacy,legacy,legacy,congruent,1,undefined,1,h,0,0,0,0,2,0,0,2,0,2,2,0,2,2,2,2,Fri Sep 22 12:54:24 2023,1500,The main experiment item,FALSE,FlankerTaskLab21.osexp,C:\Users\katjo\OneDrive\Desktop,FALSE,mono,FALSE,18,no,white,no,yes,768,legacy,2,2,C:/Users/katjo/OneDrive/Desktop/KJ-subject-3 22F.csv,legacy,Melodramatic Milgram,4.0.5,0,h,NA,s,NA,NA,h,338,NA,43996,NA,NA,338,2,legacy,1024,2,48000,-16,experiment,HHHHH,3,odd,45984,NA,NA,NA,48651,1988,NA,NA,1985,NA,49672,NA,49773,50112,49671,49773,Flanker Task Lab 2.1,3,1678,3,1024
100,100,487,487,#000000,legacy,legacy,legacy,incongruent,1,undefined,1,s,0,0,0,0,3,0,0,3,0,3,3,0,3,3,3,3,Fri Sep 22 12:54:24 2023,1500,The main experiment item,FALSE,FlankerTaskLab21.osexp,C:\Users\katjo\OneDrive\Desktop,FALSE,mono,FALSE,18,no,white,no,yes,768,legacy,3,3,C:/Users/katjo/OneDrive/Desktop/KJ-subject-3 22F.csv,legacy,Melodramatic Milgram,4.0.5,0,s,NA,s,NA,NA,s,271,NA,43996,NA,NA,271,2,legacy,1024,2,48000,-16,experiment,HHSHH,3,odd,45984,NA,NA,NA,50138,1988,NA,NA,1985,NA,51162,NA,51263,51535,51161,51262,Flanker Task Lab 2.1,4,1949,4,1024
100,100,505,505,#000000,legacy,legacy,legacy,congruent,1,undefined,1,h,0,0,0,0,4,0,0,4,0,4,4,0,4,4,4,4,Fri Sep 22 12:54:24 2023,1500,The main experiment item,FALSE,FlankerTaskLab21.osexp,C:\Users\katjo\OneDrive\Desktop,FALSE,mono,FALSE,18,no,white,no,yes,768,legacy,4,4,C:/Users/katjo/OneDrive/Desktop/KJ-subject-3 22F.csv,legacy,Melodramatic Milgram,4.0.5,0,h,NA,s,NA,NA,h,576,NA,43996,NA,NA,576,2,legacy,1024,2,48000,-16,experiment,HHHHH,3,odd,45984,NA,NA,NA,51541,1988,NA,NA,1985,NA,52563,NA,52663,53239,52562,52663,Flanker Task Lab 2.1,5,2525,5,1024
100,100,516,516,#000000,legacy,legacy,legacy,incongruent,1,undefined,1,h,0,0,0,0,5,0,0,5,0,5,5,0,5,5,5,5,Fri Sep 22 12:54:24 2023,1500,The main experiment item,FALSE,FlankerTaskLab21.osexp,C:\Users\katjo\OneDrive\Desktop,FALSE,mono,FALSE,18,no,white,no,yes,768,legacy,5,5,C:/Users/katjo/OneDrive/Desktop/KJ-subject-3 22F.csv,legacy,Melodramatic Milgram,4.0.5,0,h,NA,s,NA,NA,h,576,NA,43996,NA,NA,576,2,legacy,1024,2,48000,-16,experiment,SSHSS,3,odd,45984,NA,NA,NA,53246,1988,NA,NA,1985,NA,54289,NA,54390,54966,54288,54390,Flanker Task Lab 2.1,6,3101,6,1024
100,100,512,512,#000000,legacy,legacy,legacy,incongruent,1,undefined,1,s,0,0,0,0,6,0,0,6,0,6,6,0,6,6,6,6,Fri Sep 22 12:54:24 2023,1500,The main experiment item,FALSE,FlankerTaskLab21.osexp,C:\Users\katjo\OneDrive\Desktop,FALSE,mono,FALSE,18,no,white,no,yes,768,legacy,6,6,C:/Users/katjo/OneDrive/Desktop/KJ-subject-3 22F.csv,legacy,Melodramatic Milgram,4.0.5,0,s,NA,s,NA,NA,s,485,NA,43996,NA,NA,485,2,legacy,1024,2,48000,-16,experiment,HHSHH,3,odd,45984,NA,NA,NA,54993,1988,NA,NA,1985,NA,56014,NA,56114,56599,56013,56114,Flanker Task Lab 2.1,7,3586,7,1024
100,100,500,500,#000000,legacy,legacy,legacy,congruent,1,undefined,1,h,0,0,0,0,7,0,0,7,0,7,7,0,7,7,7,7,Fri Sep 22 12:54:24 2023,1500,The main experiment item,FALSE,FlankerTaskLab21.osexp,C:\Users\katjo\OneDrive\Desktop,FALSE,mono,FALSE,18,no,white,no,yes,768,legacy,7,7,C:/Users/katjo/OneDrive/Desktop/KJ-subject-3 22F.csv,legacy,Melodramatic Milgram,4.0.5,0,h,NA,s,NA,NA,h,419,NA,43996,NA,NA,419,2,legacy,1024,2,48000,-16,experiment,HHHHH,3,odd,45984,NA,NA,NA,56606,1988,NA,NA,1985,NA,57627,NA,57727,58146,57626,57727,Flanker Task Lab 2.1,8,4005,8,1024
100,100,499,499,#000000,legacy,legacy,legacy,incongruent,1,undefined,1,h,0,0,0,0,8,0,0,8,0,8,8,0,8,8,8,8,Fri Sep 22 12:54:24 2023,1500,The main experiment item,FALSE,FlankerTaskLab21.osexp,C:\Users\katjo\OneDrive\Desktop,FALSE,mono,FALSE,18,no,white,no,yes,768,legacy,8,8,C:/Users/katjo/OneDrive/Desktop/KJ-subject-3 22F.csv,legacy,Melodramatic Milgram,4.0.5,0,h,NA,s,NA,NA,h,494,NA,43996,NA,NA,494,2,legacy,1024,2,48000,-16,experiment,SSHSS,3,odd,45984,NA,NA,NA,58152,1988,NA,NA,1985,NA,59176,NA,59277,59772,59175,59277,Flanker Task Lab 2.1,9,4499,9,1024
100,100,487,487,#000000,legacy,legacy,legacy,congruent,1,undefined,1,s,0,0,0,0,9,0,0,9,0,9,9,0,9,9,9,9,Fri Sep 22 12:54:24 2023,1500,The main experiment item,FALSE,FlankerTaskLab21.osexp,C:\Users\katjo\OneDrive\Desktop,FALSE,mono,FALSE,18,no,white,no,yes,768,legacy,9,9,C:/Users/katjo/OneDrive/Desktop/KJ-subject-3 22F.csv,legacy,Melodramatic Milgram,4.0.5,0,s,NA,s,NA,NA,s,374,NA,43996,NA,NA,374,2,legacy,1024,2,48000,-16,experiment,SSSSS,3,odd,45984,NA,NA,NA,59779,1988,NA,NA,1985,NA,60801,NA,60902,61276,60800,60902,Flanker Task Lab 2.1,10,4873,10,1024
90,90,479,479,#000000,legacy,legacy,legacy,incongruent,0,undefined,0,s,0,0,0,0,10,0,0,10,0,10,10,0,10,10,10,10,Fri Sep 22 12:54:24 2023,1500,The main experiment item,FALSE,FlankerTaskLab21.osexp,C:\Users\katjo\OneDrive\Desktop,FALSE,mono,FALSE,18,no,white,no,yes,768,legacy,10,10,C:/Users/katjo/OneDrive/Desktop/KJ-subject-3 22F.csv,legacy,Melodramatic Milgram,4.0.5,0,h,NA,s,NA,NA,h,396,NA,43996,NA,NA,396,2,legacy,1024,2,48000,-16,experiment,HHSHH,3,odd,45984,NA,NA,NA,61303,1988,NA,NA,1985,NA,62346,NA,62447,62843,62345,62447,Flanker Task Lab 2.1,10,5269,11,1024
91,91,480,480,#000000,legacy,legacy,legacy,congruent,1,undefined,1,h,0,0,0,0,11,0,0,11,0,11,11,0,11,11,11,11,Fri Sep 22 12:54:24 2023,1500,The main experiment item,FALSE,FlankerTaskLab21.osexp,C:\Users\katjo\OneDrive\Desktop,FALSE,mono,FALSE,18,no,white,no,yes,768,legacy,11,11,C:/Users/katjo/OneDrive/Desktop/KJ-subject-3 22F.csv,legacy,Melodramatic Milgram,4.0.5,0,h,NA,s,NA,NA,h,494,NA,43996,NA,NA,494,2,legacy,1024,2,48000,-16,experiment,HHHHH,3,odd,45984,NA,NA,NA,63370,1988,NA,62870,1985,NA,64408,NA,64509,65004,64405,64509,Flanker Task Lab 2.1,11,5763,12,1024
92,92,478,478,#000000,legacy,legacy,legacy,incongruent,1,undefined,1,s,0,0,0,0,12,0,0,12,0,12,12,0,12,12,12,12,Fri Sep 22 12:54:24 2023,1500,The main experiment item,FALSE,FlankerTaskLab21.osexp,C:\Users\katjo\OneDrive\Desktop,FALSE,mono,FALSE,18,no,white,no,yes,768,legacy,12,12,C:/Users/katjo/OneDrive/Desktop/KJ-subject-3 22F.csv,legacy,Melodramatic Milgram,4.0.5,0,s,NA,s,NA,NA,s,453,NA,43996,NA,NA,453,2,legacy,1024,2,48000,-16,experiment,HHSHH,3,odd,45984,NA,NA,NA,65010,1988,NA,62870,1985,NA,66031,NA,66131,66584,66030,66131,Flanker Task Lab 2.1,12,6216,13,1024
92,92,472,472,#000000,legacy,legacy,legacy,incongruent,1,undefined,1,s,0,0,0,0,13,0,0,13,0,13,13,0,13,13,13,13,Fri Sep 22 12:54:24 2023,1500,The main experiment item,FALSE,FlankerTaskLab21.osexp,C:\Users\katjo\OneDrive\Desktop,FALSE,mono,FALSE,18,no,white,no,yes,768,legacy,13,13,C:/Users/katjo/OneDrive/Desktop/KJ-subject-3 22F.csv,legacy,Melodramatic Milgram,4.0.5,0,s,NA,s,NA,NA,s,395,NA,43996,NA,NA,395,2,legacy,1024,2,48000,-16,experiment,HHSHH,3,odd,45984,NA,NA,NA,66611,1988,NA,62870,1985,NA,67636,NA,67736,68131,67635,67736,Flanker Task Lab 2.1,13,6611,14,1024
93,93,471,471,#000000,legacy,legacy,legacy,incongruent,1,undefined,1,s,0,0,0,0,14,0,0,14,0,14,14,0,14,14,14,14,Fri Sep 22 12:54:24 2023,1500,The main experiment item,FALSE,FlankerTaskLab21.osexp,C:\Users\katjo\OneDrive\Desktop,FALSE,mono,FALSE,18,no,white,no,yes,768,legacy,14,14,C:/Users/katjo/OneDrive/Desktop/KJ-subject-3 22F.csv,legacy,Melodramatic Milgram,4.0.5,0,s,NA,s,NA,NA,s,459,NA,43996,NA,NA,459,2,legacy,1024,2,48000,-16,experiment,HHSHH,3,odd,45984,NA,NA,NA,68158,1988,NA,62870,1985,NA,69179,NA,69279,69739,69178,69279,Flanker Task Lab 2.1,14,7070,15,1024
93,93,466,466,#000000,legacy,legacy,legacy,congruent,1,undefined,1,s,0,0,0,0,15,0,0,15,0,15,15,0,15,15,15,15,Fri Sep 22 12:54:24 2023,1500,The main experiment item,FALSE,FlankerTaskLab21.osexp,C:\Users\katjo\OneDrive\Desktop,FALSE,mono,FALSE,18,no,white,no,yes,768,legacy,15,15,C:/Users/katjo/OneDrive/Desktop/KJ-subject-3 22F.csv,legacy,Melodramatic Milgram,4.0.5,0,s,NA,s,NA,NA,s,393,NA,43996,NA,NA,393,2,legacy,1024,2,48000,-16,experiment,SSSSS,3,odd,45984,NA,NA,NA,69745,1988,NA,62870,1985,NA,70774,NA,70874,71268,70773,70874,Flanker Task Lab 2.1,15,7463,16,1024
88,88,463,463,#000000,legacy,legacy,legacy,incongruent,0,undefined,0,h,0,0,0,0,16,0,0,16,0,16,16,0,16,16,16,16,Fri Sep 22 12:54:24 2023,1500,The main experiment item,FALSE,FlankerTaskLab21.osexp,C:\Users\katjo\OneDrive\Desktop,FALSE,mono,FALSE,18,no,white,no,yes,768,legacy,16,16,C:/Users/katjo/OneDrive/Desktop/KJ-subject-3 22F.csv,legacy,Melodramatic Milgram,4.0.5,0,s,NA,s,NA,NA,s,409,NA,43996,NA,NA,409,2,legacy,1024,2,48000,-16,experiment,SSHSS,3,odd,45984,NA,NA,NA,71271,1988,NA,62870,1985,NA,72293,NA,72393,72803,72292,72393,Flanker Task Lab 2.1,15,7872,17,1024
88,88,462,462,#000000,legacy,legacy,legacy,congruent,1,undefined,1,s,0,0,0,0,17,0,0,17,0,17,17,0,17,17,17,17,Fri Sep 22 12:54:24 2023,1500,The main experiment item,FALSE,FlankerTaskLab21.osexp,C:\Users\katjo\OneDrive\Desktop,FALSE,mono,FALSE,18,no,white,no,yes,768,legacy,17,17,C:/Users/katjo/OneDrive/Desktop/KJ-subject-3 22F.csv,legacy,Melodramatic Milgram,4.0.5,0,s,NA,s,NA,NA,s,454,NA,43996,NA,NA,454,2,legacy,1024,2,48000,-16,experiment,SSSSS,3,odd,45984,NA,NA,NA,73305,1988,NA,72805,1985,NA,74336,NA,74437,74891,74335,74437,Flanker Task Lab 2.1,16,8326,18,1024
89,89,466,466,#000000,legacy,legacy,legacy,incongruent,1,undefined,1,s,0,0,0,0,18,0,0,18,0,18,18,0,18,18,18,18,Fri Sep 22 12:54:24 2023,1500,The main experiment item,FALSE,FlankerTaskLab21.osexp,C:\Users\katjo\OneDrive\Desktop,FALSE,mono,FALSE,18,no,white,no,yes,768,legacy,18,18,C:/Users/katjo/OneDrive/Desktop/KJ-subject-3 22F.csv,legacy,Melodramatic Milgram,4.0.5,0,s,NA,s,NA,NA,s,533,NA,43996,NA,NA,533,2,legacy,1024,2,48000,-16,experiment,HHSHH,3,odd,45984,NA,NA,NA,74895,1988,NA,72805,1985,NA,75916,NA,76016,76549,75915,76016,Flanker Task Lab 2.1,17,8859,19,1024
90,90,463,463,#000000,legacy,legacy,legacy,congruent,1,undefined,1,s,0,0,0,0,19,0,0,19,0,19,19,0,19,19,19,19,Fri Sep 22 12:54:24 2023,1500,The main experiment item,FALSE,FlankerTaskLab21.osexp,C:\Users\katjo\OneDrive\Desktop,FALSE,mono,FALSE,18,no,white,no,yes,768,legacy,19,19,C:/Users/katjo/OneDrive/Desktop/KJ-subject-3 22F.csv,legacy,Melodramatic Milgram,4.0.5,0,s,NA,s,NA,NA,s,418,NA,43996,NA,NA,418,2,legacy,1024,2,48000,-16,experiment,SSSSS,3,odd,45984,NA,NA,NA,76553,1988,NA,72805,1985,NA,77578,NA,77678,78096,77578,77678,Flanker Task Lab 2.1,18,9277,20,1024
90,90,459,459,#000000,legacy,legacy,legacy,congruent,1,undefined,1,s,0,0,0,0,20,0,0,20,0,20,20,0,20,20,20,20,Fri Sep 22 12:54:24 2023,1500,The main experiment item,FALSE,FlankerTaskLab21.osexp,C:\Users\katjo\OneDrive\Desktop,FALSE,mono,FALSE,18,no,white,no,yes,768,legacy,20,20,C:/Users/katjo/OneDrive/Desktop/KJ-subject-3 22F.csv,legacy,Melodramatic Milgram,4.0.5,0,s,NA,s,NA,NA,s,375,NA,43996,NA,NA,375,2,legacy,1024,2,48000,-16,experiment,SSSSS,3,odd,45984,NA,NA,NA,78100,1988,NA,72805,1985,NA,79131,NA,79232,79608,79130,79232,Flanker Task Lab 2.1,19,9652,21,1024
90,90,456,456,#000000,legacy,legacy,legacy,congruent,1,undefined,1,h,0,0,0,0,21,0,0,21,0,21,21,0,21,21,21,21,Fri Sep 22 12:54:24 2023,1500,The main experiment item,FALSE,FlankerTaskLab21.osexp,C:\Users\katjo\OneDrive\Desktop,FALSE,mono,FALSE,18,no,white,no,yes,768,legacy,21,21,C:/Users/katjo/OneDrive/Desktop/KJ-subject-3 22F.csv,legacy,Melodramatic Milgram,4.0.5,0,h,NA,s,NA,NA,h,390,NA,43996,NA,NA,390,2,legacy,1024,2,48000,-16,experiment,HHHHH,3,odd,45984,NA,NA,NA,79610,1988,NA,72805,1985,NA,80630,NA,80731,81124,80629,80731,Flanker Task Lab 2.1,20,10042,22,1024
91,91,455,455,#000000,legacy,legacy,legacy,incongruent,1,undefined,1,h,0,0,0,0,22,0,0,22,0,22,22,0,22,22,22,22,Fri Sep 22 12:54:24 2023,1500,The main experiment item,FALSE,FlankerTaskLab21.osexp,C:\Users\katjo\OneDrive\Desktop,FALSE,mono,FALSE,18,no,white,no,yes,768,legacy,22,22,C:/Users/katjo/OneDrive/Desktop/KJ-subject-3 22F.csv,legacy,Melodramatic Milgram,4.0.5,0,h,NA,s,NA,NA,h,435,NA,43996,NA,NA,435,2,legacy,1024,2,48000,-16,experiment,SSHSS,3,odd,45984,NA,NA,NA,81131,1988,NA,72805,1985,NA,82156,NA,82257,82693,82155,82257,Flanker Task Lab 2.1,21,10477,23,1024
91,91,456,456,#000000,legacy,legacy,legacy,congruent,1,undefined,1,s,0,0,0,0,23,0,0,23,0,23,23,0,23,23,23,23,Fri Sep 22 12:54:24 2023,1500,The main experiment item,FALSE,FlankerTaskLab21.osexp,C:\Users\katjo\OneDrive\Desktop,FALSE,mono,FALSE,18,no,white,no,yes,768,legacy,23,23,C:/Users/katjo/OneDrive/Desktop/KJ-subject-3 22F.csv,legacy,Melodramatic Milgram,4.0.5,0,s,NA,s,NA,NA,s,478,NA,43996,NA,NA,478,2,legacy,1024,2,48000,-16,experiment,SSSSS,3,odd,45984,NA,NA,NA,82699,1988,NA,72805,1985,NA,83722,NA,83822,84300,83720,83822,Flanker Task Lab 2.1,22,10955,24,1024
92,92,452,452,#000000,legacy,legacy,legacy,congruent,1,undefined,1,h,0,0,0,0,24,0,0,24,0,24,24,0,24,24,24,24,Fri Sep 22 12:54:24 2023,1500,The main experiment item,FALSE,FlankerTaskLab21.osexp,C:\Users\katjo\OneDrive\Desktop,FALSE,mono,FALSE,18,no,white,no,yes,768,legacy,24,24,C:/Users/katjo/OneDrive/Desktop/KJ-subject-3 22F.csv,legacy,Melodramatic Milgram,4.0.5,0,h,NA,s,NA,NA,h,369,NA,43996,NA,NA,369,2,legacy,1024,2,48000,-16,experiment,HHHHH,3,odd,45984,NA,NA,NA,84307,1988,NA,72805,1985,NA,85346,NA,85447,85816,85345,85447,Flanker Task Lab 2.1,23,11324,25,1024
92,92,452,452,#000000,legacy,legacy,legacy,incongruent,1,undefined,1,h,0,0,0,0,25,0,0,25,0,25,25,0,25,25,25,25,Fri Sep 22 12:54:24 2023,1500,The main experiment item,FALSE,FlankerTaskLab21.osexp,C:\Users\katjo\OneDrive\Desktop,FALSE,mono,FALSE,18,no,white,no,yes,768,legacy,25,25,C:/Users/katjo/OneDrive/Desktop/KJ-subject-3 22F.csv,legacy,Melodramatic Milgram,4.0.5,0,h,NA,s,NA,NA,h,436,NA,43996,NA,NA,436,2,legacy,1024,2,48000,-16,experiment,SSHSS,3,odd,45984,NA,NA,NA,85844,1988,NA,72805,1985,NA,86875,NA,86976,87412,86874,86976,Flanker Task Lab 2.1,24,11760,26,1024
92,92,451,451,#000000,legacy,legacy,legacy,incongruent,1,undefined,1,h,0,0,0,0,26,0,0,26,0,26,26,0,26,26,26,26,Fri Sep 22 12:54:24 2023,1500,The main experiment item,FALSE,FlankerTaskLab21.osexp,C:\Users\katjo\OneDrive\Desktop,FALSE,mono,FALSE,18,no,white,no,yes,768,legacy,26,26,C:/Users/katjo/OneDrive/Desktop/KJ-subject-3 22F.csv,legacy,Melodramatic Milgram,4.0.5,0,h,NA,s,NA,NA,h,431,NA,43996,NA,NA,431,2,legacy,1024,2,48000,-16,experiment,SSHSS,3,odd,45984,NA,NA,NA,87439,1988,NA,72805,1985,NA,88466,NA,88566,88997,88466,88566,Flanker Task Lab 2.1,25,12191,27,1024
92,92,449,449,#000000,legacy,legacy,legacy,congruent,1,undefined,1,h,0,0,0,0,27,0,0,27,0,27,27,0,27,27,27,27,Fri Sep 22 12:54:24 2023,1500,The main experiment item,FALSE,FlankerTaskLab21.osexp,C:\Users\katjo\OneDrive\Desktop,FALSE,mono,FALSE,18,no,white,no,yes,768,legacy,27,27,C:/Users/katjo/OneDrive/Desktop/KJ-subject-3 22F.csv,legacy,Melodramatic Milgram,4.0.5,0,h,NA,s,NA,NA,h,402,NA,43996,NA,NA,402,2,legacy,1024,2,48000,-16,experiment,HHHHH,3,odd,45984,NA,NA,NA,89004,1988,NA,72805,1985,NA,90026,NA,90127,90529,90025,90127,Flanker Task Lab 2.1,26,12593,28,1024
93,93,444,444,#000000,legacy,legacy,legacy,congruent,1,undefined,1,s,0,0,0,0,28,0,0,28,0,28,28,0,28,28,28,28,Fri Sep 22 12:54:24 2023,1500,The main experiment item,FALSE,FlankerTaskLab21.osexp,C:\Users\katjo\OneDrive\Desktop,FALSE,mono,FALSE,18,no,white,no,yes,768,legacy,28,28,C:/Users/katjo/OneDrive/Desktop/KJ-subject-3 22F.csv,legacy,Melodramatic Milgram,4.0.5,0,s,NA,s,NA,NA,s,296,NA,43996,NA,NA,296,2,legacy,1024,2,48000,-16,experiment,SSSSS,3,odd,45984,NA,NA,NA,90531,1988,NA,72805,1985,NA,91554,NA,91655,91952,91553,91655,Flanker Task Lab 2.1,27,12889,29,1024
93,93,443,443,#000000,legacy,legacy,legacy,incongruent,1,undefined,1,h,0,0,0,0,29,0,0,29,0,29,29,0,29,29,29,29,Fri Sep 22 12:54:24 2023,1500,The main experiment item,FALSE,FlankerTaskLab21.osexp,C:\Users\katjo\OneDrive\Desktop,FALSE,mono,FALSE,18,no,white,no,yes,768,legacy,29,29,C:/Users/katjo/OneDrive/Desktop/KJ-subject-3 22F.csv,legacy,Melodramatic Milgram,4.0.5,0,h,NA,s,NA,NA,h,430,NA,43996,NA,NA,430,2,legacy,1024,2,48000,-16,experiment,SSHSS,3,odd,45984,NA,NA,NA,91958,1988,NA,72805,1985,NA,92981,NA,93082,93512,92980,93082,Flanker Task Lab 2.1,28,13319,30,1024
93,93,441,441,#000000,legacy,legacy,legacy,congruent,1,undefined,1,h,0,0,0,0,30,0,0,30,0,30,30,0,30,30,30,30,Fri Sep 22 12:54:24 2023,1500,The main experiment item,FALSE,FlankerTaskLab21.osexp,C:\Users\katjo\OneDrive\Desktop,FALSE,mono,FALSE,18,no,white,no,yes,768,legacy,30,30,C:/Users/katjo/OneDrive/Desktop/KJ-subject-3 22F.csv,legacy,Melodramatic Milgram,4.0.5,0,h,NA,s,NA,NA,h,375,NA,43996,NA,NA,375,2,legacy,1024,2,48000,-16,experiment,HHHHH,3,odd,45984,NA,NA,NA,93539,1988,NA,72805,1985,NA,94563,NA,94663,95039,94562,94663,Flanker Task Lab 2.1,29,13694,31,1024
93,93,443,443,#000000,legacy,legacy,legacy,incongruent,1,undefined,1,s,0,0,0,0,31,0,0,31,0,31,31,0,31,31,31,31,Fri Sep 22 12:54:24 2023,1500,The main experiment item,FALSE,FlankerTaskLab21.osexp,C:\Users\katjo\OneDrive\Desktop,FALSE,mono,FALSE,18,no,white,no,yes,768,legacy,31,31,C:/Users/katjo/OneDrive/Desktop/KJ-subject-3 22F.csv,legacy,Melodramatic Milgram,4.0.5,0,s,NA,s,NA,NA,s,504,NA,43996,NA,NA,504,2,legacy,1024,2,48000,-16,experiment,HHSHH,3,odd,45984,NA,NA,NA,95065,1988,NA,72805,1985,NA,96107,NA,96208,96713,96106,96208,Flanker Task Lab 2.1,30,14198,32,1024
93,93,444,444,#000000,legacy,legacy,legacy,incongruent,1,undefined,1,h,0,0,0,0,32,0,0,32,0,32,32,0,32,32,32,32,Fri Sep 22 12:54:24 2023,1500,The main experiment item,FALSE,FlankerTaskLab21.osexp,C:\Users\katjo\OneDrive\Desktop,FALSE,mono,FALSE,18,no,white,no,yes,768,legacy,32,32,C:/Users/katjo/OneDrive/Desktop/KJ-subject-3 22F.csv,legacy,Melodramatic Milgram,4.0.5,0,h,NA,s,NA,NA,h,470,NA,43996,NA,NA,470,2,legacy,1024,2,48000,-16,experiment,SSHSS,3,odd,45984,NA,NA,NA,96739,1988,NA,72805,1985,NA,97762,NA,97863,98334,97762,97862,Flanker Task Lab 2.1,31,14668,33,1024
94,94,444,444,#000000,legacy,legacy,legacy,congruent,1,undefined,1,s,0,0,0,0,33,0,0,33,0,33,33,0,33,33,33,33,Fri Sep 22 12:54:24 2023,1500,The main experiment item,FALSE,FlankerTaskLab21.osexp,C:\Users\katjo\OneDrive\Desktop,FALSE,mono,FALSE,18,no,white,no,yes,768,legacy,33,33,C:/Users/katjo/OneDrive/Desktop/KJ-subject-3 22F.csv,legacy,Melodramatic Milgram,4.0.5,0,s,NA,s,NA,NA,s,459,NA,43996,NA,NA,459,2,legacy,1024,2,48000,-16,experiment,SSSSS,3,odd,45984,NA,NA,NA,98360,1988,NA,72805,1985,NA,99383,NA,99484,99943,99382,99484,Flanker Task Lab 2.1,32,15127,34,1024
94,94,445,445,#000000,legacy,legacy,legacy,congruent,1,undefined,1,h,0,0,0,0,34,0,0,34,0,34,34,0,34,34,34,34,Fri Sep 22 12:54:24 2023,1500,The main experiment item,FALSE,FlankerTaskLab21.osexp,C:\Users\katjo\OneDrive\Desktop,FALSE,mono,FALSE,18,no,white,no,yes,768,legacy,34,34,C:/Users/katjo/OneDrive/Desktop/KJ-subject-3 22F.csv,legacy,Melodramatic Milgram,4.0.5,0,h,NA,s,NA,NA,h,482,NA,43996,NA,NA,482,2,legacy,1024,2,48000,-16,experiment,HHHHH,3,odd,45984,NA,NA,NA,99970,1988,NA,72805,1985,NA,100993,NA,101093,101575,100992,101093,Flanker Task Lab 2.1,33,15609,35,1024
94,94,445,445,#000000,legacy,legacy,legacy,congruent,1,undefined,1,h,0,0,0,0,35,0,0,35,0,35,35,0,35,35,35,35,Fri Sep 22 12:54:24 2023,1500,The main experiment item,FALSE,FlankerTaskLab21.osexp,C:\Users\katjo\OneDrive\Desktop,FALSE,mono,FALSE,18,no,white,no,yes,768,legacy,35,35,C:/Users/katjo/OneDrive/Desktop/KJ-subject-3 22F.csv,legacy,Melodramatic Milgram,4.0.5,0,h,NA,s,NA,NA,h,438,NA,43996,NA,NA,438,2,legacy,1024,2,48000,-16,experiment,HHHHH,3,odd,45984,NA,NA,NA,101603,1988,NA,72805,1985,NA,102632,NA,102733,103171,102630,102733,Flanker Task Lab 2.1,34,16047,36,1024
94,94,445,445,#000000,legacy,legacy,legacy,incongruent,1,undefined,1,s,0,0,0,0,36,0,0,36,0,36,36,0,36,36,36,36,Fri Sep 22 12:54:24 2023,1500,The main experiment item,FALSE,FlankerTaskLab21.osexp,C:\Users\katjo\OneDrive\Desktop,FALSE,mono,FALSE,18,no,white,no,yes,768,legacy,36,36,C:/Users/katjo/OneDrive/Desktop/KJ-subject-3 22F.csv,legacy,Melodramatic Milgram,4.0.5,0,s,NA,s,NA,NA,s,454,NA,43996,NA,NA,454,2,legacy,1024,2,48000,-16,experiment,HHSHH,3,odd,45984,NA,NA,NA,103199,1988,NA,72805,1985,NA,104224,NA,104324,104779,104223,104324,Flanker Task Lab 2.1,35,16501,37,1024
94,94,446,446,#000000,legacy,legacy,legacy,incongruent,1,undefined,1,s,0,0,0,0,37,0,0,37,0,37,37,0,37,37,37,37,Fri Sep 22 12:54:24 2023,1500,The main experiment item,FALSE,FlankerTaskLab21.osexp,C:\Users\katjo\OneDrive\Desktop,FALSE,mono,FALSE,18,no,white,no,yes,768,legacy,37,37,C:/Users/katjo/OneDrive/Desktop/KJ-subject-3 22F.csv,legacy,Melodramatic Milgram,4.0.5,0,s,NA,s,NA,NA,s,478,NA,43996,NA,NA,478,2,legacy,1024,2,48000,-16,experiment,HHSHH,3,odd,45984,NA,NA,NA,104805,1988,NA,72805,1985,NA,105827,NA,105928,106407,105826,105928,Flanker Task Lab 2.1,36,16979,38,1024
94,94,446,446,#000000,legacy,legacy,legacy,congruent,1,undefined,1,h,0,0,0,0,38,0,0,38,0,38,38,0,38,38,38,38,Fri Sep 22 12:54:24 2023,1500,The main experiment item,FALSE,FlankerTaskLab21.osexp,C:\Users\katjo\OneDrive\Desktop,FALSE,mono,FALSE,18,no,white,no,yes,768,legacy,38,38,C:/Users/katjo/OneDrive/Desktop/KJ-subject-3 22F.csv,legacy,Melodramatic Milgram,4.0.5,0,h,NA,s,NA,NA,h,453,NA,43996,NA,NA,453,2,legacy,1024,2,48000,-16,experiment,HHHHH,3,odd,45984,NA,NA,NA,106433,1988,NA,72805,1985,NA,107456,NA,107556,108010,107455,107556,Flanker Task Lab 2.1,37,17432,39,1024
95,95,447,447,#000000,legacy,legacy,legacy,congruent,1,undefined,1,s,0,0,0,0,39,0,0,39,0,39,39,0,39,39,39,39,Fri Sep 22 12:54:24 2023,1500,The main experiment item,FALSE,FlankerTaskLab21.osexp,C:\Users\katjo\OneDrive\Desktop,FALSE,mono,FALSE,18,no,white,no,yes,768,legacy,39,39,C:/Users/katjo/OneDrive/Desktop/KJ-subject-3 22F.csv,legacy,Melodramatic Milgram,4.0.5,0,s,NA,s,NA,NA,s,449,NA,43996,NA,NA,449,2,legacy,1024,2,48000,-16,experiment,SSSSS,3,odd,45984,NA,NA,NA,108017,1988,NA,72805,1985,NA,109040,NA,109141,109590,109039,109141,Flanker Task Lab 2.1,38,17881,40,1024
95,95,449,449,#000000,legacy,legacy,legacy,incongruent,1,undefined,1,s,0,0,0,0,40,0,0,40,0,40,40,0,40,40,40,40,Fri Sep 22 12:54:24 2023,1500,The main experiment item,FALSE,FlankerTaskLab21.osexp,C:\Users\katjo\OneDrive\Desktop,FALSE,mono,FALSE,18,no,white,no,yes,768,legacy,40,40,C:/Users/katjo/OneDrive/Desktop/KJ-subject-3 22F.csv,legacy,Melodramatic Milgram,4.0.5,0,s,NA,s,NA,NA,s,558,NA,43996,NA,NA,558,2,legacy,1024,2,48000,-16,experiment,HHSHH,3,odd,45984,NA,NA,NA,109592,1988,NA,72805,1985,NA,110634,NA,110735,111293,110633,110735,Flanker Task Lab 2.1,39,18439,41,1024
95,95,449,449,#000000,legacy,legacy,legacy,incongruent,1,undefined,1,s,0,0,0,0,41,0,0,41,0,41,41,0,41,41,41,41,Fri Sep 22 12:54:24 2023,1500,The main experiment item,FALSE,FlankerTaskLab21.osexp,C:\Users\katjo\OneDrive\Desktop,FALSE,mono,FALSE,18,no,white,no,yes,768,legacy,41,41,C:/Users/katjo/OneDrive/Desktop/KJ-subject-3 22F.csv,legacy,Melodramatic Milgram,4.0.5,0,s,NA,s,NA,NA,s,444,NA,43996,NA,NA,444,2,legacy,1024,2,48000,-16,experiment,HHSHH,3,odd,45984,NA,NA,NA,111320,1988,NA,72805,1985,NA,112349,NA,112450,112894,112348,112450,Flanker Task Lab 2.1,40,18883,42,1024
95,95,459,459,#000000,legacy,legacy,legacy,congruent,1,undefined,1,s,0,0,0,0,42,0,0,42,0,42,42,0,42,42,42,42,Fri Sep 22 12:54:24 2023,1500,The main experiment item,FALSE,FlankerTaskLab21.osexp,C:\Users\katjo\OneDrive\Desktop,FALSE,mono,FALSE,18,no,white,no,yes,768,legacy,42,42,C:/Users/katjo/OneDrive/Desktop/KJ-subject-3 22F.csv,legacy,Melodramatic Milgram,4.0.5,0,s,NA,s,NA,NA,s,884,NA,43996,NA,NA,884,2,legacy,1024,2,48000,-16,experiment,SSSSS,3,odd,45984,NA,NA,NA,112901,1988,NA,72805,1985,NA,113921,NA,114022,114907,113920,114022,Flanker Task Lab 2.1,41,19767,43,1024
95,95,459,459,#000000,legacy,legacy,legacy,congruent,1,undefined,1,h,0,0,0,0,43,0,0,43,0,43,43,0,43,43,43,43,Fri Sep 22 12:54:24 2023,1500,The main experiment item,FALSE,FlankerTaskLab21.osexp,C:\Users\katjo\OneDrive\Desktop,FALSE,mono,FALSE,18,no,white,no,yes,768,legacy,43,43,C:/Users/katjo/OneDrive/Desktop/KJ-subject-3 22F.csv,legacy,Melodramatic Milgram,4.0.5,0,h,NA,s,NA,NA,h,442,NA,43996,NA,NA,442,2,legacy,1024,2,48000,-16,experiment,HHHHH,3,odd,45984,NA,NA,NA,114934,1988,NA,72805,1985,NA,115957,NA,116058,116501,115956,116058,Flanker Task Lab 2.1,42,20209,44,1024
95,95,459,459,#000000,legacy,legacy,legacy,incongruent,1,undefined,1,s,0,0,0,0,44,0,0,44,0,44,44,0,44,44,44,44,Fri Sep 22 12:54:24 2023,1500,The main experiment item,FALSE,FlankerTaskLab21.osexp,C:\Users\katjo\OneDrive\Desktop,FALSE,mono,FALSE,18,no,white,no,yes,768,legacy,44,44,C:/Users/katjo/OneDrive/Desktop/KJ-subject-3 22F.csv,legacy,Melodramatic Milgram,4.0.5,0,s,NA,s,NA,NA,s,471,NA,43996,NA,NA,471,2,legacy,1024,2,48000,-16,experiment,HHSHH,3,odd,45984,NA,NA,NA,116504,1988,NA,72805,1985,NA,117532,NA,117633,118105,117531,117633,Flanker Task Lab 2.1,43,20680,45,1024
95,95,460,460,#000000,legacy,legacy,legacy,incongruent,1,undefined,1,h,0,0,0,0,45,0,0,45,0,45,45,0,45,45,45,45,Fri Sep 22 12:54:24 2023,1500,The main experiment item,FALSE,FlankerTaskLab21.osexp,C:\Users\katjo\OneDrive\Desktop,FALSE,mono,FALSE,18,no,white,no,yes,768,legacy,45,45,C:/Users/katjo/OneDrive/Desktop/KJ-subject-3 22F.csv,legacy,Melodramatic Milgram,4.0.5,0,h,NA,s,NA,NA,h,522,NA,43996,NA,NA,522,2,legacy,1024,2,48000,-16,experiment,SSHSS,3,odd,45984,NA,NA,NA,118111,1988,NA,72805,1985,NA,119133,NA,119234,119756,119132,119234,Flanker Task Lab 2.1,44,21202,46,1024
95,95,458,458,#000000,legacy,legacy,legacy,congruent,1,undefined,1,h,0,0,0,0,46,0,0,46,0,46,46,0,46,46,46,46,Fri Sep 22 12:54:24 2023,1500,The main experiment item,FALSE,FlankerTaskLab21.osexp,C:\Users\katjo\OneDrive\Desktop,FALSE,mono,FALSE,18,no,white,no,yes,768,legacy,46,46,C:/Users/katjo/OneDrive/Desktop/KJ-subject-3 22F.csv,legacy,Melodramatic Milgram,4.0.5,0,h,NA,s,NA,NA,h,361,NA,43996,NA,NA,361,2,legacy,1024,2,48000,-16,experiment,HHHHH,3,odd,45984,NA,NA,NA,119760,1988,NA,72805,1985,NA,120784,NA,120884,121245,120783,120884,Flanker Task Lab 2.1,45,21563,47,1024
95,95,458,458,#000000,legacy,legacy,legacy,incongruent,1,undefined,1,h,0,0,0,0,47,0,0,47,0,47,47,0,47,47,47,47,Fri Sep 22 12:54:24 2023,1500,The main experiment item,FALSE,FlankerTaskLab21.osexp,C:\Users\katjo\OneDrive\Desktop,FALSE,mono,FALSE,18,no,white,no,yes,768,legacy,47,47,C:/Users/katjo/OneDrive/Desktop/KJ-subject-3 22F.csv,legacy,Melodramatic Milgram,4.0.5,0,h,NA,s,NA,NA,h,429,NA,43996,NA,NA,429,2,legacy,1024,2,48000,-16,experiment,SSHSS,3,odd,45984,NA,NA,NA,121272,1988,NA,72805,1985,NA,122309,NA,122409,122838,122308,122409,Flanker Task Lab 2.1,46,21992,48,1024
95,95,458,458,#000000,legacy,legacy,legacy,congruent,1,undefined,1,s,0,0,0,0,48,0,0,48,0,48,48,0,48,48,48,48,Fri Sep 22 12:54:24 2023,1500,The main experiment item,FALSE,FlankerTaskLab21.osexp,C:\Users\katjo\OneDrive\Desktop,FALSE,mono,FALSE,18,no,white,no,yes,768,legacy,48,48,C:/Users/katjo/OneDrive/Desktop/KJ-subject-3 22F.csv,legacy,Melodramatic Milgram,4.0.5,0,s,NA,s,NA,NA,s,497,NA,43996,NA,NA,497,2,legacy,1024,2,48000,-16,experiment,SSSSS,3,odd,45984,NA,NA,NA,122844,1988,NA,72805,1985,NA,123870,NA,123971,124469,123869,123971,Flanker Task Lab 2.1,47,22489,49,1024
96,96,458,458,#000000,legacy,legacy,legacy,incongruent,1,undefined,1,h,0,0,0,0,49,0,0,49,0,49,49,0,49,49,49,49,Fri Sep 22 12:54:24 2023,1500,The main experiment item,FALSE,FlankerTaskLab21.osexp,C:\Users\katjo\OneDrive\Desktop,FALSE,mono,FALSE,18,no,white,no,yes,768,legacy,49,49,C:/Users/katjo/OneDrive/Desktop/KJ-subject-3 22F.csv,legacy,Melodramatic Milgram,4.0.5,0,h,NA,s,NA,NA,h,439,NA,43996,NA,NA,439,2,legacy,1024,2,48000,-16,experiment,SSHSS,3,odd,45984,NA,NA,NA,124495,1988,NA,72805,1985,NA,125539,NA,125640,126079,125538,125640,Flanker Task Lab 2.1,48,22928,50,1024
96,96,459,459,#000000,legacy,legacy,legacy,incongruent,1,undefined,1,s,0,0,0,0,50,0,0,50,0,50,50,0,50,50,50,50,Fri Sep 22 12:54:24 2023,1500,The main experiment item,FALSE,FlankerTaskLab21.osexp,C:\Users\katjo\OneDrive\Desktop,FALSE,mono,FALSE,18,no,white,no,yes,768,legacy,50,50,C:/Users/katjo/OneDrive/Desktop/KJ-subject-3 22F.csv,legacy,Melodramatic Milgram,4.0.5,0,s,NA,s,NA,NA,s,512,NA,43996,NA,NA,512,2,legacy,1024,2,48000,-16,experiment,HHSHH,3,odd,45984,NA,NA,NA,126086,1988,NA,72805,1985,NA,127116,NA,127217,127730,127115,127217,Flanker Task Lab 2.1,49,23440,51,1024
96,96,462,462,#000000,legacy,legacy,legacy,incongruent,1,undefined,1,s,0,0,0,0,51,0,0,51,0,51,51,0,51,51,51,51,Fri Sep 22 12:54:24 2023,1500,The main experiment item,FALSE,FlankerTaskLab21.osexp,C:\Users\katjo\OneDrive\Desktop,FALSE,mono,FALSE,18,no,white,no,yes,768,legacy,51,51,C:/Users/katjo/OneDrive/Desktop/KJ-subject-3 22F.csv,legacy,Melodramatic Milgram,4.0.5,0,s,NA,s,NA,NA,s,602,NA,43996,NA,NA,602,2,legacy,1024,2,48000,-16,experiment,HHSHH,3,odd,45984,NA,NA,NA,127736,1988,NA,72805,1985,NA,128756,NA,128857,129460,128755,128857,Flanker Task Lab 2.1,50,24042,52,1024
96,96,462,462,#000000,legacy,legacy,legacy,congruent,1,undefined,1,h,0,0,0,0,52,0,0,52,0,52,52,0,52,52,52,52,Fri Sep 22 12:54:24 2023,1500,The main experiment item,FALSE,FlankerTaskLab21.osexp,C:\Users\katjo\OneDrive\Desktop,FALSE,mono,FALSE,18,no,white,no,yes,768,legacy,52,52,C:/Users/katjo/OneDrive/Desktop/KJ-subject-3 22F.csv,legacy,Melodramatic Milgram,4.0.5,0,h,NA,s,NA,NA,h,449,NA,43996,NA,NA,449,2,legacy,1024,2,48000,-16,experiment,HHHHH,3,odd,45984,NA,NA,NA,129486,1988,NA,72805,1985,NA,130508,NA,130609,131058,130507,130609,Flanker Task Lab 2.1,51,24491,53,1024
96,96,463,463,#000000,legacy,legacy,legacy,incongruent,1,undefined,1,h,0,0,0,0,53,0,0,53,0,53,53,0,53,53,53,53,Fri Sep 22 12:54:24 2023,1500,The main experiment item,FALSE,FlankerTaskLab21.osexp,C:\Users\katjo\OneDrive\Desktop,FALSE,mono,FALSE,18,no,white,no,yes,768,legacy,53,53,C:/Users/katjo/OneDrive/Desktop/KJ-subject-3 22F.csv,legacy,Melodramatic Milgram,4.0.5,0,h,NA,s,NA,NA,h,538,NA,43996,NA,NA,538,2,legacy,1024,2,48000,-16,experiment,SSHSS,3,odd,45984,NA,NA,NA,131065,1988,NA,72805,1985,NA,132094,NA,132195,132734,132093,132195,Flanker Task Lab 2.1,52,25029,54,1024
96,96,463,463,#000000,legacy,legacy,legacy,congruent,1,undefined,1,s,0,0,0,0,54,0,0,54,0,54,54,0,54,54,54,54,Fri Sep 22 12:54:24 2023,1500,The main experiment item,FALSE,FlankerTaskLab21.osexp,C:\Users\katjo\OneDrive\Desktop,FALSE,mono,FALSE,18,no,white,no,yes,768,legacy,54,54,C:/Users/katjo/OneDrive/Desktop/KJ-subject-3 22F.csv,legacy,Melodramatic Milgram,4.0.5,0,s,NA,s,NA,NA,s,438,NA,43996,NA,NA,438,2,legacy,1024,2,48000,-16,experiment,SSSSS,3,odd,45984,NA,NA,NA,132739,1988,NA,72805,1985,NA,133761,NA,133862,134300,133760,133862,Flanker Task Lab 2.1,53,25467,55,1024
96,96,462,462,#000000,legacy,legacy,legacy,incongruent,1,undefined,1,h,0,0,0,0,55,0,0,55,0,55,55,0,55,55,55,55,Fri Sep 22 12:54:24 2023,1500,The main experiment item,FALSE,FlankerTaskLab21.osexp,C:\Users\katjo\OneDrive\Desktop,FALSE,mono,FALSE,18,no,white,no,yes,768,legacy,55,55,C:/Users/katjo/OneDrive/Desktop/KJ-subject-3 22F.csv,legacy,Melodramatic Milgram,4.0.5,0,h,NA,s,NA,NA,h,456,NA,43996,NA,NA,456,2,legacy,1024,2,48000,-16,experiment,SSHSS,3,odd,45984,NA,NA,NA,134307,1988,NA,72805,1985,NA,135331,NA,135432,135888,135330,135432,Flanker Task Lab 2.1,54,25923,56,1024
96,96,462,462,#000000,legacy,legacy,legacy,congruent,1,undefined,1,h,0,0,0,0,56,0,0,56,0,56,56,0,56,56,56,56,Fri Sep 22 12:54:24 2023,1500,The main experiment item,FALSE,FlankerTaskLab21.osexp,C:\Users\katjo\OneDrive\Desktop,FALSE,mono,FALSE,18,no,white,no,yes,768,legacy,56,56,C:/Users/katjo/OneDrive/Desktop/KJ-subject-3 22F.csv,legacy,Melodramatic Milgram,4.0.5,0,h,NA,s,NA,NA,h,428,NA,43996,NA,NA,428,2,legacy,1024,2,48000,-16,experiment,HHHHH,3,odd,45984,NA,NA,NA,135916,1988,NA,72805,1985,NA,136936,NA,137037,137466,136935,137037,Flanker Task Lab 2.1,55,26351,57,1024
96,96,461,461,#000000,legacy,legacy,legacy,congruent,1,undefined,1,s,0,0,0,0,57,0,0,57,0,57,57,0,57,57,57,57,Fri Sep 22 12:54:24 2023,1500,The main experiment item,FALSE,FlankerTaskLab21.osexp,C:\Users\katjo\OneDrive\Desktop,FALSE,mono,FALSE,18,no,white,no,yes,768,legacy,57,57,C:/Users/katjo/OneDrive/Desktop/KJ-subject-3 22F.csv,legacy,Melodramatic Milgram,4.0.5,0,s,NA,s,NA,NA,s,422,NA,43996,NA,NA,422,2,legacy,1024,2,48000,-16,experiment,SSSSS,3,odd,45984,NA,NA,NA,137472,1988,NA,72805,1985,NA,138511,NA,138612,139035,138511,138612,Flanker Task Lab 2.1,56,26773,58,1024
96,96,461,461,#000000,legacy,legacy,legacy,incongruent,1,undefined,1,h,0,0,0,0,58,0,0,58,0,58,58,0,58,58,58,58,Fri Sep 22 12:54:24 2023,1500,The main experiment item,FALSE,FlankerTaskLab21.osexp,C:\Users\katjo\OneDrive\Desktop,FALSE,mono,FALSE,18,no,white,no,yes,768,legacy,58,58,C:/Users/katjo/OneDrive/Desktop/KJ-subject-3 22F.csv,legacy,Melodramatic Milgram,4.0.5,0,h,NA,s,NA,NA,h,435,NA,43996,NA,NA,435,2,legacy,1024,2,48000,-16,experiment,SSHSS,3,odd,45984,NA,NA,NA,139041,1988,NA,72805,1985,NA,140065,NA,140165,140600,140064,140165,Flanker Task Lab 2.1,57,27208,59,1024
96,96,459,459,#000000,legacy,legacy,legacy,congruent,1,undefined,1,h,0,0,0,0,59,0,0,59,0,59,59,0,59,59,59,59,Fri Sep 22 12:54:24 2023,1500,The main experiment item,FALSE,FlankerTaskLab21.osexp,C:\Users\katjo\OneDrive\Desktop,FALSE,mono,FALSE,18,no,white,no,yes,768,legacy,59,59,C:/Users/katjo/OneDrive/Desktop/KJ-subject-3 22F.csv,legacy,Melodramatic Milgram,4.0.5,0,h,NA,s,NA,NA,h,390,NA,43996,NA,NA,390,2,legacy,1024,2,48000,-16,experiment,HHHHH,3,odd,45984,NA,NA,NA,140608,1988,NA,72805,1985,NA,141631,NA,141732,142123,141630,141732,Flanker Task Lab 2.1,58,27598,60,1024
96,96,459,459,#000000,legacy,legacy,legacy,congruent,1,undefined,1,s,0,0,0,0,60,0,0,60,0,60,60,0,60,60,60,60,Fri Sep 22 12:54:24 2023,1500,The main experiment item,FALSE,FlankerTaskLab21.osexp,C:\Users\katjo\OneDrive\Desktop,FALSE,mono,FALSE,18,no,white,no,yes,768,legacy,60,60,C:/Users/katjo/OneDrive/Desktop/KJ-subject-3 22F.csv,legacy,Melodramatic Milgram,4.0.5,0,s,NA,s,NA,NA,s,420,NA,43996,NA,NA,420,2,legacy,1024,2,48000,-16,experiment,SSSSS,3,odd,45984,NA,NA,NA,142149,1988,NA,72805,1985,NA,143177,NA,143278,143698,143176,143278,Flanker Task Lab 2.1,59,28018,61,1024
96,96,459,459,#000000,legacy,legacy,legacy,incongruent,1,undefined,1,s,0,0,0,0,61,0,0,61,0,61,61,0,61,61,61,61,Fri Sep 22 12:54:24 2023,1500,The main experiment item,FALSE,FlankerTaskLab21.osexp,C:\Users\katjo\OneDrive\Desktop,FALSE,mono,FALSE,18,no,white,no,yes,768,legacy,61,61,C:/Users/katjo/OneDrive/Desktop/KJ-subject-3 22F.csv,legacy,Melodramatic Milgram,4.0.5,0,s,NA,s,NA,NA,s,443,NA,43996,NA,NA,443,2,legacy,1024,2,48000,-16,experiment,HHSHH,3,odd,45984,NA,NA,NA,143700,1988,NA,72805,1985,NA,144730,NA,144831,145274,144729,144831,Flanker Task Lab 2.1,60,28461,62,1024
96,96,458,458,#000000,legacy,legacy,legacy,congruent,1,undefined,1,s,0,0,0,0,62,0,0,62,0,62,62,0,62,62,62,62,Fri Sep 22 12:54:24 2023,1500,The main experiment item,FALSE,FlankerTaskLab21.osexp,C:\Users\katjo\OneDrive\Desktop,FALSE,mono,FALSE,18,no,white,no,yes,768,legacy,62,62,C:/Users/katjo/OneDrive/Desktop/KJ-subject-3 22F.csv,legacy,Melodramatic Milgram,4.0.5,0,s,NA,s,NA,NA,s,417,NA,43996,NA,NA,417,2,legacy,1024,2,48000,-16,experiment,SSSSS,3,odd,45984,NA,NA,NA,145300,1988,NA,72805,1985,NA,146341,NA,146442,146860,146340,146442,Flanker Task Lab 2.1,61,28878,63,1024
96,96,458,458,#000000,legacy,legacy,legacy,congruent,1,undefined,1,h,0,0,0,0,63,0,0,63,0,63,63,0,63,63,63,63,Fri Sep 22 12:54:24 2023,1500,The main experiment item,FALSE,FlankerTaskLab21.osexp,C:\Users\katjo\OneDrive\Desktop,FALSE,mono,FALSE,18,no,white,no,yes,768,legacy,63,63,C:/Users/katjo/OneDrive/Desktop/KJ-subject-3 22F.csv,legacy,Melodramatic Milgram,4.0.5,0,h,NA,s,NA,NA,h,466,NA,43996,NA,NA,466,2,legacy,1024,2,48000,-16,experiment,HHHHH,3,odd,45984,NA,NA,NA,146866,1988,NA,72805,1985,NA,147888,NA,147988,148454,147887,147988,Flanker Task Lab 2.1,62,29344,64,1024
96,96,458,458,#000000,legacy,legacy,legacy,incongruent,1,undefined,1,h,0,0,0,0,64,0,0,64,0,64,64,0,64,64,64,64,Fri Sep 22 12:54:24 2023,1500,The main experiment item,FALSE,FlankerTaskLab21.osexp,C:\Users\katjo\OneDrive\Desktop,FALSE,mono,FALSE,18,no,white,no,yes,768,legacy,64,64,C:/Users/katjo/OneDrive/Desktop/KJ-subject-3 22F.csv,legacy,Melodramatic Milgram,4.0.5,0,h,NA,s,NA,NA,h,467,NA,43996,NA,NA,467,2,legacy,1024,2,48000,-16,experiment,SSHSS,3,odd,45984,NA,NA,NA,148481,1988,NA,72805,1985,NA,149508,NA,149608,150075,149507,149608,Flanker Task Lab 2.1,63,29811,65,1024
96,96,460,460,#000000,legacy,legacy,legacy,incongruent,1,undefined,1,h,0,0,0,0,65,0,0,65,0,65,65,0,65,65,65,65,Fri Sep 22 12:54:24 2023,1500,The main experiment item,FALSE,FlankerTaskLab21.osexp,C:\Users\katjo\OneDrive\Desktop,FALSE,mono,FALSE,18,no,white,no,yes,768,legacy,65,65,C:/Users/katjo/OneDrive/Desktop/KJ-subject-3 22F.csv,legacy,Melodramatic Milgram,4.0.5,0,h,NA,s,NA,NA,h,583,NA,43996,NA,NA,583,2,legacy,1024,2,48000,-16,experiment,SSHSS,3,odd,45984,NA,NA,NA,150079,1988,NA,72805,1985,NA,151100,NA,151201,151785,151099,151201,Flanker Task Lab 2.1,64,30394,66,1024
95,95,460,460,#000000,legacy,legacy,legacy,incongruent,0,undefined,0,s,0,0,0,0,66,0,0,66,0,66,66,0,66,66,66,66,Fri Sep 22 12:54:24 2023,1500,The main experiment item,FALSE,FlankerTaskLab21.osexp,C:\Users\katjo\OneDrive\Desktop,FALSE,mono,FALSE,18,no,white,no,yes,768,legacy,66,66,C:/Users/katjo/OneDrive/Desktop/KJ-subject-3 22F.csv,legacy,Melodramatic Milgram,4.0.5,0,h,NA,s,NA,NA,h,438,NA,43996,NA,NA,438,2,legacy,1024,2,48000,-16,experiment,HHSHH,3,odd,45984,NA,NA,NA,151812,1988,NA,72805,1985,NA,152838,NA,152939,153377,152837,152939,Flanker Task Lab 2.1,64,30832,67,1024
95,95,460,460,#000000,legacy,legacy,legacy,incongruent,1,undefined,1,h,0,0,0,0,67,0,0,67,0,67,67,0,67,67,67,67,Fri Sep 22 12:54:24 2023,1500,The main experiment item,FALSE,FlankerTaskLab21.osexp,C:\Users\katjo\OneDrive\Desktop,FALSE,mono,FALSE,18,no,white,no,yes,768,legacy,67,67,C:/Users/katjo/OneDrive/Desktop/KJ-subject-3 22F.csv,legacy,Melodramatic Milgram,4.0.5,0,h,NA,s,NA,NA,h,499,NA,43996,NA,NA,499,2,legacy,1024,2,48000,-16,experiment,SSHSS,3,odd,45984,NA,NA,NA,153884,1988,NA,153384,1985,NA,154907,NA,155007,155506,154906,155007,Flanker Task Lab 2.1,65,31331,68,1024
95,95,459,459,#000000,legacy,legacy,legacy,congruent,1,undefined,1,h,0,0,0,0,68,0,0,68,0,68,68,0,68,68,68,68,Fri Sep 22 12:54:24 2023,1500,The main experiment item,FALSE,FlankerTaskLab21.osexp,C:\Users\katjo\OneDrive\Desktop,FALSE,mono,FALSE,18,no,white,no,yes,768,legacy,68,68,C:/Users/katjo/OneDrive/Desktop/KJ-subject-3 22F.csv,legacy,Melodramatic Milgram,4.0.5,0,h,NA,s,NA,NA,h,381,NA,43996,NA,NA,381,2,legacy,1024,2,48000,-16,experiment,HHHHH,3,odd,45984,NA,NA,NA,155533,1988,NA,153384,1985,NA,156557,NA,156657,157038,156556,156657,Flanker Task Lab 2.1,66,31712,69,1024
95,95,459,459,#000000,legacy,legacy,legacy,congruent,1,undefined,1,s,0,0,0,0,69,0,0,69,0,69,69,0,69,69,69,69,Fri Sep 22 12:54:24 2023,1500,The main experiment item,FALSE,FlankerTaskLab21.osexp,C:\Users\katjo\OneDrive\Desktop,FALSE,mono,FALSE,18,no,white,no,yes,768,legacy,69,69,C:/Users/katjo/OneDrive/Desktop/KJ-subject-3 22F.csv,legacy,Melodramatic Milgram,4.0.5,0,s,NA,s,NA,NA,s,458,NA,43996,NA,NA,458,2,legacy,1024,2,48000,-16,experiment,SSSSS,3,odd,45984,NA,NA,NA,157040,1988,NA,153384,1985,NA,158064,NA,158165,158624,158063,158165,Flanker Task Lab 2.1,67,32170,70,1024
95,95,458,458,#000000,legacy,legacy,legacy,congruent,1,undefined,1,h,0,0,0,0,70,0,0,70,0,70,70,0,70,70,70,70,Fri Sep 22 12:54:24 2023,1500,The main experiment item,FALSE,FlankerTaskLab21.osexp,C:\Users\katjo\OneDrive\Desktop,FALSE,mono,FALSE,18,no,white,no,yes,768,legacy,70,70,C:/Users/katjo/OneDrive/Desktop/KJ-subject-3 22F.csv,legacy,Melodramatic Milgram,4.0.5,0,h,NA,s,NA,NA,h,371,NA,43996,NA,NA,371,2,legacy,1024,2,48000,-16,experiment,HHHHH,3,odd,45984,NA,NA,NA,158650,1988,NA,153384,1985,NA,159672,NA,159773,160145,159672,159773,Flanker Task Lab 2.1,68,32541,71,1024
95,95,458,458,#000000,legacy,legacy,legacy,congruent,1,undefined,1,s,0,0,0,0,71,0,0,71,0,71,71,0,71,71,71,71,Fri Sep 22 12:54:24 2023,1500,The main experiment item,FALSE,FlankerTaskLab21.osexp,C:\Users\katjo\OneDrive\Desktop,FALSE,mono,FALSE,18,no,white,no,yes,768,legacy,71,71,C:/Users/katjo/OneDrive/Desktop/KJ-subject-3 22F.csv,legacy,Melodramatic Milgram,4.0.5,0,s,NA,s,NA,NA,s,467,NA,43996,NA,NA,467,2,legacy,1024,2,48000,-16,experiment,SSSSS,3,odd,45984,NA,NA,NA,160152,1988,NA,153384,1985,NA,161183,NA,161284,161751,161182,161284,Flanker Task Lab 2.1,69,33008,72,1024
95,95,458,458,#000000,legacy,legacy,legacy,incongruent,1,undefined,1,s,0,0,0,0,72,0,0,72,0,72,72,0,72,72,72,72,Fri Sep 22 12:54:24 2023,1500,The main experiment item,FALSE,FlankerTaskLab21.osexp,C:\Users\katjo\OneDrive\Desktop,FALSE,mono,FALSE,18,no,white,no,yes,768,legacy,72,72,C:/Users/katjo/OneDrive/Desktop/KJ-subject-3 22F.csv,legacy,Melodramatic Milgram,4.0.5,0,s,NA,s,NA,NA,s,475,NA,43996,NA,NA,475,2,legacy,1024,2,48000,-16,experiment,HHSHH,3,odd,45984,NA,NA,NA,161777,1988,NA,153384,1985,NA,162797,NA,162898,163374,162796,162898,Flanker Task Lab 2.1,70,33483,73,1024
95,95,457,457,#000000,legacy,legacy,legacy,incongruent,1,undefined,1,h,0,0,0,0,73,0,0,73,0,73,73,0,73,73,73,73,Fri Sep 22 12:54:24 2023,1500,The main experiment item,FALSE,FlankerTaskLab21.osexp,C:\Users\katjo\OneDrive\Desktop,FALSE,mono,FALSE,18,no,white,no,yes,768,legacy,73,73,C:/Users/katjo/OneDrive/Desktop/KJ-subject-3 22F.csv,legacy,Melodramatic Milgram,4.0.5,0,h,NA,s,NA,NA,h,363,NA,43996,NA,NA,363,2,legacy,1024,2,48000,-16,experiment,SSHSS,3,odd,45984,NA,NA,NA,163380,1988,NA,153384,1985,NA,164401,NA,164502,164866,164401,164502,Flanker Task Lab 2.1,71,33846,74,1024
96,96,457,457,#000000,legacy,legacy,legacy,congruent,1,undefined,1,s,0,0,0,0,74,0,0,74,0,74,74,0,74,74,74,74,Fri Sep 22 12:54:24 2023,1500,The main experiment item,FALSE,FlankerTaskLab21.osexp,C:\Users\katjo\OneDrive\Desktop,FALSE,mono,FALSE,18,no,white,no,yes,768,legacy,74,74,C:/Users/katjo/OneDrive/Desktop/KJ-subject-3 22F.csv,legacy,Melodramatic Milgram,4.0.5,0,s,NA,s,NA,NA,s,486,NA,43996,NA,NA,486,2,legacy,1024,2,48000,-16,experiment,SSSSS,3,odd,45984,NA,NA,NA,164873,1988,NA,153384,1985,NA,165895,NA,165996,166482,165894,165996,Flanker Task Lab 2.1,72,34332,75,1024
96,96,459,459,#000000,legacy,legacy,legacy,incongruent,1,undefined,1,s,0,0,0,0,75,0,0,75,0,75,75,0,75,75,75,75,Fri Sep 22 12:54:24 2023,1500,The main experiment item,FALSE,FlankerTaskLab21.osexp,C:\Users\katjo\OneDrive\Desktop,FALSE,mono,FALSE,18,no,white,no,yes,768,legacy,75,75,C:/Users/katjo/OneDrive/Desktop/KJ-subject-3 22F.csv,legacy,Melodramatic Milgram,4.0.5,0,s,NA,s,NA,NA,s,561,NA,43996,NA,NA,561,2,legacy,1024,2,48000,-16,experiment,HHSHH,3,odd,45984,NA,NA,NA,166489,1988,NA,153384,1985,NA,167512,NA,167613,168175,167511,167613,Flanker Task Lab 2.1,73,34893,76,1024
96,96,458,458,#000000,legacy,legacy,legacy,congruent,1,undefined,1,s,0,0,0,0,76,0,0,76,0,76,76,0,76,76,76,76,Fri Sep 22 12:54:24 2023,1500,The main experiment item,FALSE,FlankerTaskLab21.osexp,C:\Users\katjo\OneDrive\Desktop,FALSE,mono,FALSE,18,no,white,no,yes,768,legacy,76,76,C:/Users/katjo/OneDrive/Desktop/KJ-subject-3 22F.csv,legacy,Melodramatic Milgram,4.0.5,0,s,NA,s,NA,NA,s,404,NA,43996,NA,NA,404,2,legacy,1024,2,48000,-16,experiment,SSSSS,3,odd,45984,NA,NA,NA,168177,1988,NA,153384,1985,NA,169221,NA,169322,169727,169220,169322,Flanker Task Lab 2.1,74,35297,77,1024
96,96,458,458,#000000,legacy,legacy,legacy,incongruent,1,undefined,1,h,0,0,0,0,77,0,0,77,0,77,77,0,77,77,77,77,Fri Sep 22 12:54:24 2023,1500,The main experiment item,FALSE,FlankerTaskLab21.osexp,C:\Users\katjo\OneDrive\Desktop,FALSE,mono,FALSE,18,no,white,no,yes,768,legacy,77,77,C:/Users/katjo/OneDrive/Desktop/KJ-subject-3 22F.csv,legacy,Melodramatic Milgram,4.0.5,0,h,NA,s,NA,NA,h,485,NA,43996,NA,NA,485,2,legacy,1024,2,48000,-16,experiment,SSHSS,3,odd,45984,NA,NA,NA,169734,1988,NA,153384,1985,NA,170757,NA,170857,171344,170756,170857,Flanker Task Lab 2.1,75,35782,78,1024
96,96,458,458,#000000,legacy,legacy,legacy,incongruent,1,undefined,1,s,0,0,0,0,78,0,0,78,0,78,78,0,78,78,78,78,Fri Sep 22 12:54:24 2023,1500,The main experiment item,FALSE,FlankerTaskLab21.osexp,C:\Users\katjo\OneDrive\Desktop,FALSE,mono,FALSE,18,no,white,no,yes,768,legacy,78,78,C:/Users/katjo/OneDrive/Desktop/KJ-subject-3 22F.csv,legacy,Melodramatic Milgram,4.0.5,0,s,NA,s,NA,NA,s,463,NA,43996,NA,NA,463,2,legacy,1024,2,48000,-16,experiment,HHSHH,3,odd,45984,NA,NA,NA,171350,1988,NA,153384,1985,NA,172377,NA,172478,172942,172376,172478,Flanker Task Lab 2.1,76,36245,79,1024
96,96,459,459,#000000,legacy,legacy,legacy,incongruent,1,undefined,1,h,0,0,0,0,79,0,0,79,0,79,79,0,79,79,79,79,Fri Sep 22 12:54:24 2023,1500,The main experiment item,FALSE,FlankerTaskLab21.osexp,C:\Users\katjo\OneDrive\Desktop,FALSE,mono,FALSE,18,no,white,no,yes,768,legacy,79,79,C:/Users/katjo/OneDrive/Desktop/KJ-subject-3 22F.csv,legacy,Melodramatic Milgram,4.0.5,0,h,NA,s,NA,NA,h,476,NA,43996,NA,NA,476,2,legacy,1024,2,48000,-16,experiment,SSHSS,3,odd,45984,NA,NA,NA,172948,1988,NA,153384,1985,NA,173991,NA,174091,174568,173990,174091,Flanker Task Lab 2.1,77,36721,80,1024
96,96,460,460,#000000,legacy,legacy,legacy,incongruent,1,undefined,1,s,0,0,0,0,80,0,0,80,0,80,80,0,80,80,80,80,Fri Sep 22 12:54:24 2023,600,The main experiment item,FALSE,FlankerTaskLab21.osexp,C:\Users\katjo\OneDrive\Desktop,FALSE,mono,FALSE,18,no,white,no,yes,768,legacy,0,79,C:/Users/katjo/OneDrive/Desktop/KJ-subject-3 22F.csv,legacy,Melodramatic Milgram,4.0.5,0,s,NA,s,s,NA,s,614,NA,43996,31063,NA,614,2,legacy,1024,2,48000,-16,experiment,HHSHH,3,odd,45984,206658,NA,NA,174594,1988,175595,153384,1985,NA,206691,NA,206792,207407,206691,206792,Flanker Task Lab 2.1,78,37335,81,1024
96,96,460,460,#000000,legacy,legacy,legacy,incongruent,1,undefined,1,h,0,0,0,0,81,0,0,81,0,81,81,0,81,81,81,81,Fri Sep 22 12:54:24 2023,600,The main experiment item,FALSE,FlankerTaskLab21.osexp,C:\Users\katjo\OneDrive\Desktop,FALSE,mono,FALSE,18,no,white,no,yes,768,legacy,1,79,C:/Users/katjo/OneDrive/Desktop/KJ-subject-3 22F.csv,legacy,Melodramatic Milgram,4.0.5,0,h,NA,s,s,NA,h,392,NA,43996,31063,NA,392,2,legacy,1024,2,48000,-16,experiment,SSHSS,3,odd,45984,206658,NA,NA,207910,1988,175595,153384,1985,207410,208933,NA,209034,209427,208932,209034,Flanker Task Lab 2.1,79,37727,82,1024
96,96,459,459,#000000,legacy,legacy,legacy,congruent,1,undefined,1,h,0,0,0,0,82,0,0,82,0,82,82,0,82,82,82,82,Fri Sep 22 12:54:24 2023,600,The main experiment item,FALSE,FlankerTaskLab21.osexp,C:\Users\katjo\OneDrive\Desktop,FALSE,mono,FALSE,18,no,white,no,yes,768,legacy,2,79,C:/Users/katjo/OneDrive/Desktop/KJ-subject-3 22F.csv,legacy,Melodramatic Milgram,4.0.5,0,h,NA,s,s,NA,h,407,NA,43996,31063,NA,407,2,legacy,1024,2,48000,-16,experiment,HHHHH,3,odd,45984,206658,NA,NA,209452,1988,175595,153384,1985,207410,210474,NA,210574,210981,210473,210574,Flanker Task Lab 2.1,80,38134,83,1024
96,96,457,457,#000000,legacy,legacy,legacy,incongruent,1,undefined,1,h,0,0,0,0,83,0,0,83,0,83,83,0,83,83,83,83,Fri Sep 22 12:54:24 2023,600,The main experiment item,FALSE,FlankerTaskLab21.osexp,C:\Users\katjo\OneDrive\Desktop,FALSE,mono,FALSE,18,no,white,no,yes,768,legacy,3,79,C:/Users/katjo/OneDrive/Desktop/KJ-subject-3 22F.csv,legacy,Melodramatic Milgram,4.0.5,0,h,NA,s,s,NA,h,322,NA,43996,31063,NA,322,2,legacy,1024,2,48000,-16,experiment,SSHSS,3,odd,45984,206658,NA,NA,210987,1988,175595,153384,1985,207410,212013,NA,212113,212435,212012,212113,Flanker Task Lab 2.1,81,38456,84,1024
96,96,456,456,#000000,legacy,legacy,legacy,congruent,1,undefined,1,h,0,0,0,0,84,0,0,84,0,84,84,0,84,84,84,84,Fri Sep 22 12:54:24 2023,600,The main experiment item,FALSE,FlankerTaskLab21.osexp,C:\Users\katjo\OneDrive\Desktop,FALSE,mono,FALSE,18,no,white,no,yes,768,legacy,4,79,C:/Users/katjo/OneDrive/Desktop/KJ-subject-3 22F.csv,legacy,Melodramatic Milgram,4.0.5,0,h,NA,s,s,NA,h,366,NA,43996,31063,NA,366,2,legacy,1024,2,48000,-16,experiment,HHHHH,3,odd,45984,206658,NA,NA,212442,1988,175595,153384,1985,207410,213473,NA,213575,213941,213472,213574,Flanker Task Lab 2.1,82,38822,85,1024
96,96,455,455,#000000,legacy,legacy,legacy,incongruent,1,undefined,1,s,0,0,0,0,85,0,0,85,0,85,85,0,85,85,85,85,Fri Sep 22 12:54:24 2023,600,The main experiment item,FALSE,FlankerTaskLab21.osexp,C:\Users\katjo\OneDrive\Desktop,FALSE,mono,FALSE,18,no,white,no,yes,768,legacy,5,79,C:/Users/katjo/OneDrive/Desktop/KJ-subject-3 22F.csv,legacy,Melodramatic Milgram,4.0.5,0,s,NA,s,s,NA,s,382,NA,43996,31063,NA,382,2,legacy,1024,2,48000,-16,experiment,HHSHH,3,odd,45984,206658,NA,NA,213967,1988,175595,153384,1985,207410,214990,NA,215091,215473,214989,215091,Flanker Task Lab 2.1,83,39204,86,1024
95,95,455,455,#000000,legacy,legacy,legacy,incongruent,0,undefined,0,h,0,0,0,0,86,0,0,86,0,86,86,0,86,86,86,86,Fri Sep 22 12:54:24 2023,600,The main experiment item,FALSE,FlankerTaskLab21.osexp,C:\Users\katjo\OneDrive\Desktop,FALSE,mono,FALSE,18,no,white,no,yes,768,legacy,6,79,C:/Users/katjo/OneDrive/Desktop/KJ-subject-3 22F.csv,legacy,Melodramatic Milgram,4.0.5,0,s,NA,s,s,NA,s,409,NA,43996,31063,NA,409,2,legacy,1024,2,48000,-16,experiment,SSHSS,3,odd,45984,206658,NA,NA,215480,1988,175595,153384,1985,207410,216500,NA,216601,217010,216499,216601,Flanker Task Lab 2.1,83,39613,87,1024
94,94,454,454,#000000,legacy,legacy,legacy,incongruent,0,undefined,0,s,0,0,0,0,87,0,0,87,0,87,87,0,87,87,87,87,Fri Sep 22 12:54:24 2023,600,The main experiment item,FALSE,FlankerTaskLab21.osexp,C:\Users\katjo\OneDrive\Desktop,FALSE,mono,FALSE,18,no,white,no,yes,768,legacy,7,79,C:/Users/katjo/OneDrive/Desktop/KJ-subject-3 22F.csv,legacy,Melodramatic Milgram,4.0.5,0,h,NA,s,s,NA,h,354,NA,43996,31063,NA,354,2,legacy,1024,2,48000,-16,experiment,HHSHH,3,odd,45984,206658,NA,NA,217536,1988,175595,217036,1985,207410,218565,NA,218665,219020,218564,218665,Flanker Task Lab 2.1,83,39967,88,1024
94,94,454,454,#000000,legacy,legacy,legacy,incongruent,1,undefined,1,s,0,0,0,0,88,0,0,88,0,88,88,0,88,88,88,88,Fri Sep 22 12:54:24 2023,600,The main experiment item,FALSE,FlankerTaskLab21.osexp,C:\Users\katjo\OneDrive\Desktop,FALSE,mono,FALSE,18,no,white,no,yes,768,legacy,8,79,C:/Users/katjo/OneDrive/Desktop/KJ-subject-3 22F.csv,legacy,Melodramatic Milgram,4.0.5,0,s,NA,s,s,NA,s,448,NA,43996,31063,NA,448,2,legacy,1024,2,48000,-16,experiment,HHSHH,3,odd,45984,206658,NA,NA,219546,1988,175595,219046,1985,207410,220568,NA,220668,221117,220567,220668,Flanker Task Lab 2.1,84,40415,89,1024
94,94,453,453,#000000,legacy,legacy,legacy,incongruent,1,undefined,1,s,0,0,0,0,89,0,0,89,0,89,89,0,89,89,89,89,Fri Sep 22 12:54:24 2023,600,The main experiment item,FALSE,FlankerTaskLab21.osexp,C:\Users\katjo\OneDrive\Desktop,FALSE,mono,FALSE,18,no,white,no,yes,768,legacy,9,79,C:/Users/katjo/OneDrive/Desktop/KJ-subject-3 22F.csv,legacy,Melodramatic Milgram,4.0.5,0,s,NA,s,s,NA,s,366,NA,43996,31063,NA,366,2,legacy,1024,2,48000,-16,experiment,HHSHH,3,odd,45984,206658,NA,NA,221124,1988,175595,219046,1985,207410,222166,NA,222267,222634,222165,222267,Flanker Task Lab 2.1,85,40781,90,1024
94,94,452,452,#000000,legacy,legacy,legacy,congruent,1,undefined,1,h,0,0,0,0,90,0,0,90,0,90,90,0,90,90,90,90,Fri Sep 22 12:54:24 2023,600,The main experiment item,FALSE,FlankerTaskLab21.osexp,C:\Users\katjo\OneDrive\Desktop,FALSE,mono,FALSE,18,no,white,no,yes,768,legacy,10,79,C:/Users/katjo/OneDrive/Desktop/KJ-subject-3 22F.csv,legacy,Melodramatic Milgram,4.0.5,0,h,NA,s,s,NA,h,351,NA,43996,31063,NA,351,2,legacy,1024,2,48000,-16,experiment,HHHHH,3,odd,45984,206658,NA,NA,222641,1988,175595,219046,1985,207410,223663,NA,223763,224115,223663,223763,Flanker Task Lab 2.1,86,41132,91,1024
94,94,451,451,#000000,legacy,legacy,legacy,congruent,1,undefined,1,h,0,0,0,0,91,0,0,91,0,91,91,0,91,91,91,91,Fri Sep 22 12:54:24 2023,600,The main experiment item,FALSE,FlankerTaskLab21.osexp,C:\Users\katjo\OneDrive\Desktop,FALSE,mono,FALSE,18,no,white,no,yes,768,legacy,11,79,C:/Users/katjo/OneDrive/Desktop/KJ-subject-3 22F.csv,legacy,Melodramatic Milgram,4.0.5,0,h,NA,s,s,NA,h,405,NA,43996,31063,NA,405,2,legacy,1024,2,48000,-16,experiment,HHHHH,3,odd,45984,206658,NA,NA,224117,1988,175595,219046,1985,207410,225138,NA,225238,225643,225137,225238,Flanker Task Lab 2.1,87,41537,92,1024
94,94,450,450,#000000,legacy,legacy,legacy,incongruent,1,undefined,1,s,0,0,0,0,92,0,0,92,0,92,92,0,92,92,92,92,Fri Sep 22 12:54:24 2023,600,The main experiment item,FALSE,FlankerTaskLab21.osexp,C:\Users\katjo\OneDrive\Desktop,FALSE,mono,FALSE,18,no,white,no,yes,768,legacy,12,79,C:/Users/katjo/OneDrive/Desktop/KJ-subject-3 22F.csv,legacy,Melodramatic Milgram,4.0.5,0,s,NA,s,s,NA,s,404,NA,43996,31063,NA,404,2,legacy,1024,2,48000,-16,experiment,HHSHH,3,odd,45984,206658,NA,NA,225650,1988,175595,219046,1985,207410,226687,NA,226788,227193,226686,226788,Flanker Task Lab 2.1,88,41941,93,1024
94,94,450,450,#000000,legacy,legacy,legacy,congruent,1,undefined,1,h,0,0,0,0,93,0,0,93,0,93,93,0,93,93,93,93,Fri Sep 22 12:54:24 2023,600,The main experiment item,FALSE,FlankerTaskLab21.osexp,C:\Users\katjo\OneDrive\Desktop,FALSE,mono,FALSE,18,no,white,no,yes,768,legacy,13,79,C:/Users/katjo/OneDrive/Desktop/KJ-subject-3 22F.csv,legacy,Melodramatic Milgram,4.0.5,0,h,NA,s,s,NA,h,381,NA,43996,31063,NA,381,2,legacy,1024,2,48000,-16,experiment,HHHHH,3,odd,45984,206658,NA,NA,227220,1988,175595,219046,1985,207410,228248,NA,228348,228730,228246,228348,Flanker Task Lab 2.1,89,42322,94,1024
94,94,449,449,#000000,legacy,legacy,legacy,congruent,1,undefined,1,h,0,0,0,0,94,0,0,94,0,94,94,0,94,94,94,94,Fri Sep 22 12:54:24 2023,600,The main experiment item,FALSE,FlankerTaskLab21.osexp,C:\Users\katjo\OneDrive\Desktop,FALSE,mono,FALSE,18,no,white,no,yes,768,legacy,14,79,C:/Users/katjo/OneDrive/Desktop/KJ-subject-3 22F.csv,legacy,Melodramatic Milgram,4.0.5,0,h,NA,s,s,NA,h,391,NA,43996,31063,NA,391,2,legacy,1024,2,48000,-16,experiment,HHHHH,3,odd,45984,206658,NA,NA,228737,1988,175595,219046,1985,207410,229774,NA,229874,230265,229774,229874,Flanker Task Lab 2.1,90,42713,95,1024
94,94,449,449,#000000,legacy,legacy,legacy,congruent,1,undefined,1,s,0,0,0,0,95,0,0,95,0,95,95,0,95,95,95,95,Fri Sep 22 12:54:24 2023,600,The main experiment item,FALSE,FlankerTaskLab21.osexp,C:\Users\katjo\OneDrive\Desktop,FALSE,mono,FALSE,18,no,white,no,yes,768,legacy,15,79,C:/Users/katjo/OneDrive/Desktop/KJ-subject-3 22F.csv,legacy,Melodramatic Milgram,4.0.5,0,s,NA,s,s,NA,s,424,NA,43996,31063,NA,424,2,legacy,1024,2,48000,-16,experiment,SSSSS,3,odd,45984,206658,NA,NA,230288,1988,175595,219046,1985,207410,231316,NA,231417,231841,231315,231417,Flanker Task Lab 2.1,91,43137,96,1024
94,94,448,448,#000000,legacy,legacy,legacy,congruent,1,undefined,1,s,0,0,0,0,96,0,0,96,0,96,96,0,96,96,96,96,Fri Sep 22 12:54:24 2023,600,The main experiment item,FALSE,FlankerTaskLab21.osexp,C:\Users\katjo\OneDrive\Desktop,FALSE,mono,FALSE,18,no,white,no,yes,768,legacy,16,79,C:/Users/katjo/OneDrive/Desktop/KJ-subject-3 22F.csv,legacy,Melodramatic Milgram,4.0.5,0,s,NA,s,s,NA,s,376,NA,43996,31063,NA,376,2,legacy,1024,2,48000,-16,experiment,SSSSS,3,odd,45984,206658,NA,NA,231867,1988,175595,219046,1985,207410,232894,NA,232995,233372,232894,232995,Flanker Task Lab 2.1,92,43513,97,1024
94,94,448,448,#000000,legacy,legacy,legacy,incongruent,1,undefined,1,s,0,0,0,0,97,0,0,97,0,97,97,0,97,97,97,97,Fri Sep 22 12:54:24 2023,600,The main experiment item,FALSE,FlankerTaskLab21.osexp,C:\Users\katjo\OneDrive\Desktop,FALSE,mono,FALSE,18,no,white,no,yes,768,legacy,17,79,C:/Users/katjo/OneDrive/Desktop/KJ-subject-3 22F.csv,legacy,Melodramatic Milgram,4.0.5,0,s,NA,s,s,NA,s,424,NA,43996,31063,NA,424,2,legacy,1024,2,48000,-16,experiment,HHSHH,3,odd,45984,206658,NA,NA,233397,1988,175595,219046,1985,207410,234431,NA,234532,234956,234430,234532,Flanker Task Lab 2.1,93,43937,98,1024
94,94,447,447,#000000,legacy,legacy,legacy,incongruent,1,undefined,1,s,0,0,0,0,98,0,0,98,0,98,98,0,98,98,98,98,Fri Sep 22 12:54:24 2023,600,The main experiment item,FALSE,FlankerTaskLab21.osexp,C:\Users\katjo\OneDrive\Desktop,FALSE,mono,FALSE,18,no,white,no,yes,768,legacy,18,79,C:/Users/katjo/OneDrive/Desktop/KJ-subject-3 22F.csv,legacy,Melodramatic Milgram,4.0.5,0,s,NA,s,s,NA,s,366,NA,43996,31063,NA,366,2,legacy,1024,2,48000,-16,experiment,HHSHH,3,odd,45984,206658,NA,NA,234963,1988,175595,219046,1985,207410,235987,NA,236088,236455,235986,236088,Flanker Task Lab 2.1,94,44303,99,1024
95,95,446,446,#000000,legacy,legacy,legacy,congruent,1,undefined,1,s,0,0,0,0,99,0,0,99,0,99,99,0,99,99,99,99,Fri Sep 22 12:54:24 2023,600,The main experiment item,FALSE,FlankerTaskLab21.osexp,C:\Users\katjo\OneDrive\Desktop,FALSE,mono,FALSE,18,no,white,no,yes,768,legacy,19,79,C:/Users/katjo/OneDrive/Desktop/KJ-subject-3 22F.csv,legacy,Melodramatic Milgram,4.0.5,0,s,NA,s,s,NA,s,338,NA,43996,31063,NA,338,2,legacy,1024,2,48000,-16,experiment,SSSSS,3,odd,45984,206658,NA,NA,236462,1988,175595,219046,1985,207410,237505,NA,237606,237945,237504,237606,Flanker Task Lab 2.1,95,44641,100,1024
95,95,445,445,#000000,legacy,legacy,legacy,congruent,1,undefined,1,s,0,0,0,0,100,0,0,100,0,100,100,0,100,100,100,100,Fri Sep 22 12:54:24 2023,600,The main experiment item,FALSE,FlankerTaskLab21.osexp,C:\Users\katjo\OneDrive\Desktop,FALSE,mono,FALSE,18,no,white,no,yes,768,legacy,20,79,C:/Users/katjo/OneDrive/Desktop/KJ-subject-3 22F.csv,legacy,Melodramatic Milgram,4.0.5,0,s,NA,s,s,NA,s,369,NA,43996,31063,NA,369,2,legacy,1024,2,48000,-16,experiment,SSSSS,3,odd,45984,206658,NA,NA,237951,1988,175595,219046,1985,207410,238980,NA,239080,239450,238979,239080,Flanker Task Lab 2.1,96,45010,101,1024
95,95,444,444,#000000,legacy,legacy,legacy,congruent,1,undefined,1,s,0,0,0,0,101,0,0,101,0,101,101,0,101,101,101,101,Fri Sep 22 12:54:24 2023,600,The main experiment item,FALSE,FlankerTaskLab21.osexp,C:\Users\katjo\OneDrive\Desktop,FALSE,mono,FALSE,18,no,white,no,yes,768,legacy,21,79,C:/Users/katjo/OneDrive/Desktop/KJ-subject-3 22F.csv,legacy,Melodramatic Milgram,4.0.5,0,s,NA,s,s,NA,s,338,NA,43996,31063,NA,338,2,legacy,1024,2,48000,-16,experiment,SSSSS,3,odd,45984,206658,NA,NA,239452,1988,175595,219046,1985,207410,240474,NA,240574,240913,240473,240574,Flanker Task Lab 2.1,97,45348,102,1024
94,94,443,443,#000000,legacy,legacy,legacy,incongruent,0,undefined,0,h,0,0,0,0,102,0,0,102,0,102,102,0,102,102,102,102,Fri Sep 22 12:54:24 2023,600,The main experiment item,FALSE,FlankerTaskLab21.osexp,C:\Users\katjo\OneDrive\Desktop,FALSE,mono,FALSE,18,no,white,no,yes,768,legacy,22,79,C:/Users/katjo/OneDrive/Desktop/KJ-subject-3 22F.csv,legacy,Melodramatic Milgram,4.0.5,0,s,NA,s,s,NA,s,324,NA,43996,31063,NA,324,2,legacy,1024,2,48000,-16,experiment,SSHSS,3,odd,45984,206658,NA,NA,240919,1988,175595,219046,1985,207410,241960,NA,242061,242385,241959,242061,Flanker Task Lab 2.1,97,45672,103,1024
94,94,443,443,#000000,legacy,legacy,legacy,congruent,1,undefined,1,s,0,0,0,0,103,0,0,103,0,103,103,0,103,103,103,103,Fri Sep 22 12:54:24 2023,600,The main experiment item,FALSE,FlankerTaskLab21.osexp,C:\Users\katjo\OneDrive\Desktop,FALSE,mono,FALSE,18,no,white,no,yes,768,legacy,23,79,C:/Users/katjo/OneDrive/Desktop/KJ-subject-3 22F.csv,legacy,Melodramatic Milgram,4.0.5,0,s,NA,s,s,NA,s,425,NA,43996,31063,NA,425,2,legacy,1024,2,48000,-16,experiment,SSSSS,3,odd,45984,206658,NA,NA,242911,1988,175595,242411,1985,207410,243934,NA,244035,244460,243933,244034,Flanker Task Lab 2.1,98,46097,104,1024
94,94,442,442,#000000,legacy,legacy,legacy,incongruent,1,undefined,1,s,0,0,0,0,104,0,0,104,0,104,104,0,104,104,104,104,Fri Sep 22 12:54:24 2023,600,The main experiment item,FALSE,FlankerTaskLab21.osexp,C:\Users\katjo\OneDrive\Desktop,FALSE,mono,FALSE,18,no,white,no,yes,768,legacy,24,79,C:/Users/katjo/OneDrive/Desktop/KJ-subject-3 22F.csv,legacy,Melodramatic Milgram,4.0.5,0,s,NA,s,s,NA,s,389,NA,43996,31063,NA,389,2,legacy,1024,2,48000,-16,experiment,HHSHH,3,odd,45984,206658,NA,NA,244468,1988,175595,242411,1985,207410,245491,NA,245592,245982,245490,245591,Flanker Task Lab 2.1,99,46486,105,1024
94,94,442,442,#000000,legacy,legacy,legacy,congruent,1,undefined,1,h,0,0,0,0,105,0,0,105,0,105,105,0,105,105,105,105,Fri Sep 22 12:54:24 2023,600,The main experiment item,FALSE,FlankerTaskLab21.osexp,C:\Users\katjo\OneDrive\Desktop,FALSE,mono,FALSE,18,no,white,no,yes,768,legacy,25,79,C:/Users/katjo/OneDrive/Desktop/KJ-subject-3 22F.csv,legacy,Melodramatic Milgram,4.0.5,0,h,NA,s,s,NA,h,402,NA,43996,31063,NA,402,2,legacy,1024,2,48000,-16,experiment,HHHHH,3,odd,45984,206658,NA,NA,245988,1988,175595,242411,1985,207410,247017,NA,247117,247520,247016,247117,Flanker Task Lab 2.1,100,46888,106,1024
94,94,442,442,#000000,legacy,legacy,legacy,incongruent,1,undefined,1,h,0,0,0,0,106,0,0,106,0,106,106,0,106,106,106,106,Fri Sep 22 12:54:24 2023,600,The main experiment item,FALSE,FlankerTaskLab21.osexp,C:\Users\katjo\OneDrive\Desktop,FALSE,mono,FALSE,18,no,white,no,yes,768,legacy,26,79,C:/Users/katjo/OneDrive/Desktop/KJ-subject-3 22F.csv,legacy,Melodramatic Milgram,4.0.5,0,h,NA,s,s,NA,h,504,NA,43996,31063,NA,504,2,legacy,1024,2,48000,-16,experiment,SSHSS,3,odd,45984,206658,NA,NA,247546,1988,175595,242411,1985,207410,248570,NA,248670,249174,248569,248670,Flanker Task Lab 2.1,101,47392,107,1024
94,94,442,442,#000000,legacy,legacy,legacy,incongruent,1,undefined,1,h,0,0,0,0,107,0,0,107,0,107,107,0,107,107,107,107,Fri Sep 22 12:54:24 2023,600,The main experiment item,FALSE,FlankerTaskLab21.osexp,C:\Users\katjo\OneDrive\Desktop,FALSE,mono,FALSE,18,no,white,no,yes,768,legacy,27,79,C:/Users/katjo/OneDrive/Desktop/KJ-subject-3 22F.csv,legacy,Melodramatic Milgram,4.0.5,0,h,NA,s,s,NA,h,415,NA,43996,31063,NA,415,2,legacy,1024,2,48000,-16,experiment,SSHSS,3,odd,45984,206658,NA,NA,249176,1988,175595,242411,1985,207410,250197,NA,250297,250713,250196,250297,Flanker Task Lab 2.1,102,47807,108,1024
94,94,442,442,#000000,legacy,legacy,legacy,congruent,1,undefined,1,s,0,0,0,0,108,0,0,108,0,108,108,0,108,108,108,108,Fri Sep 22 12:54:24 2023,600,The main experiment item,FALSE,FlankerTaskLab21.osexp,C:\Users\katjo\OneDrive\Desktop,FALSE,mono,FALSE,18,no,white,no,yes,768,legacy,28,79,C:/Users/katjo/OneDrive/Desktop/KJ-subject-3 22F.csv,legacy,Melodramatic Milgram,4.0.5,0,s,NA,s,s,NA,s,402,NA,43996,31063,NA,402,2,legacy,1024,2,48000,-16,experiment,SSSSS,3,odd,45984,206658,NA,NA,250719,1988,175595,242411,1985,207410,251742,NA,251843,252245,251741,251843,Flanker Task Lab 2.1,103,48209,109,1024
93,93,441,441,#000000,legacy,legacy,legacy,incongruent,0,undefined,0,s,0,0,0,0,109,0,0,109,0,109,109,0,109,109,109,109,Fri Sep 22 12:54:24 2023,600,The main experiment item,FALSE,FlankerTaskLab21.osexp,C:\Users\katjo\OneDrive\Desktop,FALSE,mono,FALSE,18,no,white,no,yes,768,legacy,29,79,C:/Users/katjo/OneDrive/Desktop/KJ-subject-3 22F.csv,legacy,Melodramatic Milgram,4.0.5,0,h,NA,s,s,NA,h,376,NA,43996,31063,NA,376,2,legacy,1024,2,48000,-16,experiment,HHSHH,3,odd,45984,206658,NA,NA,252252,1988,175595,242411,1985,207410,253275,NA,253376,253753,253274,253376,Flanker Task Lab 2.1,103,48585,110,1024
93,93,441,441,#000000,legacy,legacy,legacy,incongruent,1,undefined,1,s,0,0,0,0,110,0,0,110,0,110,110,0,110,110,110,110,Fri Sep 22 12:54:24 2023,600,The main experiment item,FALSE,FlankerTaskLab21.osexp,C:\Users\katjo\OneDrive\Desktop,FALSE,mono,FALSE,18,no,white,no,yes,768,legacy,30,79,C:/Users/katjo/OneDrive/Desktop/KJ-subject-3 22F.csv,legacy,Melodramatic Milgram,4.0.5,0,s,NA,s,s,NA,s,398,NA,43996,31063,NA,398,2,legacy,1024,2,48000,-16,experiment,HHSHH,3,odd,45984,206658,NA,NA,254280,1988,175595,253779,1985,207410,255304,NA,255404,255803,255303,255404,Flanker Task Lab 2.1,104,48983,111,1024
93,93,441,441,#000000,legacy,legacy,legacy,congruent,1,undefined,1,h,0,0,0,0,111,0,0,111,0,111,111,0,111,111,111,111,Fri Sep 22 12:54:24 2023,600,The main experiment item,FALSE,FlankerTaskLab21.osexp,C:\Users\katjo\OneDrive\Desktop,FALSE,mono,FALSE,18,no,white,no,yes,768,legacy,31,79,C:/Users/katjo/OneDrive/Desktop/KJ-subject-3 22F.csv,legacy,Melodramatic Milgram,4.0.5,0,h,NA,s,s,NA,h,442,NA,43996,31063,NA,442,2,legacy,1024,2,48000,-16,experiment,HHHHH,3,odd,45984,206658,NA,NA,255810,1988,175595,253779,1985,207410,256838,NA,256939,257382,256837,256939,Flanker Task Lab 2.1,105,49425,112,1024
93,93,440,440,#000000,legacy,legacy,legacy,congruent,1,undefined,1,s,0,0,0,0,112,0,0,112,0,112,112,0,112,112,112,112,Fri Sep 22 12:54:24 2023,600,The main experiment item,FALSE,FlankerTaskLab21.osexp,C:\Users\katjo\OneDrive\Desktop,FALSE,mono,FALSE,18,no,white,no,yes,768,legacy,32,79,C:/Users/katjo/OneDrive/Desktop/KJ-subject-3 22F.csv,legacy,Melodramatic Milgram,4.0.5,0,s,NA,s,s,NA,s,372,NA,43996,31063,NA,372,2,legacy,1024,2,48000,-16,experiment,SSSSS,3,odd,45984,206658,NA,NA,257389,1988,175595,253779,1985,207410,258415,NA,258516,258889,258414,258516,Flanker Task Lab 2.1,106,49797,113,1024
93,93,440,440,#000000,legacy,legacy,legacy,incongruent,1,undefined,1,s,0,0,0,0,113,0,0,113,0,113,113,0,113,113,113,113,Fri Sep 22 12:54:24 2023,600,The main experiment item,FALSE,FlankerTaskLab21.osexp,C:\Users\katjo\OneDrive\Desktop,FALSE,mono,FALSE,18,no,white,no,yes,768,legacy,33,79,C:/Users/katjo/OneDrive/Desktop/KJ-subject-3 22F.csv,legacy,Melodramatic Milgram,4.0.5,0,s,NA,s,s,NA,s,466,NA,43996,31063,NA,466,2,legacy,1024,2,48000,-16,experiment,HHSHH,3,odd,45984,206658,NA,NA,258892,1988,175595,253779,1985,207410,259919,NA,260020,260486,259918,260020,Flanker Task Lab 2.1,107,50263,114,1024
93,93,440,440,#000000,legacy,legacy,legacy,incongruent,1,undefined,1,s,0,0,0,0,114,0,0,114,0,114,114,0,114,114,114,114,Fri Sep 22 12:54:24 2023,600,The main experiment item,FALSE,FlankerTaskLab21.osexp,C:\Users\katjo\OneDrive\Desktop,FALSE,mono,FALSE,18,no,white,no,yes,768,legacy,34,79,C:/Users/katjo/OneDrive/Desktop/KJ-subject-3 22F.csv,legacy,Melodramatic Milgram,4.0.5,0,s,NA,s,s,NA,s,447,NA,43996,31063,NA,447,2,legacy,1024,2,48000,-16,experiment,HHSHH,3,odd,45984,206658,NA,NA,260512,1988,175595,253779,1985,207410,261539,NA,261640,262088,261538,261639,Flanker Task Lab 2.1,108,50710,115,1024
93,93,440,440,#000000,legacy,legacy,legacy,congruent,1,undefined,1,s,0,0,0,0,115,0,0,115,0,115,115,0,115,115,115,115,Fri Sep 22 12:54:24 2023,600,The main experiment item,FALSE,FlankerTaskLab21.osexp,C:\Users\katjo\OneDrive\Desktop,FALSE,mono,FALSE,18,no,white,no,yes,768,legacy,35,79,C:/Users/katjo/OneDrive/Desktop/KJ-subject-3 22F.csv,legacy,Melodramatic Milgram,4.0.5,0,s,NA,s,s,NA,s,390,NA,43996,31063,NA,390,2,legacy,1024,2,48000,-16,experiment,SSSSS,3,odd,45984,206658,NA,NA,262114,1988,175595,253779,1985,207410,263148,NA,263248,263639,263147,263248,Flanker Task Lab 2.1,109,51100,116,1024
94,94,440,440,#000000,legacy,legacy,legacy,incongruent,1,undefined,1,h,0,0,0,0,116,0,0,116,0,116,116,0,116,116,116,116,Fri Sep 22 12:54:24 2023,600,The main experiment item,FALSE,FlankerTaskLab21.osexp,C:\Users\katjo\OneDrive\Desktop,FALSE,mono,FALSE,18,no,white,no,yes,768,legacy,36,79,C:/Users/katjo/OneDrive/Desktop/KJ-subject-3 22F.csv,legacy,Melodramatic Milgram,4.0.5,0,h,NA,s,s,NA,h,479,NA,43996,31063,NA,479,2,legacy,1024,2,48000,-16,experiment,SSHSS,3,odd,45984,206658,NA,NA,263640,1988,175595,253779,1985,207410,264662,NA,264763,265243,264661,264763,Flanker Task Lab 2.1,110,51579,117,1024
94,94,440,440,#000000,legacy,legacy,legacy,incongruent,1,undefined,1,s,0,0,0,0,117,0,0,117,0,117,117,0,117,117,117,117,Fri Sep 22 12:54:24 2023,600,The main experiment item,FALSE,FlankerTaskLab21.osexp,C:\Users\katjo\OneDrive\Desktop,FALSE,mono,FALSE,18,no,white,no,yes,768,legacy,37,79,C:/Users/katjo/OneDrive/Desktop/KJ-subject-3 22F.csv,legacy,Melodramatic Milgram,4.0.5,0,s,NA,s,s,NA,s,409,NA,43996,31063,NA,409,2,legacy,1024,2,48000,-16,experiment,HHSHH,3,odd,45984,206658,NA,NA,265249,1988,175595,253779,1985,207410,266269,NA,266369,266778,266268,266369,Flanker Task Lab 2.1,111,51988,118,1024
94,94,440,440,#000000,legacy,legacy,legacy,congruent,1,undefined,1,s,0,0,0,0,118,0,0,118,0,118,118,0,118,118,118,118,Fri Sep 22 12:54:24 2023,600,The main experiment item,FALSE,FlankerTaskLab21.osexp,C:\Users\katjo\OneDrive\Desktop,FALSE,mono,FALSE,18,no,white,no,yes,768,legacy,38,79,C:/Users/katjo/OneDrive/Desktop/KJ-subject-3 22F.csv,legacy,Melodramatic Milgram,4.0.5,0,s,NA,s,s,NA,s,455,NA,43996,31063,NA,455,2,legacy,1024,2,48000,-16,experiment,SSSSS,3,odd,45984,206658,NA,NA,266785,1988,175595,253779,1985,207410,267810,NA,267910,268366,267809,267910,Flanker Task Lab 2.1,112,52443,119,1024
94,94,440,440,#000000,legacy,legacy,legacy,congruent,1,undefined,1,s,0,0,0,0,119,0,0,119,0,119,119,0,119,119,119,119,Fri Sep 22 12:54:24 2023,600,The main experiment item,FALSE,FlankerTaskLab21.osexp,C:\Users\katjo\OneDrive\Desktop,FALSE,mono,FALSE,18,no,white,no,yes,768,legacy,39,79,C:/Users/katjo/OneDrive/Desktop/KJ-subject-3 22F.csv,legacy,Melodramatic Milgram,4.0.5,0,s,NA,s,s,NA,s,393,NA,43996,31063,NA,393,2,legacy,1024,2,48000,-16,experiment,SSSSS,3,odd,45984,206658,NA,NA,268372,1988,175595,253779,1985,207410,269397,NA,269498,269892,269396,269498,Flanker Task Lab 2.1,113,52836,120,1024
94,94,440,440,#000000,legacy,legacy,legacy,incongruent,1,undefined,1,s,0,0,0,0,120,0,0,120,0,120,120,0,120,120,120,120,Fri Sep 22 12:54:24 2023,600,The main experiment item,FALSE,FlankerTaskLab21.osexp,C:\Users\katjo\OneDrive\Desktop,FALSE,mono,FALSE,18,no,white,no,yes,768,legacy,40,79,C:/Users/katjo/OneDrive/Desktop/KJ-subject-3 22F.csv,legacy,Melodramatic Milgram,4.0.5,0,s,NA,s,s,NA,s,429,NA,43996,31063,NA,429,2,legacy,1024,2,48000,-16,experiment,HHSHH,3,odd,45984,206658,NA,NA,269894,1988,175595,253779,1985,207410,270916,NA,271017,271447,270916,271017,Flanker Task Lab 2.1,114,53265,121,1024
94,94,440,440,#000000,legacy,legacy,legacy,incongruent,1,undefined,1,h,0,0,0,0,121,0,0,121,0,121,121,0,121,121,121,121,Fri Sep 22 12:54:24 2023,600,The main experiment item,FALSE,FlankerTaskLab21.osexp,C:\Users\katjo\OneDrive\Desktop,FALSE,mono,FALSE,18,no,white,no,yes,768,legacy,41,79,C:/Users/katjo/OneDrive/Desktop/KJ-subject-3 22F.csv,legacy,Melodramatic Milgram,4.0.5,0,h,NA,s,s,NA,h,457,NA,43996,31063,NA,457,2,legacy,1024,2,48000,-16,experiment,SSHSS,3,odd,45984,206658,NA,NA,271473,1988,175595,253779,1985,207410,272511,NA,272611,273069,272510,272611,Flanker Task Lab 2.1,115,53722,122,1024
94,94,440,440,#000000,legacy,legacy,legacy,congruent,1,undefined,1,s,0,0,0,0,122,0,0,122,0,122,122,0,122,122,122,122,Fri Sep 22 12:54:24 2023,600,The main experiment item,FALSE,FlankerTaskLab21.osexp,C:\Users\katjo\OneDrive\Desktop,FALSE,mono,FALSE,18,no,white,no,yes,768,legacy,42,79,C:/Users/katjo/OneDrive/Desktop/KJ-subject-3 22F.csv,legacy,Melodramatic Milgram,4.0.5,0,s,NA,s,s,NA,s,510,NA,43996,31063,NA,510,2,legacy,1024,2,48000,-16,experiment,SSSSS,3,odd,45984,206658,NA,NA,273096,1988,175595,253779,1985,207410,274117,NA,274217,274728,274116,274217,Flanker Task Lab 2.1,116,54232,123,1024
94,94,441,441,#000000,legacy,legacy,legacy,incongruent,1,undefined,1,h,0,0,0,0,123,0,0,123,0,123,123,0,123,123,123,123,Fri Sep 22 12:54:24 2023,600,The main experiment item,FALSE,FlankerTaskLab21.osexp,C:\Users\katjo\OneDrive\Desktop,FALSE,mono,FALSE,18,no,white,no,yes,768,legacy,43,79,C:/Users/katjo/OneDrive/Desktop/KJ-subject-3 22F.csv,legacy,Melodramatic Milgram,4.0.5,0,h,NA,s,s,NA,h,519,NA,43996,31063,NA,519,2,legacy,1024,2,48000,-16,experiment,SSHSS,3,odd,45984,206658,NA,NA,274754,1988,175595,253779,1985,207410,275785,NA,275885,276405,275784,275885,Flanker Task Lab 2.1,117,54751,124,1024
94,94,441,441,#000000,legacy,legacy,legacy,congruent,1,undefined,1,h,0,0,0,0,124,0,0,124,0,124,124,0,124,124,124,124,Fri Sep 22 12:54:24 2023,600,The main experiment item,FALSE,FlankerTaskLab21.osexp,C:\Users\katjo\OneDrive\Desktop,FALSE,mono,FALSE,18,no,white,no,yes,768,legacy,44,79,C:/Users/katjo/OneDrive/Desktop/KJ-subject-3 22F.csv,legacy,Melodramatic Milgram,4.0.5,0,h,NA,s,s,NA,h,462,NA,43996,31063,NA,462,2,legacy,1024,2,48000,-16,experiment,HHHHH,3,odd,45984,206658,NA,NA,276431,1988,175595,253779,1985,207410,277469,NA,277569,278031,277468,277569,Flanker Task Lab 2.1,118,55213,125,1024
94,94,441,441,#000000,legacy,legacy,legacy,incongruent,1,undefined,1,h,0,0,0,0,125,0,0,125,0,125,125,0,125,125,125,125,Fri Sep 22 12:54:24 2023,600,The main experiment item,FALSE,FlankerTaskLab21.osexp,C:\Users\katjo\OneDrive\Desktop,FALSE,mono,FALSE,18,no,white,no,yes,768,legacy,45,79,C:/Users/katjo/OneDrive/Desktop/KJ-subject-3 22F.csv,legacy,Melodramatic Milgram,4.0.5,0,h,NA,s,s,NA,h,408,NA,43996,31063,NA,408,2,legacy,1024,2,48000,-16,experiment,SSHSS,3,odd,45984,206658,NA,NA,278058,1988,175595,253779,1985,207410,279079,NA,279180,279589,279078,279180,Flanker Task Lab 2.1,119,55621,126,1024
94,94,440,440,#000000,legacy,legacy,legacy,congruent,1,undefined,1,s,0,0,0,0,126,0,0,126,0,126,126,0,126,126,126,126,Fri Sep 22 12:54:24 2023,600,The main experiment item,FALSE,FlankerTaskLab21.osexp,C:\Users\katjo\OneDrive\Desktop,FALSE,mono,FALSE,18,no,white,no,yes,768,legacy,46,79,C:/Users/katjo/OneDrive/Desktop/KJ-subject-3 22F.csv,legacy,Melodramatic Milgram,4.0.5,0,s,NA,s,s,NA,s,351,NA,43996,31063,NA,351,2,legacy,1024,2,48000,-16,experiment,SSSSS,3,odd,45984,206658,NA,NA,279596,1988,175595,253779,1985,207410,280619,NA,280720,281072,280618,280720,Flanker Task Lab 2.1,120,55972,127,1024
94,94,441,441,#000000,legacy,legacy,legacy,incongruent,1,undefined,1,h,0,0,0,0,127,0,0,127,0,127,127,0,127,127,127,127,Fri Sep 22 12:54:24 2023,600,The main experiment item,FALSE,FlankerTaskLab21.osexp,C:\Users\katjo\OneDrive\Desktop,FALSE,mono,FALSE,18,no,white,no,yes,768,legacy,47,79,C:/Users/katjo/OneDrive/Desktop/KJ-subject-3 22F.csv,legacy,Melodramatic Milgram,4.0.5,0,h,NA,s,s,NA,h,492,NA,43996,31063,NA,492,2,legacy,1024,2,48000,-16,experiment,SSHSS,3,odd,45984,206658,NA,NA,281098,1988,175595,253779,1985,207410,282120,NA,282220,282713,282119,282220,Flanker Task Lab 2.1,121,56464,128,1024
94,94,440,440,#000000,legacy,legacy,legacy,congruent,1,undefined,1,h,0,0,0,0,128,0,0,128,0,128,128,0,128,128,128,128,Fri Sep 22 12:54:24 2023,600,The main experiment item,FALSE,FlankerTaskLab21.osexp,C:\Users\katjo\OneDrive\Desktop,FALSE,mono,FALSE,18,no,white,no,yes,768,legacy,48,79,C:/Users/katjo/OneDrive/Desktop/KJ-subject-3 22F.csv,legacy,Melodramatic Milgram,4.0.5,0,h,NA,s,s,NA,h,416,NA,43996,31063,NA,416,2,legacy,1024,2,48000,-16,experiment,HHHHH,3,odd,45984,206658,NA,NA,282715,1988,175595,253779,1985,207410,283736,NA,283837,284254,283735,283837,Flanker Task Lab 2.1,122,56880,129,1024
94,94,440,440,#000000,legacy,legacy,legacy,congruent,1,undefined,1,h,0,0,0,0,129,0,0,129,0,129,129,0,129,129,129,129,Fri Sep 22 12:54:24 2023,600,The main experiment item,FALSE,FlankerTaskLab21.osexp,C:\Users\katjo\OneDrive\Desktop,FALSE,mono,FALSE,18,no,white,no,yes,768,legacy,49,79,C:/Users/katjo/OneDrive/Desktop/KJ-subject-3 22F.csv,legacy,Melodramatic Milgram,4.0.5,0,h,NA,s,s,NA,h,389,NA,43996,31063,NA,389,2,legacy,1024,2,48000,-16,experiment,HHHHH,3,odd,45984,206658,NA,NA,284256,1988,175595,253779,1985,207410,285279,NA,285380,285770,285278,285380,Flanker Task Lab 2.1,123,57269,130,1024
94,94,440,440,#000000,legacy,legacy,legacy,incongruent,1,undefined,1,s,0,0,0,0,130,0,0,130,0,130,130,0,130,130,130,130,Fri Sep 22 12:54:24 2023,600,The main experiment item,FALSE,FlankerTaskLab21.osexp,C:\Users\katjo\OneDrive\Desktop,FALSE,mono,FALSE,18,no,white,no,yes,768,legacy,50,79,C:/Users/katjo/OneDrive/Desktop/KJ-subject-3 22F.csv,legacy,Melodramatic Milgram,4.0.5,0,s,NA,s,s,NA,s,418,NA,43996,31063,NA,418,2,legacy,1024,2,48000,-16,experiment,HHSHH,3,odd,45984,206658,NA,NA,285777,1988,175595,253779,1985,207410,286802,NA,286903,287322,286801,286903,Flanker Task Lab 2.1,124,57687,131,1024
94,94,439,439,#000000,legacy,legacy,legacy,congruent,1,undefined,1,h,0,0,0,0,131,0,0,131,0,131,131,0,131,131,131,131,Fri Sep 22 12:54:24 2023,600,The main experiment item,FALSE,FlankerTaskLab21.osexp,C:\Users\katjo\OneDrive\Desktop,FALSE,mono,FALSE,18,no,white,no,yes,768,legacy,51,79,C:/Users/katjo/OneDrive/Desktop/KJ-subject-3 22F.csv,legacy,Melodramatic Milgram,4.0.5,0,h,NA,s,s,NA,h,345,NA,43996,31063,NA,345,2,legacy,1024,2,48000,-16,experiment,HHHHH,3,odd,45984,206658,NA,NA,287348,1988,175595,253779,1985,207410,288369,NA,288470,288816,288368,288470,Flanker Task Lab 2.1,125,58032,132,1024
94,94,439,439,#000000,legacy,legacy,legacy,incongruent,1,undefined,1,h,0,0,0,0,132,0,0,132,0,132,132,0,132,132,132,132,Fri Sep 22 12:54:24 2023,600,The main experiment item,FALSE,FlankerTaskLab21.osexp,C:\Users\katjo\OneDrive\Desktop,FALSE,mono,FALSE,18,no,white,no,yes,768,legacy,52,79,C:/Users/katjo/OneDrive/Desktop/KJ-subject-3 22F.csv,legacy,Melodramatic Milgram,4.0.5,0,h,NA,s,s,NA,h,425,NA,43996,31063,NA,425,2,legacy,1024,2,48000,-16,experiment,SSHSS,3,odd,45984,206658,NA,NA,288822,1988,175595,253779,1985,207410,289853,NA,289953,290379,289852,289953,Flanker Task Lab 2.1,126,58457,133,1024
94,94,439,439,#000000,legacy,legacy,legacy,incongruent,1,undefined,1,h,0,0,0,0,133,0,0,133,0,133,133,0,133,133,133,133,Fri Sep 22 12:54:24 2023,600,The main experiment item,FALSE,FlankerTaskLab21.osexp,C:\Users\katjo\OneDrive\Desktop,FALSE,mono,FALSE,18,no,white,no,yes,768,legacy,53,79,C:/Users/katjo/OneDrive/Desktop/KJ-subject-3 22F.csv,legacy,Melodramatic Milgram,4.0.5,0,h,NA,s,s,NA,h,449,NA,43996,31063,NA,449,2,legacy,1024,2,48000,-16,experiment,SSHSS,3,odd,45984,206658,NA,NA,290385,1988,175595,253779,1985,207410,291409,NA,291510,291960,291408,291509,Flanker Task Lab 2.1,127,58906,134,1024
94,94,439,439,#000000,legacy,legacy,legacy,congruent,1,undefined,1,h,0,0,0,0,134,0,0,134,0,134,134,0,134,134,134,134,Fri Sep 22 12:54:24 2023,600,The main experiment item,FALSE,FlankerTaskLab21.osexp,C:\Users\katjo\OneDrive\Desktop,FALSE,mono,FALSE,18,no,white,no,yes,768,legacy,54,79,C:/Users/katjo/OneDrive/Desktop/KJ-subject-3 22F.csv,legacy,Melodramatic Milgram,4.0.5,0,h,NA,s,s,NA,h,380,NA,43996,31063,NA,380,2,legacy,1024,2,48000,-16,experiment,HHHHH,3,odd,45984,206658,NA,NA,291967,1988,175595,253779,1985,207410,292990,NA,293090,293470,292989,293090,Flanker Task Lab 2.1,128,59286,135,1024
94,94,438,438,#000000,legacy,legacy,legacy,incongruent,1,undefined,1,h,0,0,0,0,135,0,0,135,0,135,135,0,135,135,135,135,Fri Sep 22 12:54:24 2023,600,The main experiment item,FALSE,FlankerTaskLab21.osexp,C:\Users\katjo\OneDrive\Desktop,FALSE,mono,FALSE,18,no,white,no,yes,768,legacy,55,79,C:/Users/katjo/OneDrive/Desktop/KJ-subject-3 22F.csv,legacy,Melodramatic Milgram,4.0.5,0,h,NA,s,s,NA,h,402,NA,43996,31063,NA,402,2,legacy,1024,2,48000,-16,experiment,SSHSS,3,odd,45984,206658,NA,NA,293496,1988,175595,253779,1985,207410,294520,NA,294621,295023,294519,294621,Flanker Task Lab 2.1,129,59688,136,1024
94,94,438,438,#000000,legacy,legacy,legacy,incongruent,0,undefined,0,s,0,0,0,0,136,0,0,136,0,136,136,0,136,136,136,136,Fri Sep 22 12:54:24 2023,600,The main experiment item,FALSE,FlankerTaskLab21.osexp,C:\Users\katjo\OneDrive\Desktop,FALSE,mono,FALSE,18,no,white,no,yes,768,legacy,56,79,C:/Users/katjo/OneDrive/Desktop/KJ-subject-3 22F.csv,legacy,Melodramatic Milgram,4.0.5,0,h,NA,s,s,NA,h,417,NA,43996,31063,NA,417,2,legacy,1024,2,48000,-16,experiment,HHSHH,3,odd,45984,206658,NA,NA,295025,1988,175595,253779,1985,207410,296047,NA,296147,296564,296047,296147,Flanker Task Lab 2.1,129,60105,137,1024
94,94,439,439,#000000,legacy,legacy,legacy,incongruent,1,undefined,1,s,0,0,0,0,137,0,0,137,0,137,137,0,137,137,137,137,Fri Sep 22 12:54:24 2023,600,The main experiment item,FALSE,FlankerTaskLab21.osexp,C:\Users\katjo\OneDrive\Desktop,FALSE,mono,FALSE,18,no,white,no,yes,768,legacy,57,79,C:/Users/katjo/OneDrive/Desktop/KJ-subject-3 22F.csv,legacy,Melodramatic Milgram,4.0.5,0,s,NA,s,s,NA,s,492,NA,43996,31063,NA,492,2,legacy,1024,2,48000,-16,experiment,HHSHH,3,odd,45984,206658,NA,NA,297091,1988,175595,296590,1985,207410,298115,NA,298215,298708,298114,298215,Flanker Task Lab 2.1,130,60597,138,1024
94,94,439,439,#000000,legacy,legacy,legacy,congruent,1,undefined,1,s,0,0,0,0,138,0,0,138,0,138,138,0,138,138,138,138,Fri Sep 22 12:54:24 2023,600,The main experiment item,FALSE,FlankerTaskLab21.osexp,C:\Users\katjo\OneDrive\Desktop,FALSE,mono,FALSE,18,no,white,no,yes,768,legacy,58,79,C:/Users/katjo/OneDrive/Desktop/KJ-subject-3 22F.csv,legacy,Melodramatic Milgram,4.0.5,0,s,NA,s,s,NA,s,462,NA,43996,31063,NA,462,2,legacy,1024,2,48000,-16,experiment,SSSSS,3,odd,45984,206658,NA,NA,298715,1988,175595,296590,1985,207410,299736,NA,299837,300300,299735,299837,Flanker Task Lab 2.1,131,61059,139,1024
94,94,439,439,#000000,legacy,legacy,legacy,congruent,1,undefined,1,h,0,0,0,0,139,0,0,139,0,139,139,0,139,139,139,139,Fri Sep 22 12:54:24 2023,600,The main experiment item,FALSE,FlankerTaskLab21.osexp,C:\Users\katjo\OneDrive\Desktop,FALSE,mono,FALSE,18,no,white,no,yes,768,legacy,59,79,C:/Users/katjo/OneDrive/Desktop/KJ-subject-3 22F.csv,legacy,Melodramatic Milgram,4.0.5,0,h,NA,s,s,NA,h,408,NA,43996,31063,NA,408,2,legacy,1024,2,48000,-16,experiment,HHHHH,3,odd,45984,206658,NA,NA,300306,1988,175595,296590,1985,207410,301334,NA,301435,301844,301333,301435,Flanker Task Lab 2.1,132,61467,140,1024
94,94,438,438,#000000,legacy,legacy,legacy,congruent,1,undefined,1,s,0,0,0,0,140,0,0,140,0,140,140,0,140,140,140,140,Fri Sep 22 12:54:24 2023,600,The main experiment item,FALSE,FlankerTaskLab21.osexp,C:\Users\katjo\OneDrive\Desktop,FALSE,mono,FALSE,18,no,white,no,yes,768,legacy,60,79,C:/Users/katjo/OneDrive/Desktop/KJ-subject-3 22F.csv,legacy,Melodramatic Milgram,4.0.5,0,s,NA,s,s,NA,s,405,NA,43996,31063,NA,405,2,legacy,1024,2,48000,-16,experiment,SSSSS,3,odd,45984,206658,NA,NA,301846,1988,175595,296590,1985,207410,302868,NA,302969,303375,302867,302969,Flanker Task Lab 2.1,133,61872,141,1024
94,94,438,438,#000000,legacy,legacy,legacy,congruent,1,undefined,1,h,0,0,0,0,141,0,0,141,0,141,141,0,141,141,141,141,Fri Sep 22 12:54:24 2023,600,The main experiment item,FALSE,FlankerTaskLab21.osexp,C:\Users\katjo\OneDrive\Desktop,FALSE,mono,FALSE,18,no,white,no,yes,768,legacy,61,79,C:/Users/katjo/OneDrive/Desktop/KJ-subject-3 22F.csv,legacy,Melodramatic Milgram,4.0.5,0,h,NA,s,s,NA,h,404,NA,43996,31063,NA,404,2,legacy,1024,2,48000,-16,experiment,HHHHH,3,odd,45984,206658,NA,NA,303401,1988,175595,296590,1985,207410,304431,NA,304531,304936,304430,304531,Flanker Task Lab 2.1,134,62276,142,1024
94,94,438,438,#000000,legacy,legacy,legacy,incongruent,1,undefined,1,h,0,0,0,0,142,0,0,142,0,142,142,0,142,142,142,142,Fri Sep 22 12:54:24 2023,600,The main experiment item,FALSE,FlankerTaskLab21.osexp,C:\Users\katjo\OneDrive\Desktop,FALSE,mono,FALSE,18,no,white,no,yes,768,legacy,62,79,C:/Users/katjo/OneDrive/Desktop/KJ-subject-3 22F.csv,legacy,Melodramatic Milgram,4.0.5,0,h,NA,s,s,NA,h,487,NA,43996,31063,NA,487,2,legacy,1024,2,48000,-16,experiment,SSHSS,3,odd,45984,206658,NA,NA,304939,1988,175595,296590,1985,207410,305961,NA,306061,306549,305961,306061,Flanker Task Lab 2.1,135,62763,143,1024
94,94,438,438,#000000,legacy,legacy,legacy,congruent,1,undefined,1,s,0,0,0,0,143,0,0,143,0,143,143,0,143,143,143,143,Fri Sep 22 12:54:24 2023,600,The main experiment item,FALSE,FlankerTaskLab21.osexp,C:\Users\katjo\OneDrive\Desktop,FALSE,mono,FALSE,18,no,white,no,yes,768,legacy,63,79,C:/Users/katjo/OneDrive/Desktop/KJ-subject-3 22F.csv,legacy,Melodramatic Milgram,4.0.5,0,s,NA,s,s,NA,s,415,NA,43996,31063,NA,415,2,legacy,1024,2,48000,-16,experiment,SSSSS,3,odd,45984,206658,NA,NA,306576,1988,175595,296590,1985,207410,307611,NA,307711,308127,307610,307711,Flanker Task Lab 2.1,136,63178,144,1024
94,94,438,438,#000000,legacy,legacy,legacy,incongruent,1,undefined,1,h,0,0,0,0,144,0,0,144,0,144,144,0,144,144,144,144,Fri Sep 22 12:54:24 2023,600,The main experiment item,FALSE,FlankerTaskLab21.osexp,C:\Users\katjo\OneDrive\Desktop,FALSE,mono,FALSE,18,no,white,no,yes,768,legacy,64,79,C:/Users/katjo/OneDrive/Desktop/KJ-subject-3 22F.csv,legacy,Melodramatic Milgram,4.0.5,0,h,NA,s,s,NA,h,476,NA,43996,31063,NA,476,2,legacy,1024,2,48000,-16,experiment,SSHSS,3,odd,45984,206658,NA,NA,308134,1988,175595,296590,1985,207410,309155,NA,309255,309731,309154,309255,Flanker Task Lab 2.1,137,63654,145,1024
94,94,438,438,#000000,legacy,legacy,legacy,incongruent,1,undefined,1,s,0,0,0,0,145,0,0,145,0,145,145,0,145,145,145,145,Fri Sep 22 12:54:24 2023,600,The main experiment item,FALSE,FlankerTaskLab21.osexp,C:\Users\katjo\OneDrive\Desktop,FALSE,mono,FALSE,18,no,white,no,yes,768,legacy,65,79,C:/Users/katjo/OneDrive/Desktop/KJ-subject-3 22F.csv,legacy,Melodramatic Milgram,4.0.5,0,s,NA,s,s,NA,s,396,NA,43996,31063,NA,396,2,legacy,1024,2,48000,-16,experiment,HHSHH,3,odd,45984,206658,NA,NA,309738,1988,175595,296590,1985,207410,310761,NA,310861,311258,310760,310861,Flanker Task Lab 2.1,138,64050,146,1024
94,94,438,438,#000000,legacy,legacy,legacy,congruent,1,undefined,1,h,0,0,0,0,146,0,0,146,0,146,146,0,146,146,146,146,Fri Sep 22 12:54:24 2023,600,The main experiment item,FALSE,FlankerTaskLab21.osexp,C:\Users\katjo\OneDrive\Desktop,FALSE,mono,FALSE,18,no,white,no,yes,768,legacy,66,79,C:/Users/katjo/OneDrive/Desktop/KJ-subject-3 22F.csv,legacy,Melodramatic Milgram,4.0.5,0,h,NA,s,s,NA,h,471,NA,43996,31063,NA,471,2,legacy,1024,2,48000,-16,experiment,HHHHH,3,odd,45984,206658,NA,NA,311284,1988,175595,296590,1985,207410,312320,NA,312420,312893,312319,312420,Flanker Task Lab 2.1,139,64521,147,1024
94,94,438,438,#000000,legacy,legacy,legacy,congruent,1,undefined,1,h,0,0,0,0,147,0,0,147,0,147,147,0,147,147,147,147,Fri Sep 22 12:54:24 2023,600,The main experiment item,FALSE,FlankerTaskLab21.osexp,C:\Users\katjo\OneDrive\Desktop,FALSE,mono,FALSE,18,no,white,no,yes,768,legacy,67,79,C:/Users/katjo/OneDrive/Desktop/KJ-subject-3 22F.csv,legacy,Melodramatic Milgram,4.0.5,0,h,NA,s,s,NA,h,425,NA,43996,31063,NA,425,2,legacy,1024,2,48000,-16,experiment,HHHHH,3,odd,45984,206658,NA,NA,312920,1988,175595,296590,1985,207410,313943,NA,314044,314470,313943,314044,Flanker Task Lab 2.1,140,64946,148,1024
94,94,438,438,#000000,legacy,legacy,legacy,congruent,1,undefined,1,s,0,0,0,0,148,0,0,148,0,148,148,0,148,148,148,148,Fri Sep 22 12:54:24 2023,600,The main experiment item,FALSE,FlankerTaskLab21.osexp,C:\Users\katjo\OneDrive\Desktop,FALSE,mono,FALSE,18,no,white,no,yes,768,legacy,68,79,C:/Users/katjo/OneDrive/Desktop/KJ-subject-3 22F.csv,legacy,Melodramatic Milgram,4.0.5,0,s,NA,s,s,NA,s,399,NA,43996,31063,NA,399,2,legacy,1024,2,48000,-16,experiment,SSSSS,3,odd,45984,206658,NA,NA,314476,1988,175595,296590,1985,207410,315497,NA,315599,315999,315496,315598,Flanker Task Lab 2.1,141,65345,149,1024
94,94,438,438,#000000,legacy,legacy,legacy,congruent,1,undefined,1,h,0,0,0,0,149,0,0,149,0,149,149,0,149,149,149,149,Fri Sep 22 12:54:24 2023,600,The main experiment item,FALSE,FlankerTaskLab21.osexp,C:\Users\katjo\OneDrive\Desktop,FALSE,mono,FALSE,18,no,white,no,yes,768,legacy,69,79,C:/Users/katjo/OneDrive/Desktop/KJ-subject-3 22F.csv,legacy,Melodramatic Milgram,4.0.5,0,h,NA,s,s,NA,h,433,NA,43996,31063,NA,433,2,legacy,1024,2,48000,-16,experiment,HHHHH,3,odd,45984,206658,NA,NA,316005,1988,175595,296590,1985,207410,317028,NA,317129,317563,317027,317129,Flanker Task Lab 2.1,142,65778,150,1024
94,94,438,438,#000000,legacy,legacy,legacy,incongruent,1,undefined,1,h,0,0,0,0,150,0,0,150,0,150,150,0,150,150,150,150,Fri Sep 22 12:54:24 2023,600,The main experiment item,FALSE,FlankerTaskLab21.osexp,C:\Users\katjo\OneDrive\Desktop,FALSE,mono,FALSE,18,no,white,no,yes,768,legacy,70,79,C:/Users/katjo/OneDrive/Desktop/KJ-subject-3 22F.csv,legacy,Melodramatic Milgram,4.0.5,0,h,NA,s,s,NA,h,467,NA,43996,31063,NA,467,2,legacy,1024,2,48000,-16,experiment,SSHSS,3,odd,45984,206658,NA,NA,317569,1988,175595,296590,1985,207410,318617,NA,318718,319186,318616,318718,Flanker Task Lab 2.1,143,66245,151,1024
94,94,438,438,#000000,legacy,legacy,legacy,congruent,1,undefined,1,s,0,0,0,0,151,0,0,151,0,151,151,0,151,151,151,151,Fri Sep 22 12:54:24 2023,600,The main experiment item,FALSE,FlankerTaskLab21.osexp,C:\Users\katjo\OneDrive\Desktop,FALSE,mono,FALSE,18,no,white,no,yes,768,legacy,71,79,C:/Users/katjo/OneDrive/Desktop/KJ-subject-3 22F.csv,legacy,Melodramatic Milgram,4.0.5,0,s,NA,s,s,NA,s,472,NA,43996,31063,NA,472,2,legacy,1024,2,48000,-16,experiment,SSSSS,3,odd,45984,206658,NA,NA,319212,1988,175595,296590,1985,207410,320234,NA,320335,320808,320233,320335,Flanker Task Lab 2.1,144,66717,152,1024
94,94,439,439,#000000,legacy,legacy,legacy,congruent,1,undefined,1,h,0,0,0,0,152,0,0,152,0,152,152,0,152,152,152,152,Fri Sep 22 12:54:24 2023,600,The main experiment item,FALSE,FlankerTaskLab21.osexp,C:\Users\katjo\OneDrive\Desktop,FALSE,mono,FALSE,18,no,white,no,yes,768,legacy,72,79,C:/Users/katjo/OneDrive/Desktop/KJ-subject-3 22F.csv,legacy,Melodramatic Milgram,4.0.5,0,h,NA,s,s,NA,h,459,NA,43996,31063,NA,459,2,legacy,1024,2,48000,-16,experiment,HHHHH,3,odd,45984,206658,NA,NA,320815,1988,175595,296590,1985,207410,321836,NA,321937,322397,321836,321937,Flanker Task Lab 2.1,145,67176,153,1024
94,94,438,438,#000000,legacy,legacy,legacy,incongruent,1,undefined,1,s,0,0,0,0,153,0,0,153,0,153,153,0,153,153,153,153,Fri Sep 22 12:54:24 2023,600,The main experiment item,FALSE,FlankerTaskLab21.osexp,C:\Users\katjo\OneDrive\Desktop,FALSE,mono,FALSE,18,no,white,no,yes,768,legacy,73,79,C:/Users/katjo/OneDrive/Desktop/KJ-subject-3 22F.csv,legacy,Melodramatic Milgram,4.0.5,0,s,NA,s,s,NA,s,409,NA,43996,31063,NA,409,2,legacy,1024,2,48000,-16,experiment,HHSHH,3,odd,45984,206658,NA,NA,322404,1988,175595,296590,1985,207410,323427,NA,323528,323938,323426,323527,Flanker Task Lab 2.1,146,67585,154,1024
94,94,437,437,#000000,legacy,legacy,legacy,congruent,0,undefined,0,s,0,0,0,0,154,0,0,154,0,154,154,0,154,154,154,154,Fri Sep 22 12:54:24 2023,600,The main experiment item,FALSE,FlankerTaskLab21.osexp,C:\Users\katjo\OneDrive\Desktop,FALSE,mono,FALSE,18,no,white,no,yes,768,legacy,74,79,C:/Users/katjo/OneDrive/Desktop/KJ-subject-3 22F.csv,legacy,Melodramatic Milgram,4.0.5,0,h,NA,s,s,NA,h,266,NA,43996,31063,NA,266,2,legacy,1024,2,48000,-16,experiment,SSSSS,3,odd,45984,206658,NA,NA,323939,1988,175595,296590,1985,207410,324970,NA,325071,325338,324969,325071,Flanker Task Lab 2.1,146,67851,155,1024
94,94,437,437,#000000,legacy,legacy,legacy,congruent,1,undefined,1,s,0,0,0,0,155,0,0,155,0,155,155,0,155,155,155,155,Fri Sep 22 12:54:24 2023,600,The main experiment item,FALSE,FlankerTaskLab21.osexp,C:\Users\katjo\OneDrive\Desktop,FALSE,mono,FALSE,18,no,white,no,yes,768,legacy,75,79,C:/Users/katjo/OneDrive/Desktop/KJ-subject-3 22F.csv,legacy,Melodramatic Milgram,4.0.5,0,s,NA,s,s,NA,s,374,NA,43996,31063,NA,374,2,legacy,1024,2,48000,-16,experiment,SSSSS,3,odd,45984,206658,NA,NA,325844,1988,175595,325344,1985,207410,326864,NA,326964,327339,326864,326964,Flanker Task Lab 2.1,147,68225,156,1024
94,94,437,437,#000000,legacy,legacy,legacy,incongruent,1,undefined,1,h,0,0,0,0,156,0,0,156,0,156,156,0,156,156,156,156,Fri Sep 22 12:54:24 2023,600,The main experiment item,FALSE,FlankerTaskLab21.osexp,C:\Users\katjo\OneDrive\Desktop,FALSE,mono,FALSE,18,no,white,no,yes,768,legacy,76,79,C:/Users/katjo/OneDrive/Desktop/KJ-subject-3 22F.csv,legacy,Melodramatic Milgram,4.0.5,0,h,NA,s,s,NA,h,398,NA,43996,31063,NA,398,2,legacy,1024,2,48000,-16,experiment,SSHSS,3,odd,45984,206658,NA,NA,327345,1988,175595,325344,1985,207410,328367,NA,328468,328867,328366,328468,Flanker Task Lab 2.1,148,68623,157,1024
94,94,436,436,#000000,legacy,legacy,legacy,incongruent,1,undefined,1,h,0,0,0,0,157,0,0,157,0,157,157,0,157,157,157,157,Fri Sep 22 12:54:24 2023,600,The main experiment item,FALSE,FlankerTaskLab21.osexp,C:\Users\katjo\OneDrive\Desktop,FALSE,mono,FALSE,18,no,white,no,yes,768,legacy,77,79,C:/Users/katjo/OneDrive/Desktop/KJ-subject-3 22F.csv,legacy,Melodramatic Milgram,4.0.5,0,h,NA,s,s,NA,h,348,NA,43996,31063,NA,348,2,legacy,1024,2,48000,-16,experiment,SSHSS,3,odd,45984,206658,NA,NA,328873,1988,175595,325344,1985,207410,329898,NA,329998,330346,329897,329998,Flanker Task Lab 2.1,149,68971,158,1024
94,94,436,436,#000000,legacy,legacy,legacy,congruent,1,undefined,1,h,0,0,0,0,158,0,0,158,0,158,158,0,158,158,158,158,Fri Sep 22 12:54:24 2023,600,The main experiment item,FALSE,FlankerTaskLab21.osexp,C:\Users\katjo\OneDrive\Desktop,FALSE,mono,FALSE,18,no,white,no,yes,768,legacy,78,79,C:/Users/katjo/OneDrive/Desktop/KJ-subject-3 22F.csv,legacy,Melodramatic Milgram,4.0.5,0,h,NA,s,s,NA,h,354,NA,43996,31063,NA,354,2,legacy,1024,2,48000,-16,experiment,HHHHH,3,odd,45984,206658,NA,NA,330353,1988,175595,325344,1985,207410,331377,NA,331478,331833,331376,331478,Flanker Task Lab 2.1,150,69325,159,1024
93,93,435,435,#000000,legacy,legacy,legacy,incongruent,0,undefined,0,h,0,0,0,0,159,0,0,159,0,159,159,0,159,159,159,159,Fri Sep 22 12:54:24 2023,600,The main experiment item,FALSE,FlankerTaskLab21.osexp,C:\Users\katjo\OneDrive\Desktop,FALSE,mono,FALSE,18,no,white,no,yes,768,legacy,79,79,C:/Users/katjo/OneDrive/Desktop/KJ-subject-3 22F.csv,legacy,Melodramatic Milgram,4.0.5,0,s,NA,s,s,NA,s,416,NA,43996,31063,NA,416,2,legacy,1024,2,48000,-16,experiment,SSHSS,3,odd,45984,206658,NA,NA,331840,1988,175595,325344,1985,207410,332875,NA,332976,333392,332873,332976,Flanker Task Lab 2.1,150,69741,160,1024
93,93,436,436,#000000,legacy,legacy,legacy,congruent,1,undefined,1,h,0,0,0,0,160,0,0,160,0,160,160,0,160,160,160,160,Fri Sep 22 12:54:24 2023,300,The main experiment item,FALSE,FlankerTaskLab21.osexp,C:\Users\katjo\OneDrive\Desktop,FALSE,mono,FALSE,18,no,white,no,yes,768,legacy,0,79,C:/Users/katjo/OneDrive/Desktop/KJ-subject-3 22F.csv,legacy,Melodramatic Milgram,4.0.5,0,h,NA,s,s,h,h,550,NA,43996,31063,9592,550,2,legacy,1024,2,48000,-16,experiment,HHHHH,3,odd,45984,206658,344491,NA,333899,1988,175595,333399,1985,207410,344514,334899,344615,345166,344514,344615,Flanker Task Lab 2.1,151,70291,161,1024
93,93,436,436,#000000,legacy,legacy,legacy,congruent,1,undefined,1,h,0,0,0,0,161,0,0,161,0,161,161,0,161,161,161,161,Fri Sep 22 12:54:24 2023,300,The main experiment item,FALSE,FlankerTaskLab21.osexp,C:\Users\katjo\OneDrive\Desktop,FALSE,mono,FALSE,18,no,white,no,yes,768,legacy,1,79,C:/Users/katjo/OneDrive/Desktop/KJ-subject-3 22F.csv,legacy,Melodramatic Milgram,4.0.5,0,h,NA,s,s,h,h,399,NA,43996,31063,9592,399,2,legacy,1024,2,48000,-16,experiment,HHHHH,3,odd,45984,206658,344491,NA,345672,1988,175595,333399,1985,345172,346717,334899,346817,347217,346716,346817,Flanker Task Lab 2.1,152,70690,162,1024
93,93,435,435,#000000,legacy,legacy,legacy,incongruent,1,undefined,1,h,0,0,0,0,162,0,0,162,0,162,162,0,162,162,162,162,Fri Sep 22 12:54:24 2023,300,The main experiment item,FALSE,FlankerTaskLab21.osexp,C:\Users\katjo\OneDrive\Desktop,FALSE,mono,FALSE,18,no,white,no,yes,768,legacy,2,79,C:/Users/katjo/OneDrive/Desktop/KJ-subject-3 22F.csv,legacy,Melodramatic Milgram,4.0.5,0,h,NA,s,s,h,h,228,NA,43996,31063,9592,228,2,legacy,1024,2,48000,-16,experiment,SSHSS,3,odd,45984,206658,344491,NA,347723,1988,175595,333399,1985,347223,348748,334899,348849,349078,348747,348849,Flanker Task Lab 2.1,153,70918,163,1024
93,93,434,434,#000000,legacy,legacy,legacy,incongruent,0,undefined,0,s,0,0,0,0,163,0,0,163,0,163,163,0,163,163,163,163,Fri Sep 22 12:54:24 2023,300,The main experiment item,FALSE,FlankerTaskLab21.osexp,C:\Users\katjo\OneDrive\Desktop,FALSE,mono,FALSE,18,no,white,no,yes,768,legacy,3,79,C:/Users/katjo/OneDrive/Desktop/KJ-subject-3 22F.csv,legacy,Melodramatic Milgram,4.0.5,0,h,NA,s,s,h,h,329,NA,43996,31063,9592,329,2,legacy,1024,2,48000,-16,experiment,HHSHH,3,odd,45984,206658,344491,NA,349084,1988,175595,333399,1985,347223,350114,334899,350214,350544,350113,350214,Flanker Task Lab 2.1,153,71247,164,1024
93,93,433,433,#000000,legacy,legacy,legacy,congruent,1,undefined,1,s,0,0,0,0,164,0,0,164,0,164,164,0,164,164,164,164,Fri Sep 22 12:54:24 2023,300,The main experiment item,FALSE,FlankerTaskLab21.osexp,C:\Users\katjo\OneDrive\Desktop,FALSE,mono,FALSE,18,no,white,no,yes,768,legacy,4,79,C:/Users/katjo/OneDrive/Desktop/KJ-subject-3 22F.csv,legacy,Melodramatic Milgram,4.0.5,0,s,NA,s,s,h,s,350,NA,43996,31063,9592,350,2,legacy,1024,2,48000,-16,experiment,SSSSS,3,odd,45984,206658,344491,NA,351570,1988,175595,350570,1985,351070,352594,334899,352695,353046,352594,352695,Flanker Task Lab 2.1,154,71597,165,1024
92,92,432,432,#000000,legacy,legacy,legacy,congruent,0,undefined,0,h,0,0,0,0,165,0,0,165,0,165,165,0,165,165,165,165,Fri Sep 22 12:54:24 2023,300,The main experiment item,FALSE,FlankerTaskLab21.osexp,C:\Users\katjo\OneDrive\Desktop,FALSE,mono,FALSE,18,no,white,no,yes,768,legacy,5,79,C:/Users/katjo/OneDrive/Desktop/KJ-subject-3 22F.csv,legacy,Melodramatic Milgram,4.0.5,0,s,NA,s,s,h,s,261,NA,43996,31063,9592,261,2,legacy,1024,2,48000,-16,experiment,HHHHH,3,odd,45984,206658,344491,NA,353552,1988,175595,350570,1985,353052,354597,334899,354697,354959,354596,354697,Flanker Task Lab 2.1,154,71858,166,1024
92,92,431,431,#000000,legacy,legacy,legacy,incongruent,0,undefined,0,s,0,0,0,0,166,0,0,166,0,166,166,0,166,166,166,166,Fri Sep 22 12:54:24 2023,300,The main experiment item,FALSE,FlankerTaskLab21.osexp,C:\Users\katjo\OneDrive\Desktop,FALSE,mono,FALSE,18,no,white,no,yes,768,legacy,6,79,C:/Users/katjo/OneDrive/Desktop/KJ-subject-3 22F.csv,legacy,Melodramatic Milgram,4.0.5,0,h,NA,s,s,h,h,263,NA,43996,31063,9592,263,2,legacy,1024,2,48000,-16,experiment,HHSHH,3,odd,45984,206658,344491,NA,355461,1988,175595,354961,1985,353052,356485,334899,356585,356849,356484,356585,Flanker Task Lab 2.1,154,72121,167,1024
92,92,431,431,#000000,legacy,legacy,legacy,congruent,1,undefined,1,s,0,0,0,0,167,0,0,167,0,167,167,0,167,167,167,167,Fri Sep 22 12:54:24 2023,300,The main experiment item,FALSE,FlankerTaskLab21.osexp,C:\Users\katjo\OneDrive\Desktop,FALSE,mono,FALSE,18,no,white,no,yes,768,legacy,7,79,C:/Users/katjo/OneDrive/Desktop/KJ-subject-3 22F.csv,legacy,Melodramatic Milgram,4.0.5,0,s,NA,s,s,h,s,422,NA,43996,31063,9592,422,2,legacy,1024,2,48000,-16,experiment,SSSSS,3,odd,45984,206658,344491,NA,357375,1988,175595,356875,1985,353052,358394,334899,358495,358918,358394,358495,Flanker Task Lab 2.1,155,72543,168,1024
