"acc","accuracy","average_response_time","avg_rt","background","canvas_backend","clock_backend","color_backend","compensation","condition","coordinates","correct","correct_Instructions1","correct_keyboard_response","correct_response","count_Finish","count_ISI","count_Instructions1","count_Instructions2","count_Instructions3","count_block1","count_block2","count_block3","count_errorFeedback","count_experiment","count_faster","count_fixation","count_keyboard_response","count_logger","count_sequence","count_stimulus","datetime","deadline","description","disable_garbage_collection","experiment_file","experiment_path","font_bold","font_family","font_italic","font_size","font_underline","foreground","form_clicks","fullscreen","height","keyboard_backend","live_row","live_row_block1","logfile","mouse_backend","opensesame_codename","opensesame_version","repeat_cycle","response","response_Finish","response_Instructions1","response_Instructions2","response_Instructions3","response_keyboard_response","response_time","response_time_Finish","response_time_Instructions1","response_time_Instructions2","response_time_Instructions3","response_time_keyboard_response","round_decimals","sampler_backend","sound_buf_size","sound_channels","sound_freq","sound_sample_size","start","stimulus","subject_nr","subject_parity","time_Finish","time_ISI","time_Instructions1","time_Instructions2","time_Instructions3","time_block1","time_block2","time_block3","time_errorFeedback","time_experiment","time_faster","time_fixation","time_keyboard_response","time_logger","time_sequence","time_stimulus","title","total_correct","total_response_time","total_responses","uniform_coordinates","width"
"100","100","643","643","black","legacy","legacy","legacy","0","congruent","uniform","1","undefined","1","h","0","0","0","0","0","0","0","0","0","0","0","0","0","0","0","0","09/26/20 13:33:51","1500","The main experiment item","yes","FlankerTask.osexp","C:\Users\Jennifer Wright\Desktop\PSYC5613","no","mono","no","18","no","white","no","yes","768","legacy","0","0","C:/Users/Jennifer Wright/Desktop/PSYC5613/hw-subject-3.csv","legacy","Lentiform Loewenfeld","3.3.3","0","h","NA","h","NA","NA","h","643","NA","33392","NA","NA","643","2","legacy","1024","2","48000","-16","experiment","HHHHH","3","odd","NA","NA","3752","NA","NA","37148","NA","NA","NA","3737","NA","37360","37466","38111","37353","37466","Flanker Task","1","643","1","yes","1024"
"100","100","673.5","673.5","black","legacy","legacy","legacy","0","incongruent","uniform","1","undefined","1","s","0","1","0","0","0","0","0","0","1","0","1","1","1","1","1","1","09/26/20 13:33:51","1500","The main experiment item","yes","FlankerTask.osexp","C:\Users\Jennifer Wright\Desktop\PSYC5613","no","mono","no","18","no","white","no","yes","768","legacy","1","1","C:/Users/Jennifer Wright/Desktop/PSYC5613/hw-subject-3.csv","legacy","Lentiform Loewenfeld","3.3.3","0","s","NA","h","NA","NA","s","704","NA","33392","NA","NA","704","2","legacy","1024","2","48000","-16","experiment","HHSHH","3","odd","NA","38201","3752","NA","NA","37148","NA","NA","NA","3737","NA","39401","39508","40214","39394","39508","Flanker Task","2","1347","2","yes","1024"
"100","100","695","695","black","legacy","legacy","legacy","0","incongruent","uniform","1","undefined","1","h","0","2","0","0","0","0","0","0","2","0","2","2","2","2","2","2","09/26/20 13:33:51","1500","The main experiment item","yes","FlankerTask.osexp","C:\Users\Jennifer Wright\Desktop\PSYC5613","no","mono","no","18","no","white","no","yes","768","legacy","2","2","C:/Users/Jennifer Wright/Desktop/PSYC5613/hw-subject-3.csv","legacy","Lentiform Loewenfeld","3.3.3","0","h","NA","h","NA","NA","h","738","NA","33392","NA","NA","738","2","legacy","1024","2","48000","-16","experiment","SSHSS","3","odd","NA","40278","3752","NA","NA","37148","NA","NA","NA","3737","NA","41470","41581","42321","41462","41580","Flanker Task","3","2085","3","yes","1024"
"100","100","739.75","739.75","black","legacy","legacy","legacy","0","congruent","uniform","1","undefined","1","s","0","3","0","0","0","0","0","0","3","0","3","3","3","3","3","3","09/26/20 13:33:51","1500","The main experiment item","yes","FlankerTask.osexp","C:\Users\Jennifer Wright\Desktop\PSYC5613","no","mono","no","18","no","white","no","yes","768","legacy","3","3","C:/Users/Jennifer Wright/Desktop/PSYC5613/hw-subject-3.csv","legacy","Lentiform Loewenfeld","3.3.3","0","s","NA","h","NA","NA","s","874","NA","33392","NA","NA","874","2","legacy","1024","2","48000","-16","experiment","SSSSS","3","odd","NA","42392","3752","NA","NA","37148","NA","NA","NA","3737","NA","43584","43691","44567","43576","43691","Flanker Task","4","2959","4","yes","1024"
"100","100","733.4","733.4","black","legacy","legacy","legacy","0","incongruent","uniform","1","undefined","1","h","0","4","0","0","0","0","0","0","4","0","4","4","4","4","4","4","09/26/20 13:33:51","1500","The main experiment item","yes","FlankerTask.osexp","C:\Users\Jennifer Wright\Desktop\PSYC5613","no","mono","no","18","no","white","no","yes","768","legacy","4","4","C:/Users/Jennifer Wright/Desktop/PSYC5613/hw-subject-3.csv","legacy","Lentiform Loewenfeld","3.3.3","0","h","NA","h","NA","NA","h","708","NA","33392","NA","NA","708","2","legacy","1024","2","48000","-16","experiment","SSHSS","3","odd","NA","44614","3752","NA","NA","37148","NA","NA","NA","3737","NA","45798","45904","46613","45791","45904","Flanker Task","5","3667","5","yes","1024"
"100","100","737.333333333","737.333333333","black","legacy","legacy","legacy","0","incongruent","uniform","1","undefined","1","s","0","5","0","0","0","0","0","0","5","0","5","5","5","5","5","5","09/26/20 13:33:51","1500","The main experiment item","yes","FlankerTask.osexp","C:\Users\Jennifer Wright\Desktop\PSYC5613","no","mono","no","18","no","white","no","yes","768","legacy","5","5","C:/Users/Jennifer Wright/Desktop/PSYC5613/hw-subject-3.csv","legacy","Lentiform Loewenfeld","3.3.3","0","s","NA","h","NA","NA","s","757","NA","33392","NA","NA","757","2","legacy","1024","2","48000","-16","experiment","HHSHH","3","odd","NA","46677","3752","NA","NA","37148","NA","NA","NA","3737","NA","47872","47978","48736","47865","47978","Flanker Task","6","4424","6","yes","1024"
"85.7142857143","85.7142857143","723.428571429","723.428571429","black","legacy","legacy","legacy","0","congruent","uniform","0","undefined","0","s","0","6","0","0","0","0","0","0","6","0","6","6","6","6","6","6","09/26/20 13:33:51","1500","The main experiment item","yes","FlankerTask.osexp","C:\Users\Jennifer Wright\Desktop\PSYC5613","no","mono","no","18","no","white","no","yes","768","legacy","6","6","C:/Users/Jennifer Wright/Desktop/PSYC5613/hw-subject-3.csv","legacy","Lentiform Loewenfeld","3.3.3","0","h","NA","h","NA","NA","h","640","NA","33392","NA","NA","640","2","legacy","1024","2","48000","-16","experiment","SSSSS","3","odd","NA","48803","3752","NA","NA","37148","NA","NA","NA","3737","NA","49996","50102","50743","49990","50102","Flanker Task","6","5064","7","yes","1024"
"87.5","87.5","802.625","802.625","black","legacy","legacy","legacy","0","congruent","uniform","1","undefined","1","s","0","7","0","0","0","0","0","0","7","0","7","7","7","7","7","7","09/26/20 13:33:51","1500","The main experiment item","yes","FlankerTask.osexp","C:\Users\Jennifer Wright\Desktop\PSYC5613","no","mono","no","18","no","white","no","yes","768","legacy","7","7","C:/Users/Jennifer Wright/Desktop/PSYC5613/hw-subject-3.csv","legacy","Lentiform Loewenfeld","3.3.3","0","s","NA","h","NA","NA","s","1357","NA","33392","NA","NA","1357","2","legacy","1024","2","48000","-16","experiment","SSSSS","3","odd","NA","51324","3752","NA","NA","37148","NA","NA","50816","3737","NA","52516","52623","53982","52509","52622","Flanker Task","7","6421","8","yes","1024"
"88.8888888889","88.8888888889","795.666666667","795.666666667","black","legacy","legacy","legacy","0","incongruent","uniform","1","undefined","1","h","0","8","0","0","0","0","0","0","8","0","8","8","8","8","8","8","09/26/20 13:33:51","1500","The main experiment item","yes","FlankerTask.osexp","C:\Users\Jennifer Wright\Desktop\PSYC5613","no","mono","no","18","no","white","no","yes","768","legacy","8","8","C:/Users/Jennifer Wright/Desktop/PSYC5613/hw-subject-3.csv","legacy","Lentiform Loewenfeld","3.3.3","0","h","NA","h","NA","NA","h","740","NA","33392","NA","NA","740","2","legacy","1024","2","48000","-16","experiment","SSHSS","3","odd","NA","54049","3752","NA","NA","37148","NA","NA","50816","3737","NA","55243","55348","56090","55237","55348","Flanker Task","8","7161","9","yes","1024"
"90","90","796.1","796.1","black","legacy","legacy","legacy","0","incongruent","uniform","1","undefined","1","h","0","9","0","0","0","0","0","0","9","0","9","9","9","9","9","9","09/26/20 13:33:51","1500","The main experiment item","yes","FlankerTask.osexp","C:\Users\Jennifer Wright\Desktop\PSYC5613","no","mono","no","18","no","white","no","yes","768","legacy","9","9","C:/Users/Jennifer Wright/Desktop/PSYC5613/hw-subject-3.csv","legacy","Lentiform Loewenfeld","3.3.3","0","h","NA","h","NA","NA","h","800","NA","33392","NA","NA","800","2","legacy","1024","2","48000","-16","experiment","SSHSS","3","odd","NA","56177","3752","NA","NA","37148","NA","NA","50816","3737","NA","57369","57474","58276","57362","57474","Flanker Task","9","7961","10","yes","1024"
"90.9090909091","90.9090909091","794.090909091","794.090909091","black","legacy","legacy","legacy","0","congruent","uniform","1","undefined","1","s","0","10","0","0","0","0","0","0","10","0","10","10","10","10","10","10","09/26/20 13:33:51","1500","The main experiment item","yes","FlankerTask.osexp","C:\Users\Jennifer Wright\Desktop\PSYC5613","no","mono","no","18","no","white","no","yes","768","legacy","10","10","C:/Users/Jennifer Wright/Desktop/PSYC5613/hw-subject-3.csv","legacy","Lentiform Loewenfeld","3.3.3","0","s","NA","h","NA","NA","s","774","NA","33392","NA","NA","774","2","legacy","1024","2","48000","-16","experiment","SSSSS","3","odd","NA","58356","3752","NA","NA","37148","NA","NA","50816","3737","NA","59542","59651","60426","59534","59651","Flanker Task","10","8735","11","yes","1024"
"91.6666666667","91.6666666667","798.333333333","798.333333333","black","legacy","legacy","legacy","0","incongruent","uniform","1","undefined","1","s","0","11","0","0","0","0","0","0","11","0","11","11","11","11","11","11","09/26/20 13:33:51","1500","The main experiment item","yes","FlankerTask.osexp","C:\Users\Jennifer Wright\Desktop\PSYC5613","no","mono","no","18","no","white","no","yes","768","legacy","11","11","C:/Users/Jennifer Wright/Desktop/PSYC5613/hw-subject-3.csv","legacy","Lentiform Loewenfeld","3.3.3","0","s","NA","h","NA","NA","s","845","NA","33392","NA","NA","845","2","legacy","1024","2","48000","-16","experiment","HHSHH","3","odd","NA","60453","3752","NA","NA","37148","NA","NA","50816","3737","NA","61647","61754","62600","61640","61754","Flanker Task","11","9580","12","yes","1024"
"92.3076923077","92.3076923077","792.923076923","792.923076923","black","legacy","legacy","legacy","0","congruent","uniform","1","undefined","1","s","0","12","0","0","0","0","0","0","12","0","12","12","12","12","12","12","09/26/20 13:33:51","1500","The main experiment item","yes","FlankerTask.osexp","C:\Users\Jennifer Wright\Desktop\PSYC5613","no","mono","no","18","no","white","no","yes","768","legacy","12","12","C:/Users/Jennifer Wright/Desktop/PSYC5613/hw-subject-3.csv","legacy","Lentiform Loewenfeld","3.3.3","0","s","NA","h","NA","NA","s","728","NA","33392","NA","NA","728","2","legacy","1024","2","48000","-16","experiment","SSSSS","3","odd","NA","62672","3752","NA","NA","37148","NA","NA","50816","3737","NA","63860","63970","64700","63853","63969","Flanker Task","12","10308","13","yes","1024"
"92.8571428571","92.8571428571","777.285714286","777.285714286","black","legacy","legacy","legacy","0","congruent","uniform","1","undefined","1","s","0","13","0","0","0","0","0","0","13","0","13","13","13","13","13","13","09/26/20 13:33:51","1500","The main experiment item","yes","FlankerTask.osexp","C:\Users\Jennifer Wright\Desktop\PSYC5613","no","mono","no","18","no","white","no","yes","768","legacy","13","13","C:/Users/Jennifer Wright/Desktop/PSYC5613/hw-subject-3.csv","legacy","Lentiform Loewenfeld","3.3.3","0","s","NA","h","NA","NA","s","574","NA","33392","NA","NA","574","2","legacy","1024","2","48000","-16","experiment","SSSSS","3","odd","NA","64761","3752","NA","NA","37148","NA","NA","50816","3737","NA","65944","66050","66625","65938","66050","Flanker Task","13","10882","14","yes","1024"
"93.3333333333","93.3333333333","790.4","790.4","black","legacy","legacy","legacy","0","congruent","uniform","1","undefined","1","h","0","14","0","0","0","0","0","0","14","0","14","14","14","14","14","14","09/26/20 13:33:51","1500","The main experiment item","yes","FlankerTask.osexp","C:\Users\Jennifer Wright\Desktop\PSYC5613","no","mono","no","18","no","white","no","yes","768","legacy","14","14","C:/Users/Jennifer Wright/Desktop/PSYC5613/hw-subject-3.csv","legacy","Lentiform Loewenfeld","3.3.3","0","h","NA","h","NA","NA","h","974","NA","33392","NA","NA","974","2","legacy","1024","2","48000","-16","experiment","HHHHH","3","odd","NA","66695","3752","NA","NA","37148","NA","NA","50816","3737","NA","67893","68008","68984","67886","68008","Flanker Task","14","11856","15","yes","1024"
"93.75","93.75","788.25","788.25","black","legacy","legacy","legacy","0","incongruent","uniform","1","undefined","1","h","0","15","0","0","0","0","0","0","15","0","15","15","15","15","15","15","09/26/20 13:33:51","1500","The main experiment item","yes","FlankerTask.osexp","C:\Users\Jennifer Wright\Desktop\PSYC5613","no","mono","no","18","no","white","no","yes","768","legacy","15","15","C:/Users/Jennifer Wright/Desktop/PSYC5613/hw-subject-3.csv","legacy","Lentiform Loewenfeld","3.3.3","0","h","NA","h","NA","NA","h","756","NA","33392","NA","NA","756","2","legacy","1024","2","48000","-16","experiment","SSHSS","3","odd","NA","69046","3752","NA","NA","37148","NA","NA","50816","3737","NA","70240","70350","71108","70233","70350","Flanker Task","15","12612","16","yes","1024"
"94.1176470588","94.1176470588","781.529411765","781.529411765","black","legacy","legacy","legacy","0","congruent","uniform","1","undefined","1","h","0","16","0","0","0","0","0","0","16","0","16","16","16","16","16","16","09/26/20 13:33:51","1500","The main experiment item","yes","FlankerTask.osexp","C:\Users\Jennifer Wright\Desktop\PSYC5613","no","mono","no","18","no","white","no","yes","768","legacy","16","16","C:/Users/Jennifer Wright/Desktop/PSYC5613/hw-subject-3.csv","legacy","Lentiform Loewenfeld","3.3.3","0","h","NA","h","NA","NA","h","674","NA","33392","NA","NA","674","2","legacy","1024","2","48000","-16","experiment","HHHHH","3","odd","NA","71173","3752","NA","NA","37148","NA","NA","50816","3737","NA","72360","72467","73143","72352","72466","Flanker Task","16","13286","17","yes","1024"
"94.4444444444","94.4444444444","783.277777778","783.277777778","black","legacy","legacy","legacy","0","incongruent","uniform","1","undefined","1","h","0","17","0","0","0","0","0","0","17","0","17","17","17","17","17","17","09/26/20 13:33:51","1500","The main experiment item","yes","FlankerTask.osexp","C:\Users\Jennifer Wright\Desktop\PSYC5613","no","mono","no","18","no","white","no","yes","768","legacy","17","17","C:/Users/Jennifer Wright/Desktop/PSYC5613/hw-subject-3.csv","legacy","Lentiform Loewenfeld","3.3.3","0","h","NA","h","NA","NA","h","813","NA","33392","NA","NA","813","2","legacy","1024","2","48000","-16","experiment","SSHSS","3","odd","NA","73210","3752","NA","NA","37148","NA","NA","50816","3737","NA","74399","74511","75326","74393","74510","Flanker Task","17","14099","18","yes","1024"
"94.7368421053","94.7368421053","777.421052632","777.421052632","black","legacy","legacy","legacy","0","incongruent","uniform","1","undefined","1","h","0","18","0","0","0","0","0","0","18","0","18","18","18","18","18","18","09/26/20 13:33:51","1500","The main experiment item","yes","FlankerTask.osexp","C:\Users\Jennifer Wright\Desktop\PSYC5613","no","mono","no","18","no","white","no","yes","768","legacy","18","18","C:/Users/Jennifer Wright/Desktop/PSYC5613/hw-subject-3.csv","legacy","Lentiform Loewenfeld","3.3.3","0","h","NA","h","NA","NA","h","672","NA","33392","NA","NA","672","2","legacy","1024","2","48000","-16","experiment","SSHSS","3","odd","NA","75395","3752","NA","NA","37148","NA","NA","50816","3737","NA","76596","76703","77377","76589","76703","Flanker Task","18","14771","19","yes","1024"
"95","95","777.35","777.35","black","legacy","legacy","legacy","0","incongruent","uniform","1","undefined","1","s","0","19","0","0","0","0","0","0","19","0","19","19","19","19","19","19","09/26/20 13:33:51","1500","The main experiment item","yes","FlankerTask.osexp","C:\Users\Jennifer Wright\Desktop\PSYC5613","no","mono","no","18","no","white","no","yes","768","legacy","19","19","C:/Users/Jennifer Wright/Desktop/PSYC5613/hw-subject-3.csv","legacy","Lentiform Loewenfeld","3.3.3","0","s","NA","h","NA","NA","s","776","NA","33392","NA","NA","776","2","legacy","1024","2","48000","-16","experiment","HHSHH","3","odd","NA","77439","3752","NA","NA","37148","NA","NA","50816","3737","NA","78617","78729","79507","78610","78729","Flanker Task","19","15547","20","yes","1024"
"95.2380952381","95.2380952381","776.857142857","776.857142857","black","legacy","legacy","legacy","0","incongruent","uniform","1","undefined","1","h","0","20","0","0","0","0","0","0","20","0","20","20","20","20","20","20","09/26/20 13:33:51","1500","The main experiment item","yes","FlankerTask.osexp","C:\Users\Jennifer Wright\Desktop\PSYC5613","no","mono","no","18","no","white","no","yes","768","legacy","20","20","C:/Users/Jennifer Wright/Desktop/PSYC5613/hw-subject-3.csv","legacy","Lentiform Loewenfeld","3.3.3","0","h","NA","h","NA","NA","h","767","NA","33392","NA","NA","767","2","legacy","1024","2","48000","-16","experiment","SSHSS","3","odd","NA","79585","3752","NA","NA","37148","NA","NA","50816","3737","NA","80776","80882","81650","80769","80882","Flanker Task","20","16314","21","yes","1024"
"95.4545454545","95.4545454545","774.045454545","774.045454545","black","legacy","legacy","legacy","0","incongruent","uniform","1","undefined","1","s","0","21","0","0","0","0","0","0","21","0","21","21","21","21","21","21","09/26/20 13:33:51","1500","The main experiment item","yes","FlankerTask.osexp","C:\Users\Jennifer Wright\Desktop\PSYC5613","no","mono","no","18","no","white","no","yes","768","legacy","21","21","C:/Users/Jennifer Wright/Desktop/PSYC5613/hw-subject-3.csv","legacy","Lentiform Loewenfeld","3.3.3","0","s","NA","h","NA","NA","s","715","NA","33392","NA","NA","715","2","legacy","1024","2","48000","-16","experiment","HHSHH","3","odd","NA","81716","3752","NA","NA","37148","NA","NA","50816","3737","NA","82913","83020","83737","82907","83020","Flanker Task","21","17029","22","yes","1024"
"95.652173913","95.652173913","770.608695652","770.608695652","black","legacy","legacy","legacy","0","incongruent","uniform","1","undefined","1","s","0","22","0","0","0","0","0","0","22","0","22","22","22","22","22","22","09/26/20 13:33:51","1500","The main experiment item","yes","FlankerTask.osexp","C:\Users\Jennifer Wright\Desktop\PSYC5613","no","mono","no","18","no","white","no","yes","768","legacy","22","22","C:/Users/Jennifer Wright/Desktop/PSYC5613/hw-subject-3.csv","legacy","Lentiform Loewenfeld","3.3.3","0","s","NA","h","NA","NA","s","695","NA","33392","NA","NA","695","2","legacy","1024","2","48000","-16","experiment","HHSHH","3","odd","NA","83807","3752","NA","NA","37148","NA","NA","50816","3737","NA","85005","85111","85808","84998","85111","Flanker Task","22","17724","23","yes","1024"
"95.8333333333","95.8333333333","761.916666667","761.916666667","black","legacy","legacy","legacy","0","congruent","uniform","1","undefined","1","h","0","23","0","0","0","0","0","0","23","0","23","23","23","23","23","23","09/26/20 13:33:51","1500","The main experiment item","yes","FlankerTask.osexp","C:\Users\Jennifer Wright\Desktop\PSYC5613","no","mono","no","18","no","white","no","yes","768","legacy","23","23","C:/Users/Jennifer Wright/Desktop/PSYC5613/hw-subject-3.csv","legacy","Lentiform Loewenfeld","3.3.3","0","h","NA","h","NA","NA","h","562","NA","33392","NA","NA","562","2","legacy","1024","2","48000","-16","experiment","HHHHH","3","odd","NA","85904","3752","NA","NA","37148","NA","NA","50816","3737","NA","87111","87216","87780","87104","87216","Flanker Task","23","18286","24","yes","1024"
"96","96","754.84","754.84","black","legacy","legacy","legacy","0","congruent","uniform","1","undefined","1","h","0","24","0","0","0","0","0","0","24","0","24","24","24","24","24","24","09/26/20 13:33:51","1500","The main experiment item","yes","FlankerTask.osexp","C:\Users\Jennifer Wright\Desktop\PSYC5613","no","mono","no","18","no","white","no","yes","768","legacy","24","24","C:/Users/Jennifer Wright/Desktop/PSYC5613/hw-subject-3.csv","legacy","Lentiform Loewenfeld","3.3.3","0","h","NA","h","NA","NA","h","585","NA","33392","NA","NA","585","2","legacy","1024","2","48000","-16","experiment","HHHHH","3","odd","NA","87847","3752","NA","NA","37148","NA","NA","50816","3737","NA","89035","89141","89728","89028","89141","Flanker Task","24","18871","25","yes","1024"
"96.1538461538","96.1538461538","747.653846154","747.653846154","black","legacy","legacy","legacy","0","congruent","uniform","1","undefined","1","h","0","25","0","0","0","0","0","0","25","0","25","25","25","25","25","25","09/26/20 13:33:51","1500","The main experiment item","yes","FlankerTask.osexp","C:\Users\Jennifer Wright\Desktop\PSYC5613","no","mono","no","18","no","white","no","yes","768","legacy","25","25","C:/Users/Jennifer Wright/Desktop/PSYC5613/hw-subject-3.csv","legacy","Lentiform Loewenfeld","3.3.3","0","h","NA","h","NA","NA","h","568","NA","33392","NA","NA","568","2","legacy","1024","2","48000","-16","experiment","HHHHH","3","odd","NA","89806","3752","NA","NA","37148","NA","NA","50816","3737","NA","90990","91097","91667","90985","91097","Flanker Task","25","19439","26","yes","1024"
"96.2962962963","96.2962962963","750.703703704","750.703703704","black","legacy","legacy","legacy","0","incongruent","uniform","1","undefined","1","h","0","26","0","0","0","0","0","0","26","0","26","26","26","26","26","26","09/26/20 13:33:51","1500","The main experiment item","yes","FlankerTask.osexp","C:\Users\Jennifer Wright\Desktop\PSYC5613","no","mono","no","18","no","white","no","yes","768","legacy","26","26","C:/Users/Jennifer Wright/Desktop/PSYC5613/hw-subject-3.csv","legacy","Lentiform Loewenfeld","3.3.3","0","h","NA","h","NA","NA","h","830","NA","33392","NA","NA","830","2","legacy","1024","2","48000","-16","experiment","SSHSS","3","odd","NA","91739","3752","NA","NA","37148","NA","NA","50816","3737","NA","92935","93049","93881","92928","93048","Flanker Task","26","20269","27","yes","1024"
"96.4285714286","96.4285714286","744.357142857","744.357142857","black","legacy","legacy","legacy","0","congruent","uniform","1","undefined","1","h","0","27","0","0","0","0","0","0","27","0","27","27","27","27","27","27","09/26/20 13:33:51","1500","The main experiment item","yes","FlankerTask.osexp","C:\Users\Jennifer Wright\Desktop\PSYC5613","no","mono","no","18","no","white","no","yes","768","legacy","27","27","C:/Users/Jennifer Wright/Desktop/PSYC5613/hw-subject-3.csv","legacy","Lentiform Loewenfeld","3.3.3","0","h","NA","h","NA","NA","h","573","NA","33392","NA","NA","573","2","legacy","1024","2","48000","-16","experiment","HHHHH","3","odd","NA","93946","3752","NA","NA","37148","NA","NA","50816","3737","NA","95135","95243","95818","95128","95243","Flanker Task","27","20842","28","yes","1024"
"96.5517241379","96.5517241379","738.482758621","738.482758621","black","legacy","legacy","legacy","0","incongruent","uniform","1","undefined","1","s","0","28","0","0","0","0","0","0","28","0","28","28","28","28","28","28","09/26/20 13:33:51","1500","The main experiment item","yes","FlankerTask.osexp","C:\Users\Jennifer Wright\Desktop\PSYC5613","no","mono","no","18","no","white","no","yes","768","legacy","28","28","C:/Users/Jennifer Wright/Desktop/PSYC5613/hw-subject-3.csv","legacy","Lentiform Loewenfeld","3.3.3","0","s","NA","h","NA","NA","s","574","NA","33392","NA","NA","574","2","legacy","1024","2","48000","-16","experiment","HHSHH","3","odd","NA","95884","3752","NA","NA","37148","NA","NA","50816","3737","NA","97073","97179","97756","97066","97179","Flanker Task","28","21416","29","yes","1024"
"96.6666666667","96.6666666667","736.366666667","736.366666667","black","legacy","legacy","legacy","0","incongruent","uniform","1","undefined","1","s","0","29","0","0","0","0","0","0","29","0","29","29","29","29","29","29","09/26/20 13:33:51","1500","The main experiment item","yes","FlankerTask.osexp","C:\Users\Jennifer Wright\Desktop\PSYC5613","no","mono","no","18","no","white","no","yes","768","legacy","29","29","C:/Users/Jennifer Wright/Desktop/PSYC5613/hw-subject-3.csv","legacy","Lentiform Loewenfeld","3.3.3","0","s","NA","h","NA","NA","s","675","NA","33392","NA","NA","675","2","legacy","1024","2","48000","-16","experiment","HHSHH","3","odd","NA","97821","3752","NA","NA","37148","NA","NA","50816","3737","NA","99013","99119","99796","99007","99119","Flanker Task","29","22091","30","yes","1024"
"96.7741935484","96.7741935484","732.903225806","732.903225806","black","legacy","legacy","legacy","0","congruent","uniform","1","undefined","1","s","0","30","0","0","0","0","0","0","30","0","30","30","30","30","30","30","09/26/20 13:33:51","1500","The main experiment item","yes","FlankerTask.osexp","C:\Users\Jennifer Wright\Desktop\PSYC5613","no","mono","no","18","no","white","no","yes","768","legacy","30","30","C:/Users/Jennifer Wright/Desktop/PSYC5613/hw-subject-3.csv","legacy","Lentiform Loewenfeld","3.3.3","0","s","NA","h","NA","NA","s","629","NA","33392","NA","NA","629","2","legacy","1024","2","48000","-16","experiment","SSSSS","3","odd","NA","99879","3752","NA","NA","37148","NA","NA","50816","3737","NA","101068","101174","101805","101061","101174","Flanker Task","30","22720","31","yes","1024"
"96.875","96.875","730.375","730.375","black","legacy","legacy","legacy","0","congruent","uniform","1","undefined","1","h","0","31","0","0","0","0","0","0","31","0","31","31","31","31","31","31","09/26/20 13:33:51","1500","The main experiment item","yes","FlankerTask.osexp","C:\Users\Jennifer Wright\Desktop\PSYC5613","no","mono","no","18","no","white","no","yes","768","legacy","31","31","C:/Users/Jennifer Wright/Desktop/PSYC5613/hw-subject-3.csv","legacy","Lentiform Loewenfeld","3.3.3","0","h","NA","h","NA","NA","h","652","NA","33392","NA","NA","652","2","legacy","1024","2","48000","-16","experiment","HHHHH","3","odd","NA","101872","3752","NA","NA","37148","NA","NA","50816","3737","NA","103059","103166","103820","103053","103166","Flanker Task","31","23372","32","yes","1024"
"96.9696969697","96.9696969697","722.939393939","722.939393939","black","legacy","legacy","legacy","0","congruent","uniform","1","undefined","1","h","0","32","0","0","0","0","0","0","32","0","32","32","32","32","32","32","09/26/20 13:33:51","1500","The main experiment item","yes","FlankerTask.osexp","C:\Users\Jennifer Wright\Desktop\PSYC5613","no","mono","no","18","no","white","no","yes","768","legacy","32","32","C:/Users/Jennifer Wright/Desktop/PSYC5613/hw-subject-3.csv","legacy","Lentiform Loewenfeld","3.3.3","0","h","NA","h","NA","NA","h","485","NA","33392","NA","NA","485","2","legacy","1024","2","48000","-16","experiment","HHHHH","3","odd","NA","103886","3752","NA","NA","37148","NA","NA","50816","3737","NA","105083","105188","105675","105076","105188","Flanker Task","32","23857","33","yes","1024"
"97.0588235294","97.0588235294","718","718","black","legacy","legacy","legacy","0","congruent","uniform","1","undefined","1","h","0","33","0","0","0","0","0","0","33","0","33","33","33","33","33","33","09/26/20 13:33:51","1500","The main experiment item","yes","FlankerTask.osexp","C:\Users\Jennifer Wright\Desktop\PSYC5613","no","mono","no","18","no","white","no","yes","768","legacy","33","33","C:/Users/Jennifer Wright/Desktop/PSYC5613/hw-subject-3.csv","legacy","Lentiform Loewenfeld","3.3.3","0","h","NA","h","NA","NA","h","555","NA","33392","NA","NA","555","2","legacy","1024","2","48000","-16","experiment","HHHHH","3","odd","NA","105711","3752","NA","NA","37148","NA","NA","50816","3737","NA","106901","107009","107566","106894","107008","Flanker Task","33","24412","34","yes","1024"
"94.2857142857","94.2857142857","709.142857143","709.142857143","black","legacy","legacy","legacy","0","congruent","uniform","0","undefined","0","s","0","34","0","0","0","0","0","0","34","0","34","34","34","34","34","34","09/26/20 13:33:51","1500","The main experiment item","yes","FlankerTask.osexp","C:\Users\Jennifer Wright\Desktop\PSYC5613","no","mono","no","18","no","white","no","yes","768","legacy","34","34","C:/Users/Jennifer Wright/Desktop/PSYC5613/hw-subject-3.csv","legacy","Lentiform Loewenfeld","3.3.3","0","h","NA","h","NA","NA","h","408","NA","33392","NA","NA","408","2","legacy","1024","2","48000","-16","experiment","SSSSS","3","odd","NA","107641","3752","NA","NA","37148","NA","NA","50816","3737","NA","108832","108938","109348","108826","108938","Flanker Task","33","24820","35","yes","1024"
"94.4444444444","94.4444444444","708.305555556","708.305555556","black","legacy","legacy","legacy","0","congruent","uniform","1","undefined","1","h","0","35","0","0","0","0","0","0","35","0","35","35","35","35","35","35","09/26/20 13:33:51","1500","The main experiment item","yes","FlankerTask.osexp","C:\Users\Jennifer Wright\Desktop\PSYC5613","no","mono","no","18","no","white","no","yes","768","legacy","35","35","C:/Users/Jennifer Wright/Desktop/PSYC5613/hw-subject-3.csv","legacy","Lentiform Loewenfeld","3.3.3","0","h","NA","h","NA","NA","h","679","NA","33392","NA","NA","679","2","legacy","1024","2","48000","-16","experiment","HHHHH","3","odd","NA","109931","3752","NA","NA","37148","NA","NA","109422","3737","NA","111126","111240","111921","111119","111240","Flanker Task","34","25499","36","yes","1024"
"94.5945945946","94.5945945946","709.72972973","709.72972973","black","legacy","legacy","legacy","0","incongruent","uniform","1","undefined","1","h","0","36","0","0","0","0","0","0","36","0","36","36","36","36","36","36","09/26/20 13:33:51","1500","The main experiment item","yes","FlankerTask.osexp","C:\Users\Jennifer Wright\Desktop\PSYC5613","no","mono","no","18","no","white","no","yes","768","legacy","36","36","C:/Users/Jennifer Wright/Desktop/PSYC5613/hw-subject-3.csv","legacy","Lentiform Loewenfeld","3.3.3","0","h","NA","h","NA","NA","h","761","NA","33392","NA","NA","761","2","legacy","1024","2","48000","-16","experiment","SSHSS","3","odd","NA","111988","3752","NA","NA","37148","NA","NA","109422","3737","NA","113186","113293","114057","113178","113293","Flanker Task","35","26260","37","yes","1024"
"94.7368421053","94.7368421053","711.684210526","711.684210526","black","legacy","legacy","legacy","0","incongruent","uniform","1","undefined","1","h","0","37","0","0","0","0","0","0","37","0","37","37","37","37","37","37","09/26/20 13:33:51","1500","The main experiment item","yes","FlankerTask.osexp","C:\Users\Jennifer Wright\Desktop\PSYC5613","no","mono","no","18","no","white","no","yes","768","legacy","37","37","C:/Users/Jennifer Wright/Desktop/PSYC5613/hw-subject-3.csv","legacy","Lentiform Loewenfeld","3.3.3","0","h","NA","h","NA","NA","h","784","NA","33392","NA","NA","784","2","legacy","1024","2","48000","-16","experiment","SSHSS","3","odd","NA","114127","3752","NA","NA","37148","NA","NA","109422","3737","NA","115326","115431","116217","115318","115431","Flanker Task","36","27044","38","yes","1024"
"94.8717948718","94.8717948718","711.948717949","711.948717949","black","legacy","legacy","legacy","0","congruent","uniform","1","undefined","1","s","0","38","0","0","0","0","0","0","38","0","38","38","38","38","38","38","09/26/20 13:33:51","1500","The main experiment item","yes","FlankerTask.osexp","C:\Users\Jennifer Wright\Desktop\PSYC5613","no","mono","no","18","no","white","no","yes","768","legacy","38","38","C:/Users/Jennifer Wright/Desktop/PSYC5613/hw-subject-3.csv","legacy","Lentiform Loewenfeld","3.3.3","0","s","NA","h","NA","NA","s","722","NA","33392","NA","NA","722","2","legacy","1024","2","48000","-16","experiment","SSSSS","3","odd","NA","116291","3752","NA","NA","37148","NA","NA","109422","3737","NA","117488","117598","118323","117481","117597","Flanker Task","37","27766","39","yes","1024"
"95","95","713.9","713.9","black","legacy","legacy","legacy","0","incongruent","uniform","1","undefined","1","s","0","39","0","0","0","0","0","0","39","0","39","39","39","39","39","39","09/26/20 13:33:51","1500","The main experiment item","yes","FlankerTask.osexp","C:\Users\Jennifer Wright\Desktop\PSYC5613","no","mono","no","18","no","white","no","yes","768","legacy","39","39","C:/Users/Jennifer Wright/Desktop/PSYC5613/hw-subject-3.csv","legacy","Lentiform Loewenfeld","3.3.3","0","s","NA","h","NA","NA","s","790","NA","33392","NA","NA","790","2","legacy","1024","2","48000","-16","experiment","HHSHH","3","odd","NA","118399","3752","NA","NA","37148","NA","NA","109422","3737","NA","119591","119699","120491","119584","119699","Flanker Task","38","28556","40","yes","1024"
"95.1219512195","95.1219512195","710.975609756","710.975609756","black","legacy","legacy","legacy","0","congruent","uniform","1","undefined","1","s","0","40","0","0","0","0","0","0","40","0","40","40","40","40","40","40","09/26/20 13:33:51","1500","The main experiment item","yes","FlankerTask.osexp","C:\Users\Jennifer Wright\Desktop\PSYC5613","no","mono","no","18","no","white","no","yes","768","legacy","40","40","C:/Users/Jennifer Wright/Desktop/PSYC5613/hw-subject-3.csv","legacy","Lentiform Loewenfeld","3.3.3","0","s","NA","h","NA","NA","s","594","NA","33392","NA","NA","594","2","legacy","1024","2","48000","-16","experiment","SSSSS","3","odd","NA","120604","3752","NA","NA","37148","NA","NA","109422","3737","NA","121800","121906","122503","121794","121906","Flanker Task","39","29150","41","yes","1024"
"95.2380952381","95.2380952381","712.952380952","712.952380952","black","legacy","legacy","legacy","0","incongruent","uniform","1","undefined","1","s","0","41","0","0","0","0","0","0","41","0","41","41","41","41","41","41","09/26/20 13:33:51","1500","The main experiment item","yes","FlankerTask.osexp","C:\Users\Jennifer Wright\Desktop\PSYC5613","no","mono","no","18","no","white","no","yes","768","legacy","41","41","C:/Users/Jennifer Wright/Desktop/PSYC5613/hw-subject-3.csv","legacy","Lentiform Loewenfeld","3.3.3","0","s","NA","h","NA","NA","s","794","NA","33392","NA","NA","794","2","legacy","1024","2","48000","-16","experiment","HHSHH","3","odd","NA","122591","3752","NA","NA","37148","NA","NA","109422","3737","NA","123780","123890","124687","123772","123890","Flanker Task","40","29944","42","yes","1024"
"93.023255814","93.023255814","712.581395349","712.581395349","black","legacy","legacy","legacy","0","incongruent","uniform","0","undefined","0","h","0","42","0","0","0","0","0","0","42","0","42","42","42","42","42","42","09/26/20 13:33:51","1500","The main experiment item","yes","FlankerTask.osexp","C:\Users\Jennifer Wright\Desktop\PSYC5613","no","mono","no","18","no","white","no","yes","768","legacy","42","42","C:/Users/Jennifer Wright/Desktop/PSYC5613/hw-subject-3.csv","legacy","Lentiform Loewenfeld","3.3.3","0","s","NA","h","NA","NA","s","697","NA","33392","NA","NA","697","2","legacy","1024","2","48000","-16","experiment","SSHSS","3","odd","NA","124756","3752","NA","NA","37148","NA","NA","109422","3737","NA","125946","126058","126758","125939","126058","Flanker Task","40","30641","43","yes","1024"
"93.1818181818","93.1818181818","716.522727273","716.522727273","black","legacy","legacy","legacy","0","incongruent","uniform","1","undefined","1","h","0","43","0","0","0","0","0","0","43","0","43","43","43","43","43","43","09/26/20 13:33:51","1500","The main experiment item","yes","FlankerTask.osexp","C:\Users\Jennifer Wright\Desktop\PSYC5613","no","mono","no","18","no","white","no","yes","768","legacy","43","43","C:/Users/Jennifer Wright/Desktop/PSYC5613/hw-subject-3.csv","legacy","Lentiform Loewenfeld","3.3.3","0","h","NA","h","NA","NA","h","886","NA","33392","NA","NA","886","2","legacy","1024","2","48000","-16","experiment","SSHSS","3","odd","NA","127331","3752","NA","NA","37148","NA","NA","126824","3737","NA","128526","128634","129522","128518","128633","Flanker Task","41","31527","44","yes","1024"
"93.3333333333","93.3333333333","715.933333333","715.933333333","black","legacy","legacy","legacy","0","congruent","uniform","1","undefined","1","h","0","44","0","0","0","0","0","0","44","0","44","44","44","44","44","44","09/26/20 13:33:51","1500","The main experiment item","yes","FlankerTask.osexp","C:\Users\Jennifer Wright\Desktop\PSYC5613","no","mono","no","18","no","white","no","yes","768","legacy","44","44","C:/Users/Jennifer Wright/Desktop/PSYC5613/hw-subject-3.csv","legacy","Lentiform Loewenfeld","3.3.3","0","h","NA","h","NA","NA","h","690","NA","33392","NA","NA","690","2","legacy","1024","2","48000","-16","experiment","HHHHH","3","odd","NA","129597","3752","NA","NA","37148","NA","NA","126824","3737","NA","130779","130889","131581","130772","130889","Flanker Task","42","32217","45","yes","1024"
"93.4782608696","93.4782608696","725.826086957","725.826086957","black","legacy","legacy","legacy","0","incongruent","uniform","1","undefined","1","h","0","45","0","0","0","0","0","0","45","0","45","45","45","45","45","45","09/26/20 13:33:51","1500","The main experiment item","yes","FlankerTask.osexp","C:\Users\Jennifer Wright\Desktop\PSYC5613","no","mono","no","18","no","white","no","yes","768","legacy","45","45","C:/Users/Jennifer Wright/Desktop/PSYC5613/hw-subject-3.csv","legacy","Lentiform Loewenfeld","3.3.3","0","h","NA","h","NA","NA","h","1171","NA","33392","NA","NA","1171","2","legacy","1024","2","48000","-16","experiment","SSHSS","3","odd","NA","131656","3752","NA","NA","37148","NA","NA","126824","3737","NA","132854","132960","134134","132846","132960","Flanker Task","43","33388","46","yes","1024"
"93.6170212766","93.6170212766","725.723404255","725.723404255","black","legacy","legacy","legacy","0","incongruent","uniform","1","undefined","1","s","0","46","0","0","0","0","0","0","46","0","46","46","46","46","46","46","09/26/20 13:33:51","1500","The main experiment item","yes","FlankerTask.osexp","C:\Users\Jennifer Wright\Desktop\PSYC5613","no","mono","no","18","no","white","no","yes","768","legacy","46","46","C:/Users/Jennifer Wright/Desktop/PSYC5613/hw-subject-3.csv","legacy","Lentiform Loewenfeld","3.3.3","0","s","NA","h","NA","NA","s","721","NA","33392","NA","NA","721","2","legacy","1024","2","48000","-16","experiment","HHSHH","3","odd","NA","134207","3752","NA","NA","37148","NA","NA","126824","3737","NA","135402","135511","136235","135395","135510","Flanker Task","44","34109","47","yes","1024"
"91.6666666667","91.6666666667","723.5625","723.5625","black","legacy","legacy","legacy","0","congruent","uniform","0","undefined","0","s","0","47","0","0","0","0","0","0","47","0","47","47","47","47","47","47","09/26/20 13:33:51","1500","The main experiment item","yes","FlankerTask.osexp","C:\Users\Jennifer Wright\Desktop\PSYC5613","no","mono","no","18","no","white","no","yes","768","legacy","47","47","C:/Users/Jennifer Wright/Desktop/PSYC5613/hw-subject-3.csv","legacy","Lentiform Loewenfeld","3.3.3","0","h","NA","h","NA","NA","h","622","NA","33392","NA","NA","622","2","legacy","1024","2","48000","-16","experiment","SSSSS","3","odd","NA","136263","3752","NA","NA","37148","NA","NA","126824","3737","NA","137452","137558","138183","137445","137558","Flanker Task","44","34731","48","yes","1024"
"91.8367346939","91.8367346939","734.673469388","734.673469388","black","legacy","legacy","legacy","0","incongruent","uniform","1","undefined","1","h","0","48","0","0","0","0","0","0","48","0","48","48","48","48","48","48","09/26/20 13:33:51","1500","The main experiment item","yes","FlankerTask.osexp","C:\Users\Jennifer Wright\Desktop\PSYC5613","no","mono","no","18","no","white","no","yes","768","legacy","48","48","C:/Users/Jennifer Wright/Desktop/PSYC5613/hw-subject-3.csv","legacy","Lentiform Loewenfeld","3.3.3","0","h","NA","h","NA","NA","h","1268","NA","33392","NA","NA","1268","2","legacy","1024","2","48000","-16","experiment","SSHSS","3","odd","NA","138752","3752","NA","NA","37148","NA","NA","138246","3737","NA","139947","140058","141328","139940","140058","Flanker Task","45","35999","49","yes","1024"
"92","92","736.52","736.52","black","legacy","legacy","legacy","0","incongruent","uniform","1","undefined","1","s","0","49","0","0","0","0","0","0","49","0","49","49","49","49","49","49","09/26/20 13:33:51","1500","The main experiment item","yes","FlankerTask.osexp","C:\Users\Jennifer Wright\Desktop\PSYC5613","no","mono","no","18","no","white","no","yes","768","legacy","49","49","C:/Users/Jennifer Wright/Desktop/PSYC5613/hw-subject-3.csv","legacy","Lentiform Loewenfeld","3.3.3","0","s","NA","h","NA","NA","s","827","NA","33392","NA","NA","827","2","legacy","1024","2","48000","-16","experiment","HHSHH","3","odd","NA","141437","3752","NA","NA","37148","NA","NA","138246","3737","NA","142639","142751","143581","142633","142750","Flanker Task","46","36826","50","yes","1024"
"92.1568627451","92.1568627451","741.078431373","741.078431373","black","legacy","legacy","legacy","0","incongruent","uniform","1","undefined","1","s","0","50","0","0","0","0","0","0","50","0","50","50","50","50","50","50","09/26/20 13:33:51","1500","The main experiment item","yes","FlankerTask.osexp","C:\Users\Jennifer Wright\Desktop\PSYC5613","no","mono","no","18","no","white","no","yes","768","legacy","50","50","C:/Users/Jennifer Wright/Desktop/PSYC5613/hw-subject-3.csv","legacy","Lentiform Loewenfeld","3.3.3","0","s","NA","h","NA","NA","s","969","NA","33392","NA","NA","969","2","legacy","1024","2","48000","-16","experiment","HHSHH","3","odd","NA","143613","3752","NA","NA","37148","NA","NA","138246","3737","NA","144807","144915","145887","144800","144914","Flanker Task","47","37795","51","yes","1024"
"92.3076923077","92.3076923077","744.692307692","744.692307692","black","legacy","legacy","legacy","0","congruent","uniform","1","undefined","1","s","0","51","0","0","0","0","0","0","51","0","51","51","51","51","51","51","09/26/20 13:33:51","1500","The main experiment item","yes","FlankerTask.osexp","C:\Users\Jennifer Wright\Desktop\PSYC5613","no","mono","no","18","no","white","no","yes","768","legacy","51","51","C:/Users/Jennifer Wright/Desktop/PSYC5613/hw-subject-3.csv","legacy","Lentiform Loewenfeld","3.3.3","0","s","NA","h","NA","NA","s","929","NA","33392","NA","NA","929","2","legacy","1024","2","48000","-16","experiment","SSSSS","3","odd","NA","145916","3752","NA","NA","37148","NA","NA","138246","3737","NA","147100","147207","148138","147093","147207","Flanker Task","48","38724","52","yes","1024"
"92.4528301887","92.4528301887","744","744","black","legacy","legacy","legacy","0","congruent","uniform","1","undefined","1","s","0","52","0","0","0","0","0","0","52","0","52","52","52","52","52","52","09/26/20 13:33:51","1500","The main experiment item","yes","FlankerTask.osexp","C:\Users\Jennifer Wright\Desktop\PSYC5613","no","mono","no","18","no","white","no","yes","768","legacy","52","52","C:/Users/Jennifer Wright/Desktop/PSYC5613/hw-subject-3.csv","legacy","Lentiform Loewenfeld","3.3.3","0","s","NA","h","NA","NA","s","708","NA","33392","NA","NA","708","2","legacy","1024","2","48000","-16","experiment","SSSSS","3","odd","NA","148200","3752","NA","NA","37148","NA","NA","138246","3737","NA","149396","149505","150216","149388","149504","Flanker Task","49","39432","53","yes","1024"
"92.5925925926","92.5925925926","746.148148148","746.148148148","black","legacy","legacy","legacy","0","incongruent","uniform","1","undefined","1","s","0","53","0","0","0","0","0","0","53","0","53","53","53","53","53","53","09/26/20 13:33:51","1500","The main experiment item","yes","FlankerTask.osexp","C:\Users\Jennifer Wright\Desktop\PSYC5613","no","mono","no","18","no","white","no","yes","768","legacy","53","53","C:/Users/Jennifer Wright/Desktop/PSYC5613/hw-subject-3.csv","legacy","Lentiform Loewenfeld","3.3.3","0","s","NA","h","NA","NA","s","860","NA","33392","NA","NA","860","2","legacy","1024","2","48000","-16","experiment","HHSHH","3","odd","NA","150281","3752","NA","NA","37148","NA","NA","138246","3737","NA","151463","151574","152437","151456","151573","Flanker Task","50","40292","54","yes","1024"
"92.7272727273","92.7272727273","750.8","750.8","black","legacy","legacy","legacy","0","congruent","uniform","1","undefined","1","h","0","54","0","0","0","0","0","0","54","0","54","54","54","54","54","54","09/26/20 13:33:51","1500","The main experiment item","yes","FlankerTask.osexp","C:\Users\Jennifer Wright\Desktop\PSYC5613","no","mono","no","18","no","white","no","yes","768","legacy","54","54","C:/Users/Jennifer Wright/Desktop/PSYC5613/hw-subject-3.csv","legacy","Lentiform Loewenfeld","3.3.3","0","h","NA","h","NA","NA","h","1002","NA","33392","NA","NA","1002","2","legacy","1024","2","48000","-16","experiment","HHHHH","3","odd","NA","152507","3752","NA","NA","37148","NA","NA","138246","3737","NA","153695","153804","154809","153688","153804","Flanker Task","51","41294","55","yes","1024"
"92.8571428571","92.8571428571","755.857142857","755.857142857","black","legacy","legacy","legacy","0","congruent","uniform","1","undefined","1","s","0","55","0","0","0","0","0","0","55","0","55","55","55","55","55","55","09/26/20 13:33:51","1500","The main experiment item","yes","FlankerTask.osexp","C:\Users\Jennifer Wright\Desktop\PSYC5613","no","mono","no","18","no","white","no","yes","768","legacy","55","55","C:/Users/Jennifer Wright/Desktop/PSYC5613/hw-subject-3.csv","legacy","Lentiform Loewenfeld","3.3.3","0","s","NA","h","NA","NA","s","1034","NA","33392","NA","NA","1034","2","legacy","1024","2","48000","-16","experiment","SSSSS","3","odd","NA","154872","3752","NA","NA","37148","NA","NA","138246","3737","NA","156064","156173","157210","156057","156173","Flanker Task","52","42328","56","yes","1024"
"91.2280701754","91.2280701754","768.912280702","768.912280702","black","legacy","legacy","legacy","0","incongruent","uniform","0","undefined","0","s","0","56","0","0","0","0","0","0","56","0","56","56","56","56","56","56","09/26/20 13:33:51","1500","The main experiment item","yes","FlankerTask.osexp","C:\Users\Jennifer Wright\Desktop\PSYC5613","no","mono","no","18","no","white","no","yes","768","legacy","56","56","C:/Users/Jennifer Wright/Desktop/PSYC5613/hw-subject-3.csv","legacy","Lentiform Loewenfeld","3.3.3","0","None","NA","h","NA","NA","None","1500","NA","33392","NA","NA","1500","2","legacy","1024","2","48000","-16","experiment","HHSHH","3","odd","NA","157276","3752","NA","NA","37148","NA","NA","138246","3737","NA","158465","158571","160073","158457","158571","Flanker Task","52","43828","57","yes","1024"
"91.3793103448","91.3793103448","773.603448276","773.603448276","black","legacy","legacy","legacy","0","congruent","uniform","1","undefined","1","h","0","57","0","0","0","0","0","0","57","0","57","57","57","57","57","57","09/26/20 13:33:51","1500","The main experiment item","yes","FlankerTask.osexp","C:\Users\Jennifer Wright\Desktop\PSYC5613","no","mono","no","18","no","white","no","yes","768","legacy","57","57","C:/Users/Jennifer Wright/Desktop/PSYC5613/hw-subject-3.csv","legacy","Lentiform Loewenfeld","3.3.3","0","h","NA","h","NA","NA","h","1041","NA","33392","NA","NA","1041","2","legacy","1024","2","48000","-16","experiment","HHHHH","3","odd","NA","160656","3752","NA","NA","37148","NA","NA","160149","3737","NA","161854","161959","163003","161848","161959","Flanker Task","53","44869","58","yes","1024"
"91.5254237288","91.5254237288","770.694915254","770.694915254","black","legacy","legacy","legacy","0","congruent","uniform","1","undefined","1","s","0","58","0","0","0","0","0","0","58","0","58","58","58","58","58","58","09/26/20 13:33:51","1500","The main experiment item","yes","FlankerTask.osexp","C:\Users\Jennifer Wright\Desktop\PSYC5613","no","mono","no","18","no","white","no","yes","768","legacy","58","58","C:/Users/Jennifer Wright/Desktop/PSYC5613/hw-subject-3.csv","legacy","Lentiform Loewenfeld","3.3.3","0","s","NA","h","NA","NA","s","602","NA","33392","NA","NA","602","2","legacy","1024","2","48000","-16","experiment","SSSSS","3","odd","NA","163063","3752","NA","NA","37148","NA","NA","160149","3737","NA","164253","164359","164964","164246","164359","Flanker Task","54","45471","59","yes","1024"
"91.6666666667","91.6666666667","777.616666667","777.616666667","black","legacy","legacy","legacy","0","incongruent","uniform","1","undefined","1","h","0","59","0","0","0","0","0","0","59","0","59","59","59","59","59","59","09/26/20 13:33:51","1500","The main experiment item","yes","FlankerTask.osexp","C:\Users\Jennifer Wright\Desktop\PSYC5613","no","mono","no","18","no","white","no","yes","768","legacy","59","59","C:/Users/Jennifer Wright/Desktop/PSYC5613/hw-subject-3.csv","legacy","Lentiform Loewenfeld","3.3.3","0","h","NA","h","NA","NA","h","1186","NA","33392","NA","NA","1186","2","legacy","1024","2","48000","-16","experiment","SSHSS","3","odd","NA","165037","3752","NA","NA","37148","NA","NA","160149","3737","NA","166210","166317","167507","166204","166317","Flanker Task","55","46657","60","yes","1024"
"91.8032786885","91.8032786885","776.163934426","776.163934426","black","legacy","legacy","legacy","0","congruent","uniform","1","undefined","1","s","0","60","0","0","0","0","0","0","60","0","60","60","60","60","60","60","09/26/20 13:33:51","1500","The main experiment item","yes","FlankerTask.osexp","C:\Users\Jennifer Wright\Desktop\PSYC5613","no","mono","no","18","no","white","no","yes","768","legacy","60","60","C:/Users/Jennifer Wright/Desktop/PSYC5613/hw-subject-3.csv","legacy","Lentiform Loewenfeld","3.3.3","0","s","NA","h","NA","NA","s","689","NA","33392","NA","NA","689","2","legacy","1024","2","48000","-16","experiment","SSSSS","3","odd","NA","167610","3752","NA","NA","37148","NA","NA","160149","3737","NA","168796","168902","169594","168789","168902","Flanker Task","56","47346","61","yes","1024"
"91.935483871","91.935483871","775.693548387","775.693548387","black","legacy","legacy","legacy","0","incongruent","uniform","1","undefined","1","s","0","61","0","0","0","0","0","0","61","0","61","61","61","61","61","61","09/26/20 13:33:51","1500","The main experiment item","yes","FlankerTask.osexp","C:\Users\Jennifer Wright\Desktop\PSYC5613","no","mono","no","18","no","white","no","yes","768","legacy","61","61","C:/Users/Jennifer Wright/Desktop/PSYC5613/hw-subject-3.csv","legacy","Lentiform Loewenfeld","3.3.3","0","s","NA","h","NA","NA","s","747","NA","33392","NA","NA","747","2","legacy","1024","2","48000","-16","experiment","HHSHH","3","odd","NA","169664","3752","NA","NA","37148","NA","NA","160149","3737","NA","170854","170963","171713","170847","170962","Flanker Task","57","48093","62","yes","1024"
"92.0634920635","92.0634920635","773.253968254","773.253968254","black","legacy","legacy","legacy","0","incongruent","uniform","1","undefined","1","s","0","62","0","0","0","0","0","0","62","0","62","62","62","62","62","62","09/26/20 13:33:51","1500","The main experiment item","yes","FlankerTask.osexp","C:\Users\Jennifer Wright\Desktop\PSYC5613","no","mono","no","18","no","white","no","yes","768","legacy","62","62","C:/Users/Jennifer Wright/Desktop/PSYC5613/hw-subject-3.csv","legacy","Lentiform Loewenfeld","3.3.3","0","s","NA","h","NA","NA","s","622","NA","33392","NA","NA","622","2","legacy","1024","2","48000","-16","experiment","HHSHH","3","odd","NA","171742","3752","NA","NA","37148","NA","NA","160149","3737","NA","172946","173054","173679","172939","173053","Flanker Task","58","48715","63","yes","1024"
"92.1875","92.1875","772.6875","772.6875","black","legacy","legacy","legacy","0","incongruent","uniform","1","undefined","1","h","0","63","0","0","0","0","0","0","63","0","63","63","63","63","63","63","09/26/20 13:33:51","1500","The main experiment item","yes","FlankerTask.osexp","C:\Users\Jennifer Wright\Desktop\PSYC5613","no","mono","no","18","no","white","no","yes","768","legacy","63","63","C:/Users/Jennifer Wright/Desktop/PSYC5613/hw-subject-3.csv","legacy","Lentiform Loewenfeld","3.3.3","0","h","NA","h","NA","NA","h","737","NA","33392","NA","NA","737","2","legacy","1024","2","48000","-16","experiment","SSHSS","3","odd","NA","173749","3752","NA","NA","37148","NA","NA","160149","3737","NA","174950","175057","175797","174944","175056","Flanker Task","59","49452","64","yes","1024"
"92.3076923077","92.3076923077","770.707692308","770.707692308","black","legacy","legacy","legacy","0","congruent","uniform","1","undefined","1","s","0","64","0","0","0","0","0","0","64","0","64","64","64","64","64","64","09/26/20 13:33:51","1500","The main experiment item","yes","FlankerTask.osexp","C:\Users\Jennifer Wright\Desktop\PSYC5613","no","mono","no","18","no","white","no","yes","768","legacy","64","64","C:/Users/Jennifer Wright/Desktop/PSYC5613/hw-subject-3.csv","legacy","Lentiform Loewenfeld","3.3.3","0","s","NA","h","NA","NA","s","644","NA","33392","NA","NA","644","2","legacy","1024","2","48000","-16","experiment","SSSSS","3","odd","NA","175958","3752","NA","NA","37148","NA","NA","160149","3737","NA","177155","177264","177911","177149","177263","Flanker Task","60","50096","65","yes","1024"
"92.4242424242","92.4242424242","773.893939394","773.893939394","black","legacy","legacy","legacy","0","incongruent","uniform","1","undefined","1","s","0","65","0","0","0","0","0","0","65","0","65","65","65","65","65","65","09/26/20 13:33:51","1500","The main experiment item","yes","FlankerTask.osexp","C:\Users\Jennifer Wright\Desktop\PSYC5613","no","mono","no","18","no","white","no","yes","768","legacy","65","65","C:/Users/Jennifer Wright/Desktop/PSYC5613/hw-subject-3.csv","legacy","Lentiform Loewenfeld","3.3.3","0","s","NA","h","NA","NA","s","981","NA","33392","NA","NA","981","2","legacy","1024","2","48000","-16","experiment","HHSHH","3","odd","NA","177975","3752","NA","NA","37148","NA","NA","160149","3737","NA","179167","179277","180261","179160","179276","Flanker Task","61","51077","66","yes","1024"
"92.5373134328","92.5373134328","771.253731343","771.253731343","black","legacy","legacy","legacy","0","incongruent","uniform","1","undefined","1","h","0","66","0","0","0","0","0","0","66","0","66","66","66","66","66","66","09/26/20 13:33:51","1500","The main experiment item","yes","FlankerTask.osexp","C:\Users\Jennifer Wright\Desktop\PSYC5613","no","mono","no","18","no","white","no","yes","768","legacy","66","66","C:/Users/Jennifer Wright/Desktop/PSYC5613/hw-subject-3.csv","legacy","Lentiform Loewenfeld","3.3.3","0","h","NA","h","NA","NA","h","597","NA","33392","NA","NA","597","2","legacy","1024","2","48000","-16","experiment","SSHSS","3","odd","NA","180330","3752","NA","NA","37148","NA","NA","160149","3737","NA","181519","181625","182225","181511","181625","Flanker Task","62","51674","67","yes","1024"
"92.6470588235","92.6470588235","772.044117647","772.044117647","black","legacy","legacy","legacy","0","congruent","uniform","1","undefined","1","h","0","67","0","0","0","0","0","0","67","0","67","67","67","67","67","67","09/26/20 13:33:51","1500","The main experiment item","yes","FlankerTask.osexp","C:\Users\Jennifer Wright\Desktop\PSYC5613","no","mono","no","18","no","white","no","yes","768","legacy","67","67","C:/Users/Jennifer Wright/Desktop/PSYC5613/hw-subject-3.csv","legacy","Lentiform Loewenfeld","3.3.3","0","h","NA","h","NA","NA","h","825","NA","33392","NA","NA","825","2","legacy","1024","2","48000","-16","experiment","HHHHH","3","odd","NA","182259","3752","NA","NA","37148","NA","NA","160149","3737","NA","183455","183561","184390","183449","183561","Flanker Task","63","52499","68","yes","1024"
"92.7536231884","92.7536231884","773.507246377","773.507246377","black","legacy","legacy","legacy","0","congruent","uniform","1","undefined","1","h","0","68","0","0","0","0","0","0","68","0","68","68","68","68","68","68","09/26/20 13:33:51","1500","The main experiment item","yes","FlankerTask.osexp","C:\Users\Jennifer Wright\Desktop\PSYC5613","no","mono","no","18","no","white","no","yes","768","legacy","68","68","C:/Users/Jennifer Wright/Desktop/PSYC5613/hw-subject-3.csv","legacy","Lentiform Loewenfeld","3.3.3","0","h","NA","h","NA","NA","h","873","NA","33392","NA","NA","873","2","legacy","1024","2","48000","-16","experiment","HHHHH","3","odd","NA","184418","3752","NA","NA","37148","NA","NA","160149","3737","NA","185595","185702","186578","185589","185702","Flanker Task","64","53372","69","yes","1024"
"92.8571428571","92.8571428571","772.785714286","772.785714286","black","legacy","legacy","legacy","0","incongruent","uniform","1","undefined","1","s","0","69","0","0","0","0","0","0","69","0","69","69","69","69","69","69","09/26/20 13:33:51","1500","The main experiment item","yes","FlankerTask.osexp","C:\Users\Jennifer Wright\Desktop\PSYC5613","no","mono","no","18","no","white","no","yes","768","legacy","69","69","C:/Users/Jennifer Wright/Desktop/PSYC5613/hw-subject-3.csv","legacy","Lentiform Loewenfeld","3.3.3","0","s","NA","h","NA","NA","s","723","NA","33392","NA","NA","723","2","legacy","1024","2","48000","-16","experiment","HHSHH","3","odd","NA","186651","3752","NA","NA","37148","NA","NA","160149","3737","NA","187847","187954","188680","187840","187954","Flanker Task","65","54095","70","yes","1024"
"92.9577464789","92.9577464789","771.845070423","771.845070423","black","legacy","legacy","legacy","0","congruent","uniform","1","undefined","1","s","0","70","0","0","0","0","0","0","70","0","70","70","70","70","70","70","09/26/20 13:33:51","1500","The main experiment item","yes","FlankerTask.osexp","C:\Users\Jennifer Wright\Desktop\PSYC5613","no","mono","no","18","no","white","no","yes","768","legacy","70","70","C:/Users/Jennifer Wright/Desktop/PSYC5613/hw-subject-3.csv","legacy","Lentiform Loewenfeld","3.3.3","0","s","NA","h","NA","NA","s","706","NA","33392","NA","NA","706","2","legacy","1024","2","48000","-16","experiment","SSSSS","3","odd","NA","188752","3752","NA","NA","37148","NA","NA","160149","3737","NA","189947","190056","190765","189939","190055","Flanker Task","66","54801","71","yes","1024"
"93.0555555556","93.0555555556","769.041666667","769.041666667","black","legacy","legacy","legacy","0","congruent","uniform","1","undefined","1","h","0","71","0","0","0","0","0","0","71","0","71","71","71","71","71","71","09/26/20 13:33:51","1500","The main experiment item","yes","FlankerTask.osexp","C:\Users\Jennifer Wright\Desktop\PSYC5613","no","mono","no","18","no","white","no","yes","768","legacy","71","71","C:/Users/Jennifer Wright/Desktop/PSYC5613/hw-subject-3.csv","legacy","Lentiform Loewenfeld","3.3.3","0","h","NA","h","NA","NA","h","570","NA","33392","NA","NA","570","2","legacy","1024","2","48000","-16","experiment","HHHHH","3","odd","NA","190842","3752","NA","NA","37148","NA","NA","160149","3737","NA","192037","192143","192716","192030","192143","Flanker Task","67","55371","72","yes","1024"
"93.1506849315","93.1506849315","775.575342466","775.575342466","black","legacy","legacy","legacy","0","incongruent","uniform","1","undefined","1","h","0","72","0","0","0","0","0","0","72","0","72","72","72","72","72","72","09/26/20 13:33:51","1500","The main experiment item","yes","FlankerTask.osexp","C:\Users\Jennifer Wright\Desktop\PSYC5613","no","mono","no","18","no","white","no","yes","768","legacy","72","72","C:/Users/Jennifer Wright/Desktop/PSYC5613/hw-subject-3.csv","legacy","Lentiform Loewenfeld","3.3.3","0","h","NA","h","NA","NA","h","1246","NA","33392","NA","NA","1246","2","legacy","1024","2","48000","-16","experiment","SSHSS","3","odd","NA","192775","3752","NA","NA","37148","NA","NA","160149","3737","NA","193967","194081","195330","193960","194080","Flanker Task","68","56617","73","yes","1024"
"93.2432432432","93.2432432432","773.743243243","773.743243243","black","legacy","legacy","legacy","0","congruent","uniform","1","undefined","1","h","0","73","0","0","0","0","0","0","73","0","73","73","73","73","73","73","09/26/20 13:33:51","1500","The main experiment item","yes","FlankerTask.osexp","C:\Users\Jennifer Wright\Desktop\PSYC5613","no","mono","no","18","no","white","no","yes","768","legacy","73","73","C:/Users/Jennifer Wright/Desktop/PSYC5613/hw-subject-3.csv","legacy","Lentiform Loewenfeld","3.3.3","0","h","NA","h","NA","NA","h","640","NA","33392","NA","NA","640","2","legacy","1024","2","48000","-16","experiment","HHHHH","3","odd","NA","195404","3752","NA","NA","37148","NA","NA","160149","3737","NA","196593","196699","197342","196587","196699","Flanker Task","69","57257","74","yes","1024"
"93.3333333333","93.3333333333","771.373333333","771.373333333","black","legacy","legacy","legacy","0","congruent","uniform","1","undefined","1","h","0","74","0","0","0","0","0","0","74","0","74","74","74","74","74","74","09/26/20 13:33:51","1500","The main experiment item","yes","FlankerTask.osexp","C:\Users\Jennifer Wright\Desktop\PSYC5613","no","mono","no","18","no","white","no","yes","768","legacy","74","74","C:/Users/Jennifer Wright/Desktop/PSYC5613/hw-subject-3.csv","legacy","Lentiform Loewenfeld","3.3.3","0","h","NA","h","NA","NA","h","596","NA","33392","NA","NA","596","2","legacy","1024","2","48000","-16","experiment","HHHHH","3","odd","NA","197417","3752","NA","NA","37148","NA","NA","160149","3737","NA","198606","198711","199310","198599","198711","Flanker Task","70","57853","75","yes","1024"
"93.4210526316","93.4210526316","769.25","769.25","black","legacy","legacy","legacy","0","congruent","uniform","1","undefined","1","s","0","75","0","0","0","0","0","0","75","0","75","75","75","75","75","75","09/26/20 13:33:51","1500","The main experiment item","yes","FlankerTask.osexp","C:\Users\Jennifer Wright\Desktop\PSYC5613","no","mono","no","18","no","white","no","yes","768","legacy","75","75","C:/Users/Jennifer Wright/Desktop/PSYC5613/hw-subject-3.csv","legacy","Lentiform Loewenfeld","3.3.3","0","s","NA","h","NA","NA","s","610","NA","33392","NA","NA","610","2","legacy","1024","2","48000","-16","experiment","SSSSS","3","odd","NA","199376","3752","NA","NA","37148","NA","NA","160149","3737","NA","200580","200687","201301","200572","200686","Flanker Task","71","58463","76","yes","1024"
"93.5064935065","93.5064935065","769.974025974","769.974025974","black","legacy","legacy","legacy","0","incongruent","uniform","1","undefined","1","s","0","76","0","0","0","0","0","0","76","0","76","76","76","76","76","76","09/26/20 13:33:51","1500","The main experiment item","yes","FlankerTask.osexp","C:\Users\Jennifer Wright\Desktop\PSYC5613","no","mono","no","18","no","white","no","yes","768","legacy","76","76","C:/Users/Jennifer Wright/Desktop/PSYC5613/hw-subject-3.csv","legacy","Lentiform Loewenfeld","3.3.3","0","s","NA","h","NA","NA","s","825","NA","33392","NA","NA","825","2","legacy","1024","2","48000","-16","experiment","HHSHH","3","odd","NA","201370","3752","NA","NA","37148","NA","NA","160149","3737","NA","202562","202669","203497","202555","202669","Flanker Task","72","59288","77","yes","1024"
"93.5897435897","93.5897435897","768.923076923","768.923076923","black","legacy","legacy","legacy","0","congruent","uniform","1","undefined","1","s","0","77","0","0","0","0","0","0","77","0","77","77","77","77","77","77","09/26/20 13:33:51","1500","The main experiment item","yes","FlankerTask.osexp","C:\Users\Jennifer Wright\Desktop\PSYC5613","no","mono","no","18","no","white","no","yes","768","legacy","77","77","C:/Users/Jennifer Wright/Desktop/PSYC5613/hw-subject-3.csv","legacy","Lentiform Loewenfeld","3.3.3","0","s","NA","h","NA","NA","s","688","NA","33392","NA","NA","688","2","legacy","1024","2","48000","-16","experiment","SSSSS","3","odd","NA","203572","3752","NA","NA","37148","NA","NA","160149","3737","NA","204760","204872","205564","204753","204872","Flanker Task","73","59976","78","yes","1024"
"93.6708860759","93.6708860759","769.025316456","769.025316456","black","legacy","legacy","legacy","0","congruent","uniform","1","undefined","1","h","0","78","0","0","0","0","0","0","78","0","78","78","78","78","78","78","09/26/20 13:33:51","1500","The main experiment item","yes","FlankerTask.osexp","C:\Users\Jennifer Wright\Desktop\PSYC5613","no","mono","no","18","no","white","no","yes","768","legacy","78","78","C:/Users/Jennifer Wright/Desktop/PSYC5613/hw-subject-3.csv","legacy","Lentiform Loewenfeld","3.3.3","0","h","NA","h","NA","NA","h","777","NA","33392","NA","NA","777","2","legacy","1024","2","48000","-16","experiment","HHHHH","3","odd","NA","205626","3752","NA","NA","37148","NA","NA","160149","3737","NA","206827","206933","207714","206820","206932","Flanker Task","74","60753","79","yes","1024"
"93.75","93.75","768.675","768.675","black","legacy","legacy","legacy","0","incongruent","uniform","1","undefined","1","h","0","79","0","0","0","0","0","0","79","0","79","79","79","79","79","79","09/26/20 13:33:51","1500","The main experiment item","yes","FlankerTask.osexp","C:\Users\Jennifer Wright\Desktop\PSYC5613","no","mono","no","18","no","white","no","yes","768","legacy","79","79","C:/Users/Jennifer Wright/Desktop/PSYC5613/hw-subject-3.csv","legacy","Lentiform Loewenfeld","3.3.3","0","h","NA","h","NA","NA","h","741","NA","33392","NA","NA","741","2","legacy","1024","2","48000","-16","experiment","SSHSS","3","odd","NA","207774","3752","NA","NA","37148","NA","NA","160149","3737","NA","208975","209085","209829","208968","209084","Flanker Task","75","61494","80","yes","1024"
"93.8271604938","93.8271604938","766.679012346","766.679012346","black","legacy","legacy","legacy","0","incongruent","uniform","1","undefined","1","s","0","80","0","0","0","0","0","0","80","0","80","80","80","80","80","80","09/26/20 13:33:51","600","The main experiment item","yes","FlankerTask.osexp","C:\Users\Jennifer Wright\Desktop\PSYC5613","no","mono","no","18","no","white","no","yes","768","legacy","0","79","C:/Users/Jennifer Wright/Desktop/PSYC5613/hw-subject-3.csv","legacy","Lentiform Loewenfeld","3.3.3","0","s","NA","h","h","NA","s","607","NA","33392","21461","NA","607","2","legacy","1024","2","48000","-16","experiment","HHSHH","3","odd","NA","209895","3752","210945","NA","37148","232410","NA","160149","3737","NA","232606","232711","233322","232600","232711","Flanker Task","76","62101","81","yes","1024"
"93.9024390244","93.9024390244","762.37804878","762.37804878","black","legacy","legacy","legacy","0","incongruent","uniform","1","undefined","1","h","0","81","0","0","0","0","0","0","81","0","81","81","81","81","81","81","09/26/20 13:33:51","600","The main experiment item","yes","FlankerTask.osexp","C:\Users\Jennifer Wright\Desktop\PSYC5613","no","mono","no","18","no","white","no","yes","768","legacy","1","79","C:/Users/Jennifer Wright/Desktop/PSYC5613/hw-subject-3.csv","legacy","Lentiform Loewenfeld","3.3.3","0","h","NA","h","h","NA","h","414","NA","33392","21461","NA","414","2","legacy","1024","2","48000","-16","experiment","SSHSS","3","odd","NA","233408","3752","210945","NA","37148","232410","NA","160149","3737","NA","234587","234693","235110","234581","234693","Flanker Task","77","62515","82","yes","1024"
"93.9759036145","93.9759036145","759.662650602","759.662650602","black","legacy","legacy","legacy","0","congruent","uniform","1","undefined","1","h","0","82","0","0","0","0","0","0","82","0","82","82","82","82","82","82","09/26/20 13:33:51","600","The main experiment item","yes","FlankerTask.osexp","C:\Users\Jennifer Wright\Desktop\PSYC5613","no","mono","no","18","no","white","no","yes","768","legacy","2","79","C:/Users/Jennifer Wright/Desktop/PSYC5613/hw-subject-3.csv","legacy","Lentiform Loewenfeld","3.3.3","0","h","NA","h","h","NA","h","537","NA","33392","21461","NA","537","2","legacy","1024","2","48000","-16","experiment","HHHHH","3","odd","NA","235176","3752","210945","NA","37148","232410","NA","160149","3737","NA","236371","236476","237016","236363","236476","Flanker Task","78","63052","83","yes","1024"
"94.0476190476","94.0476190476","757.226190476","757.226190476","black","legacy","legacy","legacy","0","congruent","uniform","1","undefined","1","h","0","83","0","0","0","0","0","0","83","0","83","83","83","83","83","83","09/26/20 13:33:51","600","The main experiment item","yes","FlankerTask.osexp","C:\Users\Jennifer Wright\Desktop\PSYC5613","no","mono","no","18","no","white","no","yes","768","legacy","3","79","C:/Users/Jennifer Wright/Desktop/PSYC5613/hw-subject-3.csv","legacy","Lentiform Loewenfeld","3.3.3","0","h","NA","h","h","NA","h","555","NA","33392","21461","NA","555","2","legacy","1024","2","48000","-16","experiment","HHHHH","3","odd","NA","237081","3752","210945","NA","37148","232410","NA","160149","3737","NA","238265","238373","238931","238258","238373","Flanker Task","79","63607","84","yes","1024"
"94.1176470588","94.1176470588","753.741176471","753.741176471","black","legacy","legacy","legacy","0","congruent","uniform","1","undefined","1","s","0","84","0","0","0","0","0","0","84","0","84","84","84","84","84","84","09/26/20 13:33:51","600","The main experiment item","yes","FlankerTask.osexp","C:\Users\Jennifer Wright\Desktop\PSYC5613","no","mono","no","18","no","white","no","yes","768","legacy","4","79","C:/Users/Jennifer Wright/Desktop/PSYC5613/hw-subject-3.csv","legacy","Lentiform Loewenfeld","3.3.3","0","s","NA","h","h","NA","s","461","NA","33392","21461","NA","461","2","legacy","1024","2","48000","-16","experiment","SSSSS","3","odd","NA","238993","3752","210945","NA","37148","232410","NA","160149","3737","NA","240199","240307","240772","240192","240306","Flanker Task","80","64068","85","yes","1024"
"94.1860465116","94.1860465116","751.453488372","751.453488372","black","legacy","legacy","legacy","0","incongruent","uniform","1","undefined","1","h","0","85","0","0","0","0","0","0","85","0","85","85","85","85","85","85","09/26/20 13:33:51","600","The main experiment item","yes","FlankerTask.osexp","C:\Users\Jennifer Wright\Desktop\PSYC5613","no","mono","no","18","no","white","no","yes","768","legacy","5","79","C:/Users/Jennifer Wright/Desktop/PSYC5613/hw-subject-3.csv","legacy","Lentiform Loewenfeld","3.3.3","0","h","NA","h","h","NA","h","557","NA","33392","21461","NA","557","2","legacy","1024","2","48000","-16","experiment","SSHSS","3","odd","NA","240846","3752","210945","NA","37148","232410","NA","160149","3737","NA","242044","242151","242712","242036","242151","Flanker Task","81","64625","86","yes","1024"
"94.2528735632","94.2528735632","749.402298851","749.402298851","black","legacy","legacy","legacy","0","incongruent","uniform","1","undefined","1","h","0","86","0","0","0","0","0","0","86","0","86","86","86","86","86","86","09/26/20 13:33:51","600","The main experiment item","yes","FlankerTask.osexp","C:\Users\Jennifer Wright\Desktop\PSYC5613","no","mono","no","18","no","white","no","yes","768","legacy","6","79","C:/Users/Jennifer Wright/Desktop/PSYC5613/hw-subject-3.csv","legacy","Lentiform Loewenfeld","3.3.3","0","h","NA","h","h","NA","h","573","NA","33392","21461","NA","573","2","legacy","1024","2","48000","-16","experiment","SSHSS","3","odd","NA","242785","3752","210945","NA","37148","232410","NA","160149","3737","NA","243981","244094","244671","243974","244094","Flanker Task","82","65198","87","yes","1024"
"94.3181818182","94.3181818182","748","748","black","legacy","legacy","legacy","0","incongruent","uniform","1","undefined","1","s","0","87","0","0","0","0","0","0","87","0","87","87","87","87","87","87","09/26/20 13:33:51","600","The main experiment item","yes","FlankerTask.osexp","C:\Users\Jennifer Wright\Desktop\PSYC5613","no","mono","no","18","no","white","no","yes","768","legacy","7","79","C:/Users/Jennifer Wright/Desktop/PSYC5613/hw-subject-3.csv","legacy","Lentiform Loewenfeld","3.3.3","0","s","NA","h","h","NA","s","626","NA","33392","21461","NA","626","2","legacy","1024","2","48000","-16","experiment","HHSHH","3","odd","NA","244704","3752","210945","NA","37148","232410","NA","160149","3737","NA","245881","245988","246618","245875","245988","Flanker Task","83","65824","88","yes","1024"
"94.3820224719","94.3820224719","746.741573034","746.741573034","black","legacy","legacy","legacy","0","incongruent","uniform","1","undefined","1","h","0","88","0","0","0","0","0","0","88","0","88","88","88","88","88","88","09/26/20 13:33:51","600","The main experiment item","yes","FlankerTask.osexp","C:\Users\Jennifer Wright\Desktop\PSYC5613","no","mono","no","18","no","white","no","yes","768","legacy","8","79","C:/Users/Jennifer Wright/Desktop/PSYC5613/hw-subject-3.csv","legacy","Lentiform Loewenfeld","3.3.3","0","h","NA","h","h","NA","h","636","NA","33392","21461","NA","636","2","legacy","1024","2","48000","-16","experiment","SSHSS","3","odd","NA","246694","3752","210945","NA","37148","232410","NA","160149","3737","NA","247881","247987","248627","247874","247987","Flanker Task","84","66460","89","yes","1024"
"94.4444444444","94.4444444444","745.055555556","745.055555556","black","legacy","legacy","legacy","0","incongruent","uniform","1","undefined","1","s","0","89","0","0","0","0","0","0","89","0","89","89","89","89","89","89","09/26/20 13:33:51","600","The main experiment item","yes","FlankerTask.osexp","C:\Users\Jennifer Wright\Desktop\PSYC5613","no","mono","no","18","no","white","no","yes","768","legacy","9","79","C:/Users/Jennifer Wright/Desktop/PSYC5613/hw-subject-3.csv","legacy","Lentiform Loewenfeld","3.3.3","0","s","NA","h","h","NA","s","595","NA","33392","21461","NA","595","2","legacy","1024","2","48000","-16","experiment","HHSHH","3","odd","NA","248689","3752","210945","NA","37148","232410","NA","160149","3737","NA","249880","249986","250584","249873","249986","Flanker Task","85","67055","90","yes","1024"
"94.5054945055","94.5054945055","743.230769231","743.230769231","black","legacy","legacy","legacy","0","congruent","uniform","1","undefined","1","s","0","90","0","0","0","0","0","0","90","0","90","90","90","90","90","90","09/26/20 13:33:51","600","The main experiment item","yes","FlankerTask.osexp","C:\Users\Jennifer Wright\Desktop\PSYC5613","no","mono","no","18","no","white","no","yes","768","legacy","10","79","C:/Users/Jennifer Wright/Desktop/PSYC5613/hw-subject-3.csv","legacy","Lentiform Loewenfeld","3.3.3","0","s","NA","h","h","NA","s","579","NA","33392","21461","NA","579","2","legacy","1024","2","48000","-16","experiment","SSSSS","3","odd","NA","250616","3752","210945","NA","37148","232410","NA","160149","3737","NA","251817","251923","252506","251807","251923","Flanker Task","86","67634","91","yes","1024"
"94.5652173913","94.5652173913","741.293478261","741.293478261","black","legacy","legacy","legacy","0","congruent","uniform","1","undefined","1","s","0","91","0","0","0","0","0","0","91","0","91","91","91","91","91","91","09/26/20 13:33:51","600","The main experiment item","yes","FlankerTask.osexp","C:\Users\Jennifer Wright\Desktop\PSYC5613","no","mono","no","18","no","white","no","yes","768","legacy","11","79","C:/Users/Jennifer Wright/Desktop/PSYC5613/hw-subject-3.csv","legacy","Lentiform Loewenfeld","3.3.3","0","s","NA","h","h","NA","s","565","NA","33392","21461","NA","565","2","legacy","1024","2","48000","-16","experiment","SSSSS","3","odd","NA","252579","3752","210945","NA","37148","232410","NA","160149","3737","NA","253772","253881","254451","253765","253880","Flanker Task","87","68199","92","yes","1024"
"94.623655914","94.623655914","739.849462366","739.849462366","black","legacy","legacy","legacy","0","incongruent","uniform","1","undefined","1","s","0","92","0","0","0","0","0","0","92","0","92","92","92","92","92","92","09/26/20 13:33:51","600","The main experiment item","yes","FlankerTask.osexp","C:\Users\Jennifer Wright\Desktop\PSYC5613","no","mono","no","18","no","white","no","yes","768","legacy","12","79","C:/Users/Jennifer Wright/Desktop/PSYC5613/hw-subject-3.csv","legacy","Lentiform Loewenfeld","3.3.3","0","s","NA","h","h","NA","s","607","NA","33392","21461","NA","607","2","legacy","1024","2","48000","-16","experiment","HHSHH","3","odd","NA","254529","3752","210945","NA","37148","232410","NA","160149","3737","NA","255720","255826","256437","255713","255826","Flanker Task","88","68806","93","yes","1024"
"94.6808510638","94.6808510638","738.925531915","738.925531915","black","legacy","legacy","legacy","0","incongruent","uniform","1","undefined","1","h","0","93","0","0","0","0","0","0","93","0","93","93","93","93","93","93","09/26/20 13:33:51","600","The main experiment item","yes","FlankerTask.osexp","C:\Users\Jennifer Wright\Desktop\PSYC5613","no","mono","no","18","no","white","no","yes","768","legacy","13","79","C:/Users/Jennifer Wright/Desktop/PSYC5613/hw-subject-3.csv","legacy","Lentiform Loewenfeld","3.3.3","0","h","NA","h","h","NA","h","653","NA","33392","21461","NA","653","2","legacy","1024","2","48000","-16","experiment","SSHSS","3","odd","NA","256507","3752","210945","NA","37148","232410","NA","160149","3737","NA","257698","257807","258464","257691","257806","Flanker Task","89","69459","94","yes","1024"
"94.7368421053","94.7368421053","737.463157895","737.463157895","black","legacy","legacy","legacy","0","incongruent","uniform","1","undefined","1","s","0","94","0","0","0","0","0","0","94","0","94","94","94","94","94","94","09/26/20 13:33:51","600","The main experiment item","yes","FlankerTask.osexp","C:\Users\Jennifer Wright\Desktop\PSYC5613","no","mono","no","18","no","white","no","yes","768","legacy","14","79","C:/Users/Jennifer Wright/Desktop/PSYC5613/hw-subject-3.csv","legacy","Lentiform Loewenfeld","3.3.3","0","s","NA","h","h","NA","s","600","NA","33392","21461","NA","600","2","legacy","1024","2","48000","-16","experiment","HHSHH","3","odd","NA","258545","3752","210945","NA","37148","232410","NA","160149","3737","NA","259751","259858","260462","259744","259857","Flanker Task","90","70059","95","yes","1024"
"94.7916666667","94.7916666667","734.760416667","734.760416667","black","legacy","legacy","legacy","0","incongruent","uniform","1","undefined","1","h","0","95","0","0","0","0","0","0","95","0","95","95","95","95","95","95","09/26/20 13:33:51","600","The main experiment item","yes","FlankerTask.osexp","C:\Users\Jennifer Wright\Desktop\PSYC5613","no","mono","no","18","no","white","no","yes","768","legacy","15","79","C:/Users/Jennifer Wright/Desktop/PSYC5613/hw-subject-3.csv","legacy","Lentiform Loewenfeld","3.3.3","0","h","NA","h","h","NA","h","478","NA","33392","21461","NA","478","2","legacy","1024","2","48000","-16","experiment","SSHSS","3","odd","NA","260527","3752","210945","NA","37148","232410","NA","160149","3737","NA","261726","261831","262313","261719","261831","Flanker Task","91","70537","96","yes","1024"
"94.8453608247","94.8453608247","732.742268041","732.742268041","black","legacy","legacy","legacy","0","congruent","uniform","1","undefined","1","h","0","96","0","0","0","0","0","0","96","0","96","96","96","96","96","96","09/26/20 13:33:51","600","The main experiment item","yes","FlankerTask.osexp","C:\Users\Jennifer Wright\Desktop\PSYC5613","no","mono","no","18","no","white","no","yes","768","legacy","16","79","C:/Users/Jennifer Wright/Desktop/PSYC5613/hw-subject-3.csv","legacy","Lentiform Loewenfeld","3.3.3","0","h","NA","h","h","NA","h","539","NA","33392","21461","NA","539","2","legacy","1024","2","48000","-16","experiment","HHHHH","3","odd","NA","262339","3752","210945","NA","37148","232410","NA","160149","3737","NA","263525","263634","264177","263518","263634","Flanker Task","92","71076","97","yes","1024"
"94.8979591837","94.8979591837","731.806122449","731.806122449","black","legacy","legacy","legacy","0","incongruent","uniform","1","undefined","1","s","0","97","0","0","0","0","0","0","97","0","97","97","97","97","97","97","09/26/20 13:33:51","600","The main experiment item","yes","FlankerTask.osexp","C:\Users\Jennifer Wright\Desktop\PSYC5613","no","mono","no","18","no","white","no","yes","768","legacy","17","79","C:/Users/Jennifer Wright/Desktop/PSYC5613/hw-subject-3.csv","legacy","Lentiform Loewenfeld","3.3.3","0","s","NA","h","h","NA","s","641","NA","33392","21461","NA","641","2","legacy","1024","2","48000","-16","experiment","HHSHH","3","odd","NA","264245","3752","210945","NA","37148","232410","NA","160149","3737","NA","265433","265540","266185","265427","265539","Flanker Task","93","71717","98","yes","1024"
"94.9494949495","94.9494949495","733.373737374","733.373737374","black","legacy","legacy","legacy","0","incongruent","uniform","1","undefined","1","h","0","98","0","0","0","0","0","0","98","0","98","98","98","98","98","98","09/26/20 13:33:51","600","The main experiment item","yes","FlankerTask.osexp","C:\Users\Jennifer Wright\Desktop\PSYC5613","no","mono","no","18","no","white","no","yes","768","legacy","18","79","C:/Users/Jennifer Wright/Desktop/PSYC5613/hw-subject-3.csv","legacy","Lentiform Loewenfeld","3.3.3","0","h","NA","h","h","NA","h","887","NA","33392","21461","NA","887","2","legacy","1024","2","48000","-16","experiment","SSHSS","3","odd","NA","266246","3752","210945","NA","37148","232410","NA","160149","3737","NA","267432","267539","268431","267425","267538","Flanker Task","94","72604","99","yes","1024"
"95","95","730.84","730.84","black","legacy","legacy","legacy","0","congruent","uniform","1","undefined","1","s","0","99","0","0","0","0","0","0","99","0","99","99","99","99","99","99","09/26/20 13:33:51","600","The main experiment item","yes","FlankerTask.osexp","C:\Users\Jennifer Wright\Desktop\PSYC5613","no","mono","no","18","no","white","no","yes","768","legacy","19","79","C:/Users/Jennifer Wright/Desktop/PSYC5613/hw-subject-3.csv","legacy","Lentiform Loewenfeld","3.3.3","0","s","NA","h","h","NA","s","480","NA","33392","21461","NA","480","2","legacy","1024","2","48000","-16","experiment","SSSSS","3","odd","NA","268496","3752","210945","NA","37148","232410","NA","160149","3737","NA","269682","269789","270273","269675","269789","Flanker Task","95","73084","100","yes","1024"
"95.0495049505","95.0495049505","730.445544554","730.445544554","black","legacy","legacy","legacy","0","incongruent","uniform","1","undefined","1","h","0","100","0","0","0","0","0","0","100","0","100","100","100","100","100","100","09/26/20 13:33:51","600","The main experiment item","yes","FlankerTask.osexp","C:\Users\Jennifer Wright\Desktop\PSYC5613","no","mono","no","18","no","white","no","yes","768","legacy","20","79","C:/Users/Jennifer Wright/Desktop/PSYC5613/hw-subject-3.csv","legacy","Lentiform Loewenfeld","3.3.3","0","h","NA","h","h","NA","h","691","NA","33392","21461","NA","691","2","legacy","1024","2","48000","-16","experiment","SSHSS","3","odd","NA","270333","3752","210945","NA","37148","232410","NA","160149","3737","NA","271519","271626","272321","271512","271625","Flanker Task","96","73775","101","yes","1024"
"95.0980392157","95.0980392157","732.245098039","732.245098039","black","legacy","legacy","legacy","0","incongruent","uniform","1","undefined","1","s","0","101","0","0","0","0","0","0","101","0","101","101","101","101","101","101","09/26/20 13:33:51","600","The main experiment item","yes","FlankerTask.osexp","C:\Users\Jennifer Wright\Desktop\PSYC5613","no","mono","no","18","no","white","no","yes","768","legacy","21","79","C:/Users/Jennifer Wright/Desktop/PSYC5613/hw-subject-3.csv","legacy","Lentiform Loewenfeld","3.3.3","0","s","NA","h","h","NA","s","914","NA","33392","21461","NA","914","2","legacy","1024","2","48000","-16","experiment","HHSHH","3","odd","NA","272396","3752","210945","NA","37148","232410","NA","160149","3737","NA","273585","273699","274617","273578","273698","Flanker Task","97","74689","102","yes","1024"
"95.145631068","95.145631068","732.368932039","732.368932039","black","legacy","legacy","legacy","0","incongruent","uniform","1","undefined","1","s","0","102","0","0","0","0","0","0","102","0","102","102","102","102","102","102","09/26/20 13:33:51","600","The main experiment item","yes","FlankerTask.osexp","C:\Users\Jennifer Wright\Desktop\PSYC5613","no","mono","no","18","no","white","no","yes","768","legacy","22","79","C:/Users/Jennifer Wright/Desktop/PSYC5613/hw-subject-3.csv","legacy","Lentiform Loewenfeld","3.3.3","0","s","NA","h","h","NA","s","745","NA","33392","21461","NA","745","2","legacy","1024","2","48000","-16","experiment","HHSHH","3","odd","NA","274684","3752","210945","NA","37148","232410","NA","160149","3737","NA","275880","275986","276735","275872","275986","Flanker Task","98","75434","103","yes","1024"
"95.1923076923","95.1923076923","730.903846154","730.903846154","black","legacy","legacy","legacy","0","congruent","uniform","1","undefined","1","h","0","103","0","0","0","0","0","0","103","0","103","103","103","103","103","103","09/26/20 13:33:51","600","The main experiment item","yes","FlankerTask.osexp","C:\Users\Jennifer Wright\Desktop\PSYC5613","no","mono","no","18","no","white","no","yes","768","legacy","23","79","C:/Users/Jennifer Wright/Desktop/PSYC5613/hw-subject-3.csv","legacy","Lentiform Loewenfeld","3.3.3","0","h","NA","h","h","NA","h","580","NA","33392","21461","NA","580","2","legacy","1024","2","48000","-16","experiment","HHHHH","3","odd","NA","276800","3752","210945","NA","37148","232410","NA","160149","3737","NA","277995","278101","278685","277987","278101","Flanker Task","99","76014","104","yes","1024"
"94.2857142857","94.2857142857","727.733333333","727.733333333","black","legacy","legacy","legacy","0","incongruent","uniform","0","undefined","0","h","0","104","0","0","0","0","0","0","104","0","104","104","104","104","104","104","09/26/20 13:33:51","600","The main experiment item","yes","FlankerTask.osexp","C:\Users\Jennifer Wright\Desktop\PSYC5613","no","mono","no","18","no","white","no","yes","768","legacy","24","79","C:/Users/Jennifer Wright/Desktop/PSYC5613/hw-subject-3.csv","legacy","Lentiform Loewenfeld","3.3.3","0","s","NA","h","h","NA","s","398","NA","33392","21461","NA","398","2","legacy","1024","2","48000","-16","experiment","SSHSS","3","odd","NA","278748","3752","210945","NA","37148","232410","NA","160149","3737","NA","279942","280049","280451","279935","280049","Flanker Task","99","76412","105","yes","1024"
"94.3396226415","94.3396226415","725.660377358","725.660377358","black","legacy","legacy","legacy","0","congruent","uniform","1","undefined","1","h","0","105","0","0","0","0","0","0","105","0","105","105","105","105","105","105","09/26/20 13:33:51","600","The main experiment item","yes","FlankerTask.osexp","C:\Users\Jennifer Wright\Desktop\PSYC5613","no","mono","no","18","no","white","no","yes","768","legacy","25","79","C:/Users/Jennifer Wright/Desktop/PSYC5613/hw-subject-3.csv","legacy","Lentiform Loewenfeld","3.3.3","0","h","NA","h","h","NA","h","508","NA","33392","21461","NA","508","2","legacy","1024","2","48000","-16","experiment","HHHHH","3","odd","NA","281024","3752","210945","NA","37148","232410","NA","280517","3737","NA","282220","282326","282838","282213","282326","Flanker Task","100","76920","106","yes","1024"
"94.3925233645","94.3925233645","724.523364486","724.523364486","black","legacy","legacy","legacy","0","incongruent","uniform","1","undefined","1","s","0","106","0","0","0","0","0","0","106","0","106","106","106","106","106","106","09/26/20 13:33:51","600","The main experiment item","yes","FlankerTask.osexp","C:\Users\Jennifer Wright\Desktop\PSYC5613","no","mono","no","18","no","white","no","yes","768","legacy","26","79","C:/Users/Jennifer Wright/Desktop/PSYC5613/hw-subject-3.csv","legacy","Lentiform Loewenfeld","3.3.3","0","s","NA","h","h","NA","s","604","NA","33392","21461","NA","604","2","legacy","1024","2","48000","-16","experiment","HHSHH","3","odd","NA","282910","3752","210945","NA","37148","232410","NA","280517","3737","NA","284100","284206","284815","284092","284206","Flanker Task","101","77524","107","yes","1024"
"94.4444444444","94.4444444444","725.175925926","725.175925926","black","legacy","legacy","legacy","0","incongruent","uniform","1","undefined","1","s","0","107","0","0","0","0","0","0","107","0","107","107","107","107","107","107","09/26/20 13:33:51","600","The main experiment item","yes","FlankerTask.osexp","C:\Users\Jennifer Wright\Desktop\PSYC5613","no","mono","no","18","no","white","no","yes","768","legacy","27","79","C:/Users/Jennifer Wright/Desktop/PSYC5613/hw-subject-3.csv","legacy","Lentiform Loewenfeld","3.3.3","0","s","NA","h","h","NA","s","795","NA","33392","21461","NA","795","2","legacy","1024","2","48000","-16","experiment","HHSHH","3","odd","NA","284877","3752","210945","NA","37148","232410","NA","280517","3737","NA","286066","286173","286972","286059","286173","Flanker Task","102","78319","108","yes","1024"
"94.495412844","94.495412844","723.357798165","723.357798165","black","legacy","legacy","legacy","0","incongruent","uniform","1","undefined","1","s","0","108","0","0","0","0","0","0","108","0","108","108","108","108","108","108","09/26/20 13:33:51","600","The main experiment item","yes","FlankerTask.osexp","C:\Users\Jennifer Wright\Desktop\PSYC5613","no","mono","no","18","no","white","no","yes","768","legacy","28","79","C:/Users/Jennifer Wright/Desktop/PSYC5613/hw-subject-3.csv","legacy","Lentiform Loewenfeld","3.3.3","0","s","NA","h","h","NA","s","527","NA","33392","21461","NA","527","2","legacy","1024","2","48000","-16","experiment","HHSHH","3","odd","NA","287003","3752","210945","NA","37148","232410","NA","280517","3737","NA","288194","288299","288830","288186","288299","Flanker Task","103","78846","109","yes","1024"
"94.5454545455","94.5454545455","721.963636364","721.963636364","black","legacy","legacy","legacy","0","congruent","uniform","1","undefined","1","h","0","109","0","0","0","0","0","0","109","0","109","109","109","109","109","109","09/26/20 13:33:51","600","The main experiment item","yes","FlankerTask.osexp","C:\Users\Jennifer Wright\Desktop\PSYC5613","no","mono","no","18","no","white","no","yes","768","legacy","29","79","C:/Users/Jennifer Wright/Desktop/PSYC5613/hw-subject-3.csv","legacy","Lentiform Loewenfeld","3.3.3","0","h","NA","h","h","NA","h","570","NA","33392","21461","NA","570","2","legacy","1024","2","48000","-16","experiment","HHHHH","3","odd","NA","288862","3752","210945","NA","37148","232410","NA","280517","3737","NA","290046","290153","290728","290039","290152","Flanker Task","104","79416","110","yes","1024"
"94.5945945946","94.5945945946","721.603603604","721.603603604","black","legacy","legacy","legacy","0","congruent","uniform","1","undefined","1","h","0","110","0","0","0","0","0","0","110","0","110","110","110","110","110","110","09/26/20 13:33:51","600","The main experiment item","yes","FlankerTask.osexp","C:\Users\Jennifer Wright\Desktop\PSYC5613","no","mono","no","18","no","white","no","yes","768","legacy","30","79","C:/Users/Jennifer Wright/Desktop/PSYC5613/hw-subject-3.csv","legacy","Lentiform Loewenfeld","3.3.3","0","h","NA","h","h","NA","h","682","NA","33392","21461","NA","682","2","legacy","1024","2","48000","-16","experiment","HHHHH","3","odd","NA","290789","3752","210945","NA","37148","232410","NA","280517","3737","NA","291987","292095","292781","291979","292094","Flanker Task","105","80098","111","yes","1024"
"94.6428571429","94.6428571429","719.9375","719.9375","black","legacy","legacy","legacy","0","congruent","uniform","1","undefined","1","s","0","111","0","0","0","0","0","0","111","0","111","111","111","111","111","111","09/26/20 13:33:51","600","The main experiment item","yes","FlankerTask.osexp","C:\Users\Jennifer Wright\Desktop\PSYC5613","no","mono","no","18","no","white","no","yes","768","legacy","31","79","C:/Users/Jennifer Wright/Desktop/PSYC5613/hw-subject-3.csv","legacy","Lentiform Loewenfeld","3.3.3","0","s","NA","h","h","NA","s","535","NA","33392","21461","NA","535","2","legacy","1024","2","48000","-16","experiment","SSSSS","3","odd","NA","292850","3752","210945","NA","37148","232410","NA","280517","3737","NA","294040","294146","294685","294032","294146","Flanker Task","106","80633","112","yes","1024"
"94.6902654867","94.6902654867","719.442477876","719.442477876","black","legacy","legacy","legacy","0","incongruent","uniform","1","undefined","1","h","0","112","0","0","0","0","0","0","112","0","112","112","112","112","112","112","09/26/20 13:33:51","600","The main experiment item","yes","FlankerTask.osexp","C:\Users\Jennifer Wright\Desktop\PSYC5613","no","mono","no","18","no","white","no","yes","768","legacy","32","79","C:/Users/Jennifer Wright/Desktop/PSYC5613/hw-subject-3.csv","legacy","Lentiform Loewenfeld","3.3.3","0","h","NA","h","h","NA","h","664","NA","33392","21461","NA","664","2","legacy","1024","2","48000","-16","experiment","SSHSS","3","odd","NA","294755","3752","210945","NA","37148","232410","NA","280517","3737","NA","295955","296061","296730","295948","296061","Flanker Task","107","81297","113","yes","1024"
"94.7368421053","94.7368421053","717.780701754","717.780701754","black","legacy","legacy","legacy","0","congruent","uniform","1","undefined","1","s","0","113","0","0","0","0","0","0","113","0","113","113","113","113","113","113","09/26/20 13:33:51","600","The main experiment item","yes","FlankerTask.osexp","C:\Users\Jennifer Wright\Desktop\PSYC5613","no","mono","no","18","no","white","no","yes","768","legacy","33","79","C:/Users/Jennifer Wright/Desktop/PSYC5613/hw-subject-3.csv","legacy","Lentiform Loewenfeld","3.3.3","0","s","NA","h","h","NA","s","530","NA","33392","21461","NA","530","2","legacy","1024","2","48000","-16","experiment","SSSSS","3","odd","NA","296806","3752","210945","NA","37148","232410","NA","280517","3737","NA","298001","298114","298648","297994","298113","Flanker Task","108","81827","114","yes","1024"
"94.7826086957","94.7826086957","716.452173913","716.452173913","black","legacy","legacy","legacy","0","congruent","uniform","1","undefined","1","h","0","114","0","0","0","0","0","0","114","0","114","114","114","114","114","114","09/26/20 13:33:51","600","The main experiment item","yes","FlankerTask.osexp","C:\Users\Jennifer Wright\Desktop\PSYC5613","no","mono","no","18","no","white","no","yes","768","legacy","34","79","C:/Users/Jennifer Wright/Desktop/PSYC5613/hw-subject-3.csv","legacy","Lentiform Loewenfeld","3.3.3","0","h","NA","h","h","NA","h","565","NA","33392","21461","NA","565","2","legacy","1024","2","48000","-16","experiment","HHHHH","3","odd","NA","298724","3752","210945","NA","37148","232410","NA","280517","3737","NA","299911","300019","300588","299904","300018","Flanker Task","109","82392","115","yes","1024"
"94.8275862069","94.8275862069","717.396551724","717.396551724","black","legacy","legacy","legacy","0","congruent","uniform","1","undefined","1","h","0","115","0","0","0","0","0","0","115","0","115","115","115","115","115","115","09/26/20 13:33:51","600","The main experiment item","yes","FlankerTask.osexp","C:\Users\Jennifer Wright\Desktop\PSYC5613","no","mono","no","18","no","white","no","yes","768","legacy","35","79","C:/Users/Jennifer Wright/Desktop/PSYC5613/hw-subject-3.csv","legacy","Lentiform Loewenfeld","3.3.3","0","h","NA","h","h","NA","h","826","NA","33392","21461","NA","826","2","legacy","1024","2","48000","-16","experiment","HHHHH","3","odd","NA","300655","3752","210945","NA","37148","232410","NA","280517","3737","NA","301840","301946","302776","301833","301946","Flanker Task","110","83218","116","yes","1024"
"94.8717948718","94.8717948718","718.384615385","718.384615385","black","legacy","legacy","legacy","0","congruent","uniform","1","undefined","1","s","0","116","0","0","0","0","0","0","116","0","116","116","116","116","116","116","09/26/20 13:33:51","600","The main experiment item","yes","FlankerTask.osexp","C:\Users\Jennifer Wright\Desktop\PSYC5613","no","mono","no","18","no","white","no","yes","768","legacy","36","79","C:/Users/Jennifer Wright/Desktop/PSYC5613/hw-subject-3.csv","legacy","Lentiform Loewenfeld","3.3.3","0","s","NA","h","h","NA","s","833","NA","33392","21461","NA","833","2","legacy","1024","2","48000","-16","experiment","SSSSS","3","odd","NA","302811","3752","210945","NA","37148","232410","NA","280517","3737","NA","303999","304105","304943","303992","304104","Flanker Task","111","84051","117","yes","1024"
"94.9152542373","94.9152542373","717.711864407","717.711864407","black","legacy","legacy","legacy","0","congruent","uniform","1","undefined","1","s","0","117","0","0","0","0","0","0","117","0","117","117","117","117","117","117","09/26/20 13:33:51","600","The main experiment item","yes","FlankerTask.osexp","C:\Users\Jennifer Wright\Desktop\PSYC5613","no","mono","no","18","no","white","no","yes","768","legacy","37","79","C:/Users/Jennifer Wright/Desktop/PSYC5613/hw-subject-3.csv","legacy","Lentiform Loewenfeld","3.3.3","0","s","NA","h","h","NA","s","639","NA","33392","21461","NA","639","2","legacy","1024","2","48000","-16","experiment","SSSSS","3","odd","NA","305013","3752","210945","NA","37148","232410","NA","280517","3737","NA","306199","306304","306947","306191","306304","Flanker Task","112","84690","118","yes","1024"
"94.9579831933","94.9579831933","716.714285714","716.714285714","black","legacy","legacy","legacy","0","congruent","uniform","1","undefined","1","h","0","118","0","0","0","0","0","0","118","0","118","118","118","118","118","118","09/26/20 13:33:51","600","The main experiment item","yes","FlankerTask.osexp","C:\Users\Jennifer Wright\Desktop\PSYC5613","no","mono","no","18","no","white","no","yes","768","legacy","38","79","C:/Users/Jennifer Wright/Desktop/PSYC5613/hw-subject-3.csv","legacy","Lentiform Loewenfeld","3.3.3","0","h","NA","h","h","NA","h","599","NA","33392","21461","NA","599","2","legacy","1024","2","48000","-16","experiment","HHHHH","3","odd","NA","307024","3752","210945","NA","37148","232410","NA","280517","3737","NA","308215","308323","308926","308208","308323","Flanker Task","113","85289","119","yes","1024"
"95","95","715.391666667","715.391666667","black","legacy","legacy","legacy","0","incongruent","uniform","1","undefined","1","s","0","119","0","0","0","0","0","0","119","0","119","119","119","119","119","119","09/26/20 13:33:51","600","The main experiment item","yes","FlankerTask.osexp","C:\Users\Jennifer Wright\Desktop\PSYC5613","no","mono","no","18","no","white","no","yes","768","legacy","39","79","C:/Users/Jennifer Wright/Desktop/PSYC5613/hw-subject-3.csv","legacy","Lentiform Loewenfeld","3.3.3","0","s","NA","h","h","NA","s","558","NA","33392","21461","NA","558","2","legacy","1024","2","48000","-16","experiment","HHSHH","3","odd","NA","308990","3752","210945","NA","37148","232410","NA","280517","3737","NA","310169","310277","310840","310162","310277","Flanker Task","114","85847","120","yes","1024"
"95.041322314","95.041322314","715.380165289","715.380165289","black","legacy","legacy","legacy","0","congruent","uniform","1","undefined","1","s","0","120","0","0","0","0","0","0","120","0","120","120","120","120","120","120","09/26/20 13:33:51","600","The main experiment item","yes","FlankerTask.osexp","C:\Users\Jennifer Wright\Desktop\PSYC5613","no","mono","no","18","no","white","no","yes","768","legacy","40","79","C:/Users/Jennifer Wright/Desktop/PSYC5613/hw-subject-3.csv","legacy","Lentiform Loewenfeld","3.3.3","0","s","NA","h","h","NA","s","714","NA","33392","21461","NA","714","2","legacy","1024","2","48000","-16","experiment","SSSSS","3","odd","NA","310921","3752","210945","NA","37148","232410","NA","280517","3737","NA","312101","312207","312926","312094","312207","Flanker Task","115","86561","121","yes","1024"
